"success","timeout","failed_images","failed_audio","failed_video","trial_type","trial_index","time_elapsed","internal_node_id","subject","subject_id","study_id","session_id","urlvar","current_url","audio_id","view_history","rt","device_id","stimulus","response","estimated_stimulus_onset","seq_name"
"true","false","[]","[]","[]","preload","0","62181","0.0-0.0","BAAC0CCE6B4D47CE844F96F763BCAF48","BAAC0CCE6B4D47CE844F96F763BCAF48","9f978020-69a5-41d9-bd83-31f762d5e1b7","ba640c14-69c5-453e-80b2-29051492c0e0","{""num_scrambled_semantic"":""8"",""num_scrambled_causal"":""4"",""num_scrambled_schematic"":""4"",""participantId"":""BAAC0CCE6B4D47CE844F96F763BCAF48"",""assignmentId"":""9f978020-69a5-41d9-bd83-31f762d5e1b7"",""projectId"":""ba640c14-69c5-453e-80b2-29051492c0e0""}","https://test12345.live/?num_scrambled_semantic=8&num_scrambled_causal=4&num_scrambled_schematic=4&participantId=BAAC0CCE6B4D47CE844F96F763BCAF48&assignmentId=9f978020-69a5-41d9-bd83-31f762d5e1b7&projectId=ba640c14-69c5-453e-80b2-29051492c0e0","BAAC0CCE6B4D47CE844F96F763BCAF48-2025-05-14-20-41-12","","","","","","",""
"","","","","","instructions","1","82540","0.0-1.0","BAAC0CCE6B4D47CE844F96F763BCAF48","BAAC0CCE6B4D47CE844F96F763BCAF48","9f978020-69a5-41d9-bd83-31f762d5e1b7","ba640c14-69c5-453e-80b2-29051492c0e0","{""num_scrambled_semantic"":""8"",""num_scrambled_causal"":""4"",""num_scrambled_schematic"":""4"",""participantId"":""BAAC0CCE6B4D47CE844F96F763BCAF48"",""assignmentId"":""9f978020-69a5-41d9-bd83-31f762d5e1b7"",""projectId"":""ba640c14-69c5-453e-80b2-29051492c0e0""}","https://test12345.live/?num_scrambled_semantic=8&num_scrambled_causal=4&num_scrambled_schematic=4&participantId=BAAC0CCE6B4D47CE844F96F763BCAF48&assignmentId=9f978020-69a5-41d9-bd83-31f762d5e1b7&projectId=ba640c14-69c5-453e-80b2-29051492c0e0","BAAC0CCE6B4D47CE844F96F763BCAF48-2025-05-14-20-41-12","[{""page_index"":0,""viewing_time"":20356}]","20357","","","","",""
"","","","","","instructions","2","119571","0.0-2.0","BAAC0CCE6B4D47CE844F96F763BCAF48","BAAC0CCE6B4D47CE844F96F763BCAF48","9f978020-69a5-41d9-bd83-31f762d5e1b7","ba640c14-69c5-453e-80b2-29051492c0e0","{""num_scrambled_semantic"":""8"",""num_scrambled_causal"":""4"",""num_scrambled_schematic"":""4"",""participantId"":""BAAC0CCE6B4D47CE844F96F763BCAF48"",""assignmentId"":""9f978020-69a5-41d9-bd83-31f762d5e1b7"",""projectId"":""ba640c14-69c5-453e-80b2-29051492c0e0""}","https://test12345.live/?num_scrambled_semantic=8&num_scrambled_causal=4&num_scrambled_schematic=4&participantId=BAAC0CCE6B4D47CE844F96F763BCAF48&assignmentId=9f978020-69a5-41d9-bd83-31f762d5e1b7&projectId=ba640c14-69c5-453e-80b2-29051492c0e0","BAAC0CCE6B4D47CE844F96F763BCAF48-2025-05-14-20-41-12","[{""page_index"":0,""viewing_time"":37030}]","37030","","","","",""
"true","","","","","fullscreen","3","122738","0.0-3.0","BAAC0CCE6B4D47CE844F96F763BCAF48","BAAC0CCE6B4D47CE844F96F763BCAF48","9f978020-69a5-41d9-bd83-31f762d5e1b7","ba640c14-69c5-453e-80b2-29051492c0e0","{""num_scrambled_semantic"":""8"",""num_scrambled_causal"":""4"",""num_scrambled_schematic"":""4"",""participantId"":""BAAC0CCE6B4D47CE844F96F763BCAF48"",""assignmentId"":""9f978020-69a5-41d9-bd83-31f762d5e1b7"",""projectId"":""ba640c14-69c5-453e-80b2-29051492c0e0""}","https://test12345.live/?num_scrambled_semantic=8&num_scrambled_causal=4&num_scrambled_schematic=4&participantId=BAAC0CCE6B4D47CE844F96F763BCAF48&assignmentId=9f978020-69a5-41d9-bd83-31f762d5e1b7&projectId=ba640c14-69c5-453e-80b2-29051492c0e0","BAAC0CCE6B4D47CE844F96F763BCAF48-2025-05-14-20-41-12","","2158","","","","",""
"","","","","","initialize-microphone","4","133740","0.0-4.0-0.0","BAAC0CCE6B4D47CE844F96F763BCAF48","BAAC0CCE6B4D47CE844F96F763BCAF48","9f978020-69a5-41d9-bd83-31f762d5e1b7","ba640c14-69c5-453e-80b2-29051492c0e0","{""num_scrambled_semantic"":""8"",""num_scrambled_causal"":""4"",""num_scrambled_schematic"":""4"",""participantId"":""BAAC0CCE6B4D47CE844F96F763BCAF48"",""assignmentId"":""9f978020-69a5-41d9-bd83-31f762d5e1b7"",""projectId"":""ba640c14-69c5-453e-80b2-29051492c0e0""}","https://test12345.live/?num_scrambled_semantic=8&num_scrambled_causal=4&num_scrambled_schematic=4&participantId=BAAC0CCE6B4D47CE844F96F763BCAF48&assignmentId=9f978020-69a5-41d9-bd83-31f762d5e1b7&projectId=ba640c14-69c5-453e-80b2-29051492c0e0","BAAC0CCE6B4D47CE844F96F763BCAF48-2025-05-14-20-41-12","","","6f3cd437a44b4e1b5fc04b4624a059508e0a6698df4c3fdf85fe674376a241b2","","","",""
"","","","","","html-audio-response","5","185964","0.0-4.0-1.0","BAAC0CCE6B4D47CE844F96F763BCAF48","BAAC0CCE6B4D47CE844F96F763BCAF48","9f978020-69a5-41d9-bd83-31f762d5e1b7","ba640c14-69c5-453e-80b2-29051492c0e0","{""num_scrambled_semantic"":""8"",""num_scrambled_causal"":""4"",""num_scrambled_schematic"":""4"",""participantId"":""BAAC0CCE6B4D47CE844F96F763BCAF48"",""assignmentId"":""9f978020-69a5-41d9-bd83-31f762d5e1b7"",""projectId"":""ba640c14-69c5-453e-80b2-29051492c0e0""}","https://test12345.live/?num_scrambled_semantic=8&num_scrambled_causal=4&num_scrambled_schematic=4&participantId=BAAC0CCE6B4D47CE844F96F763BCAF48&assignmentId=9f978020-69a5-41d9-bd83-31f762d5e1b7&projectId=ba640c14-69c5-453e-80b2-29051492c0e0","BAAC0CCE6B4D47CE844F96F763BCAF48-2025-05-14-20-41-12","","1296","","<span style=""color: red; font-size: 24px""> NOW RECORDING</span>
        <p>Please test Microphone</p>","","10",""
"","","","","","html-button-response","6","188252","0.0-4.0-2.0","BAAC0CCE6B4D47CE844F96F763BCAF48","BAAC0CCE6B4D47CE844F96F763BCAF48","9f978020-69a5-41d9-bd83-31f762d5e1b7","ba640c14-69c5-453e-80b2-29051492c0e0","{""num_scrambled_semantic"":""8"",""num_scrambled_causal"":""4"",""num_scrambled_schematic"":""4"",""participantId"":""BAAC0CCE6B4D47CE844F96F763BCAF48"",""assignmentId"":""9f978020-69a5-41d9-bd83-31f762d5e1b7"",""projectId"":""ba640c14-69c5-453e-80b2-29051492c0e0""}","https://test12345.live/?num_scrambled_semantic=8&num_scrambled_causal=4&num_scrambled_schematic=4&participantId=BAAC0CCE6B4D47CE844F96F763BCAF48&assignmentId=9f978020-69a5-41d9-bd83-31f762d5e1b7&projectId=ba640c14-69c5-453e-80b2-29051492c0e0","BAAC0CCE6B4D47CE844F96F763BCAF48-2025-05-14-20-41-12","","2285","","<p style=""font-size:48px; color:red;"">Is Microphone OK?</p>","1","",""
"","","","","","instructions","7","196620","0.0-5.0","BAAC0CCE6B4D47CE844F96F763BCAF48","BAAC0CCE6B4D47CE844F96F763BCAF48","9f978020-69a5-41d9-bd83-31f762d5e1b7","ba640c14-69c5-453e-80b2-29051492c0e0","{""num_scrambled_semantic"":""8"",""num_scrambled_causal"":""4"",""num_scrambled_schematic"":""4"",""participantId"":""BAAC0CCE6B4D47CE844F96F763BCAF48"",""assignmentId"":""9f978020-69a5-41d9-bd83-31f762d5e1b7"",""projectId"":""ba640c14-69c5-453e-80b2-29051492c0e0""}","https://test12345.live/?num_scrambled_semantic=8&num_scrambled_causal=4&num_scrambled_schematic=4&participantId=BAAC0CCE6B4D47CE844F96F763BCAF48&assignmentId=9f978020-69a5-41d9-bd83-31f762d5e1b7&projectId=ba640c14-69c5-453e-80b2-29051492c0e0","BAAC0CCE6B4D47CE844F96F763BCAF48-2025-05-14-20-41-12","[{""page_index"":0,""viewing_time"":2238},{""page_index"":1,""viewing_time"":6129}]","8368","","","","",""
"","","","","","image-button-response","8","202632","0.0-6.0-0.0","BAAC0CCE6B4D47CE844F96F763BCAF48","BAAC0CCE6B4D47CE844F96F763BCAF48","9f978020-69a5-41d9-bd83-31f762d5e1b7","ba640c14-69c5-453e-80b2-29051492c0e0","{""num_scrambled_semantic"":""8"",""num_scrambled_causal"":""4"",""num_scrambled_schematic"":""4"",""participantId"":""BAAC0CCE6B4D47CE844F96F763BCAF48"",""assignmentId"":""9f978020-69a5-41d9-bd83-31f762d5e1b7"",""projectId"":""ba640c14-69c5-453e-80b2-29051492c0e0""}","https://test12345.live/?num_scrambled_semantic=8&num_scrambled_causal=4&num_scrambled_schematic=4&participantId=BAAC0CCE6B4D47CE844F96F763BCAF48&assignmentId=9f978020-69a5-41d9-bd83-31f762d5e1b7&projectId=ba640c14-69c5-453e-80b2-29051492c0e0","BAAC0CCE6B4D47CE844F96F763BCAF48-2025-05-14-20-41-12","","null","","images/instructions/movie_0.png","null","",""
"","","","","","image-button-response","9","207148","0.0-6.0-1.0-0.0","BAAC0CCE6B4D47CE844F96F763BCAF48","BAAC0CCE6B4D47CE844F96F763BCAF48","9f978020-69a5-41d9-bd83-31f762d5e1b7","ba640c14-69c5-453e-80b2-29051492c0e0","{""num_scrambled_semantic"":""8"",""num_scrambled_causal"":""4"",""num_scrambled_schematic"":""4"",""participantId"":""BAAC0CCE6B4D47CE844F96F763BCAF48"",""assignmentId"":""9f978020-69a5-41d9-bd83-31f762d5e1b7"",""projectId"":""ba640c14-69c5-453e-80b2-29051492c0e0""}","https://test12345.live/?num_scrambled_semantic=8&num_scrambled_causal=4&num_scrambled_schematic=4&participantId=BAAC0CCE6B4D47CE844F96F763BCAF48&assignmentId=9f978020-69a5-41d9-bd83-31f762d5e1b7&projectId=ba640c14-69c5-453e-80b2-29051492c0e0","BAAC0CCE6B4D47CE844F96F763BCAF48-2025-05-14-20-41-12","","null","","images/instructions/movie_1.png","null","",""
"","","","","","image-button-response","10","211160","0.0-6.0-1.0-1.0","BAAC0CCE6B4D47CE844F96F763BCAF48","BAAC0CCE6B4D47CE844F96F763BCAF48","9f978020-69a5-41d9-bd83-31f762d5e1b7","ba640c14-69c5-453e-80b2-29051492c0e0","{""num_scrambled_semantic"":""8"",""num_scrambled_causal"":""4"",""num_scrambled_schematic"":""4"",""participantId"":""BAAC0CCE6B4D47CE844F96F763BCAF48"",""assignmentId"":""9f978020-69a5-41d9-bd83-31f762d5e1b7"",""projectId"":""ba640c14-69c5-453e-80b2-29051492c0e0""}","https://test12345.live/?num_scrambled_semantic=8&num_scrambled_causal=4&num_scrambled_schematic=4&participantId=BAAC0CCE6B4D47CE844F96F763BCAF48&assignmentId=9f978020-69a5-41d9-bd83-31f762d5e1b7&projectId=ba640c14-69c5-453e-80b2-29051492c0e0","BAAC0CCE6B4D47CE844F96F763BCAF48-2025-05-14-20-41-12","","null","","images/instructions/movie_1.png","null","",""
"","","","","","image-button-response","11","212962","0.0-6.0-1.0-2.0","BAAC0CCE6B4D47CE844F96F763BCAF48","BAAC0CCE6B4D47CE844F96F763BCAF48","9f978020-69a5-41d9-bd83-31f762d5e1b7","ba640c14-69c5-453e-80b2-29051492c0e0","{""num_scrambled_semantic"":""8"",""num_scrambled_causal"":""4"",""num_scrambled_schematic"":""4"",""participantId"":""BAAC0CCE6B4D47CE844F96F763BCAF48"",""assignmentId"":""9f978020-69a5-41d9-bd83-31f762d5e1b7"",""projectId"":""ba640c14-69c5-453e-80b2-29051492c0e0""}","https://test12345.live/?num_scrambled_semantic=8&num_scrambled_causal=4&num_scrambled_schematic=4&participantId=BAAC0CCE6B4D47CE844F96F763BCAF48&assignmentId=9f978020-69a5-41d9-bd83-31f762d5e1b7&projectId=ba640c14-69c5-453e-80b2-29051492c0e0","BAAC0CCE6B4D47CE844F96F763BCAF48-2025-05-14-20-41-12","","null","","[]","null","",""
"","","","","","image-button-response","12","217476","0.0-6.0-1.0-0.1","BAAC0CCE6B4D47CE844F96F763BCAF48","BAAC0CCE6B4D47CE844F96F763BCAF48","9f978020-69a5-41d9-bd83-31f762d5e1b7","ba640c14-69c5-453e-80b2-29051492c0e0","{""num_scrambled_semantic"":""8"",""num_scrambled_causal"":""4"",""num_scrambled_schematic"":""4"",""participantId"":""BAAC0CCE6B4D47CE844F96F763BCAF48"",""assignmentId"":""9f978020-69a5-41d9-bd83-31f762d5e1b7"",""projectId"":""ba640c14-69c5-453e-80b2-29051492c0e0""}","https://test12345.live/?num_scrambled_semantic=8&num_scrambled_causal=4&num_scrambled_schematic=4&participantId=BAAC0CCE6B4D47CE844F96F763BCAF48&assignmentId=9f978020-69a5-41d9-bd83-31f762d5e1b7&projectId=ba640c14-69c5-453e-80b2-29051492c0e0","BAAC0CCE6B4D47CE844F96F763BCAF48-2025-05-14-20-41-12","","null","","images/instructions/movie_2.png","null","",""
"","","","","","image-button-response","13","219996","0.0-6.0-1.0-1.1","BAAC0CCE6B4D47CE844F96F763BCAF48","BAAC0CCE6B4D47CE844F96F763BCAF48","9f978020-69a5-41d9-bd83-31f762d5e1b7","ba640c14-69c5-453e-80b2-29051492c0e0","{""num_scrambled_semantic"":""8"",""num_scrambled_causal"":""4"",""num_scrambled_schematic"":""4"",""participantId"":""BAAC0CCE6B4D47CE844F96F763BCAF48"",""assignmentId"":""9f978020-69a5-41d9-bd83-31f762d5e1b7"",""projectId"":""ba640c14-69c5-453e-80b2-29051492c0e0""}","https://test12345.live/?num_scrambled_semantic=8&num_scrambled_causal=4&num_scrambled_schematic=4&participantId=BAAC0CCE6B4D47CE844F96F763BCAF48&assignmentId=9f978020-69a5-41d9-bd83-31f762d5e1b7&projectId=ba640c14-69c5-453e-80b2-29051492c0e0","BAAC0CCE6B4D47CE844F96F763BCAF48-2025-05-14-20-41-12","","2517","","images/instructions/movie_2.png","1","",""
"","","","","","image-button-response","14","221811","0.0-6.0-1.0-2.1","BAAC0CCE6B4D47CE844F96F763BCAF48","BAAC0CCE6B4D47CE844F96F763BCAF48","9f978020-69a5-41d9-bd83-31f762d5e1b7","ba640c14-69c5-453e-80b2-29051492c0e0","{""num_scrambled_semantic"":""8"",""num_scrambled_causal"":""4"",""num_scrambled_schematic"":""4"",""participantId"":""BAAC0CCE6B4D47CE844F96F763BCAF48"",""assignmentId"":""9f978020-69a5-41d9-bd83-31f762d5e1b7"",""projectId"":""ba640c14-69c5-453e-80b2-29051492c0e0""}","https://test12345.live/?num_scrambled_semantic=8&num_scrambled_causal=4&num_scrambled_schematic=4&participantId=BAAC0CCE6B4D47CE844F96F763BCAF48&assignmentId=9f978020-69a5-41d9-bd83-31f762d5e1b7&projectId=ba640c14-69c5-453e-80b2-29051492c0e0","BAAC0CCE6B4D47CE844F96F763BCAF48-2025-05-14-20-41-12","","null","","[]","null","",""
"","","","","","image-button-response","15","226313","0.0-6.0-1.0-0.2","BAAC0CCE6B4D47CE844F96F763BCAF48","BAAC0CCE6B4D47CE844F96F763BCAF48","9f978020-69a5-41d9-bd83-31f762d5e1b7","ba640c14-69c5-453e-80b2-29051492c0e0","{""num_scrambled_semantic"":""8"",""num_scrambled_causal"":""4"",""num_scrambled_schematic"":""4"",""participantId"":""BAAC0CCE6B4D47CE844F96F763BCAF48"",""assignmentId"":""9f978020-69a5-41d9-bd83-31f762d5e1b7"",""projectId"":""ba640c14-69c5-453e-80b2-29051492c0e0""}","https://test12345.live/?num_scrambled_semantic=8&num_scrambled_causal=4&num_scrambled_schematic=4&participantId=BAAC0CCE6B4D47CE844F96F763BCAF48&assignmentId=9f978020-69a5-41d9-bd83-31f762d5e1b7&projectId=ba640c14-69c5-453e-80b2-29051492c0e0","BAAC0CCE6B4D47CE844F96F763BCAF48-2025-05-14-20-41-12","","null","","images/instructions/movie_3.png","null","",""
"","","","","","image-button-response","16","227092","0.0-6.0-1.0-1.2","BAAC0CCE6B4D47CE844F96F763BCAF48","BAAC0CCE6B4D47CE844F96F763BCAF48","9f978020-69a5-41d9-bd83-31f762d5e1b7","ba640c14-69c5-453e-80b2-29051492c0e0","{""num_scrambled_semantic"":""8"",""num_scrambled_causal"":""4"",""num_scrambled_schematic"":""4"",""participantId"":""BAAC0CCE6B4D47CE844F96F763BCAF48"",""assignmentId"":""9f978020-69a5-41d9-bd83-31f762d5e1b7"",""projectId"":""ba640c14-69c5-453e-80b2-29051492c0e0""}","https://test12345.live/?num_scrambled_semantic=8&num_scrambled_causal=4&num_scrambled_schematic=4&participantId=BAAC0CCE6B4D47CE844F96F763BCAF48&assignmentId=9f978020-69a5-41d9-bd83-31f762d5e1b7&projectId=ba640c14-69c5-453e-80b2-29051492c0e0","BAAC0CCE6B4D47CE844F96F763BCAF48-2025-05-14-20-41-12","","777","","images/instructions/movie_3.png","0","",""
"","","","","","image-button-response","17","228895","0.0-6.0-1.0-2.2","BAAC0CCE6B4D47CE844F96F763BCAF48","BAAC0CCE6B4D47CE844F96F763BCAF48","9f978020-69a5-41d9-bd83-31f762d5e1b7","ba640c14-69c5-453e-80b2-29051492c0e0","{""num_scrambled_semantic"":""8"",""num_scrambled_causal"":""4"",""num_scrambled_schematic"":""4"",""participantId"":""BAAC0CCE6B4D47CE844F96F763BCAF48"",""assignmentId"":""9f978020-69a5-41d9-bd83-31f762d5e1b7"",""projectId"":""ba640c14-69c5-453e-80b2-29051492c0e0""}","https://test12345.live/?num_scrambled_semantic=8&num_scrambled_causal=4&num_scrambled_schematic=4&participantId=BAAC0CCE6B4D47CE844F96F763BCAF48&assignmentId=9f978020-69a5-41d9-bd83-31f762d5e1b7&projectId=ba640c14-69c5-453e-80b2-29051492c0e0","BAAC0CCE6B4D47CE844F96F763BCAF48-2025-05-14-20-41-12","","null","","[]","null","",""
"","","","","","image-button-response","18","233410","0.0-6.0-1.0-0.3","BAAC0CCE6B4D47CE844F96F763BCAF48","BAAC0CCE6B4D47CE844F96F763BCAF48","9f978020-69a5-41d9-bd83-31f762d5e1b7","ba640c14-69c5-453e-80b2-29051492c0e0","{""num_scrambled_semantic"":""8"",""num_scrambled_causal"":""4"",""num_scrambled_schematic"":""4"",""participantId"":""BAAC0CCE6B4D47CE844F96F763BCAF48"",""assignmentId"":""9f978020-69a5-41d9-bd83-31f762d5e1b7"",""projectId"":""ba640c14-69c5-453e-80b2-29051492c0e0""}","https://test12345.live/?num_scrambled_semantic=8&num_scrambled_causal=4&num_scrambled_schematic=4&participantId=BAAC0CCE6B4D47CE844F96F763BCAF48&assignmentId=9f978020-69a5-41d9-bd83-31f762d5e1b7&projectId=ba640c14-69c5-453e-80b2-29051492c0e0","BAAC0CCE6B4D47CE844F96F763BCAF48-2025-05-14-20-41-12","","null","","images/instructions/movie_4.png","null","",""
"","","","","","image-button-response","19","234100","0.0-6.0-1.0-1.3","BAAC0CCE6B4D47CE844F96F763BCAF48","BAAC0CCE6B4D47CE844F96F763BCAF48","9f978020-69a5-41d9-bd83-31f762d5e1b7","ba640c14-69c5-453e-80b2-29051492c0e0","{""num_scrambled_semantic"":""8"",""num_scrambled_causal"":""4"",""num_scrambled_schematic"":""4"",""participantId"":""BAAC0CCE6B4D47CE844F96F763BCAF48"",""assignmentId"":""9f978020-69a5-41d9-bd83-31f762d5e1b7"",""projectId"":""ba640c14-69c5-453e-80b2-29051492c0e0""}","https://test12345.live/?num_scrambled_semantic=8&num_scrambled_causal=4&num_scrambled_schematic=4&participantId=BAAC0CCE6B4D47CE844F96F763BCAF48&assignmentId=9f978020-69a5-41d9-bd83-31f762d5e1b7&projectId=ba640c14-69c5-453e-80b2-29051492c0e0","BAAC0CCE6B4D47CE844F96F763BCAF48-2025-05-14-20-41-12","","687","","images/instructions/movie_4.png","0","",""
"","","","","","image-button-response","20","235911","0.0-6.0-1.0-2.3","BAAC0CCE6B4D47CE844F96F763BCAF48","BAAC0CCE6B4D47CE844F96F763BCAF48","9f978020-69a5-41d9-bd83-31f762d5e1b7","ba640c14-69c5-453e-80b2-29051492c0e0","{""num_scrambled_semantic"":""8"",""num_scrambled_causal"":""4"",""num_scrambled_schematic"":""4"",""participantId"":""BAAC0CCE6B4D47CE844F96F763BCAF48"",""assignmentId"":""9f978020-69a5-41d9-bd83-31f762d5e1b7"",""projectId"":""ba640c14-69c5-453e-80b2-29051492c0e0""}","https://test12345.live/?num_scrambled_semantic=8&num_scrambled_causal=4&num_scrambled_schematic=4&participantId=BAAC0CCE6B4D47CE844F96F763BCAF48&assignmentId=9f978020-69a5-41d9-bd83-31f762d5e1b7&projectId=ba640c14-69c5-453e-80b2-29051492c0e0","BAAC0CCE6B4D47CE844F96F763BCAF48-2025-05-14-20-41-12","","null","","[]","null","",""
"","","","","","instructions","21","243931","0.0-7.0","BAAC0CCE6B4D47CE844F96F763BCAF48","BAAC0CCE6B4D47CE844F96F763BCAF48","9f978020-69a5-41d9-bd83-31f762d5e1b7","ba640c14-69c5-453e-80b2-29051492c0e0","{""num_scrambled_semantic"":""8"",""num_scrambled_causal"":""4"",""num_scrambled_schematic"":""4"",""participantId"":""BAAC0CCE6B4D47CE844F96F763BCAF48"",""assignmentId"":""9f978020-69a5-41d9-bd83-31f762d5e1b7"",""projectId"":""ba640c14-69c5-453e-80b2-29051492c0e0""}","https://test12345.live/?num_scrambled_semantic=8&num_scrambled_causal=4&num_scrambled_schematic=4&participantId=BAAC0CCE6B4D47CE844F96F763BCAF48&assignmentId=9f978020-69a5-41d9-bd83-31f762d5e1b7&projectId=ba640c14-69c5-453e-80b2-29051492c0e0","BAAC0CCE6B4D47CE844F96F763BCAF48-2025-05-14-20-41-12","[{""page_index"":0,""viewing_time"":6035},{""page_index"":1,""viewing_time"":1984}]","8020","","","","",""
"","","","","","html-audio-response","22","259675","0.0-8.0","BAAC0CCE6B4D47CE844F96F763BCAF48","BAAC0CCE6B4D47CE844F96F763BCAF48","9f978020-69a5-41d9-bd83-31f762d5e1b7","ba640c14-69c5-453e-80b2-29051492c0e0","{""num_scrambled_semantic"":""8"",""num_scrambled_causal"":""4"",""num_scrambled_schematic"":""4"",""participantId"":""BAAC0CCE6B4D47CE844F96F763BCAF48"",""assignmentId"":""9f978020-69a5-41d9-bd83-31f762d5e1b7"",""projectId"":""ba640c14-69c5-453e-80b2-29051492c0e0""}","https://test12345.live/?num_scrambled_semantic=8&num_scrambled_causal=4&num_scrambled_schematic=4&participantId=BAAC0CCE6B4D47CE844F96F763BCAF48&assignmentId=9f978020-69a5-41d9-bd83-31f762d5e1b7&projectId=ba640c14-69c5-453e-80b2-29051492c0e0","BAAC0CCE6B4D47CE844F96F763BCAF48-2025-05-14-20-41-12","","3486","","[""<span style=\""color: red; font-size: 24px\""> NOW RECORDING</span><p>Please say out loud all the images you saw, as many as you can remember. The images can be said in any order.</p>""]","","7",""
"","","","","","instructions","23","261683","0.0-9.0","BAAC0CCE6B4D47CE844F96F763BCAF48","BAAC0CCE6B4D47CE844F96F763BCAF48","9f978020-69a5-41d9-bd83-31f762d5e1b7","ba640c14-69c5-453e-80b2-29051492c0e0","{""num_scrambled_semantic"":""8"",""num_scrambled_causal"":""4"",""num_scrambled_schematic"":""4"",""participantId"":""BAAC0CCE6B4D47CE844F96F763BCAF48"",""assignmentId"":""9f978020-69a5-41d9-bd83-31f762d5e1b7"",""projectId"":""ba640c14-69c5-453e-80b2-29051492c0e0""}","https://test12345.live/?num_scrambled_semantic=8&num_scrambled_causal=4&num_scrambled_schematic=4&participantId=BAAC0CCE6B4D47CE844F96F763BCAF48&assignmentId=9f978020-69a5-41d9-bd83-31f762d5e1b7&projectId=ba640c14-69c5-453e-80b2-29051492c0e0","BAAC0CCE6B4D47CE844F96F763BCAF48-2025-05-14-20-41-12","[{""page_index"":0,""viewing_time"":2001}]","2001","","","","",""
"","","","","","image-button-response","24","267693","0.0-10.0-0.0","BAAC0CCE6B4D47CE844F96F763BCAF48","BAAC0CCE6B4D47CE844F96F763BCAF48","9f978020-69a5-41d9-bd83-31f762d5e1b7","ba640c14-69c5-453e-80b2-29051492c0e0","{""num_scrambled_semantic"":""8"",""num_scrambled_causal"":""4"",""num_scrambled_schematic"":""4"",""participantId"":""BAAC0CCE6B4D47CE844F96F763BCAF48"",""assignmentId"":""9f978020-69a5-41d9-bd83-31f762d5e1b7"",""projectId"":""ba640c14-69c5-453e-80b2-29051492c0e0""}","https://test12345.live/?num_scrambled_semantic=8&num_scrambled_causal=4&num_scrambled_schematic=4&participantId=BAAC0CCE6B4D47CE844F96F763BCAF48&assignmentId=9f978020-69a5-41d9-bd83-31f762d5e1b7&projectId=ba640c14-69c5-453e-80b2-29051492c0e0","BAAC0CCE6B4D47CE844F96F763BCAF48-2025-05-14-20-41-12","","null","","images/semantic_sequence/cat_care_semantic/cat_care_semantic_0.png","null","",""
"","","","","","image-button-response","25","272196","0.0-10.0-1.0-0.0","BAAC0CCE6B4D47CE844F96F763BCAF48","BAAC0CCE6B4D47CE844F96F763BCAF48","9f978020-69a5-41d9-bd83-31f762d5e1b7","ba640c14-69c5-453e-80b2-29051492c0e0","{""num_scrambled_semantic"":""8"",""num_scrambled_causal"":""4"",""num_scrambled_schematic"":""4"",""participantId"":""BAAC0CCE6B4D47CE844F96F763BCAF48"",""assignmentId"":""9f978020-69a5-41d9-bd83-31f762d5e1b7"",""projectId"":""ba640c14-69c5-453e-80b2-29051492c0e0""}","https://test12345.live/?num_scrambled_semantic=8&num_scrambled_causal=4&num_scrambled_schematic=4&participantId=BAAC0CCE6B4D47CE844F96F763BCAF48&assignmentId=9f978020-69a5-41d9-bd83-31f762d5e1b7&projectId=ba640c14-69c5-453e-80b2-29051492c0e0","BAAC0CCE6B4D47CE844F96F763BCAF48-2025-05-14-20-41-12","","null","","images/semantic_sequence/cat_care_semantic/cat_care_semantic_1.png","null","",""
"","","","","","image-button-response","26","273387","0.0-10.0-1.0-1.0","BAAC0CCE6B4D47CE844F96F763BCAF48","BAAC0CCE6B4D47CE844F96F763BCAF48","9f978020-69a5-41d9-bd83-31f762d5e1b7","ba640c14-69c5-453e-80b2-29051492c0e0","{""num_scrambled_semantic"":""8"",""num_scrambled_causal"":""4"",""num_scrambled_schematic"":""4"",""participantId"":""BAAC0CCE6B4D47CE844F96F763BCAF48"",""assignmentId"":""9f978020-69a5-41d9-bd83-31f762d5e1b7"",""projectId"":""ba640c14-69c5-453e-80b2-29051492c0e0""}","https://test12345.live/?num_scrambled_semantic=8&num_scrambled_causal=4&num_scrambled_schematic=4&participantId=BAAC0CCE6B4D47CE844F96F763BCAF48&assignmentId=9f978020-69a5-41d9-bd83-31f762d5e1b7&projectId=ba640c14-69c5-453e-80b2-29051492c0e0","BAAC0CCE6B4D47CE844F96F763BCAF48-2025-05-14-20-41-12","","1189","","images/semantic_sequence/cat_care_semantic/cat_care_semantic_1.png","0","",""
"","","","","","image-button-response","27","275192","0.0-10.0-1.0-2.0","BAAC0CCE6B4D47CE844F96F763BCAF48","BAAC0CCE6B4D47CE844F96F763BCAF48","9f978020-69a5-41d9-bd83-31f762d5e1b7","ba640c14-69c5-453e-80b2-29051492c0e0","{""num_scrambled_semantic"":""8"",""num_scrambled_causal"":""4"",""num_scrambled_schematic"":""4"",""participantId"":""BAAC0CCE6B4D47CE844F96F763BCAF48"",""assignmentId"":""9f978020-69a5-41d9-bd83-31f762d5e1b7"",""projectId"":""ba640c14-69c5-453e-80b2-29051492c0e0""}","https://test12345.live/?num_scrambled_semantic=8&num_scrambled_causal=4&num_scrambled_schematic=4&participantId=BAAC0CCE6B4D47CE844F96F763BCAF48&assignmentId=9f978020-69a5-41d9-bd83-31f762d5e1b7&projectId=ba640c14-69c5-453e-80b2-29051492c0e0","BAAC0CCE6B4D47CE844F96F763BCAF48-2025-05-14-20-41-12","","null","","[]","null","",""
"","","","","","image-button-response","28","279707","0.0-10.0-1.0-0.1","BAAC0CCE6B4D47CE844F96F763BCAF48","BAAC0CCE6B4D47CE844F96F763BCAF48","9f978020-69a5-41d9-bd83-31f762d5e1b7","ba640c14-69c5-453e-80b2-29051492c0e0","{""num_scrambled_semantic"":""8"",""num_scrambled_causal"":""4"",""num_scrambled_schematic"":""4"",""participantId"":""BAAC0CCE6B4D47CE844F96F763BCAF48"",""assignmentId"":""9f978020-69a5-41d9-bd83-31f762d5e1b7"",""projectId"":""ba640c14-69c5-453e-80b2-29051492c0e0""}","https://test12345.live/?num_scrambled_semantic=8&num_scrambled_causal=4&num_scrambled_schematic=4&participantId=BAAC0CCE6B4D47CE844F96F763BCAF48&assignmentId=9f978020-69a5-41d9-bd83-31f762d5e1b7&projectId=ba640c14-69c5-453e-80b2-29051492c0e0","BAAC0CCE6B4D47CE844F96F763BCAF48-2025-05-14-20-41-12","","null","","images/semantic_sequence/cat_care_semantic/cat_care_semantic_4.png","null","",""
"","","","","","image-button-response","29","280515","0.0-10.0-1.0-1.1","BAAC0CCE6B4D47CE844F96F763BCAF48","BAAC0CCE6B4D47CE844F96F763BCAF48","9f978020-69a5-41d9-bd83-31f762d5e1b7","ba640c14-69c5-453e-80b2-29051492c0e0","{""num_scrambled_semantic"":""8"",""num_scrambled_causal"":""4"",""num_scrambled_schematic"":""4"",""participantId"":""BAAC0CCE6B4D47CE844F96F763BCAF48"",""assignmentId"":""9f978020-69a5-41d9-bd83-31f762d5e1b7"",""projectId"":""ba640c14-69c5-453e-80b2-29051492c0e0""}","https://test12345.live/?num_scrambled_semantic=8&num_scrambled_causal=4&num_scrambled_schematic=4&participantId=BAAC0CCE6B4D47CE844F96F763BCAF48&assignmentId=9f978020-69a5-41d9-bd83-31f762d5e1b7&projectId=ba640c14-69c5-453e-80b2-29051492c0e0","BAAC0CCE6B4D47CE844F96F763BCAF48-2025-05-14-20-41-12","","806","","images/semantic_sequence/cat_care_semantic/cat_care_semantic_4.png","1","",""
"","","","","","image-button-response","30","282326","0.0-10.0-1.0-2.1","BAAC0CCE6B4D47CE844F96F763BCAF48","BAAC0CCE6B4D47CE844F96F763BCAF48","9f978020-69a5-41d9-bd83-31f762d5e1b7","ba640c14-69c5-453e-80b2-29051492c0e0","{""num_scrambled_semantic"":""8"",""num_scrambled_causal"":""4"",""num_scrambled_schematic"":""4"",""participantId"":""BAAC0CCE6B4D47CE844F96F763BCAF48"",""assignmentId"":""9f978020-69a5-41d9-bd83-31f762d5e1b7"",""projectId"":""ba640c14-69c5-453e-80b2-29051492c0e0""}","https://test12345.live/?num_scrambled_semantic=8&num_scrambled_causal=4&num_scrambled_schematic=4&participantId=BAAC0CCE6B4D47CE844F96F763BCAF48&assignmentId=9f978020-69a5-41d9-bd83-31f762d5e1b7&projectId=ba640c14-69c5-453e-80b2-29051492c0e0","BAAC0CCE6B4D47CE844F96F763BCAF48-2025-05-14-20-41-12","","null","","[]","null","",""
"","","","","","image-button-response","31","286843","0.0-10.0-1.0-0.2","BAAC0CCE6B4D47CE844F96F763BCAF48","BAAC0CCE6B4D47CE844F96F763BCAF48","9f978020-69a5-41d9-bd83-31f762d5e1b7","ba640c14-69c5-453e-80b2-29051492c0e0","{""num_scrambled_semantic"":""8"",""num_scrambled_causal"":""4"",""num_scrambled_schematic"":""4"",""participantId"":""BAAC0CCE6B4D47CE844F96F763BCAF48"",""assignmentId"":""9f978020-69a5-41d9-bd83-31f762d5e1b7"",""projectId"":""ba640c14-69c5-453e-80b2-29051492c0e0""}","https://test12345.live/?num_scrambled_semantic=8&num_scrambled_causal=4&num_scrambled_schematic=4&participantId=BAAC0CCE6B4D47CE844F96F763BCAF48&assignmentId=9f978020-69a5-41d9-bd83-31f762d5e1b7&projectId=ba640c14-69c5-453e-80b2-29051492c0e0","BAAC0CCE6B4D47CE844F96F763BCAF48-2025-05-14-20-41-12","","null","","images/semantic_sequence/cat_care_semantic/cat_care_semantic_3.png","null","",""
"","","","","","image-button-response","32","287595","0.0-10.0-1.0-1.2","BAAC0CCE6B4D47CE844F96F763BCAF48","BAAC0CCE6B4D47CE844F96F763BCAF48","9f978020-69a5-41d9-bd83-31f762d5e1b7","ba640c14-69c5-453e-80b2-29051492c0e0","{""num_scrambled_semantic"":""8"",""num_scrambled_causal"":""4"",""num_scrambled_schematic"":""4"",""participantId"":""BAAC0CCE6B4D47CE844F96F763BCAF48"",""assignmentId"":""9f978020-69a5-41d9-bd83-31f762d5e1b7"",""projectId"":""ba640c14-69c5-453e-80b2-29051492c0e0""}","https://test12345.live/?num_scrambled_semantic=8&num_scrambled_causal=4&num_scrambled_schematic=4&participantId=BAAC0CCE6B4D47CE844F96F763BCAF48&assignmentId=9f978020-69a5-41d9-bd83-31f762d5e1b7&projectId=ba640c14-69c5-453e-80b2-29051492c0e0","BAAC0CCE6B4D47CE844F96F763BCAF48-2025-05-14-20-41-12","","750","","images/semantic_sequence/cat_care_semantic/cat_care_semantic_3.png","0","",""
"","","","","","image-button-response","33","289409","0.0-10.0-1.0-2.2","BAAC0CCE6B4D47CE844F96F763BCAF48","BAAC0CCE6B4D47CE844F96F763BCAF48","9f978020-69a5-41d9-bd83-31f762d5e1b7","ba640c14-69c5-453e-80b2-29051492c0e0","{""num_scrambled_semantic"":""8"",""num_scrambled_causal"":""4"",""num_scrambled_schematic"":""4"",""participantId"":""BAAC0CCE6B4D47CE844F96F763BCAF48"",""assignmentId"":""9f978020-69a5-41d9-bd83-31f762d5e1b7"",""projectId"":""ba640c14-69c5-453e-80b2-29051492c0e0""}","https://test12345.live/?num_scrambled_semantic=8&num_scrambled_causal=4&num_scrambled_schematic=4&participantId=BAAC0CCE6B4D47CE844F96F763BCAF48&assignmentId=9f978020-69a5-41d9-bd83-31f762d5e1b7&projectId=ba640c14-69c5-453e-80b2-29051492c0e0","BAAC0CCE6B4D47CE844F96F763BCAF48-2025-05-14-20-41-12","","null","","[]","null","",""
"","","","","","image-button-response","34","293924","0.0-10.0-1.0-0.3","BAAC0CCE6B4D47CE844F96F763BCAF48","BAAC0CCE6B4D47CE844F96F763BCAF48","9f978020-69a5-41d9-bd83-31f762d5e1b7","ba640c14-69c5-453e-80b2-29051492c0e0","{""num_scrambled_semantic"":""8"",""num_scrambled_causal"":""4"",""num_scrambled_schematic"":""4"",""participantId"":""BAAC0CCE6B4D47CE844F96F763BCAF48"",""assignmentId"":""9f978020-69a5-41d9-bd83-31f762d5e1b7"",""projectId"":""ba640c14-69c5-453e-80b2-29051492c0e0""}","https://test12345.live/?num_scrambled_semantic=8&num_scrambled_causal=4&num_scrambled_schematic=4&participantId=BAAC0CCE6B4D47CE844F96F763BCAF48&assignmentId=9f978020-69a5-41d9-bd83-31f762d5e1b7&projectId=ba640c14-69c5-453e-80b2-29051492c0e0","BAAC0CCE6B4D47CE844F96F763BCAF48-2025-05-14-20-41-12","","null","","images/semantic_sequence/cat_care_semantic/cat_care_semantic_ten.png","null","",""
"","","","","","image-button-response","35","294717","0.0-10.0-1.0-1.3","BAAC0CCE6B4D47CE844F96F763BCAF48","BAAC0CCE6B4D47CE844F96F763BCAF48","9f978020-69a5-41d9-bd83-31f762d5e1b7","ba640c14-69c5-453e-80b2-29051492c0e0","{""num_scrambled_semantic"":""8"",""num_scrambled_causal"":""4"",""num_scrambled_schematic"":""4"",""participantId"":""BAAC0CCE6B4D47CE844F96F763BCAF48"",""assignmentId"":""9f978020-69a5-41d9-bd83-31f762d5e1b7"",""projectId"":""ba640c14-69c5-453e-80b2-29051492c0e0""}","https://test12345.live/?num_scrambled_semantic=8&num_scrambled_causal=4&num_scrambled_schematic=4&participantId=BAAC0CCE6B4D47CE844F96F763BCAF48&assignmentId=9f978020-69a5-41d9-bd83-31f762d5e1b7&projectId=ba640c14-69c5-453e-80b2-29051492c0e0","BAAC0CCE6B4D47CE844F96F763BCAF48-2025-05-14-20-41-12","","791","","images/semantic_sequence/cat_care_semantic/cat_care_semantic_ten.png","1","",""
"","","","","","image-button-response","36","296520","0.0-10.0-1.0-2.3","BAAC0CCE6B4D47CE844F96F763BCAF48","BAAC0CCE6B4D47CE844F96F763BCAF48","9f978020-69a5-41d9-bd83-31f762d5e1b7","ba640c14-69c5-453e-80b2-29051492c0e0","{""num_scrambled_semantic"":""8"",""num_scrambled_causal"":""4"",""num_scrambled_schematic"":""4"",""participantId"":""BAAC0CCE6B4D47CE844F96F763BCAF48"",""assignmentId"":""9f978020-69a5-41d9-bd83-31f762d5e1b7"",""projectId"":""ba640c14-69c5-453e-80b2-29051492c0e0""}","https://test12345.live/?num_scrambled_semantic=8&num_scrambled_causal=4&num_scrambled_schematic=4&participantId=BAAC0CCE6B4D47CE844F96F763BCAF48&assignmentId=9f978020-69a5-41d9-bd83-31f762d5e1b7&projectId=ba640c14-69c5-453e-80b2-29051492c0e0","BAAC0CCE6B4D47CE844F96F763BCAF48-2025-05-14-20-41-12","","null","","[]","null","",""
"","","","","","image-button-response","37","301023","0.0-10.0-1.0-0.4","BAAC0CCE6B4D47CE844F96F763BCAF48","BAAC0CCE6B4D47CE844F96F763BCAF48","9f978020-69a5-41d9-bd83-31f762d5e1b7","ba640c14-69c5-453e-80b2-29051492c0e0","{""num_scrambled_semantic"":""8"",""num_scrambled_causal"":""4"",""num_scrambled_schematic"":""4"",""participantId"":""BAAC0CCE6B4D47CE844F96F763BCAF48"",""assignmentId"":""9f978020-69a5-41d9-bd83-31f762d5e1b7"",""projectId"":""ba640c14-69c5-453e-80b2-29051492c0e0""}","https://test12345.live/?num_scrambled_semantic=8&num_scrambled_causal=4&num_scrambled_schematic=4&participantId=BAAC0CCE6B4D47CE844F96F763BCAF48&assignmentId=9f978020-69a5-41d9-bd83-31f762d5e1b7&projectId=ba640c14-69c5-453e-80b2-29051492c0e0","BAAC0CCE6B4D47CE844F96F763BCAF48-2025-05-14-20-41-12","","null","","images/semantic_sequence/cat_care_semantic/cat_care_semantic_8.png","null","",""
"","","","","","image-button-response","38","301683","0.0-10.0-1.0-1.4","BAAC0CCE6B4D47CE844F96F763BCAF48","BAAC0CCE6B4D47CE844F96F763BCAF48","9f978020-69a5-41d9-bd83-31f762d5e1b7","ba640c14-69c5-453e-80b2-29051492c0e0","{""num_scrambled_semantic"":""8"",""num_scrambled_causal"":""4"",""num_scrambled_schematic"":""4"",""participantId"":""BAAC0CCE6B4D47CE844F96F763BCAF48"",""assignmentId"":""9f978020-69a5-41d9-bd83-31f762d5e1b7"",""projectId"":""ba640c14-69c5-453e-80b2-29051492c0e0""}","https://test12345.live/?num_scrambled_semantic=8&num_scrambled_causal=4&num_scrambled_schematic=4&participantId=BAAC0CCE6B4D47CE844F96F763BCAF48&assignmentId=9f978020-69a5-41d9-bd83-31f762d5e1b7&projectId=ba640c14-69c5-453e-80b2-29051492c0e0","BAAC0CCE6B4D47CE844F96F763BCAF48-2025-05-14-20-41-12","","657","","images/semantic_sequence/cat_care_semantic/cat_care_semantic_8.png","0","",""
"","","","","","image-button-response","39","303491","0.0-10.0-1.0-2.4","BAAC0CCE6B4D47CE844F96F763BCAF48","BAAC0CCE6B4D47CE844F96F763BCAF48","9f978020-69a5-41d9-bd83-31f762d5e1b7","ba640c14-69c5-453e-80b2-29051492c0e0","{""num_scrambled_semantic"":""8"",""num_scrambled_causal"":""4"",""num_scrambled_schematic"":""4"",""participantId"":""BAAC0CCE6B4D47CE844F96F763BCAF48"",""assignmentId"":""9f978020-69a5-41d9-bd83-31f762d5e1b7"",""projectId"":""ba640c14-69c5-453e-80b2-29051492c0e0""}","https://test12345.live/?num_scrambled_semantic=8&num_scrambled_causal=4&num_scrambled_schematic=4&participantId=BAAC0CCE6B4D47CE844F96F763BCAF48&assignmentId=9f978020-69a5-41d9-bd83-31f762d5e1b7&projectId=ba640c14-69c5-453e-80b2-29051492c0e0","BAAC0CCE6B4D47CE844F96F763BCAF48-2025-05-14-20-41-12","","null","","[]","null","",""
"","","","","","image-button-response","40","308005","0.0-10.0-1.0-0.5","BAAC0CCE6B4D47CE844F96F763BCAF48","BAAC0CCE6B4D47CE844F96F763BCAF48","9f978020-69a5-41d9-bd83-31f762d5e1b7","ba640c14-69c5-453e-80b2-29051492c0e0","{""num_scrambled_semantic"":""8"",""num_scrambled_causal"":""4"",""num_scrambled_schematic"":""4"",""participantId"":""BAAC0CCE6B4D47CE844F96F763BCAF48"",""assignmentId"":""9f978020-69a5-41d9-bd83-31f762d5e1b7"",""projectId"":""ba640c14-69c5-453e-80b2-29051492c0e0""}","https://test12345.live/?num_scrambled_semantic=8&num_scrambled_causal=4&num_scrambled_schematic=4&participantId=BAAC0CCE6B4D47CE844F96F763BCAF48&assignmentId=9f978020-69a5-41d9-bd83-31f762d5e1b7&projectId=ba640c14-69c5-453e-80b2-29051492c0e0","BAAC0CCE6B4D47CE844F96F763BCAF48-2025-05-14-20-41-12","","null","","images/semantic_sequence/cat_care_semantic/cat_care_semantic_5.png","null","",""
"","","","","","image-button-response","41","308691","0.0-10.0-1.0-1.5","BAAC0CCE6B4D47CE844F96F763BCAF48","BAAC0CCE6B4D47CE844F96F763BCAF48","9f978020-69a5-41d9-bd83-31f762d5e1b7","ba640c14-69c5-453e-80b2-29051492c0e0","{""num_scrambled_semantic"":""8"",""num_scrambled_causal"":""4"",""num_scrambled_schematic"":""4"",""participantId"":""BAAC0CCE6B4D47CE844F96F763BCAF48"",""assignmentId"":""9f978020-69a5-41d9-bd83-31f762d5e1b7"",""projectId"":""ba640c14-69c5-453e-80b2-29051492c0e0""}","https://test12345.live/?num_scrambled_semantic=8&num_scrambled_causal=4&num_scrambled_schematic=4&participantId=BAAC0CCE6B4D47CE844F96F763BCAF48&assignmentId=9f978020-69a5-41d9-bd83-31f762d5e1b7&projectId=ba640c14-69c5-453e-80b2-29051492c0e0","BAAC0CCE6B4D47CE844F96F763BCAF48-2025-05-14-20-41-12","","683","","images/semantic_sequence/cat_care_semantic/cat_care_semantic_5.png","0","",""
"","","","","","image-button-response","42","310507","0.0-10.0-1.0-2.5","BAAC0CCE6B4D47CE844F96F763BCAF48","BAAC0CCE6B4D47CE844F96F763BCAF48","9f978020-69a5-41d9-bd83-31f762d5e1b7","ba640c14-69c5-453e-80b2-29051492c0e0","{""num_scrambled_semantic"":""8"",""num_scrambled_causal"":""4"",""num_scrambled_schematic"":""4"",""participantId"":""BAAC0CCE6B4D47CE844F96F763BCAF48"",""assignmentId"":""9f978020-69a5-41d9-bd83-31f762d5e1b7"",""projectId"":""ba640c14-69c5-453e-80b2-29051492c0e0""}","https://test12345.live/?num_scrambled_semantic=8&num_scrambled_causal=4&num_scrambled_schematic=4&participantId=BAAC0CCE6B4D47CE844F96F763BCAF48&assignmentId=9f978020-69a5-41d9-bd83-31f762d5e1b7&projectId=ba640c14-69c5-453e-80b2-29051492c0e0","BAAC0CCE6B4D47CE844F96F763BCAF48-2025-05-14-20-41-12","","null","","[]","null","",""
"","","","","","image-button-response","43","315009","0.0-10.0-1.0-0.6","BAAC0CCE6B4D47CE844F96F763BCAF48","BAAC0CCE6B4D47CE844F96F763BCAF48","9f978020-69a5-41d9-bd83-31f762d5e1b7","ba640c14-69c5-453e-80b2-29051492c0e0","{""num_scrambled_semantic"":""8"",""num_scrambled_causal"":""4"",""num_scrambled_schematic"":""4"",""participantId"":""BAAC0CCE6B4D47CE844F96F763BCAF48"",""assignmentId"":""9f978020-69a5-41d9-bd83-31f762d5e1b7"",""projectId"":""ba640c14-69c5-453e-80b2-29051492c0e0""}","https://test12345.live/?num_scrambled_semantic=8&num_scrambled_causal=4&num_scrambled_schematic=4&participantId=BAAC0CCE6B4D47CE844F96F763BCAF48&assignmentId=9f978020-69a5-41d9-bd83-31f762d5e1b7&projectId=ba640c14-69c5-453e-80b2-29051492c0e0","BAAC0CCE6B4D47CE844F96F763BCAF48-2025-05-14-20-41-12","","null","","images/semantic_sequence/cat_care_semantic/cat_care_semantic_7.png","null","",""
"","","","","","image-button-response","44","315595","0.0-10.0-1.0-1.6","BAAC0CCE6B4D47CE844F96F763BCAF48","BAAC0CCE6B4D47CE844F96F763BCAF48","9f978020-69a5-41d9-bd83-31f762d5e1b7","ba640c14-69c5-453e-80b2-29051492c0e0","{""num_scrambled_semantic"":""8"",""num_scrambled_causal"":""4"",""num_scrambled_schematic"":""4"",""participantId"":""BAAC0CCE6B4D47CE844F96F763BCAF48"",""assignmentId"":""9f978020-69a5-41d9-bd83-31f762d5e1b7"",""projectId"":""ba640c14-69c5-453e-80b2-29051492c0e0""}","https://test12345.live/?num_scrambled_semantic=8&num_scrambled_causal=4&num_scrambled_schematic=4&participantId=BAAC0CCE6B4D47CE844F96F763BCAF48&assignmentId=9f978020-69a5-41d9-bd83-31f762d5e1b7&projectId=ba640c14-69c5-453e-80b2-29051492c0e0","BAAC0CCE6B4D47CE844F96F763BCAF48-2025-05-14-20-41-12","","583","","images/semantic_sequence/cat_care_semantic/cat_care_semantic_7.png","0","",""
"","","","","","image-button-response","45","317407","0.0-10.0-1.0-2.6","BAAC0CCE6B4D47CE844F96F763BCAF48","BAAC0CCE6B4D47CE844F96F763BCAF48","9f978020-69a5-41d9-bd83-31f762d5e1b7","ba640c14-69c5-453e-80b2-29051492c0e0","{""num_scrambled_semantic"":""8"",""num_scrambled_causal"":""4"",""num_scrambled_schematic"":""4"",""participantId"":""BAAC0CCE6B4D47CE844F96F763BCAF48"",""assignmentId"":""9f978020-69a5-41d9-bd83-31f762d5e1b7"",""projectId"":""ba640c14-69c5-453e-80b2-29051492c0e0""}","https://test12345.live/?num_scrambled_semantic=8&num_scrambled_causal=4&num_scrambled_schematic=4&participantId=BAAC0CCE6B4D47CE844F96F763BCAF48&assignmentId=9f978020-69a5-41d9-bd83-31f762d5e1b7&projectId=ba640c14-69c5-453e-80b2-29051492c0e0","BAAC0CCE6B4D47CE844F96F763BCAF48-2025-05-14-20-41-12","","null","","[]","null","",""
"","","","","","image-button-response","46","321922","0.0-10.0-1.0-0.7","BAAC0CCE6B4D47CE844F96F763BCAF48","BAAC0CCE6B4D47CE844F96F763BCAF48","9f978020-69a5-41d9-bd83-31f762d5e1b7","ba640c14-69c5-453e-80b2-29051492c0e0","{""num_scrambled_semantic"":""8"",""num_scrambled_causal"":""4"",""num_scrambled_schematic"":""4"",""participantId"":""BAAC0CCE6B4D47CE844F96F763BCAF48"",""assignmentId"":""9f978020-69a5-41d9-bd83-31f762d5e1b7"",""projectId"":""ba640c14-69c5-453e-80b2-29051492c0e0""}","https://test12345.live/?num_scrambled_semantic=8&num_scrambled_causal=4&num_scrambled_schematic=4&participantId=BAAC0CCE6B4D47CE844F96F763BCAF48&assignmentId=9f978020-69a5-41d9-bd83-31f762d5e1b7&projectId=ba640c14-69c5-453e-80b2-29051492c0e0","BAAC0CCE6B4D47CE844F96F763BCAF48-2025-05-14-20-41-12","","null","","images/semantic_sequence/cat_care_semantic/cat_care_semantic_9.png","null","",""
"","","","","","image-button-response","47","322603","0.0-10.0-1.0-1.7","BAAC0CCE6B4D47CE844F96F763BCAF48","BAAC0CCE6B4D47CE844F96F763BCAF48","9f978020-69a5-41d9-bd83-31f762d5e1b7","ba640c14-69c5-453e-80b2-29051492c0e0","{""num_scrambled_semantic"":""8"",""num_scrambled_causal"":""4"",""num_scrambled_schematic"":""4"",""participantId"":""BAAC0CCE6B4D47CE844F96F763BCAF48"",""assignmentId"":""9f978020-69a5-41d9-bd83-31f762d5e1b7"",""projectId"":""ba640c14-69c5-453e-80b2-29051492c0e0""}","https://test12345.live/?num_scrambled_semantic=8&num_scrambled_causal=4&num_scrambled_schematic=4&participantId=BAAC0CCE6B4D47CE844F96F763BCAF48&assignmentId=9f978020-69a5-41d9-bd83-31f762d5e1b7&projectId=ba640c14-69c5-453e-80b2-29051492c0e0","BAAC0CCE6B4D47CE844F96F763BCAF48-2025-05-14-20-41-12","","679","","images/semantic_sequence/cat_care_semantic/cat_care_semantic_9.png","0","",""
"","","","","","image-button-response","48","324406","0.0-10.0-1.0-2.7","BAAC0CCE6B4D47CE844F96F763BCAF48","BAAC0CCE6B4D47CE844F96F763BCAF48","9f978020-69a5-41d9-bd83-31f762d5e1b7","ba640c14-69c5-453e-80b2-29051492c0e0","{""num_scrambled_semantic"":""8"",""num_scrambled_causal"":""4"",""num_scrambled_schematic"":""4"",""participantId"":""BAAC0CCE6B4D47CE844F96F763BCAF48"",""assignmentId"":""9f978020-69a5-41d9-bd83-31f762d5e1b7"",""projectId"":""ba640c14-69c5-453e-80b2-29051492c0e0""}","https://test12345.live/?num_scrambled_semantic=8&num_scrambled_causal=4&num_scrambled_schematic=4&participantId=BAAC0CCE6B4D47CE844F96F763BCAF48&assignmentId=9f978020-69a5-41d9-bd83-31f762d5e1b7&projectId=ba640c14-69c5-453e-80b2-29051492c0e0","BAAC0CCE6B4D47CE844F96F763BCAF48-2025-05-14-20-41-12","","null","","[]","null","",""
"","","","","","image-button-response","49","328922","0.0-10.0-1.0-0.8","BAAC0CCE6B4D47CE844F96F763BCAF48","BAAC0CCE6B4D47CE844F96F763BCAF48","9f978020-69a5-41d9-bd83-31f762d5e1b7","ba640c14-69c5-453e-80b2-29051492c0e0","{""num_scrambled_semantic"":""8"",""num_scrambled_causal"":""4"",""num_scrambled_schematic"":""4"",""participantId"":""BAAC0CCE6B4D47CE844F96F763BCAF48"",""assignmentId"":""9f978020-69a5-41d9-bd83-31f762d5e1b7"",""projectId"":""ba640c14-69c5-453e-80b2-29051492c0e0""}","https://test12345.live/?num_scrambled_semantic=8&num_scrambled_causal=4&num_scrambled_schematic=4&participantId=BAAC0CCE6B4D47CE844F96F763BCAF48&assignmentId=9f978020-69a5-41d9-bd83-31f762d5e1b7&projectId=ba640c14-69c5-453e-80b2-29051492c0e0","BAAC0CCE6B4D47CE844F96F763BCAF48-2025-05-14-20-41-12","","null","","images/semantic_sequence/cat_care_semantic/cat_care_semantic_2.png","null","",""
"","","","","","image-button-response","50","329395","0.0-10.0-1.0-1.8","BAAC0CCE6B4D47CE844F96F763BCAF48","BAAC0CCE6B4D47CE844F96F763BCAF48","9f978020-69a5-41d9-bd83-31f762d5e1b7","ba640c14-69c5-453e-80b2-29051492c0e0","{""num_scrambled_semantic"":""8"",""num_scrambled_causal"":""4"",""num_scrambled_schematic"":""4"",""participantId"":""BAAC0CCE6B4D47CE844F96F763BCAF48"",""assignmentId"":""9f978020-69a5-41d9-bd83-31f762d5e1b7"",""projectId"":""ba640c14-69c5-453e-80b2-29051492c0e0""}","https://test12345.live/?num_scrambled_semantic=8&num_scrambled_causal=4&num_scrambled_schematic=4&participantId=BAAC0CCE6B4D47CE844F96F763BCAF48&assignmentId=9f978020-69a5-41d9-bd83-31f762d5e1b7&projectId=ba640c14-69c5-453e-80b2-29051492c0e0","BAAC0CCE6B4D47CE844F96F763BCAF48-2025-05-14-20-41-12","","471","","images/semantic_sequence/cat_care_semantic/cat_care_semantic_2.png","0","",""
"","","","","","image-button-response","51","331196","0.0-10.0-1.0-2.8","BAAC0CCE6B4D47CE844F96F763BCAF48","BAAC0CCE6B4D47CE844F96F763BCAF48","9f978020-69a5-41d9-bd83-31f762d5e1b7","ba640c14-69c5-453e-80b2-29051492c0e0","{""num_scrambled_semantic"":""8"",""num_scrambled_causal"":""4"",""num_scrambled_schematic"":""4"",""participantId"":""BAAC0CCE6B4D47CE844F96F763BCAF48"",""assignmentId"":""9f978020-69a5-41d9-bd83-31f762d5e1b7"",""projectId"":""ba640c14-69c5-453e-80b2-29051492c0e0""}","https://test12345.live/?num_scrambled_semantic=8&num_scrambled_causal=4&num_scrambled_schematic=4&participantId=BAAC0CCE6B4D47CE844F96F763BCAF48&assignmentId=9f978020-69a5-41d9-bd83-31f762d5e1b7&projectId=ba640c14-69c5-453e-80b2-29051492c0e0","BAAC0CCE6B4D47CE844F96F763BCAF48-2025-05-14-20-41-12","","null","","[]","null","",""
"","","","","","image-button-response","52","335699","0.0-10.0-1.0-0.9","BAAC0CCE6B4D47CE844F96F763BCAF48","BAAC0CCE6B4D47CE844F96F763BCAF48","9f978020-69a5-41d9-bd83-31f762d5e1b7","ba640c14-69c5-453e-80b2-29051492c0e0","{""num_scrambled_semantic"":""8"",""num_scrambled_causal"":""4"",""num_scrambled_schematic"":""4"",""participantId"":""BAAC0CCE6B4D47CE844F96F763BCAF48"",""assignmentId"":""9f978020-69a5-41d9-bd83-31f762d5e1b7"",""projectId"":""ba640c14-69c5-453e-80b2-29051492c0e0""}","https://test12345.live/?num_scrambled_semantic=8&num_scrambled_causal=4&num_scrambled_schematic=4&participantId=BAAC0CCE6B4D47CE844F96F763BCAF48&assignmentId=9f978020-69a5-41d9-bd83-31f762d5e1b7&projectId=ba640c14-69c5-453e-80b2-29051492c0e0","BAAC0CCE6B4D47CE844F96F763BCAF48-2025-05-14-20-41-12","","null","","images/semantic_sequence/cat_care_semantic/cat_care_semantic_6.png","null","",""
"","","","","","image-button-response","53","336139","0.0-10.0-1.0-1.9","BAAC0CCE6B4D47CE844F96F763BCAF48","BAAC0CCE6B4D47CE844F96F763BCAF48","9f978020-69a5-41d9-bd83-31f762d5e1b7","ba640c14-69c5-453e-80b2-29051492c0e0","{""num_scrambled_semantic"":""8"",""num_scrambled_causal"":""4"",""num_scrambled_schematic"":""4"",""participantId"":""BAAC0CCE6B4D47CE844F96F763BCAF48"",""assignmentId"":""9f978020-69a5-41d9-bd83-31f762d5e1b7"",""projectId"":""ba640c14-69c5-453e-80b2-29051492c0e0""}","https://test12345.live/?num_scrambled_semantic=8&num_scrambled_causal=4&num_scrambled_schematic=4&participantId=BAAC0CCE6B4D47CE844F96F763BCAF48&assignmentId=9f978020-69a5-41d9-bd83-31f762d5e1b7&projectId=ba640c14-69c5-453e-80b2-29051492c0e0","BAAC0CCE6B4D47CE844F96F763BCAF48-2025-05-14-20-41-12","","438","","images/semantic_sequence/cat_care_semantic/cat_care_semantic_6.png","0","",""
"","","","","","image-button-response","54","337941","0.0-10.0-1.0-2.9","BAAC0CCE6B4D47CE844F96F763BCAF48","BAAC0CCE6B4D47CE844F96F763BCAF48","9f978020-69a5-41d9-bd83-31f762d5e1b7","ba640c14-69c5-453e-80b2-29051492c0e0","{""num_scrambled_semantic"":""8"",""num_scrambled_causal"":""4"",""num_scrambled_schematic"":""4"",""participantId"":""BAAC0CCE6B4D47CE844F96F763BCAF48"",""assignmentId"":""9f978020-69a5-41d9-bd83-31f762d5e1b7"",""projectId"":""ba640c14-69c5-453e-80b2-29051492c0e0""}","https://test12345.live/?num_scrambled_semantic=8&num_scrambled_causal=4&num_scrambled_schematic=4&participantId=BAAC0CCE6B4D47CE844F96F763BCAF48&assignmentId=9f978020-69a5-41d9-bd83-31f762d5e1b7&projectId=ba640c14-69c5-453e-80b2-29051492c0e0","BAAC0CCE6B4D47CE844F96F763BCAF48-2025-05-14-20-41-12","","null","","[]","null","",""
"","","","","","html-audio-response","55","352052","0.0-11.0","BAAC0CCE6B4D47CE844F96F763BCAF48","BAAC0CCE6B4D47CE844F96F763BCAF48","9f978020-69a5-41d9-bd83-31f762d5e1b7","ba640c14-69c5-453e-80b2-29051492c0e0","{""num_scrambled_semantic"":""8"",""num_scrambled_causal"":""4"",""num_scrambled_schematic"":""4"",""participantId"":""BAAC0CCE6B4D47CE844F96F763BCAF48"",""assignmentId"":""9f978020-69a5-41d9-bd83-31f762d5e1b7"",""projectId"":""ba640c14-69c5-453e-80b2-29051492c0e0""}","https://test12345.live/?num_scrambled_semantic=8&num_scrambled_causal=4&num_scrambled_schematic=4&participantId=BAAC0CCE6B4D47CE844F96F763BCAF48&assignmentId=9f978020-69a5-41d9-bd83-31f762d5e1b7&projectId=ba640c14-69c5-453e-80b2-29051492c0e0","BAAC0CCE6B4D47CE844F96F763BCAF48-2025-05-14-20-41-12","","2170","","[""<span style=\""color: red; font-size: 24px\""> NOW RECORDING</span><p>Please say out loud all the images you saw, as many as you can remember. The images can be said in any order.</p>""]","","8","cat_care_semantic"
"","","","","","image-button-response","56","358072","0.0-12.0-0.0","BAAC0CCE6B4D47CE844F96F763BCAF48","BAAC0CCE6B4D47CE844F96F763BCAF48","9f978020-69a5-41d9-bd83-31f762d5e1b7","ba640c14-69c5-453e-80b2-29051492c0e0","{""num_scrambled_semantic"":""8"",""num_scrambled_causal"":""4"",""num_scrambled_schematic"":""4"",""participantId"":""BAAC0CCE6B4D47CE844F96F763BCAF48"",""assignmentId"":""9f978020-69a5-41d9-bd83-31f762d5e1b7"",""projectId"":""ba640c14-69c5-453e-80b2-29051492c0e0""}","https://test12345.live/?num_scrambled_semantic=8&num_scrambled_causal=4&num_scrambled_schematic=4&participantId=BAAC0CCE6B4D47CE844F96F763BCAF48&assignmentId=9f978020-69a5-41d9-bd83-31f762d5e1b7&projectId=ba640c14-69c5-453e-80b2-29051492c0e0","BAAC0CCE6B4D47CE844F96F763BCAF48-2025-05-14-20-41-12","","null","","images/semantic_sequence/kitchen_operations_semantic/kitchen_operations_semantic_0.png","null","",""
"","","","","","image-button-response","57","362588","0.0-12.0-1.0-0.0","BAAC0CCE6B4D47CE844F96F763BCAF48","BAAC0CCE6B4D47CE844F96F763BCAF48","9f978020-69a5-41d9-bd83-31f762d5e1b7","ba640c14-69c5-453e-80b2-29051492c0e0","{""num_scrambled_semantic"":""8"",""num_scrambled_causal"":""4"",""num_scrambled_schematic"":""4"",""participantId"":""BAAC0CCE6B4D47CE844F96F763BCAF48"",""assignmentId"":""9f978020-69a5-41d9-bd83-31f762d5e1b7"",""projectId"":""ba640c14-69c5-453e-80b2-29051492c0e0""}","https://test12345.live/?num_scrambled_semantic=8&num_scrambled_causal=4&num_scrambled_schematic=4&participantId=BAAC0CCE6B4D47CE844F96F763BCAF48&assignmentId=9f978020-69a5-41d9-bd83-31f762d5e1b7&projectId=ba640c14-69c5-453e-80b2-29051492c0e0","BAAC0CCE6B4D47CE844F96F763BCAF48-2025-05-14-20-41-12","","null","","images/semantic_sequence/kitchen_operations_semantic/kitchen_operations_semantic_9.png","null","",""
"","","","","","image-button-response","58","363355","0.0-12.0-1.0-1.0","BAAC0CCE6B4D47CE844F96F763BCAF48","BAAC0CCE6B4D47CE844F96F763BCAF48","9f978020-69a5-41d9-bd83-31f762d5e1b7","ba640c14-69c5-453e-80b2-29051492c0e0","{""num_scrambled_semantic"":""8"",""num_scrambled_causal"":""4"",""num_scrambled_schematic"":""4"",""participantId"":""BAAC0CCE6B4D47CE844F96F763BCAF48"",""assignmentId"":""9f978020-69a5-41d9-bd83-31f762d5e1b7"",""projectId"":""ba640c14-69c5-453e-80b2-29051492c0e0""}","https://test12345.live/?num_scrambled_semantic=8&num_scrambled_causal=4&num_scrambled_schematic=4&participantId=BAAC0CCE6B4D47CE844F96F763BCAF48&assignmentId=9f978020-69a5-41d9-bd83-31f762d5e1b7&projectId=ba640c14-69c5-453e-80b2-29051492c0e0","BAAC0CCE6B4D47CE844F96F763BCAF48-2025-05-14-20-41-12","","765","","images/semantic_sequence/kitchen_operations_semantic/kitchen_operations_semantic_9.png","0","",""
"","","","","","image-button-response","59","365170","0.0-12.0-1.0-2.0","BAAC0CCE6B4D47CE844F96F763BCAF48","BAAC0CCE6B4D47CE844F96F763BCAF48","9f978020-69a5-41d9-bd83-31f762d5e1b7","ba640c14-69c5-453e-80b2-29051492c0e0","{""num_scrambled_semantic"":""8"",""num_scrambled_causal"":""4"",""num_scrambled_schematic"":""4"",""participantId"":""BAAC0CCE6B4D47CE844F96F763BCAF48"",""assignmentId"":""9f978020-69a5-41d9-bd83-31f762d5e1b7"",""projectId"":""ba640c14-69c5-453e-80b2-29051492c0e0""}","https://test12345.live/?num_scrambled_semantic=8&num_scrambled_causal=4&num_scrambled_schematic=4&participantId=BAAC0CCE6B4D47CE844F96F763BCAF48&assignmentId=9f978020-69a5-41d9-bd83-31f762d5e1b7&projectId=ba640c14-69c5-453e-80b2-29051492c0e0","BAAC0CCE6B4D47CE844F96F763BCAF48-2025-05-14-20-41-12","","null","","[]","null","",""
"","","","","","image-button-response","60","369673","0.0-12.0-1.0-0.1","BAAC0CCE6B4D47CE844F96F763BCAF48","BAAC0CCE6B4D47CE844F96F763BCAF48","9f978020-69a5-41d9-bd83-31f762d5e1b7","ba640c14-69c5-453e-80b2-29051492c0e0","{""num_scrambled_semantic"":""8"",""num_scrambled_causal"":""4"",""num_scrambled_schematic"":""4"",""participantId"":""BAAC0CCE6B4D47CE844F96F763BCAF48"",""assignmentId"":""9f978020-69a5-41d9-bd83-31f762d5e1b7"",""projectId"":""ba640c14-69c5-453e-80b2-29051492c0e0""}","https://test12345.live/?num_scrambled_semantic=8&num_scrambled_causal=4&num_scrambled_schematic=4&participantId=BAAC0CCE6B4D47CE844F96F763BCAF48&assignmentId=9f978020-69a5-41d9-bd83-31f762d5e1b7&projectId=ba640c14-69c5-453e-80b2-29051492c0e0","BAAC0CCE6B4D47CE844F96F763BCAF48-2025-05-14-20-41-12","","null","","images/semantic_sequence/kitchen_operations_semantic/kitchen_operations_semantic_ten.png","null","",""
"","","","","","image-button-response","61","370211","0.0-12.0-1.0-1.1","BAAC0CCE6B4D47CE844F96F763BCAF48","BAAC0CCE6B4D47CE844F96F763BCAF48","9f978020-69a5-41d9-bd83-31f762d5e1b7","ba640c14-69c5-453e-80b2-29051492c0e0","{""num_scrambled_semantic"":""8"",""num_scrambled_causal"":""4"",""num_scrambled_schematic"":""4"",""participantId"":""BAAC0CCE6B4D47CE844F96F763BCAF48"",""assignmentId"":""9f978020-69a5-41d9-bd83-31f762d5e1b7"",""projectId"":""ba640c14-69c5-453e-80b2-29051492c0e0""}","https://test12345.live/?num_scrambled_semantic=8&num_scrambled_causal=4&num_scrambled_schematic=4&participantId=BAAC0CCE6B4D47CE844F96F763BCAF48&assignmentId=9f978020-69a5-41d9-bd83-31f762d5e1b7&projectId=ba640c14-69c5-453e-80b2-29051492c0e0","BAAC0CCE6B4D47CE844F96F763BCAF48-2025-05-14-20-41-12","","536","","images/semantic_sequence/kitchen_operations_semantic/kitchen_operations_semantic_ten.png","0","",""
"","","","","","image-button-response","62","372020","0.0-12.0-1.0-2.1","BAAC0CCE6B4D47CE844F96F763BCAF48","BAAC0CCE6B4D47CE844F96F763BCAF48","9f978020-69a5-41d9-bd83-31f762d5e1b7","ba640c14-69c5-453e-80b2-29051492c0e0","{""num_scrambled_semantic"":""8"",""num_scrambled_causal"":""4"",""num_scrambled_schematic"":""4"",""participantId"":""BAAC0CCE6B4D47CE844F96F763BCAF48"",""assignmentId"":""9f978020-69a5-41d9-bd83-31f762d5e1b7"",""projectId"":""ba640c14-69c5-453e-80b2-29051492c0e0""}","https://test12345.live/?num_scrambled_semantic=8&num_scrambled_causal=4&num_scrambled_schematic=4&participantId=BAAC0CCE6B4D47CE844F96F763BCAF48&assignmentId=9f978020-69a5-41d9-bd83-31f762d5e1b7&projectId=ba640c14-69c5-453e-80b2-29051492c0e0","BAAC0CCE6B4D47CE844F96F763BCAF48-2025-05-14-20-41-12","","null","","[]","null","",""
"","","","","","image-button-response","63","376522","0.0-12.0-1.0-0.2","BAAC0CCE6B4D47CE844F96F763BCAF48","BAAC0CCE6B4D47CE844F96F763BCAF48","9f978020-69a5-41d9-bd83-31f762d5e1b7","ba640c14-69c5-453e-80b2-29051492c0e0","{""num_scrambled_semantic"":""8"",""num_scrambled_causal"":""4"",""num_scrambled_schematic"":""4"",""participantId"":""BAAC0CCE6B4D47CE844F96F763BCAF48"",""assignmentId"":""9f978020-69a5-41d9-bd83-31f762d5e1b7"",""projectId"":""ba640c14-69c5-453e-80b2-29051492c0e0""}","https://test12345.live/?num_scrambled_semantic=8&num_scrambled_causal=4&num_scrambled_schematic=4&participantId=BAAC0CCE6B4D47CE844F96F763BCAF48&assignmentId=9f978020-69a5-41d9-bd83-31f762d5e1b7&projectId=ba640c14-69c5-453e-80b2-29051492c0e0","BAAC0CCE6B4D47CE844F96F763BCAF48-2025-05-14-20-41-12","","null","","images/semantic_sequence/kitchen_operations_semantic/kitchen_operations_semantic_1.png","null","",""
"","","","","","image-button-response","64","377162","0.0-12.0-1.0-1.2","BAAC0CCE6B4D47CE844F96F763BCAF48","BAAC0CCE6B4D47CE844F96F763BCAF48","9f978020-69a5-41d9-bd83-31f762d5e1b7","ba640c14-69c5-453e-80b2-29051492c0e0","{""num_scrambled_semantic"":""8"",""num_scrambled_causal"":""4"",""num_scrambled_schematic"":""4"",""participantId"":""BAAC0CCE6B4D47CE844F96F763BCAF48"",""assignmentId"":""9f978020-69a5-41d9-bd83-31f762d5e1b7"",""projectId"":""ba640c14-69c5-453e-80b2-29051492c0e0""}","https://test12345.live/?num_scrambled_semantic=8&num_scrambled_causal=4&num_scrambled_schematic=4&participantId=BAAC0CCE6B4D47CE844F96F763BCAF48&assignmentId=9f978020-69a5-41d9-bd83-31f762d5e1b7&projectId=ba640c14-69c5-453e-80b2-29051492c0e0","BAAC0CCE6B4D47CE844F96F763BCAF48-2025-05-14-20-41-12","","639","","images/semantic_sequence/kitchen_operations_semantic/kitchen_operations_semantic_1.png","0","",""
"","","","","","image-button-response","65","378969","0.0-12.0-1.0-2.2","BAAC0CCE6B4D47CE844F96F763BCAF48","BAAC0CCE6B4D47CE844F96F763BCAF48","9f978020-69a5-41d9-bd83-31f762d5e1b7","ba640c14-69c5-453e-80b2-29051492c0e0","{""num_scrambled_semantic"":""8"",""num_scrambled_causal"":""4"",""num_scrambled_schematic"":""4"",""participantId"":""BAAC0CCE6B4D47CE844F96F763BCAF48"",""assignmentId"":""9f978020-69a5-41d9-bd83-31f762d5e1b7"",""projectId"":""ba640c14-69c5-453e-80b2-29051492c0e0""}","https://test12345.live/?num_scrambled_semantic=8&num_scrambled_causal=4&num_scrambled_schematic=4&participantId=BAAC0CCE6B4D47CE844F96F763BCAF48&assignmentId=9f978020-69a5-41d9-bd83-31f762d5e1b7&projectId=ba640c14-69c5-453e-80b2-29051492c0e0","BAAC0CCE6B4D47CE844F96F763BCAF48-2025-05-14-20-41-12","","null","","[]","null","",""
"","","","","","image-button-response","66","383472","0.0-12.0-1.0-0.3","BAAC0CCE6B4D47CE844F96F763BCAF48","BAAC0CCE6B4D47CE844F96F763BCAF48","9f978020-69a5-41d9-bd83-31f762d5e1b7","ba640c14-69c5-453e-80b2-29051492c0e0","{""num_scrambled_semantic"":""8"",""num_scrambled_causal"":""4"",""num_scrambled_schematic"":""4"",""participantId"":""BAAC0CCE6B4D47CE844F96F763BCAF48"",""assignmentId"":""9f978020-69a5-41d9-bd83-31f762d5e1b7"",""projectId"":""ba640c14-69c5-453e-80b2-29051492c0e0""}","https://test12345.live/?num_scrambled_semantic=8&num_scrambled_causal=4&num_scrambled_schematic=4&participantId=BAAC0CCE6B4D47CE844F96F763BCAF48&assignmentId=9f978020-69a5-41d9-bd83-31f762d5e1b7&projectId=ba640c14-69c5-453e-80b2-29051492c0e0","BAAC0CCE6B4D47CE844F96F763BCAF48-2025-05-14-20-41-12","","null","","images/semantic_sequence/kitchen_operations_semantic/kitchen_operations_semantic_6.png","null","",""
"","","","","","image-button-response","67","384067","0.0-12.0-1.0-1.3","BAAC0CCE6B4D47CE844F96F763BCAF48","BAAC0CCE6B4D47CE844F96F763BCAF48","9f978020-69a5-41d9-bd83-31f762d5e1b7","ba640c14-69c5-453e-80b2-29051492c0e0","{""num_scrambled_semantic"":""8"",""num_scrambled_causal"":""4"",""num_scrambled_schematic"":""4"",""participantId"":""BAAC0CCE6B4D47CE844F96F763BCAF48"",""assignmentId"":""9f978020-69a5-41d9-bd83-31f762d5e1b7"",""projectId"":""ba640c14-69c5-453e-80b2-29051492c0e0""}","https://test12345.live/?num_scrambled_semantic=8&num_scrambled_causal=4&num_scrambled_schematic=4&participantId=BAAC0CCE6B4D47CE844F96F763BCAF48&assignmentId=9f978020-69a5-41d9-bd83-31f762d5e1b7&projectId=ba640c14-69c5-453e-80b2-29051492c0e0","BAAC0CCE6B4D47CE844F96F763BCAF48-2025-05-14-20-41-12","","594","","images/semantic_sequence/kitchen_operations_semantic/kitchen_operations_semantic_6.png","0","",""
"","","","","","image-button-response","68","385872","0.0-12.0-1.0-2.3","BAAC0CCE6B4D47CE844F96F763BCAF48","BAAC0CCE6B4D47CE844F96F763BCAF48","9f978020-69a5-41d9-bd83-31f762d5e1b7","ba640c14-69c5-453e-80b2-29051492c0e0","{""num_scrambled_semantic"":""8"",""num_scrambled_causal"":""4"",""num_scrambled_schematic"":""4"",""participantId"":""BAAC0CCE6B4D47CE844F96F763BCAF48"",""assignmentId"":""9f978020-69a5-41d9-bd83-31f762d5e1b7"",""projectId"":""ba640c14-69c5-453e-80b2-29051492c0e0""}","https://test12345.live/?num_scrambled_semantic=8&num_scrambled_causal=4&num_scrambled_schematic=4&participantId=BAAC0CCE6B4D47CE844F96F763BCAF48&assignmentId=9f978020-69a5-41d9-bd83-31f762d5e1b7&projectId=ba640c14-69c5-453e-80b2-29051492c0e0","BAAC0CCE6B4D47CE844F96F763BCAF48-2025-05-14-20-41-12","","null","","[]","null","",""
"","","","","","image-button-response","69","390387","0.0-12.0-1.0-0.4","BAAC0CCE6B4D47CE844F96F763BCAF48","BAAC0CCE6B4D47CE844F96F763BCAF48","9f978020-69a5-41d9-bd83-31f762d5e1b7","ba640c14-69c5-453e-80b2-29051492c0e0","{""num_scrambled_semantic"":""8"",""num_scrambled_causal"":""4"",""num_scrambled_schematic"":""4"",""participantId"":""BAAC0CCE6B4D47CE844F96F763BCAF48"",""assignmentId"":""9f978020-69a5-41d9-bd83-31f762d5e1b7"",""projectId"":""ba640c14-69c5-453e-80b2-29051492c0e0""}","https://test12345.live/?num_scrambled_semantic=8&num_scrambled_causal=4&num_scrambled_schematic=4&participantId=BAAC0CCE6B4D47CE844F96F763BCAF48&assignmentId=9f978020-69a5-41d9-bd83-31f762d5e1b7&projectId=ba640c14-69c5-453e-80b2-29051492c0e0","BAAC0CCE6B4D47CE844F96F763BCAF48-2025-05-14-20-41-12","","null","","images/semantic_sequence/kitchen_operations_semantic/kitchen_operations_semantic_2.png","null","",""
"","","","","","image-button-response","70","390827","0.0-12.0-1.0-1.4","BAAC0CCE6B4D47CE844F96F763BCAF48","BAAC0CCE6B4D47CE844F96F763BCAF48","9f978020-69a5-41d9-bd83-31f762d5e1b7","ba640c14-69c5-453e-80b2-29051492c0e0","{""num_scrambled_semantic"":""8"",""num_scrambled_causal"":""4"",""num_scrambled_schematic"":""4"",""participantId"":""BAAC0CCE6B4D47CE844F96F763BCAF48"",""assignmentId"":""9f978020-69a5-41d9-bd83-31f762d5e1b7"",""projectId"":""ba640c14-69c5-453e-80b2-29051492c0e0""}","https://test12345.live/?num_scrambled_semantic=8&num_scrambled_causal=4&num_scrambled_schematic=4&participantId=BAAC0CCE6B4D47CE844F96F763BCAF48&assignmentId=9f978020-69a5-41d9-bd83-31f762d5e1b7&projectId=ba640c14-69c5-453e-80b2-29051492c0e0","BAAC0CCE6B4D47CE844F96F763BCAF48-2025-05-14-20-41-12","","438","","images/semantic_sequence/kitchen_operations_semantic/kitchen_operations_semantic_2.png","0","",""
"","","","","","image-button-response","71","392636","0.0-12.0-1.0-2.4","BAAC0CCE6B4D47CE844F96F763BCAF48","BAAC0CCE6B4D47CE844F96F763BCAF48","9f978020-69a5-41d9-bd83-31f762d5e1b7","ba640c14-69c5-453e-80b2-29051492c0e0","{""num_scrambled_semantic"":""8"",""num_scrambled_causal"":""4"",""num_scrambled_schematic"":""4"",""participantId"":""BAAC0CCE6B4D47CE844F96F763BCAF48"",""assignmentId"":""9f978020-69a5-41d9-bd83-31f762d5e1b7"",""projectId"":""ba640c14-69c5-453e-80b2-29051492c0e0""}","https://test12345.live/?num_scrambled_semantic=8&num_scrambled_causal=4&num_scrambled_schematic=4&participantId=BAAC0CCE6B4D47CE844F96F763BCAF48&assignmentId=9f978020-69a5-41d9-bd83-31f762d5e1b7&projectId=ba640c14-69c5-453e-80b2-29051492c0e0","BAAC0CCE6B4D47CE844F96F763BCAF48-2025-05-14-20-41-12","","null","","[]","null","",""
"","","","","","image-button-response","72","397138","0.0-12.0-1.0-0.5","BAAC0CCE6B4D47CE844F96F763BCAF48","BAAC0CCE6B4D47CE844F96F763BCAF48","9f978020-69a5-41d9-bd83-31f762d5e1b7","ba640c14-69c5-453e-80b2-29051492c0e0","{""num_scrambled_semantic"":""8"",""num_scrambled_causal"":""4"",""num_scrambled_schematic"":""4"",""participantId"":""BAAC0CCE6B4D47CE844F96F763BCAF48"",""assignmentId"":""9f978020-69a5-41d9-bd83-31f762d5e1b7"",""projectId"":""ba640c14-69c5-453e-80b2-29051492c0e0""}","https://test12345.live/?num_scrambled_semantic=8&num_scrambled_causal=4&num_scrambled_schematic=4&participantId=BAAC0CCE6B4D47CE844F96F763BCAF48&assignmentId=9f978020-69a5-41d9-bd83-31f762d5e1b7&projectId=ba640c14-69c5-453e-80b2-29051492c0e0","BAAC0CCE6B4D47CE844F96F763BCAF48-2025-05-14-20-41-12","","null","","images/semantic_sequence/kitchen_operations_semantic/kitchen_operations_semantic_3.png","null","",""
"","","","","","image-button-response","73","397546","0.0-12.0-1.0-1.5","BAAC0CCE6B4D47CE844F96F763BCAF48","BAAC0CCE6B4D47CE844F96F763BCAF48","9f978020-69a5-41d9-bd83-31f762d5e1b7","ba640c14-69c5-453e-80b2-29051492c0e0","{""num_scrambled_semantic"":""8"",""num_scrambled_causal"":""4"",""num_scrambled_schematic"":""4"",""participantId"":""BAAC0CCE6B4D47CE844F96F763BCAF48"",""assignmentId"":""9f978020-69a5-41d9-bd83-31f762d5e1b7"",""projectId"":""ba640c14-69c5-453e-80b2-29051492c0e0""}","https://test12345.live/?num_scrambled_semantic=8&num_scrambled_causal=4&num_scrambled_schematic=4&participantId=BAAC0CCE6B4D47CE844F96F763BCAF48&assignmentId=9f978020-69a5-41d9-bd83-31f762d5e1b7&projectId=ba640c14-69c5-453e-80b2-29051492c0e0","BAAC0CCE6B4D47CE844F96F763BCAF48-2025-05-14-20-41-12","","407","","images/semantic_sequence/kitchen_operations_semantic/kitchen_operations_semantic_3.png","0","",""
"","","","","","image-button-response","74","399352","0.0-12.0-1.0-2.5","BAAC0CCE6B4D47CE844F96F763BCAF48","BAAC0CCE6B4D47CE844F96F763BCAF48","9f978020-69a5-41d9-bd83-31f762d5e1b7","ba640c14-69c5-453e-80b2-29051492c0e0","{""num_scrambled_semantic"":""8"",""num_scrambled_causal"":""4"",""num_scrambled_schematic"":""4"",""participantId"":""BAAC0CCE6B4D47CE844F96F763BCAF48"",""assignmentId"":""9f978020-69a5-41d9-bd83-31f762d5e1b7"",""projectId"":""ba640c14-69c5-453e-80b2-29051492c0e0""}","https://test12345.live/?num_scrambled_semantic=8&num_scrambled_causal=4&num_scrambled_schematic=4&participantId=BAAC0CCE6B4D47CE844F96F763BCAF48&assignmentId=9f978020-69a5-41d9-bd83-31f762d5e1b7&projectId=ba640c14-69c5-453e-80b2-29051492c0e0","BAAC0CCE6B4D47CE844F96F763BCAF48-2025-05-14-20-41-12","","null","","[]","null","",""
"","","","","","image-button-response","75","403854","0.0-12.0-1.0-0.6","BAAC0CCE6B4D47CE844F96F763BCAF48","BAAC0CCE6B4D47CE844F96F763BCAF48","9f978020-69a5-41d9-bd83-31f762d5e1b7","ba640c14-69c5-453e-80b2-29051492c0e0","{""num_scrambled_semantic"":""8"",""num_scrambled_causal"":""4"",""num_scrambled_schematic"":""4"",""participantId"":""BAAC0CCE6B4D47CE844F96F763BCAF48"",""assignmentId"":""9f978020-69a5-41d9-bd83-31f762d5e1b7"",""projectId"":""ba640c14-69c5-453e-80b2-29051492c0e0""}","https://test12345.live/?num_scrambled_semantic=8&num_scrambled_causal=4&num_scrambled_schematic=4&participantId=BAAC0CCE6B4D47CE844F96F763BCAF48&assignmentId=9f978020-69a5-41d9-bd83-31f762d5e1b7&projectId=ba640c14-69c5-453e-80b2-29051492c0e0","BAAC0CCE6B4D47CE844F96F763BCAF48-2025-05-14-20-41-12","","null","","images/semantic_sequence/kitchen_operations_semantic/kitchen_operations_semantic_7.png","null","",""
"","","","","","image-button-response","76","404354","0.0-12.0-1.0-1.6","BAAC0CCE6B4D47CE844F96F763BCAF48","BAAC0CCE6B4D47CE844F96F763BCAF48","9f978020-69a5-41d9-bd83-31f762d5e1b7","ba640c14-69c5-453e-80b2-29051492c0e0","{""num_scrambled_semantic"":""8"",""num_scrambled_causal"":""4"",""num_scrambled_schematic"":""4"",""participantId"":""BAAC0CCE6B4D47CE844F96F763BCAF48"",""assignmentId"":""9f978020-69a5-41d9-bd83-31f762d5e1b7"",""projectId"":""ba640c14-69c5-453e-80b2-29051492c0e0""}","https://test12345.live/?num_scrambled_semantic=8&num_scrambled_causal=4&num_scrambled_schematic=4&participantId=BAAC0CCE6B4D47CE844F96F763BCAF48&assignmentId=9f978020-69a5-41d9-bd83-31f762d5e1b7&projectId=ba640c14-69c5-453e-80b2-29051492c0e0","BAAC0CCE6B4D47CE844F96F763BCAF48-2025-05-14-20-41-12","","498","","images/semantic_sequence/kitchen_operations_semantic/kitchen_operations_semantic_7.png","0","",""
"","","","","","image-button-response","77","406169","0.0-12.0-1.0-2.6","BAAC0CCE6B4D47CE844F96F763BCAF48","BAAC0CCE6B4D47CE844F96F763BCAF48","9f978020-69a5-41d9-bd83-31f762d5e1b7","ba640c14-69c5-453e-80b2-29051492c0e0","{""num_scrambled_semantic"":""8"",""num_scrambled_causal"":""4"",""num_scrambled_schematic"":""4"",""participantId"":""BAAC0CCE6B4D47CE844F96F763BCAF48"",""assignmentId"":""9f978020-69a5-41d9-bd83-31f762d5e1b7"",""projectId"":""ba640c14-69c5-453e-80b2-29051492c0e0""}","https://test12345.live/?num_scrambled_semantic=8&num_scrambled_causal=4&num_scrambled_schematic=4&participantId=BAAC0CCE6B4D47CE844F96F763BCAF48&assignmentId=9f978020-69a5-41d9-bd83-31f762d5e1b7&projectId=ba640c14-69c5-453e-80b2-29051492c0e0","BAAC0CCE6B4D47CE844F96F763BCAF48-2025-05-14-20-41-12","","null","","[]","null","",""
"","","","","","image-button-response","78","410685","0.0-12.0-1.0-0.7","BAAC0CCE6B4D47CE844F96F763BCAF48","BAAC0CCE6B4D47CE844F96F763BCAF48","9f978020-69a5-41d9-bd83-31f762d5e1b7","ba640c14-69c5-453e-80b2-29051492c0e0","{""num_scrambled_semantic"":""8"",""num_scrambled_causal"":""4"",""num_scrambled_schematic"":""4"",""participantId"":""BAAC0CCE6B4D47CE844F96F763BCAF48"",""assignmentId"":""9f978020-69a5-41d9-bd83-31f762d5e1b7"",""projectId"":""ba640c14-69c5-453e-80b2-29051492c0e0""}","https://test12345.live/?num_scrambled_semantic=8&num_scrambled_causal=4&num_scrambled_schematic=4&participantId=BAAC0CCE6B4D47CE844F96F763BCAF48&assignmentId=9f978020-69a5-41d9-bd83-31f762d5e1b7&projectId=ba640c14-69c5-453e-80b2-29051492c0e0","BAAC0CCE6B4D47CE844F96F763BCAF48-2025-05-14-20-41-12","","null","","images/semantic_sequence/kitchen_operations_semantic/kitchen_operations_semantic_4.png","null","",""
"","","","","","image-button-response","79","411222","0.0-12.0-1.0-1.7","BAAC0CCE6B4D47CE844F96F763BCAF48","BAAC0CCE6B4D47CE844F96F763BCAF48","9f978020-69a5-41d9-bd83-31f762d5e1b7","ba640c14-69c5-453e-80b2-29051492c0e0","{""num_scrambled_semantic"":""8"",""num_scrambled_causal"":""4"",""num_scrambled_schematic"":""4"",""participantId"":""BAAC0CCE6B4D47CE844F96F763BCAF48"",""assignmentId"":""9f978020-69a5-41d9-bd83-31f762d5e1b7"",""projectId"":""ba640c14-69c5-453e-80b2-29051492c0e0""}","https://test12345.live/?num_scrambled_semantic=8&num_scrambled_causal=4&num_scrambled_schematic=4&participantId=BAAC0CCE6B4D47CE844F96F763BCAF48&assignmentId=9f978020-69a5-41d9-bd83-31f762d5e1b7&projectId=ba640c14-69c5-453e-80b2-29051492c0e0","BAAC0CCE6B4D47CE844F96F763BCAF48-2025-05-14-20-41-12","","534","","images/semantic_sequence/kitchen_operations_semantic/kitchen_operations_semantic_4.png","0","",""
"","","","","","image-button-response","80","413035","0.0-12.0-1.0-2.7","BAAC0CCE6B4D47CE844F96F763BCAF48","BAAC0CCE6B4D47CE844F96F763BCAF48","9f978020-69a5-41d9-bd83-31f762d5e1b7","ba640c14-69c5-453e-80b2-29051492c0e0","{""num_scrambled_semantic"":""8"",""num_scrambled_causal"":""4"",""num_scrambled_schematic"":""4"",""participantId"":""BAAC0CCE6B4D47CE844F96F763BCAF48"",""assignmentId"":""9f978020-69a5-41d9-bd83-31f762d5e1b7"",""projectId"":""ba640c14-69c5-453e-80b2-29051492c0e0""}","https://test12345.live/?num_scrambled_semantic=8&num_scrambled_causal=4&num_scrambled_schematic=4&participantId=BAAC0CCE6B4D47CE844F96F763BCAF48&assignmentId=9f978020-69a5-41d9-bd83-31f762d5e1b7&projectId=ba640c14-69c5-453e-80b2-29051492c0e0","BAAC0CCE6B4D47CE844F96F763BCAF48-2025-05-14-20-41-12","","null","","[]","null","",""
"","","","","","image-button-response","81","417552","0.0-12.0-1.0-0.8","BAAC0CCE6B4D47CE844F96F763BCAF48","BAAC0CCE6B4D47CE844F96F763BCAF48","9f978020-69a5-41d9-bd83-31f762d5e1b7","ba640c14-69c5-453e-80b2-29051492c0e0","{""num_scrambled_semantic"":""8"",""num_scrambled_causal"":""4"",""num_scrambled_schematic"":""4"",""participantId"":""BAAC0CCE6B4D47CE844F96F763BCAF48"",""assignmentId"":""9f978020-69a5-41d9-bd83-31f762d5e1b7"",""projectId"":""ba640c14-69c5-453e-80b2-29051492c0e0""}","https://test12345.live/?num_scrambled_semantic=8&num_scrambled_causal=4&num_scrambled_schematic=4&participantId=BAAC0CCE6B4D47CE844F96F763BCAF48&assignmentId=9f978020-69a5-41d9-bd83-31f762d5e1b7&projectId=ba640c14-69c5-453e-80b2-29051492c0e0","BAAC0CCE6B4D47CE844F96F763BCAF48-2025-05-14-20-41-12","","null","","images/semantic_sequence/kitchen_operations_semantic/kitchen_operations_semantic_5.png","null","",""
"","","","","","image-button-response","82","417978","0.0-12.0-1.0-1.8","BAAC0CCE6B4D47CE844F96F763BCAF48","BAAC0CCE6B4D47CE844F96F763BCAF48","9f978020-69a5-41d9-bd83-31f762d5e1b7","ba640c14-69c5-453e-80b2-29051492c0e0","{""num_scrambled_semantic"":""8"",""num_scrambled_causal"":""4"",""num_scrambled_schematic"":""4"",""participantId"":""BAAC0CCE6B4D47CE844F96F763BCAF48"",""assignmentId"":""9f978020-69a5-41d9-bd83-31f762d5e1b7"",""projectId"":""ba640c14-69c5-453e-80b2-29051492c0e0""}","https://test12345.live/?num_scrambled_semantic=8&num_scrambled_causal=4&num_scrambled_schematic=4&participantId=BAAC0CCE6B4D47CE844F96F763BCAF48&assignmentId=9f978020-69a5-41d9-bd83-31f762d5e1b7&projectId=ba640c14-69c5-453e-80b2-29051492c0e0","BAAC0CCE6B4D47CE844F96F763BCAF48-2025-05-14-20-41-12","","425","","images/semantic_sequence/kitchen_operations_semantic/kitchen_operations_semantic_5.png","0","",""
"","","","","","image-button-response","83","419784","0.0-12.0-1.0-2.8","BAAC0CCE6B4D47CE844F96F763BCAF48","BAAC0CCE6B4D47CE844F96F763BCAF48","9f978020-69a5-41d9-bd83-31f762d5e1b7","ba640c14-69c5-453e-80b2-29051492c0e0","{""num_scrambled_semantic"":""8"",""num_scrambled_causal"":""4"",""num_scrambled_schematic"":""4"",""participantId"":""BAAC0CCE6B4D47CE844F96F763BCAF48"",""assignmentId"":""9f978020-69a5-41d9-bd83-31f762d5e1b7"",""projectId"":""ba640c14-69c5-453e-80b2-29051492c0e0""}","https://test12345.live/?num_scrambled_semantic=8&num_scrambled_causal=4&num_scrambled_schematic=4&participantId=BAAC0CCE6B4D47CE844F96F763BCAF48&assignmentId=9f978020-69a5-41d9-bd83-31f762d5e1b7&projectId=ba640c14-69c5-453e-80b2-29051492c0e0","BAAC0CCE6B4D47CE844F96F763BCAF48-2025-05-14-20-41-12","","null","","[]","null","",""
"","","","","","image-button-response","84","424286","0.0-12.0-1.0-0.9","BAAC0CCE6B4D47CE844F96F763BCAF48","BAAC0CCE6B4D47CE844F96F763BCAF48","9f978020-69a5-41d9-bd83-31f762d5e1b7","ba640c14-69c5-453e-80b2-29051492c0e0","{""num_scrambled_semantic"":""8"",""num_scrambled_causal"":""4"",""num_scrambled_schematic"":""4"",""participantId"":""BAAC0CCE6B4D47CE844F96F763BCAF48"",""assignmentId"":""9f978020-69a5-41d9-bd83-31f762d5e1b7"",""projectId"":""ba640c14-69c5-453e-80b2-29051492c0e0""}","https://test12345.live/?num_scrambled_semantic=8&num_scrambled_causal=4&num_scrambled_schematic=4&participantId=BAAC0CCE6B4D47CE844F96F763BCAF48&assignmentId=9f978020-69a5-41d9-bd83-31f762d5e1b7&projectId=ba640c14-69c5-453e-80b2-29051492c0e0","BAAC0CCE6B4D47CE844F96F763BCAF48-2025-05-14-20-41-12","","null","","images/semantic_sequence/kitchen_operations_semantic/kitchen_operations_semantic_8.png","null","",""
"","","","","","image-button-response","85","424818","0.0-12.0-1.0-1.9","BAAC0CCE6B4D47CE844F96F763BCAF48","BAAC0CCE6B4D47CE844F96F763BCAF48","9f978020-69a5-41d9-bd83-31f762d5e1b7","ba640c14-69c5-453e-80b2-29051492c0e0","{""num_scrambled_semantic"":""8"",""num_scrambled_causal"":""4"",""num_scrambled_schematic"":""4"",""participantId"":""BAAC0CCE6B4D47CE844F96F763BCAF48"",""assignmentId"":""9f978020-69a5-41d9-bd83-31f762d5e1b7"",""projectId"":""ba640c14-69c5-453e-80b2-29051492c0e0""}","https://test12345.live/?num_scrambled_semantic=8&num_scrambled_causal=4&num_scrambled_schematic=4&participantId=BAAC0CCE6B4D47CE844F96F763BCAF48&assignmentId=9f978020-69a5-41d9-bd83-31f762d5e1b7&projectId=ba640c14-69c5-453e-80b2-29051492c0e0","BAAC0CCE6B4D47CE844F96F763BCAF48-2025-05-14-20-41-12","","530","","images/semantic_sequence/kitchen_operations_semantic/kitchen_operations_semantic_8.png","0","",""
"","","","","","image-button-response","86","426636","0.0-12.0-1.0-2.9","BAAC0CCE6B4D47CE844F96F763BCAF48","BAAC0CCE6B4D47CE844F96F763BCAF48","9f978020-69a5-41d9-bd83-31f762d5e1b7","ba640c14-69c5-453e-80b2-29051492c0e0","{""num_scrambled_semantic"":""8"",""num_scrambled_causal"":""4"",""num_scrambled_schematic"":""4"",""participantId"":""BAAC0CCE6B4D47CE844F96F763BCAF48"",""assignmentId"":""9f978020-69a5-41d9-bd83-31f762d5e1b7"",""projectId"":""ba640c14-69c5-453e-80b2-29051492c0e0""}","https://test12345.live/?num_scrambled_semantic=8&num_scrambled_causal=4&num_scrambled_schematic=4&participantId=BAAC0CCE6B4D47CE844F96F763BCAF48&assignmentId=9f978020-69a5-41d9-bd83-31f762d5e1b7&projectId=ba640c14-69c5-453e-80b2-29051492c0e0","BAAC0CCE6B4D47CE844F96F763BCAF48-2025-05-14-20-41-12","","null","","[]","null","",""
"","","","","","html-audio-response","87","454330","0.0-13.0","BAAC0CCE6B4D47CE844F96F763BCAF48","BAAC0CCE6B4D47CE844F96F763BCAF48","9f978020-69a5-41d9-bd83-31f762d5e1b7","ba640c14-69c5-453e-80b2-29051492c0e0","{""num_scrambled_semantic"":""8"",""num_scrambled_causal"":""4"",""num_scrambled_schematic"":""4"",""participantId"":""BAAC0CCE6B4D47CE844F96F763BCAF48"",""assignmentId"":""9f978020-69a5-41d9-bd83-31f762d5e1b7"",""projectId"":""ba640c14-69c5-453e-80b2-29051492c0e0""}","https://test12345.live/?num_scrambled_semantic=8&num_scrambled_causal=4&num_scrambled_schematic=4&participantId=BAAC0CCE6B4D47CE844F96F763BCAF48&assignmentId=9f978020-69a5-41d9-bd83-31f762d5e1b7&projectId=ba640c14-69c5-453e-80b2-29051492c0e0","BAAC0CCE6B4D47CE844F96F763BCAF48-2025-05-14-20-41-12","","2615","","[""<span style=\""color: red; font-size: 24px\""> NOW RECORDING</span><p>Please say out loud all the images you saw, as many as you can remember. The images can be said in any order.</p>""]","","13","kitchen_operations_semantic"
"","","","","","image-button-response","88","460335","0.0-14.0-0.0","BAAC0CCE6B4D47CE844F96F763BCAF48","BAAC0CCE6B4D47CE844F96F763BCAF48","9f978020-69a5-41d9-bd83-31f762d5e1b7","ba640c14-69c5-453e-80b2-29051492c0e0","{""num_scrambled_semantic"":""8"",""num_scrambled_causal"":""4"",""num_scrambled_schematic"":""4"",""participantId"":""BAAC0CCE6B4D47CE844F96F763BCAF48"",""assignmentId"":""9f978020-69a5-41d9-bd83-31f762d5e1b7"",""projectId"":""ba640c14-69c5-453e-80b2-29051492c0e0""}","https://test12345.live/?num_scrambled_semantic=8&num_scrambled_causal=4&num_scrambled_schematic=4&participantId=BAAC0CCE6B4D47CE844F96F763BCAF48&assignmentId=9f978020-69a5-41d9-bd83-31f762d5e1b7&projectId=ba640c14-69c5-453e-80b2-29051492c0e0","BAAC0CCE6B4D47CE844F96F763BCAF48-2025-05-14-20-41-12","","null","","images/schematic_sequence/dinner_party_scheme/dinner_party_scheme_0.png","null","",""
"","","","","","image-button-response","89","464850","0.0-14.0-1.0-0.0","BAAC0CCE6B4D47CE844F96F763BCAF48","BAAC0CCE6B4D47CE844F96F763BCAF48","9f978020-69a5-41d9-bd83-31f762d5e1b7","ba640c14-69c5-453e-80b2-29051492c0e0","{""num_scrambled_semantic"":""8"",""num_scrambled_causal"":""4"",""num_scrambled_schematic"":""4"",""participantId"":""BAAC0CCE6B4D47CE844F96F763BCAF48"",""assignmentId"":""9f978020-69a5-41d9-bd83-31f762d5e1b7"",""projectId"":""ba640c14-69c5-453e-80b2-29051492c0e0""}","https://test12345.live/?num_scrambled_semantic=8&num_scrambled_causal=4&num_scrambled_schematic=4&participantId=BAAC0CCE6B4D47CE844F96F763BCAF48&assignmentId=9f978020-69a5-41d9-bd83-31f762d5e1b7&projectId=ba640c14-69c5-453e-80b2-29051492c0e0","BAAC0CCE6B4D47CE844F96F763BCAF48-2025-05-14-20-41-12","","null","","images/schematic_sequence/dinner_party_scheme/dinner_party_scheme_6.png","null","",""
"","","","","","image-button-response","90","465586","0.0-14.0-1.0-1.0","BAAC0CCE6B4D47CE844F96F763BCAF48","BAAC0CCE6B4D47CE844F96F763BCAF48","9f978020-69a5-41d9-bd83-31f762d5e1b7","ba640c14-69c5-453e-80b2-29051492c0e0","{""num_scrambled_semantic"":""8"",""num_scrambled_causal"":""4"",""num_scrambled_schematic"":""4"",""participantId"":""BAAC0CCE6B4D47CE844F96F763BCAF48"",""assignmentId"":""9f978020-69a5-41d9-bd83-31f762d5e1b7"",""projectId"":""ba640c14-69c5-453e-80b2-29051492c0e0""}","https://test12345.live/?num_scrambled_semantic=8&num_scrambled_causal=4&num_scrambled_schematic=4&participantId=BAAC0CCE6B4D47CE844F96F763BCAF48&assignmentId=9f978020-69a5-41d9-bd83-31f762d5e1b7&projectId=ba640c14-69c5-453e-80b2-29051492c0e0","BAAC0CCE6B4D47CE844F96F763BCAF48-2025-05-14-20-41-12","","735","","images/schematic_sequence/dinner_party_scheme/dinner_party_scheme_6.png","0","",""
"","","","","","image-button-response","91","467399","0.0-14.0-1.0-2.0","BAAC0CCE6B4D47CE844F96F763BCAF48","BAAC0CCE6B4D47CE844F96F763BCAF48","9f978020-69a5-41d9-bd83-31f762d5e1b7","ba640c14-69c5-453e-80b2-29051492c0e0","{""num_scrambled_semantic"":""8"",""num_scrambled_causal"":""4"",""num_scrambled_schematic"":""4"",""participantId"":""BAAC0CCE6B4D47CE844F96F763BCAF48"",""assignmentId"":""9f978020-69a5-41d9-bd83-31f762d5e1b7"",""projectId"":""ba640c14-69c5-453e-80b2-29051492c0e0""}","https://test12345.live/?num_scrambled_semantic=8&num_scrambled_causal=4&num_scrambled_schematic=4&participantId=BAAC0CCE6B4D47CE844F96F763BCAF48&assignmentId=9f978020-69a5-41d9-bd83-31f762d5e1b7&projectId=ba640c14-69c5-453e-80b2-29051492c0e0","BAAC0CCE6B4D47CE844F96F763BCAF48-2025-05-14-20-41-12","","null","","[]","null","",""
"","","","","","image-button-response","92","471901","0.0-14.0-1.0-0.1","BAAC0CCE6B4D47CE844F96F763BCAF48","BAAC0CCE6B4D47CE844F96F763BCAF48","9f978020-69a5-41d9-bd83-31f762d5e1b7","ba640c14-69c5-453e-80b2-29051492c0e0","{""num_scrambled_semantic"":""8"",""num_scrambled_causal"":""4"",""num_scrambled_schematic"":""4"",""participantId"":""BAAC0CCE6B4D47CE844F96F763BCAF48"",""assignmentId"":""9f978020-69a5-41d9-bd83-31f762d5e1b7"",""projectId"":""ba640c14-69c5-453e-80b2-29051492c0e0""}","https://test12345.live/?num_scrambled_semantic=8&num_scrambled_causal=4&num_scrambled_schematic=4&participantId=BAAC0CCE6B4D47CE844F96F763BCAF48&assignmentId=9f978020-69a5-41d9-bd83-31f762d5e1b7&projectId=ba640c14-69c5-453e-80b2-29051492c0e0","BAAC0CCE6B4D47CE844F96F763BCAF48-2025-05-14-20-41-12","","null","","images/schematic_sequence/dinner_party_scheme/dinner_party_scheme_5.png","null","",""
"","","","","","image-button-response","93","472363","0.0-14.0-1.0-1.1","BAAC0CCE6B4D47CE844F96F763BCAF48","BAAC0CCE6B4D47CE844F96F763BCAF48","9f978020-69a5-41d9-bd83-31f762d5e1b7","ba640c14-69c5-453e-80b2-29051492c0e0","{""num_scrambled_semantic"":""8"",""num_scrambled_causal"":""4"",""num_scrambled_schematic"":""4"",""participantId"":""BAAC0CCE6B4D47CE844F96F763BCAF48"",""assignmentId"":""9f978020-69a5-41d9-bd83-31f762d5e1b7"",""projectId"":""ba640c14-69c5-453e-80b2-29051492c0e0""}","https://test12345.live/?num_scrambled_semantic=8&num_scrambled_causal=4&num_scrambled_schematic=4&participantId=BAAC0CCE6B4D47CE844F96F763BCAF48&assignmentId=9f978020-69a5-41d9-bd83-31f762d5e1b7&projectId=ba640c14-69c5-453e-80b2-29051492c0e0","BAAC0CCE6B4D47CE844F96F763BCAF48-2025-05-14-20-41-12","","460","","images/schematic_sequence/dinner_party_scheme/dinner_party_scheme_5.png","0","",""
"","","","","","image-button-response","94","474167","0.0-14.0-1.0-2.1","BAAC0CCE6B4D47CE844F96F763BCAF48","BAAC0CCE6B4D47CE844F96F763BCAF48","9f978020-69a5-41d9-bd83-31f762d5e1b7","ba640c14-69c5-453e-80b2-29051492c0e0","{""num_scrambled_semantic"":""8"",""num_scrambled_causal"":""4"",""num_scrambled_schematic"":""4"",""participantId"":""BAAC0CCE6B4D47CE844F96F763BCAF48"",""assignmentId"":""9f978020-69a5-41d9-bd83-31f762d5e1b7"",""projectId"":""ba640c14-69c5-453e-80b2-29051492c0e0""}","https://test12345.live/?num_scrambled_semantic=8&num_scrambled_causal=4&num_scrambled_schematic=4&participantId=BAAC0CCE6B4D47CE844F96F763BCAF48&assignmentId=9f978020-69a5-41d9-bd83-31f762d5e1b7&projectId=ba640c14-69c5-453e-80b2-29051492c0e0","BAAC0CCE6B4D47CE844F96F763BCAF48-2025-05-14-20-41-12","","null","","[]","null","",""
"","","","","","image-button-response","95","478683","0.0-14.0-1.0-0.2","BAAC0CCE6B4D47CE844F96F763BCAF48","BAAC0CCE6B4D47CE844F96F763BCAF48","9f978020-69a5-41d9-bd83-31f762d5e1b7","ba640c14-69c5-453e-80b2-29051492c0e0","{""num_scrambled_semantic"":""8"",""num_scrambled_causal"":""4"",""num_scrambled_schematic"":""4"",""participantId"":""BAAC0CCE6B4D47CE844F96F763BCAF48"",""assignmentId"":""9f978020-69a5-41d9-bd83-31f762d5e1b7"",""projectId"":""ba640c14-69c5-453e-80b2-29051492c0e0""}","https://test12345.live/?num_scrambled_semantic=8&num_scrambled_causal=4&num_scrambled_schematic=4&participantId=BAAC0CCE6B4D47CE844F96F763BCAF48&assignmentId=9f978020-69a5-41d9-bd83-31f762d5e1b7&projectId=ba640c14-69c5-453e-80b2-29051492c0e0","BAAC0CCE6B4D47CE844F96F763BCAF48-2025-05-14-20-41-12","","null","","images/schematic_sequence/dinner_party_scheme/dinner_party_scheme_7.png","null","",""
"","","","","","image-button-response","96","479146","0.0-14.0-1.0-1.2","BAAC0CCE6B4D47CE844F96F763BCAF48","BAAC0CCE6B4D47CE844F96F763BCAF48","9f978020-69a5-41d9-bd83-31f762d5e1b7","ba640c14-69c5-453e-80b2-29051492c0e0","{""num_scrambled_semantic"":""8"",""num_scrambled_causal"":""4"",""num_scrambled_schematic"":""4"",""participantId"":""BAAC0CCE6B4D47CE844F96F763BCAF48"",""assignmentId"":""9f978020-69a5-41d9-bd83-31f762d5e1b7"",""projectId"":""ba640c14-69c5-453e-80b2-29051492c0e0""}","https://test12345.live/?num_scrambled_semantic=8&num_scrambled_causal=4&num_scrambled_schematic=4&participantId=BAAC0CCE6B4D47CE844F96F763BCAF48&assignmentId=9f978020-69a5-41d9-bd83-31f762d5e1b7&projectId=ba640c14-69c5-453e-80b2-29051492c0e0","BAAC0CCE6B4D47CE844F96F763BCAF48-2025-05-14-20-41-12","","460","","images/schematic_sequence/dinner_party_scheme/dinner_party_scheme_7.png","0","",""
"","","","","","image-button-response","97","480948","0.0-14.0-1.0-2.2","BAAC0CCE6B4D47CE844F96F763BCAF48","BAAC0CCE6B4D47CE844F96F763BCAF48","9f978020-69a5-41d9-bd83-31f762d5e1b7","ba640c14-69c5-453e-80b2-29051492c0e0","{""num_scrambled_semantic"":""8"",""num_scrambled_causal"":""4"",""num_scrambled_schematic"":""4"",""participantId"":""BAAC0CCE6B4D47CE844F96F763BCAF48"",""assignmentId"":""9f978020-69a5-41d9-bd83-31f762d5e1b7"",""projectId"":""ba640c14-69c5-453e-80b2-29051492c0e0""}","https://test12345.live/?num_scrambled_semantic=8&num_scrambled_causal=4&num_scrambled_schematic=4&participantId=BAAC0CCE6B4D47CE844F96F763BCAF48&assignmentId=9f978020-69a5-41d9-bd83-31f762d5e1b7&projectId=ba640c14-69c5-453e-80b2-29051492c0e0","BAAC0CCE6B4D47CE844F96F763BCAF48-2025-05-14-20-41-12","","null","","[]","null","",""
"","","","","","image-button-response","98","485450","0.0-14.0-1.0-0.3","BAAC0CCE6B4D47CE844F96F763BCAF48","BAAC0CCE6B4D47CE844F96F763BCAF48","9f978020-69a5-41d9-bd83-31f762d5e1b7","ba640c14-69c5-453e-80b2-29051492c0e0","{""num_scrambled_semantic"":""8"",""num_scrambled_causal"":""4"",""num_scrambled_schematic"":""4"",""participantId"":""BAAC0CCE6B4D47CE844F96F763BCAF48"",""assignmentId"":""9f978020-69a5-41d9-bd83-31f762d5e1b7"",""projectId"":""ba640c14-69c5-453e-80b2-29051492c0e0""}","https://test12345.live/?num_scrambled_semantic=8&num_scrambled_causal=4&num_scrambled_schematic=4&participantId=BAAC0CCE6B4D47CE844F96F763BCAF48&assignmentId=9f978020-69a5-41d9-bd83-31f762d5e1b7&projectId=ba640c14-69c5-453e-80b2-29051492c0e0","BAAC0CCE6B4D47CE844F96F763BCAF48-2025-05-14-20-41-12","","null","","images/schematic_sequence/dinner_party_scheme/dinner_party_scheme_9.png","null","",""
"","","","","","image-button-response","99","485962","0.0-14.0-1.0-1.3","BAAC0CCE6B4D47CE844F96F763BCAF48","BAAC0CCE6B4D47CE844F96F763BCAF48","9f978020-69a5-41d9-bd83-31f762d5e1b7","ba640c14-69c5-453e-80b2-29051492c0e0","{""num_scrambled_semantic"":""8"",""num_scrambled_causal"":""4"",""num_scrambled_schematic"":""4"",""participantId"":""BAAC0CCE6B4D47CE844F96F763BCAF48"",""assignmentId"":""9f978020-69a5-41d9-bd83-31f762d5e1b7"",""projectId"":""ba640c14-69c5-453e-80b2-29051492c0e0""}","https://test12345.live/?num_scrambled_semantic=8&num_scrambled_causal=4&num_scrambled_schematic=4&participantId=BAAC0CCE6B4D47CE844F96F763BCAF48&assignmentId=9f978020-69a5-41d9-bd83-31f762d5e1b7&projectId=ba640c14-69c5-453e-80b2-29051492c0e0","BAAC0CCE6B4D47CE844F96F763BCAF48-2025-05-14-20-41-12","","511","","images/schematic_sequence/dinner_party_scheme/dinner_party_scheme_9.png","0","",""
"","","","","","image-button-response","100","487765","0.0-14.0-1.0-2.3","BAAC0CCE6B4D47CE844F96F763BCAF48","BAAC0CCE6B4D47CE844F96F763BCAF48","9f978020-69a5-41d9-bd83-31f762d5e1b7","ba640c14-69c5-453e-80b2-29051492c0e0","{""num_scrambled_semantic"":""8"",""num_scrambled_causal"":""4"",""num_scrambled_schematic"":""4"",""participantId"":""BAAC0CCE6B4D47CE844F96F763BCAF48"",""assignmentId"":""9f978020-69a5-41d9-bd83-31f762d5e1b7"",""projectId"":""ba640c14-69c5-453e-80b2-29051492c0e0""}","https://test12345.live/?num_scrambled_semantic=8&num_scrambled_causal=4&num_scrambled_schematic=4&participantId=BAAC0CCE6B4D47CE844F96F763BCAF48&assignmentId=9f978020-69a5-41d9-bd83-31f762d5e1b7&projectId=ba640c14-69c5-453e-80b2-29051492c0e0","BAAC0CCE6B4D47CE844F96F763BCAF48-2025-05-14-20-41-12","","null","","[]","null","",""
"","","","","","image-button-response","101","492267","0.0-14.0-1.0-0.4","BAAC0CCE6B4D47CE844F96F763BCAF48","BAAC0CCE6B4D47CE844F96F763BCAF48","9f978020-69a5-41d9-bd83-31f762d5e1b7","ba640c14-69c5-453e-80b2-29051492c0e0","{""num_scrambled_semantic"":""8"",""num_scrambled_causal"":""4"",""num_scrambled_schematic"":""4"",""participantId"":""BAAC0CCE6B4D47CE844F96F763BCAF48"",""assignmentId"":""9f978020-69a5-41d9-bd83-31f762d5e1b7"",""projectId"":""ba640c14-69c5-453e-80b2-29051492c0e0""}","https://test12345.live/?num_scrambled_semantic=8&num_scrambled_causal=4&num_scrambled_schematic=4&participantId=BAAC0CCE6B4D47CE844F96F763BCAF48&assignmentId=9f978020-69a5-41d9-bd83-31f762d5e1b7&projectId=ba640c14-69c5-453e-80b2-29051492c0e0","BAAC0CCE6B4D47CE844F96F763BCAF48-2025-05-14-20-41-12","","null","","images/schematic_sequence/dinner_party_scheme/dinner_party_scheme_2.png","null","",""
"","","","","","image-button-response","102","492731","0.0-14.0-1.0-1.4","BAAC0CCE6B4D47CE844F96F763BCAF48","BAAC0CCE6B4D47CE844F96F763BCAF48","9f978020-69a5-41d9-bd83-31f762d5e1b7","ba640c14-69c5-453e-80b2-29051492c0e0","{""num_scrambled_semantic"":""8"",""num_scrambled_causal"":""4"",""num_scrambled_schematic"":""4"",""participantId"":""BAAC0CCE6B4D47CE844F96F763BCAF48"",""assignmentId"":""9f978020-69a5-41d9-bd83-31f762d5e1b7"",""projectId"":""ba640c14-69c5-453e-80b2-29051492c0e0""}","https://test12345.live/?num_scrambled_semantic=8&num_scrambled_causal=4&num_scrambled_schematic=4&participantId=BAAC0CCE6B4D47CE844F96F763BCAF48&assignmentId=9f978020-69a5-41d9-bd83-31f762d5e1b7&projectId=ba640c14-69c5-453e-80b2-29051492c0e0","BAAC0CCE6B4D47CE844F96F763BCAF48-2025-05-14-20-41-12","","460","","images/schematic_sequence/dinner_party_scheme/dinner_party_scheme_2.png","0","",""
"","","","","","image-button-response","103","494548","0.0-14.0-1.0-2.4","BAAC0CCE6B4D47CE844F96F763BCAF48","BAAC0CCE6B4D47CE844F96F763BCAF48","9f978020-69a5-41d9-bd83-31f762d5e1b7","ba640c14-69c5-453e-80b2-29051492c0e0","{""num_scrambled_semantic"":""8"",""num_scrambled_causal"":""4"",""num_scrambled_schematic"":""4"",""participantId"":""BAAC0CCE6B4D47CE844F96F763BCAF48"",""assignmentId"":""9f978020-69a5-41d9-bd83-31f762d5e1b7"",""projectId"":""ba640c14-69c5-453e-80b2-29051492c0e0""}","https://test12345.live/?num_scrambled_semantic=8&num_scrambled_causal=4&num_scrambled_schematic=4&participantId=BAAC0CCE6B4D47CE844F96F763BCAF48&assignmentId=9f978020-69a5-41d9-bd83-31f762d5e1b7&projectId=ba640c14-69c5-453e-80b2-29051492c0e0","BAAC0CCE6B4D47CE844F96F763BCAF48-2025-05-14-20-41-12","","null","","[]","null","",""
"","","","","","image-button-response","104","499051","0.0-14.0-1.0-0.5","BAAC0CCE6B4D47CE844F96F763BCAF48","BAAC0CCE6B4D47CE844F96F763BCAF48","9f978020-69a5-41d9-bd83-31f762d5e1b7","ba640c14-69c5-453e-80b2-29051492c0e0","{""num_scrambled_semantic"":""8"",""num_scrambled_causal"":""4"",""num_scrambled_schematic"":""4"",""participantId"":""BAAC0CCE6B4D47CE844F96F763BCAF48"",""assignmentId"":""9f978020-69a5-41d9-bd83-31f762d5e1b7"",""projectId"":""ba640c14-69c5-453e-80b2-29051492c0e0""}","https://test12345.live/?num_scrambled_semantic=8&num_scrambled_causal=4&num_scrambled_schematic=4&participantId=BAAC0CCE6B4D47CE844F96F763BCAF48&assignmentId=9f978020-69a5-41d9-bd83-31f762d5e1b7&projectId=ba640c14-69c5-453e-80b2-29051492c0e0","BAAC0CCE6B4D47CE844F96F763BCAF48-2025-05-14-20-41-12","","null","","images/schematic_sequence/dinner_party_scheme/dinner_party_scheme_ten.png","null","",""
"","","","","","image-button-response","105","499522","0.0-14.0-1.0-1.5","BAAC0CCE6B4D47CE844F96F763BCAF48","BAAC0CCE6B4D47CE844F96F763BCAF48","9f978020-69a5-41d9-bd83-31f762d5e1b7","ba640c14-69c5-453e-80b2-29051492c0e0","{""num_scrambled_semantic"":""8"",""num_scrambled_causal"":""4"",""num_scrambled_schematic"":""4"",""participantId"":""BAAC0CCE6B4D47CE844F96F763BCAF48"",""assignmentId"":""9f978020-69a5-41d9-bd83-31f762d5e1b7"",""projectId"":""ba640c14-69c5-453e-80b2-29051492c0e0""}","https://test12345.live/?num_scrambled_semantic=8&num_scrambled_causal=4&num_scrambled_schematic=4&participantId=BAAC0CCE6B4D47CE844F96F763BCAF48&assignmentId=9f978020-69a5-41d9-bd83-31f762d5e1b7&projectId=ba640c14-69c5-453e-80b2-29051492c0e0","BAAC0CCE6B4D47CE844F96F763BCAF48-2025-05-14-20-41-12","","469","","images/schematic_sequence/dinner_party_scheme/dinner_party_scheme_ten.png","0","",""
"","","","","","image-button-response","106","501330","0.0-14.0-1.0-2.5","BAAC0CCE6B4D47CE844F96F763BCAF48","BAAC0CCE6B4D47CE844F96F763BCAF48","9f978020-69a5-41d9-bd83-31f762d5e1b7","ba640c14-69c5-453e-80b2-29051492c0e0","{""num_scrambled_semantic"":""8"",""num_scrambled_causal"":""4"",""num_scrambled_schematic"":""4"",""participantId"":""BAAC0CCE6B4D47CE844F96F763BCAF48"",""assignmentId"":""9f978020-69a5-41d9-bd83-31f762d5e1b7"",""projectId"":""ba640c14-69c5-453e-80b2-29051492c0e0""}","https://test12345.live/?num_scrambled_semantic=8&num_scrambled_causal=4&num_scrambled_schematic=4&participantId=BAAC0CCE6B4D47CE844F96F763BCAF48&assignmentId=9f978020-69a5-41d9-bd83-31f762d5e1b7&projectId=ba640c14-69c5-453e-80b2-29051492c0e0","BAAC0CCE6B4D47CE844F96F763BCAF48-2025-05-14-20-41-12","","null","","[]","null","",""
"","","","","","image-button-response","107","505832","0.0-14.0-1.0-0.6","BAAC0CCE6B4D47CE844F96F763BCAF48","BAAC0CCE6B4D47CE844F96F763BCAF48","9f978020-69a5-41d9-bd83-31f762d5e1b7","ba640c14-69c5-453e-80b2-29051492c0e0","{""num_scrambled_semantic"":""8"",""num_scrambled_causal"":""4"",""num_scrambled_schematic"":""4"",""participantId"":""BAAC0CCE6B4D47CE844F96F763BCAF48"",""assignmentId"":""9f978020-69a5-41d9-bd83-31f762d5e1b7"",""projectId"":""ba640c14-69c5-453e-80b2-29051492c0e0""}","https://test12345.live/?num_scrambled_semantic=8&num_scrambled_causal=4&num_scrambled_schematic=4&participantId=BAAC0CCE6B4D47CE844F96F763BCAF48&assignmentId=9f978020-69a5-41d9-bd83-31f762d5e1b7&projectId=ba640c14-69c5-453e-80b2-29051492c0e0","BAAC0CCE6B4D47CE844F96F763BCAF48-2025-05-14-20-41-12","","null","","images/schematic_sequence/dinner_party_scheme/dinner_party_scheme_1.png","null","",""
"","","","","","image-button-response","108","506307","0.0-14.0-1.0-1.6","BAAC0CCE6B4D47CE844F96F763BCAF48","BAAC0CCE6B4D47CE844F96F763BCAF48","9f978020-69a5-41d9-bd83-31f762d5e1b7","ba640c14-69c5-453e-80b2-29051492c0e0","{""num_scrambled_semantic"":""8"",""num_scrambled_causal"":""4"",""num_scrambled_schematic"":""4"",""participantId"":""BAAC0CCE6B4D47CE844F96F763BCAF48"",""assignmentId"":""9f978020-69a5-41d9-bd83-31f762d5e1b7"",""projectId"":""ba640c14-69c5-453e-80b2-29051492c0e0""}","https://test12345.live/?num_scrambled_semantic=8&num_scrambled_causal=4&num_scrambled_schematic=4&participantId=BAAC0CCE6B4D47CE844F96F763BCAF48&assignmentId=9f978020-69a5-41d9-bd83-31f762d5e1b7&projectId=ba640c14-69c5-453e-80b2-29051492c0e0","BAAC0CCE6B4D47CE844F96F763BCAF48-2025-05-14-20-41-12","","472","","images/schematic_sequence/dinner_party_scheme/dinner_party_scheme_1.png","0","",""
"","","","","","image-button-response","109","508113","0.0-14.0-1.0-2.6","BAAC0CCE6B4D47CE844F96F763BCAF48","BAAC0CCE6B4D47CE844F96F763BCAF48","9f978020-69a5-41d9-bd83-31f762d5e1b7","ba640c14-69c5-453e-80b2-29051492c0e0","{""num_scrambled_semantic"":""8"",""num_scrambled_causal"":""4"",""num_scrambled_schematic"":""4"",""participantId"":""BAAC0CCE6B4D47CE844F96F763BCAF48"",""assignmentId"":""9f978020-69a5-41d9-bd83-31f762d5e1b7"",""projectId"":""ba640c14-69c5-453e-80b2-29051492c0e0""}","https://test12345.live/?num_scrambled_semantic=8&num_scrambled_causal=4&num_scrambled_schematic=4&participantId=BAAC0CCE6B4D47CE844F96F763BCAF48&assignmentId=9f978020-69a5-41d9-bd83-31f762d5e1b7&projectId=ba640c14-69c5-453e-80b2-29051492c0e0","BAAC0CCE6B4D47CE844F96F763BCAF48-2025-05-14-20-41-12","","null","","[]","null","",""
"","","","","","image-button-response","110","512616","0.0-14.0-1.0-0.7","BAAC0CCE6B4D47CE844F96F763BCAF48","BAAC0CCE6B4D47CE844F96F763BCAF48","9f978020-69a5-41d9-bd83-31f762d5e1b7","ba640c14-69c5-453e-80b2-29051492c0e0","{""num_scrambled_semantic"":""8"",""num_scrambled_causal"":""4"",""num_scrambled_schematic"":""4"",""participantId"":""BAAC0CCE6B4D47CE844F96F763BCAF48"",""assignmentId"":""9f978020-69a5-41d9-bd83-31f762d5e1b7"",""projectId"":""ba640c14-69c5-453e-80b2-29051492c0e0""}","https://test12345.live/?num_scrambled_semantic=8&num_scrambled_causal=4&num_scrambled_schematic=4&participantId=BAAC0CCE6B4D47CE844F96F763BCAF48&assignmentId=9f978020-69a5-41d9-bd83-31f762d5e1b7&projectId=ba640c14-69c5-453e-80b2-29051492c0e0","BAAC0CCE6B4D47CE844F96F763BCAF48-2025-05-14-20-41-12","","null","","images/schematic_sequence/dinner_party_scheme/dinner_party_scheme_4.png","null","",""
"","","","","","image-button-response","111","513146","0.0-14.0-1.0-1.7","BAAC0CCE6B4D47CE844F96F763BCAF48","BAAC0CCE6B4D47CE844F96F763BCAF48","9f978020-69a5-41d9-bd83-31f762d5e1b7","ba640c14-69c5-453e-80b2-29051492c0e0","{""num_scrambled_semantic"":""8"",""num_scrambled_causal"":""4"",""num_scrambled_schematic"":""4"",""participantId"":""BAAC0CCE6B4D47CE844F96F763BCAF48"",""assignmentId"":""9f978020-69a5-41d9-bd83-31f762d5e1b7"",""projectId"":""ba640c14-69c5-453e-80b2-29051492c0e0""}","https://test12345.live/?num_scrambled_semantic=8&num_scrambled_causal=4&num_scrambled_schematic=4&participantId=BAAC0CCE6B4D47CE844F96F763BCAF48&assignmentId=9f978020-69a5-41d9-bd83-31f762d5e1b7&projectId=ba640c14-69c5-453e-80b2-29051492c0e0","BAAC0CCE6B4D47CE844F96F763BCAF48-2025-05-14-20-41-12","","528","","images/schematic_sequence/dinner_party_scheme/dinner_party_scheme_4.png","0","",""
"","","","","","image-button-response","112","514947","0.0-14.0-1.0-2.7","BAAC0CCE6B4D47CE844F96F763BCAF48","BAAC0CCE6B4D47CE844F96F763BCAF48","9f978020-69a5-41d9-bd83-31f762d5e1b7","ba640c14-69c5-453e-80b2-29051492c0e0","{""num_scrambled_semantic"":""8"",""num_scrambled_causal"":""4"",""num_scrambled_schematic"":""4"",""participantId"":""BAAC0CCE6B4D47CE844F96F763BCAF48"",""assignmentId"":""9f978020-69a5-41d9-bd83-31f762d5e1b7"",""projectId"":""ba640c14-69c5-453e-80b2-29051492c0e0""}","https://test12345.live/?num_scrambled_semantic=8&num_scrambled_causal=4&num_scrambled_schematic=4&participantId=BAAC0CCE6B4D47CE844F96F763BCAF48&assignmentId=9f978020-69a5-41d9-bd83-31f762d5e1b7&projectId=ba640c14-69c5-453e-80b2-29051492c0e0","BAAC0CCE6B4D47CE844F96F763BCAF48-2025-05-14-20-41-12","","null","","[]","null","",""
"","","","","","image-button-response","113","519463","0.0-14.0-1.0-0.8","BAAC0CCE6B4D47CE844F96F763BCAF48","BAAC0CCE6B4D47CE844F96F763BCAF48","9f978020-69a5-41d9-bd83-31f762d5e1b7","ba640c14-69c5-453e-80b2-29051492c0e0","{""num_scrambled_semantic"":""8"",""num_scrambled_causal"":""4"",""num_scrambled_schematic"":""4"",""participantId"":""BAAC0CCE6B4D47CE844F96F763BCAF48"",""assignmentId"":""9f978020-69a5-41d9-bd83-31f762d5e1b7"",""projectId"":""ba640c14-69c5-453e-80b2-29051492c0e0""}","https://test12345.live/?num_scrambled_semantic=8&num_scrambled_causal=4&num_scrambled_schematic=4&participantId=BAAC0CCE6B4D47CE844F96F763BCAF48&assignmentId=9f978020-69a5-41d9-bd83-31f762d5e1b7&projectId=ba640c14-69c5-453e-80b2-29051492c0e0","BAAC0CCE6B4D47CE844F96F763BCAF48-2025-05-14-20-41-12","","null","","images/schematic_sequence/dinner_party_scheme/dinner_party_scheme_8.png","null","",""
