"success","timeout","failed_images","failed_audio","failed_video","trial_type","trial_index","time_elapsed","internal_node_id","subject","subject_id","study_id","session_id","urlvar","current_url","audio_id","view_history","rt","device_id","stimulus","response","estimated_stimulus_onset","seq_name"
"true","false","[]","[]","[]","preload","0","12909","0.0-0.0","BBEDFD83A2B14F5190EA7EAB15FE7557","BBEDFD83A2B14F5190EA7EAB15FE7557","980ef3d2-82eb-4f12-8186-7f8ef12eef25","051c06f1-75cc-4548-856d-4923ddaba0dc","{""num_scrambled_semantic"":""8"",""num_scrambled_causal"":""4"",""num_scrambled_schematic"":""4"",""participantId"":""BBEDFD83A2B14F5190EA7EAB15FE7557"",""assignmentId"":""980ef3d2-82eb-4f12-8186-7f8ef12eef25"",""projectId"":""051c06f1-75cc-4548-856d-4923ddaba0dc""}","https://test12345.live/?num_scrambled_semantic=8&num_scrambled_causal=4&num_scrambled_schematic=4&participantId=BBEDFD83A2B14F5190EA7EAB15FE7557&assignmentId=980ef3d2-82eb-4f12-8186-7f8ef12eef25&projectId=051c06f1-75cc-4548-856d-4923ddaba0dc","BBEDFD83A2B14F5190EA7EAB15FE7557-2025-05-15-19-33-39","","","","","","",""
"","","","","","instructions","1","35305","0.0-1.0","BBEDFD83A2B14F5190EA7EAB15FE7557","BBEDFD83A2B14F5190EA7EAB15FE7557","980ef3d2-82eb-4f12-8186-7f8ef12eef25","051c06f1-75cc-4548-856d-4923ddaba0dc","{""num_scrambled_semantic"":""8"",""num_scrambled_causal"":""4"",""num_scrambled_schematic"":""4"",""participantId"":""BBEDFD83A2B14F5190EA7EAB15FE7557"",""assignmentId"":""980ef3d2-82eb-4f12-8186-7f8ef12eef25"",""projectId"":""051c06f1-75cc-4548-856d-4923ddaba0dc""}","https://test12345.live/?num_scrambled_semantic=8&num_scrambled_causal=4&num_scrambled_schematic=4&participantId=BBEDFD83A2B14F5190EA7EAB15FE7557&assignmentId=980ef3d2-82eb-4f12-8186-7f8ef12eef25&projectId=051c06f1-75cc-4548-856d-4923ddaba0dc","BBEDFD83A2B14F5190EA7EAB15FE7557-2025-05-15-19-33-39","[{""page_index"":0,""viewing_time"":22394}]","22395","","","","",""
"","","","","","instructions","2","42673","0.0-2.0","BBEDFD83A2B14F5190EA7EAB15FE7557","BBEDFD83A2B14F5190EA7EAB15FE7557","980ef3d2-82eb-4f12-8186-7f8ef12eef25","051c06f1-75cc-4548-856d-4923ddaba0dc","{""num_scrambled_semantic"":""8"",""num_scrambled_causal"":""4"",""num_scrambled_schematic"":""4"",""participantId"":""BBEDFD83A2B14F5190EA7EAB15FE7557"",""assignmentId"":""980ef3d2-82eb-4f12-8186-7f8ef12eef25"",""projectId"":""051c06f1-75cc-4548-856d-4923ddaba0dc""}","https://test12345.live/?num_scrambled_semantic=8&num_scrambled_causal=4&num_scrambled_schematic=4&participantId=BBEDFD83A2B14F5190EA7EAB15FE7557&assignmentId=980ef3d2-82eb-4f12-8186-7f8ef12eef25&projectId=051c06f1-75cc-4548-856d-4923ddaba0dc","BBEDFD83A2B14F5190EA7EAB15FE7557-2025-05-15-19-33-39","[{""page_index"":0,""viewing_time"":7367}]","7367","","","","",""
"true","","","","","fullscreen","3","45323","0.0-3.0","BBEDFD83A2B14F5190EA7EAB15FE7557","BBEDFD83A2B14F5190EA7EAB15FE7557","980ef3d2-82eb-4f12-8186-7f8ef12eef25","051c06f1-75cc-4548-856d-4923ddaba0dc","{""num_scrambled_semantic"":""8"",""num_scrambled_causal"":""4"",""num_scrambled_schematic"":""4"",""participantId"":""BBEDFD83A2B14F5190EA7EAB15FE7557"",""assignmentId"":""980ef3d2-82eb-4f12-8186-7f8ef12eef25"",""projectId"":""051c06f1-75cc-4548-856d-4923ddaba0dc""}","https://test12345.live/?num_scrambled_semantic=8&num_scrambled_causal=4&num_scrambled_schematic=4&participantId=BBEDFD83A2B14F5190EA7EAB15FE7557&assignmentId=980ef3d2-82eb-4f12-8186-7f8ef12eef25&projectId=051c06f1-75cc-4548-856d-4923ddaba0dc","BBEDFD83A2B14F5190EA7EAB15FE7557-2025-05-15-19-33-39","","1644","","","","",""
"","","","","","initialize-microphone","4","50621","0.0-4.0-0.0","BBEDFD83A2B14F5190EA7EAB15FE7557","BBEDFD83A2B14F5190EA7EAB15FE7557","980ef3d2-82eb-4f12-8186-7f8ef12eef25","051c06f1-75cc-4548-856d-4923ddaba0dc","{""num_scrambled_semantic"":""8"",""num_scrambled_causal"":""4"",""num_scrambled_schematic"":""4"",""participantId"":""BBEDFD83A2B14F5190EA7EAB15FE7557"",""assignmentId"":""980ef3d2-82eb-4f12-8186-7f8ef12eef25"",""projectId"":""051c06f1-75cc-4548-856d-4923ddaba0dc""}","https://test12345.live/?num_scrambled_semantic=8&num_scrambled_causal=4&num_scrambled_schematic=4&participantId=BBEDFD83A2B14F5190EA7EAB15FE7557&assignmentId=980ef3d2-82eb-4f12-8186-7f8ef12eef25&projectId=051c06f1-75cc-4548-856d-4923ddaba0dc","BBEDFD83A2B14F5190EA7EAB15FE7557-2025-05-15-19-33-39","","","4edfa285be016c69c972ec6090c08678ac61760c25fc6fd1a6be6c65df264801","","","",""
"","","","","","html-audio-response","5","64771","0.0-4.0-1.0","BBEDFD83A2B14F5190EA7EAB15FE7557","BBEDFD83A2B14F5190EA7EAB15FE7557","980ef3d2-82eb-4f12-8186-7f8ef12eef25","051c06f1-75cc-4548-856d-4923ddaba0dc","{""num_scrambled_semantic"":""8"",""num_scrambled_causal"":""4"",""num_scrambled_schematic"":""4"",""participantId"":""BBEDFD83A2B14F5190EA7EAB15FE7557"",""assignmentId"":""980ef3d2-82eb-4f12-8186-7f8ef12eef25"",""projectId"":""051c06f1-75cc-4548-856d-4923ddaba0dc""}","https://test12345.live/?num_scrambled_semantic=8&num_scrambled_causal=4&num_scrambled_schematic=4&participantId=BBEDFD83A2B14F5190EA7EAB15FE7557&assignmentId=980ef3d2-82eb-4f12-8186-7f8ef12eef25&projectId=051c06f1-75cc-4548-856d-4923ddaba0dc","BBEDFD83A2B14F5190EA7EAB15FE7557-2025-05-15-19-33-39","","5198","","<span style=""color: red; font-size: 24px""> NOW RECORDING</span>
        <p>Please test Microphone</p>","","7",""
"","","","","","html-button-response","6","66459","0.0-4.0-2.0","BBEDFD83A2B14F5190EA7EAB15FE7557","BBEDFD83A2B14F5190EA7EAB15FE7557","980ef3d2-82eb-4f12-8186-7f8ef12eef25","051c06f1-75cc-4548-856d-4923ddaba0dc","{""num_scrambled_semantic"":""8"",""num_scrambled_causal"":""4"",""num_scrambled_schematic"":""4"",""participantId"":""BBEDFD83A2B14F5190EA7EAB15FE7557"",""assignmentId"":""980ef3d2-82eb-4f12-8186-7f8ef12eef25"",""projectId"":""051c06f1-75cc-4548-856d-4923ddaba0dc""}","https://test12345.live/?num_scrambled_semantic=8&num_scrambled_causal=4&num_scrambled_schematic=4&participantId=BBEDFD83A2B14F5190EA7EAB15FE7557&assignmentId=980ef3d2-82eb-4f12-8186-7f8ef12eef25&projectId=051c06f1-75cc-4548-856d-4923ddaba0dc","BBEDFD83A2B14F5190EA7EAB15FE7557-2025-05-15-19-33-39","","1686","","<p style=""font-size:48px; color:red;"">Is Microphone OK?</p>","1","",""
"","","","","","instructions","7","80442","0.0-5.0","BBEDFD83A2B14F5190EA7EAB15FE7557","BBEDFD83A2B14F5190EA7EAB15FE7557","980ef3d2-82eb-4f12-8186-7f8ef12eef25","051c06f1-75cc-4548-856d-4923ddaba0dc","{""num_scrambled_semantic"":""8"",""num_scrambled_causal"":""4"",""num_scrambled_schematic"":""4"",""participantId"":""BBEDFD83A2B14F5190EA7EAB15FE7557"",""assignmentId"":""980ef3d2-82eb-4f12-8186-7f8ef12eef25"",""projectId"":""051c06f1-75cc-4548-856d-4923ddaba0dc""}","https://test12345.live/?num_scrambled_semantic=8&num_scrambled_causal=4&num_scrambled_schematic=4&participantId=BBEDFD83A2B14F5190EA7EAB15FE7557&assignmentId=980ef3d2-82eb-4f12-8186-7f8ef12eef25&projectId=051c06f1-75cc-4548-856d-4923ddaba0dc","BBEDFD83A2B14F5190EA7EAB15FE7557-2025-05-15-19-33-39","[{""page_index"":0,""viewing_time"":4122},{""page_index"":1,""viewing_time"":9860}]","13983","","","","",""
"","","","","","image-button-response","8","86449","0.0-6.0-0.0","BBEDFD83A2B14F5190EA7EAB15FE7557","BBEDFD83A2B14F5190EA7EAB15FE7557","980ef3d2-82eb-4f12-8186-7f8ef12eef25","051c06f1-75cc-4548-856d-4923ddaba0dc","{""num_scrambled_semantic"":""8"",""num_scrambled_causal"":""4"",""num_scrambled_schematic"":""4"",""participantId"":""BBEDFD83A2B14F5190EA7EAB15FE7557"",""assignmentId"":""980ef3d2-82eb-4f12-8186-7f8ef12eef25"",""projectId"":""051c06f1-75cc-4548-856d-4923ddaba0dc""}","https://test12345.live/?num_scrambled_semantic=8&num_scrambled_causal=4&num_scrambled_schematic=4&participantId=BBEDFD83A2B14F5190EA7EAB15FE7557&assignmentId=980ef3d2-82eb-4f12-8186-7f8ef12eef25&projectId=051c06f1-75cc-4548-856d-4923ddaba0dc","BBEDFD83A2B14F5190EA7EAB15FE7557-2025-05-15-19-33-39","","null","","images/instructions/movie_0.png","null","",""
"","","","","","image-button-response","9","90955","0.0-6.0-1.0-0.0","BBEDFD83A2B14F5190EA7EAB15FE7557","BBEDFD83A2B14F5190EA7EAB15FE7557","980ef3d2-82eb-4f12-8186-7f8ef12eef25","051c06f1-75cc-4548-856d-4923ddaba0dc","{""num_scrambled_semantic"":""8"",""num_scrambled_causal"":""4"",""num_scrambled_schematic"":""4"",""participantId"":""BBEDFD83A2B14F5190EA7EAB15FE7557"",""assignmentId"":""980ef3d2-82eb-4f12-8186-7f8ef12eef25"",""projectId"":""051c06f1-75cc-4548-856d-4923ddaba0dc""}","https://test12345.live/?num_scrambled_semantic=8&num_scrambled_causal=4&num_scrambled_schematic=4&participantId=BBEDFD83A2B14F5190EA7EAB15FE7557&assignmentId=980ef3d2-82eb-4f12-8186-7f8ef12eef25&projectId=051c06f1-75cc-4548-856d-4923ddaba0dc","BBEDFD83A2B14F5190EA7EAB15FE7557-2025-05-15-19-33-39","","null","","images/instructions/movie_1.png","null","",""
"","","","","","image-button-response","10","93715","0.0-6.0-1.0-1.0","BBEDFD83A2B14F5190EA7EAB15FE7557","BBEDFD83A2B14F5190EA7EAB15FE7557","980ef3d2-82eb-4f12-8186-7f8ef12eef25","051c06f1-75cc-4548-856d-4923ddaba0dc","{""num_scrambled_semantic"":""8"",""num_scrambled_causal"":""4"",""num_scrambled_schematic"":""4"",""participantId"":""BBEDFD83A2B14F5190EA7EAB15FE7557"",""assignmentId"":""980ef3d2-82eb-4f12-8186-7f8ef12eef25"",""projectId"":""051c06f1-75cc-4548-856d-4923ddaba0dc""}","https://test12345.live/?num_scrambled_semantic=8&num_scrambled_causal=4&num_scrambled_schematic=4&participantId=BBEDFD83A2B14F5190EA7EAB15FE7557&assignmentId=980ef3d2-82eb-4f12-8186-7f8ef12eef25&projectId=051c06f1-75cc-4548-856d-4923ddaba0dc","BBEDFD83A2B14F5190EA7EAB15FE7557-2025-05-15-19-33-39","","2760","","images/instructions/movie_1.png","0","",""
"","","","","","image-button-response","11","95520","0.0-6.0-1.0-2.0","BBEDFD83A2B14F5190EA7EAB15FE7557","BBEDFD83A2B14F5190EA7EAB15FE7557","980ef3d2-82eb-4f12-8186-7f8ef12eef25","051c06f1-75cc-4548-856d-4923ddaba0dc","{""num_scrambled_semantic"":""8"",""num_scrambled_causal"":""4"",""num_scrambled_schematic"":""4"",""participantId"":""BBEDFD83A2B14F5190EA7EAB15FE7557"",""assignmentId"":""980ef3d2-82eb-4f12-8186-7f8ef12eef25"",""projectId"":""051c06f1-75cc-4548-856d-4923ddaba0dc""}","https://test12345.live/?num_scrambled_semantic=8&num_scrambled_causal=4&num_scrambled_schematic=4&participantId=BBEDFD83A2B14F5190EA7EAB15FE7557&assignmentId=980ef3d2-82eb-4f12-8186-7f8ef12eef25&projectId=051c06f1-75cc-4548-856d-4923ddaba0dc","BBEDFD83A2B14F5190EA7EAB15FE7557-2025-05-15-19-33-39","","null","","[]","null","",""
"","","","","","image-button-response","12","100023","0.0-6.0-1.0-0.1","BBEDFD83A2B14F5190EA7EAB15FE7557","BBEDFD83A2B14F5190EA7EAB15FE7557","980ef3d2-82eb-4f12-8186-7f8ef12eef25","051c06f1-75cc-4548-856d-4923ddaba0dc","{""num_scrambled_semantic"":""8"",""num_scrambled_causal"":""4"",""num_scrambled_schematic"":""4"",""participantId"":""BBEDFD83A2B14F5190EA7EAB15FE7557"",""assignmentId"":""980ef3d2-82eb-4f12-8186-7f8ef12eef25"",""projectId"":""051c06f1-75cc-4548-856d-4923ddaba0dc""}","https://test12345.live/?num_scrambled_semantic=8&num_scrambled_causal=4&num_scrambled_schematic=4&participantId=BBEDFD83A2B14F5190EA7EAB15FE7557&assignmentId=980ef3d2-82eb-4f12-8186-7f8ef12eef25&projectId=051c06f1-75cc-4548-856d-4923ddaba0dc","BBEDFD83A2B14F5190EA7EAB15FE7557-2025-05-15-19-33-39","","null","","images/instructions/movie_2.png","null","",""
"","","","","","image-button-response","13","101618","0.0-6.0-1.0-1.1","BBEDFD83A2B14F5190EA7EAB15FE7557","BBEDFD83A2B14F5190EA7EAB15FE7557","980ef3d2-82eb-4f12-8186-7f8ef12eef25","051c06f1-75cc-4548-856d-4923ddaba0dc","{""num_scrambled_semantic"":""8"",""num_scrambled_causal"":""4"",""num_scrambled_schematic"":""4"",""participantId"":""BBEDFD83A2B14F5190EA7EAB15FE7557"",""assignmentId"":""980ef3d2-82eb-4f12-8186-7f8ef12eef25"",""projectId"":""051c06f1-75cc-4548-856d-4923ddaba0dc""}","https://test12345.live/?num_scrambled_semantic=8&num_scrambled_causal=4&num_scrambled_schematic=4&participantId=BBEDFD83A2B14F5190EA7EAB15FE7557&assignmentId=980ef3d2-82eb-4f12-8186-7f8ef12eef25&projectId=051c06f1-75cc-4548-856d-4923ddaba0dc","BBEDFD83A2B14F5190EA7EAB15FE7557-2025-05-15-19-33-39","","1593","","images/instructions/movie_2.png","1","",""
"","","","","","image-button-response","14","103425","0.0-6.0-1.0-2.1","BBEDFD83A2B14F5190EA7EAB15FE7557","BBEDFD83A2B14F5190EA7EAB15FE7557","980ef3d2-82eb-4f12-8186-7f8ef12eef25","051c06f1-75cc-4548-856d-4923ddaba0dc","{""num_scrambled_semantic"":""8"",""num_scrambled_causal"":""4"",""num_scrambled_schematic"":""4"",""participantId"":""BBEDFD83A2B14F5190EA7EAB15FE7557"",""assignmentId"":""980ef3d2-82eb-4f12-8186-7f8ef12eef25"",""projectId"":""051c06f1-75cc-4548-856d-4923ddaba0dc""}","https://test12345.live/?num_scrambled_semantic=8&num_scrambled_causal=4&num_scrambled_schematic=4&participantId=BBEDFD83A2B14F5190EA7EAB15FE7557&assignmentId=980ef3d2-82eb-4f12-8186-7f8ef12eef25&projectId=051c06f1-75cc-4548-856d-4923ddaba0dc","BBEDFD83A2B14F5190EA7EAB15FE7557-2025-05-15-19-33-39","","null","","[]","null","",""
"","","","","","image-button-response","15","107931","0.0-6.0-1.0-0.2","BBEDFD83A2B14F5190EA7EAB15FE7557","BBEDFD83A2B14F5190EA7EAB15FE7557","980ef3d2-82eb-4f12-8186-7f8ef12eef25","051c06f1-75cc-4548-856d-4923ddaba0dc","{""num_scrambled_semantic"":""8"",""num_scrambled_causal"":""4"",""num_scrambled_schematic"":""4"",""participantId"":""BBEDFD83A2B14F5190EA7EAB15FE7557"",""assignmentId"":""980ef3d2-82eb-4f12-8186-7f8ef12eef25"",""projectId"":""051c06f1-75cc-4548-856d-4923ddaba0dc""}","https://test12345.live/?num_scrambled_semantic=8&num_scrambled_causal=4&num_scrambled_schematic=4&participantId=BBEDFD83A2B14F5190EA7EAB15FE7557&assignmentId=980ef3d2-82eb-4f12-8186-7f8ef12eef25&projectId=051c06f1-75cc-4548-856d-4923ddaba0dc","BBEDFD83A2B14F5190EA7EAB15FE7557-2025-05-15-19-33-39","","null","","images/instructions/movie_3.png","null","",""
"","","","","","image-button-response","16","109386","0.0-6.0-1.0-1.2","BBEDFD83A2B14F5190EA7EAB15FE7557","BBEDFD83A2B14F5190EA7EAB15FE7557","980ef3d2-82eb-4f12-8186-7f8ef12eef25","051c06f1-75cc-4548-856d-4923ddaba0dc","{""num_scrambled_semantic"":""8"",""num_scrambled_causal"":""4"",""num_scrambled_schematic"":""4"",""participantId"":""BBEDFD83A2B14F5190EA7EAB15FE7557"",""assignmentId"":""980ef3d2-82eb-4f12-8186-7f8ef12eef25"",""projectId"":""051c06f1-75cc-4548-856d-4923ddaba0dc""}","https://test12345.live/?num_scrambled_semantic=8&num_scrambled_causal=4&num_scrambled_schematic=4&participantId=BBEDFD83A2B14F5190EA7EAB15FE7557&assignmentId=980ef3d2-82eb-4f12-8186-7f8ef12eef25&projectId=051c06f1-75cc-4548-856d-4923ddaba0dc","BBEDFD83A2B14F5190EA7EAB15FE7557-2025-05-15-19-33-39","","1453","","images/instructions/movie_3.png","0","",""
"","","","","","image-button-response","17","111192","0.0-6.0-1.0-2.2","BBEDFD83A2B14F5190EA7EAB15FE7557","BBEDFD83A2B14F5190EA7EAB15FE7557","980ef3d2-82eb-4f12-8186-7f8ef12eef25","051c06f1-75cc-4548-856d-4923ddaba0dc","{""num_scrambled_semantic"":""8"",""num_scrambled_causal"":""4"",""num_scrambled_schematic"":""4"",""participantId"":""BBEDFD83A2B14F5190EA7EAB15FE7557"",""assignmentId"":""980ef3d2-82eb-4f12-8186-7f8ef12eef25"",""projectId"":""051c06f1-75cc-4548-856d-4923ddaba0dc""}","https://test12345.live/?num_scrambled_semantic=8&num_scrambled_causal=4&num_scrambled_schematic=4&participantId=BBEDFD83A2B14F5190EA7EAB15FE7557&assignmentId=980ef3d2-82eb-4f12-8186-7f8ef12eef25&projectId=051c06f1-75cc-4548-856d-4923ddaba0dc","BBEDFD83A2B14F5190EA7EAB15FE7557-2025-05-15-19-33-39","","null","","[]","null","",""
"","","","","","image-button-response","18","115695","0.0-6.0-1.0-0.3","BBEDFD83A2B14F5190EA7EAB15FE7557","BBEDFD83A2B14F5190EA7EAB15FE7557","980ef3d2-82eb-4f12-8186-7f8ef12eef25","051c06f1-75cc-4548-856d-4923ddaba0dc","{""num_scrambled_semantic"":""8"",""num_scrambled_causal"":""4"",""num_scrambled_schematic"":""4"",""participantId"":""BBEDFD83A2B14F5190EA7EAB15FE7557"",""assignmentId"":""980ef3d2-82eb-4f12-8186-7f8ef12eef25"",""projectId"":""051c06f1-75cc-4548-856d-4923ddaba0dc""}","https://test12345.live/?num_scrambled_semantic=8&num_scrambled_causal=4&num_scrambled_schematic=4&participantId=BBEDFD83A2B14F5190EA7EAB15FE7557&assignmentId=980ef3d2-82eb-4f12-8186-7f8ef12eef25&projectId=051c06f1-75cc-4548-856d-4923ddaba0dc","BBEDFD83A2B14F5190EA7EAB15FE7557-2025-05-15-19-33-39","","null","","images/instructions/movie_4.png","null","",""
"","","","","","image-button-response","19","116699","0.0-6.0-1.0-1.3","BBEDFD83A2B14F5190EA7EAB15FE7557","BBEDFD83A2B14F5190EA7EAB15FE7557","980ef3d2-82eb-4f12-8186-7f8ef12eef25","051c06f1-75cc-4548-856d-4923ddaba0dc","{""num_scrambled_semantic"":""8"",""num_scrambled_causal"":""4"",""num_scrambled_schematic"":""4"",""participantId"":""BBEDFD83A2B14F5190EA7EAB15FE7557"",""assignmentId"":""980ef3d2-82eb-4f12-8186-7f8ef12eef25"",""projectId"":""051c06f1-75cc-4548-856d-4923ddaba0dc""}","https://test12345.live/?num_scrambled_semantic=8&num_scrambled_causal=4&num_scrambled_schematic=4&participantId=BBEDFD83A2B14F5190EA7EAB15FE7557&assignmentId=980ef3d2-82eb-4f12-8186-7f8ef12eef25&projectId=051c06f1-75cc-4548-856d-4923ddaba0dc","BBEDFD83A2B14F5190EA7EAB15FE7557-2025-05-15-19-33-39","","1003","","images/instructions/movie_4.png","0","",""
"","","","","","image-button-response","20","118501","0.0-6.0-1.0-2.3","BBEDFD83A2B14F5190EA7EAB15FE7557","BBEDFD83A2B14F5190EA7EAB15FE7557","980ef3d2-82eb-4f12-8186-7f8ef12eef25","051c06f1-75cc-4548-856d-4923ddaba0dc","{""num_scrambled_semantic"":""8"",""num_scrambled_causal"":""4"",""num_scrambled_schematic"":""4"",""participantId"":""BBEDFD83A2B14F5190EA7EAB15FE7557"",""assignmentId"":""980ef3d2-82eb-4f12-8186-7f8ef12eef25"",""projectId"":""051c06f1-75cc-4548-856d-4923ddaba0dc""}","https://test12345.live/?num_scrambled_semantic=8&num_scrambled_causal=4&num_scrambled_schematic=4&participantId=BBEDFD83A2B14F5190EA7EAB15FE7557&assignmentId=980ef3d2-82eb-4f12-8186-7f8ef12eef25&projectId=051c06f1-75cc-4548-856d-4923ddaba0dc","BBEDFD83A2B14F5190EA7EAB15FE7557-2025-05-15-19-33-39","","null","","[]","null","",""
"","","","","","instructions","21","129775","0.0-7.0","BBEDFD83A2B14F5190EA7EAB15FE7557","BBEDFD83A2B14F5190EA7EAB15FE7557","980ef3d2-82eb-4f12-8186-7f8ef12eef25","051c06f1-75cc-4548-856d-4923ddaba0dc","{""num_scrambled_semantic"":""8"",""num_scrambled_causal"":""4"",""num_scrambled_schematic"":""4"",""participantId"":""BBEDFD83A2B14F5190EA7EAB15FE7557"",""assignmentId"":""980ef3d2-82eb-4f12-8186-7f8ef12eef25"",""projectId"":""051c06f1-75cc-4548-856d-4923ddaba0dc""}","https://test12345.live/?num_scrambled_semantic=8&num_scrambled_causal=4&num_scrambled_schematic=4&participantId=BBEDFD83A2B14F5190EA7EAB15FE7557&assignmentId=980ef3d2-82eb-4f12-8186-7f8ef12eef25&projectId=051c06f1-75cc-4548-856d-4923ddaba0dc","BBEDFD83A2B14F5190EA7EAB15FE7557-2025-05-15-19-33-39","[{""page_index"":0,""viewing_time"":9847},{""page_index"":1,""viewing_time"":1427}]","11274","","","","",""
"","","","","","html-audio-response","22","156669","0.0-8.0","BBEDFD83A2B14F5190EA7EAB15FE7557","BBEDFD83A2B14F5190EA7EAB15FE7557","980ef3d2-82eb-4f12-8186-7f8ef12eef25","051c06f1-75cc-4548-856d-4923ddaba0dc","{""num_scrambled_semantic"":""8"",""num_scrambled_causal"":""4"",""num_scrambled_schematic"":""4"",""participantId"":""BBEDFD83A2B14F5190EA7EAB15FE7557"",""assignmentId"":""980ef3d2-82eb-4f12-8186-7f8ef12eef25"",""projectId"":""051c06f1-75cc-4548-856d-4923ddaba0dc""}","https://test12345.live/?num_scrambled_semantic=8&num_scrambled_causal=4&num_scrambled_schematic=4&participantId=BBEDFD83A2B14F5190EA7EAB15FE7557&assignmentId=980ef3d2-82eb-4f12-8186-7f8ef12eef25&projectId=051c06f1-75cc-4548-856d-4923ddaba0dc","BBEDFD83A2B14F5190EA7EAB15FE7557-2025-05-15-19-33-39","","14875","","[""<span style=\""color: red; font-size: 24px\""> NOW RECORDING</span><p>Please say out loud all the images you saw, as many as you can remember. The images can be said in any order.</p>""]","","10",""
"","","","","","instructions","23","158202","0.0-9.0","BBEDFD83A2B14F5190EA7EAB15FE7557","BBEDFD83A2B14F5190EA7EAB15FE7557","980ef3d2-82eb-4f12-8186-7f8ef12eef25","051c06f1-75cc-4548-856d-4923ddaba0dc","{""num_scrambled_semantic"":""8"",""num_scrambled_causal"":""4"",""num_scrambled_schematic"":""4"",""participantId"":""BBEDFD83A2B14F5190EA7EAB15FE7557"",""assignmentId"":""980ef3d2-82eb-4f12-8186-7f8ef12eef25"",""projectId"":""051c06f1-75cc-4548-856d-4923ddaba0dc""}","https://test12345.live/?num_scrambled_semantic=8&num_scrambled_causal=4&num_scrambled_schematic=4&participantId=BBEDFD83A2B14F5190EA7EAB15FE7557&assignmentId=980ef3d2-82eb-4f12-8186-7f8ef12eef25&projectId=051c06f1-75cc-4548-856d-4923ddaba0dc","BBEDFD83A2B14F5190EA7EAB15FE7557-2025-05-15-19-33-39","[{""page_index"":0,""viewing_time"":1525}]","1525","","","","",""
"","","","","","image-button-response","24","164216","0.0-10.0-0.0","BBEDFD83A2B14F5190EA7EAB15FE7557","BBEDFD83A2B14F5190EA7EAB15FE7557","980ef3d2-82eb-4f12-8186-7f8ef12eef25","051c06f1-75cc-4548-856d-4923ddaba0dc","{""num_scrambled_semantic"":""8"",""num_scrambled_causal"":""4"",""num_scrambled_schematic"":""4"",""participantId"":""BBEDFD83A2B14F5190EA7EAB15FE7557"",""assignmentId"":""980ef3d2-82eb-4f12-8186-7f8ef12eef25"",""projectId"":""051c06f1-75cc-4548-856d-4923ddaba0dc""}","https://test12345.live/?num_scrambled_semantic=8&num_scrambled_causal=4&num_scrambled_schematic=4&participantId=BBEDFD83A2B14F5190EA7EAB15FE7557&assignmentId=980ef3d2-82eb-4f12-8186-7f8ef12eef25&projectId=051c06f1-75cc-4548-856d-4923ddaba0dc","BBEDFD83A2B14F5190EA7EAB15FE7557-2025-05-15-19-33-39","","null","","images/causal_sequence/coin_causal/coin_causal_0.png","null","",""
"","","","","","image-button-response","25","168718","0.0-10.0-1.0-0.0","BBEDFD83A2B14F5190EA7EAB15FE7557","BBEDFD83A2B14F5190EA7EAB15FE7557","980ef3d2-82eb-4f12-8186-7f8ef12eef25","051c06f1-75cc-4548-856d-4923ddaba0dc","{""num_scrambled_semantic"":""8"",""num_scrambled_causal"":""4"",""num_scrambled_schematic"":""4"",""participantId"":""BBEDFD83A2B14F5190EA7EAB15FE7557"",""assignmentId"":""980ef3d2-82eb-4f12-8186-7f8ef12eef25"",""projectId"":""051c06f1-75cc-4548-856d-4923ddaba0dc""}","https://test12345.live/?num_scrambled_semantic=8&num_scrambled_causal=4&num_scrambled_schematic=4&participantId=BBEDFD83A2B14F5190EA7EAB15FE7557&assignmentId=980ef3d2-82eb-4f12-8186-7f8ef12eef25&projectId=051c06f1-75cc-4548-856d-4923ddaba0dc","BBEDFD83A2B14F5190EA7EAB15FE7557-2025-05-15-19-33-39","","null","","images/causal_sequence/coin_causal/coin_causal_ten.png","null","",""
"","","","","","image-button-response","26","170302","0.0-10.0-1.0-1.0","BBEDFD83A2B14F5190EA7EAB15FE7557","BBEDFD83A2B14F5190EA7EAB15FE7557","980ef3d2-82eb-4f12-8186-7f8ef12eef25","051c06f1-75cc-4548-856d-4923ddaba0dc","{""num_scrambled_semantic"":""8"",""num_scrambled_causal"":""4"",""num_scrambled_schematic"":""4"",""participantId"":""BBEDFD83A2B14F5190EA7EAB15FE7557"",""assignmentId"":""980ef3d2-82eb-4f12-8186-7f8ef12eef25"",""projectId"":""051c06f1-75cc-4548-856d-4923ddaba0dc""}","https://test12345.live/?num_scrambled_semantic=8&num_scrambled_causal=4&num_scrambled_schematic=4&participantId=BBEDFD83A2B14F5190EA7EAB15FE7557&assignmentId=980ef3d2-82eb-4f12-8186-7f8ef12eef25&projectId=051c06f1-75cc-4548-856d-4923ddaba0dc","BBEDFD83A2B14F5190EA7EAB15FE7557-2025-05-15-19-33-39","","1578","","images/causal_sequence/coin_causal/coin_causal_ten.png","0","",""
"","","","","","image-button-response","27","172106","0.0-10.0-1.0-2.0","BBEDFD83A2B14F5190EA7EAB15FE7557","BBEDFD83A2B14F5190EA7EAB15FE7557","980ef3d2-82eb-4f12-8186-7f8ef12eef25","051c06f1-75cc-4548-856d-4923ddaba0dc","{""num_scrambled_semantic"":""8"",""num_scrambled_causal"":""4"",""num_scrambled_schematic"":""4"",""participantId"":""BBEDFD83A2B14F5190EA7EAB15FE7557"",""assignmentId"":""980ef3d2-82eb-4f12-8186-7f8ef12eef25"",""projectId"":""051c06f1-75cc-4548-856d-4923ddaba0dc""}","https://test12345.live/?num_scrambled_semantic=8&num_scrambled_causal=4&num_scrambled_schematic=4&participantId=BBEDFD83A2B14F5190EA7EAB15FE7557&assignmentId=980ef3d2-82eb-4f12-8186-7f8ef12eef25&projectId=051c06f1-75cc-4548-856d-4923ddaba0dc","BBEDFD83A2B14F5190EA7EAB15FE7557-2025-05-15-19-33-39","","null","","[]","null","",""
"","","","","","image-button-response","28","176608","0.0-10.0-1.0-0.1","BBEDFD83A2B14F5190EA7EAB15FE7557","BBEDFD83A2B14F5190EA7EAB15FE7557","980ef3d2-82eb-4f12-8186-7f8ef12eef25","051c06f1-75cc-4548-856d-4923ddaba0dc","{""num_scrambled_semantic"":""8"",""num_scrambled_causal"":""4"",""num_scrambled_schematic"":""4"",""participantId"":""BBEDFD83A2B14F5190EA7EAB15FE7557"",""assignmentId"":""980ef3d2-82eb-4f12-8186-7f8ef12eef25"",""projectId"":""051c06f1-75cc-4548-856d-4923ddaba0dc""}","https://test12345.live/?num_scrambled_semantic=8&num_scrambled_causal=4&num_scrambled_schematic=4&participantId=BBEDFD83A2B14F5190EA7EAB15FE7557&assignmentId=980ef3d2-82eb-4f12-8186-7f8ef12eef25&projectId=051c06f1-75cc-4548-856d-4923ddaba0dc","BBEDFD83A2B14F5190EA7EAB15FE7557-2025-05-15-19-33-39","","null","","images/causal_sequence/coin_causal/coin_causal_1.png","null","",""
"","","","","","image-button-response","29","178552","0.0-10.0-1.0-1.1","BBEDFD83A2B14F5190EA7EAB15FE7557","BBEDFD83A2B14F5190EA7EAB15FE7557","980ef3d2-82eb-4f12-8186-7f8ef12eef25","051c06f1-75cc-4548-856d-4923ddaba0dc","{""num_scrambled_semantic"":""8"",""num_scrambled_causal"":""4"",""num_scrambled_schematic"":""4"",""participantId"":""BBEDFD83A2B14F5190EA7EAB15FE7557"",""assignmentId"":""980ef3d2-82eb-4f12-8186-7f8ef12eef25"",""projectId"":""051c06f1-75cc-4548-856d-4923ddaba0dc""}","https://test12345.live/?num_scrambled_semantic=8&num_scrambled_causal=4&num_scrambled_schematic=4&participantId=BBEDFD83A2B14F5190EA7EAB15FE7557&assignmentId=980ef3d2-82eb-4f12-8186-7f8ef12eef25&projectId=051c06f1-75cc-4548-856d-4923ddaba0dc","BBEDFD83A2B14F5190EA7EAB15FE7557-2025-05-15-19-33-39","","1942","","images/causal_sequence/coin_causal/coin_causal_1.png","0","",""
"","","","","","image-button-response","30","180355","0.0-10.0-1.0-2.1","BBEDFD83A2B14F5190EA7EAB15FE7557","BBEDFD83A2B14F5190EA7EAB15FE7557","980ef3d2-82eb-4f12-8186-7f8ef12eef25","051c06f1-75cc-4548-856d-4923ddaba0dc","{""num_scrambled_semantic"":""8"",""num_scrambled_causal"":""4"",""num_scrambled_schematic"":""4"",""participantId"":""BBEDFD83A2B14F5190EA7EAB15FE7557"",""assignmentId"":""980ef3d2-82eb-4f12-8186-7f8ef12eef25"",""projectId"":""051c06f1-75cc-4548-856d-4923ddaba0dc""}","https://test12345.live/?num_scrambled_semantic=8&num_scrambled_causal=4&num_scrambled_schematic=4&participantId=BBEDFD83A2B14F5190EA7EAB15FE7557&assignmentId=980ef3d2-82eb-4f12-8186-7f8ef12eef25&projectId=051c06f1-75cc-4548-856d-4923ddaba0dc","BBEDFD83A2B14F5190EA7EAB15FE7557-2025-05-15-19-33-39","","null","","[]","null","",""
"","","","","","image-button-response","31","184856","0.0-10.0-1.0-0.2","BBEDFD83A2B14F5190EA7EAB15FE7557","BBEDFD83A2B14F5190EA7EAB15FE7557","980ef3d2-82eb-4f12-8186-7f8ef12eef25","051c06f1-75cc-4548-856d-4923ddaba0dc","{""num_scrambled_semantic"":""8"",""num_scrambled_causal"":""4"",""num_scrambled_schematic"":""4"",""participantId"":""BBEDFD83A2B14F5190EA7EAB15FE7557"",""assignmentId"":""980ef3d2-82eb-4f12-8186-7f8ef12eef25"",""projectId"":""051c06f1-75cc-4548-856d-4923ddaba0dc""}","https://test12345.live/?num_scrambled_semantic=8&num_scrambled_causal=4&num_scrambled_schematic=4&participantId=BBEDFD83A2B14F5190EA7EAB15FE7557&assignmentId=980ef3d2-82eb-4f12-8186-7f8ef12eef25&projectId=051c06f1-75cc-4548-856d-4923ddaba0dc","BBEDFD83A2B14F5190EA7EAB15FE7557-2025-05-15-19-33-39","","null","","images/causal_sequence/coin_causal/coin_causal_5.png","null","",""
"","","","","","image-button-response","32","185921","0.0-10.0-1.0-1.2","BBEDFD83A2B14F5190EA7EAB15FE7557","BBEDFD83A2B14F5190EA7EAB15FE7557","980ef3d2-82eb-4f12-8186-7f8ef12eef25","051c06f1-75cc-4548-856d-4923ddaba0dc","{""num_scrambled_semantic"":""8"",""num_scrambled_causal"":""4"",""num_scrambled_schematic"":""4"",""participantId"":""BBEDFD83A2B14F5190EA7EAB15FE7557"",""assignmentId"":""980ef3d2-82eb-4f12-8186-7f8ef12eef25"",""projectId"":""051c06f1-75cc-4548-856d-4923ddaba0dc""}","https://test12345.live/?num_scrambled_semantic=8&num_scrambled_causal=4&num_scrambled_schematic=4&participantId=BBEDFD83A2B14F5190EA7EAB15FE7557&assignmentId=980ef3d2-82eb-4f12-8186-7f8ef12eef25&projectId=051c06f1-75cc-4548-856d-4923ddaba0dc","BBEDFD83A2B14F5190EA7EAB15FE7557-2025-05-15-19-33-39","","1064","","images/causal_sequence/coin_causal/coin_causal_5.png","0","",""
"","","","","","image-button-response","33","187724","0.0-10.0-1.0-2.2","BBEDFD83A2B14F5190EA7EAB15FE7557","BBEDFD83A2B14F5190EA7EAB15FE7557","980ef3d2-82eb-4f12-8186-7f8ef12eef25","051c06f1-75cc-4548-856d-4923ddaba0dc","{""num_scrambled_semantic"":""8"",""num_scrambled_causal"":""4"",""num_scrambled_schematic"":""4"",""participantId"":""BBEDFD83A2B14F5190EA7EAB15FE7557"",""assignmentId"":""980ef3d2-82eb-4f12-8186-7f8ef12eef25"",""projectId"":""051c06f1-75cc-4548-856d-4923ddaba0dc""}","https://test12345.live/?num_scrambled_semantic=8&num_scrambled_causal=4&num_scrambled_schematic=4&participantId=BBEDFD83A2B14F5190EA7EAB15FE7557&assignmentId=980ef3d2-82eb-4f12-8186-7f8ef12eef25&projectId=051c06f1-75cc-4548-856d-4923ddaba0dc","BBEDFD83A2B14F5190EA7EAB15FE7557-2025-05-15-19-33-39","","null","","[]","null","",""
"","","","","","image-button-response","34","192230","0.0-10.0-1.0-0.3","BBEDFD83A2B14F5190EA7EAB15FE7557","BBEDFD83A2B14F5190EA7EAB15FE7557","980ef3d2-82eb-4f12-8186-7f8ef12eef25","051c06f1-75cc-4548-856d-4923ddaba0dc","{""num_scrambled_semantic"":""8"",""num_scrambled_causal"":""4"",""num_scrambled_schematic"":""4"",""participantId"":""BBEDFD83A2B14F5190EA7EAB15FE7557"",""assignmentId"":""980ef3d2-82eb-4f12-8186-7f8ef12eef25"",""projectId"":""051c06f1-75cc-4548-856d-4923ddaba0dc""}","https://test12345.live/?num_scrambled_semantic=8&num_scrambled_causal=4&num_scrambled_schematic=4&participantId=BBEDFD83A2B14F5190EA7EAB15FE7557&assignmentId=980ef3d2-82eb-4f12-8186-7f8ef12eef25&projectId=051c06f1-75cc-4548-856d-4923ddaba0dc","BBEDFD83A2B14F5190EA7EAB15FE7557-2025-05-15-19-33-39","","null","","images/causal_sequence/coin_causal/coin_causal_6.png","null","",""
"","","","","","image-button-response","35","193452","0.0-10.0-1.0-1.3","BBEDFD83A2B14F5190EA7EAB15FE7557","BBEDFD83A2B14F5190EA7EAB15FE7557","980ef3d2-82eb-4f12-8186-7f8ef12eef25","051c06f1-75cc-4548-856d-4923ddaba0dc","{""num_scrambled_semantic"":""8"",""num_scrambled_causal"":""4"",""num_scrambled_schematic"":""4"",""participantId"":""BBEDFD83A2B14F5190EA7EAB15FE7557"",""assignmentId"":""980ef3d2-82eb-4f12-8186-7f8ef12eef25"",""projectId"":""051c06f1-75cc-4548-856d-4923ddaba0dc""}","https://test12345.live/?num_scrambled_semantic=8&num_scrambled_causal=4&num_scrambled_schematic=4&participantId=BBEDFD83A2B14F5190EA7EAB15FE7557&assignmentId=980ef3d2-82eb-4f12-8186-7f8ef12eef25&projectId=051c06f1-75cc-4548-856d-4923ddaba0dc","BBEDFD83A2B14F5190EA7EAB15FE7557-2025-05-15-19-33-39","","1221","","images/causal_sequence/coin_causal/coin_causal_6.png","0","",""
"","","","","","image-button-response","36","195255","0.0-10.0-1.0-2.3","BBEDFD83A2B14F5190EA7EAB15FE7557","BBEDFD83A2B14F5190EA7EAB15FE7557","980ef3d2-82eb-4f12-8186-7f8ef12eef25","051c06f1-75cc-4548-856d-4923ddaba0dc","{""num_scrambled_semantic"":""8"",""num_scrambled_causal"":""4"",""num_scrambled_schematic"":""4"",""participantId"":""BBEDFD83A2B14F5190EA7EAB15FE7557"",""assignmentId"":""980ef3d2-82eb-4f12-8186-7f8ef12eef25"",""projectId"":""051c06f1-75cc-4548-856d-4923ddaba0dc""}","https://test12345.live/?num_scrambled_semantic=8&num_scrambled_causal=4&num_scrambled_schematic=4&participantId=BBEDFD83A2B14F5190EA7EAB15FE7557&assignmentId=980ef3d2-82eb-4f12-8186-7f8ef12eef25&projectId=051c06f1-75cc-4548-856d-4923ddaba0dc","BBEDFD83A2B14F5190EA7EAB15FE7557-2025-05-15-19-33-39","","null","","[]","null","",""
"","","","","","image-button-response","37","199759","0.0-10.0-1.0-0.4","BBEDFD83A2B14F5190EA7EAB15FE7557","BBEDFD83A2B14F5190EA7EAB15FE7557","980ef3d2-82eb-4f12-8186-7f8ef12eef25","051c06f1-75cc-4548-856d-4923ddaba0dc","{""num_scrambled_semantic"":""8"",""num_scrambled_causal"":""4"",""num_scrambled_schematic"":""4"",""participantId"":""BBEDFD83A2B14F5190EA7EAB15FE7557"",""assignmentId"":""980ef3d2-82eb-4f12-8186-7f8ef12eef25"",""projectId"":""051c06f1-75cc-4548-856d-4923ddaba0dc""}","https://test12345.live/?num_scrambled_semantic=8&num_scrambled_causal=4&num_scrambled_schematic=4&participantId=BBEDFD83A2B14F5190EA7EAB15FE7557&assignmentId=980ef3d2-82eb-4f12-8186-7f8ef12eef25&projectId=051c06f1-75cc-4548-856d-4923ddaba0dc","BBEDFD83A2B14F5190EA7EAB15FE7557-2025-05-15-19-33-39","","null","","images/causal_sequence/coin_causal/coin_causal_2.png","null","",""
"","","","","","image-button-response","38","200685","0.0-10.0-1.0-1.4","BBEDFD83A2B14F5190EA7EAB15FE7557","BBEDFD83A2B14F5190EA7EAB15FE7557","980ef3d2-82eb-4f12-8186-7f8ef12eef25","051c06f1-75cc-4548-856d-4923ddaba0dc","{""num_scrambled_semantic"":""8"",""num_scrambled_causal"":""4"",""num_scrambled_schematic"":""4"",""participantId"":""BBEDFD83A2B14F5190EA7EAB15FE7557"",""assignmentId"":""980ef3d2-82eb-4f12-8186-7f8ef12eef25"",""projectId"":""051c06f1-75cc-4548-856d-4923ddaba0dc""}","https://test12345.live/?num_scrambled_semantic=8&num_scrambled_causal=4&num_scrambled_schematic=4&participantId=BBEDFD83A2B14F5190EA7EAB15FE7557&assignmentId=980ef3d2-82eb-4f12-8186-7f8ef12eef25&projectId=051c06f1-75cc-4548-856d-4923ddaba0dc","BBEDFD83A2B14F5190EA7EAB15FE7557-2025-05-15-19-33-39","","925","","images/causal_sequence/coin_causal/coin_causal_2.png","0","",""
"","","","","","image-button-response","39","202487","0.0-10.0-1.0-2.4","BBEDFD83A2B14F5190EA7EAB15FE7557","BBEDFD83A2B14F5190EA7EAB15FE7557","980ef3d2-82eb-4f12-8186-7f8ef12eef25","051c06f1-75cc-4548-856d-4923ddaba0dc","{""num_scrambled_semantic"":""8"",""num_scrambled_causal"":""4"",""num_scrambled_schematic"":""4"",""participantId"":""BBEDFD83A2B14F5190EA7EAB15FE7557"",""assignmentId"":""980ef3d2-82eb-4f12-8186-7f8ef12eef25"",""projectId"":""051c06f1-75cc-4548-856d-4923ddaba0dc""}","https://test12345.live/?num_scrambled_semantic=8&num_scrambled_causal=4&num_scrambled_schematic=4&participantId=BBEDFD83A2B14F5190EA7EAB15FE7557&assignmentId=980ef3d2-82eb-4f12-8186-7f8ef12eef25&projectId=051c06f1-75cc-4548-856d-4923ddaba0dc","BBEDFD83A2B14F5190EA7EAB15FE7557-2025-05-15-19-33-39","","null","","[]","null","",""
"","","","","","image-button-response","40","206990","0.0-10.0-1.0-0.5","BBEDFD83A2B14F5190EA7EAB15FE7557","BBEDFD83A2B14F5190EA7EAB15FE7557","980ef3d2-82eb-4f12-8186-7f8ef12eef25","051c06f1-75cc-4548-856d-4923ddaba0dc","{""num_scrambled_semantic"":""8"",""num_scrambled_causal"":""4"",""num_scrambled_schematic"":""4"",""participantId"":""BBEDFD83A2B14F5190EA7EAB15FE7557"",""assignmentId"":""980ef3d2-82eb-4f12-8186-7f8ef12eef25"",""projectId"":""051c06f1-75cc-4548-856d-4923ddaba0dc""}","https://test12345.live/?num_scrambled_semantic=8&num_scrambled_causal=4&num_scrambled_schematic=4&participantId=BBEDFD83A2B14F5190EA7EAB15FE7557&assignmentId=980ef3d2-82eb-4f12-8186-7f8ef12eef25&projectId=051c06f1-75cc-4548-856d-4923ddaba0dc","BBEDFD83A2B14F5190EA7EAB15FE7557-2025-05-15-19-33-39","","null","","images/causal_sequence/coin_causal/coin_causal_8.png","null","",""
"","","","","","image-button-response","41","208155","0.0-10.0-1.0-1.5","BBEDFD83A2B14F5190EA7EAB15FE7557","BBEDFD83A2B14F5190EA7EAB15FE7557","980ef3d2-82eb-4f12-8186-7f8ef12eef25","051c06f1-75cc-4548-856d-4923ddaba0dc","{""num_scrambled_semantic"":""8"",""num_scrambled_causal"":""4"",""num_scrambled_schematic"":""4"",""participantId"":""BBEDFD83A2B14F5190EA7EAB15FE7557"",""assignmentId"":""980ef3d2-82eb-4f12-8186-7f8ef12eef25"",""projectId"":""051c06f1-75cc-4548-856d-4923ddaba0dc""}","https://test12345.live/?num_scrambled_semantic=8&num_scrambled_causal=4&num_scrambled_schematic=4&participantId=BBEDFD83A2B14F5190EA7EAB15FE7557&assignmentId=980ef3d2-82eb-4f12-8186-7f8ef12eef25&projectId=051c06f1-75cc-4548-856d-4923ddaba0dc","BBEDFD83A2B14F5190EA7EAB15FE7557-2025-05-15-19-33-39","","1164","","images/causal_sequence/coin_causal/coin_causal_8.png","0","",""
"","","","","","image-button-response","42","209957","0.0-10.0-1.0-2.5","BBEDFD83A2B14F5190EA7EAB15FE7557","BBEDFD83A2B14F5190EA7EAB15FE7557","980ef3d2-82eb-4f12-8186-7f8ef12eef25","051c06f1-75cc-4548-856d-4923ddaba0dc","{""num_scrambled_semantic"":""8"",""num_scrambled_causal"":""4"",""num_scrambled_schematic"":""4"",""participantId"":""BBEDFD83A2B14F5190EA7EAB15FE7557"",""assignmentId"":""980ef3d2-82eb-4f12-8186-7f8ef12eef25"",""projectId"":""051c06f1-75cc-4548-856d-4923ddaba0dc""}","https://test12345.live/?num_scrambled_semantic=8&num_scrambled_causal=4&num_scrambled_schematic=4&participantId=BBEDFD83A2B14F5190EA7EAB15FE7557&assignmentId=980ef3d2-82eb-4f12-8186-7f8ef12eef25&projectId=051c06f1-75cc-4548-856d-4923ddaba0dc","BBEDFD83A2B14F5190EA7EAB15FE7557-2025-05-15-19-33-39","","null","","[]","null","",""
"","","","","","image-button-response","43","214457","0.0-10.0-1.0-0.6","BBEDFD83A2B14F5190EA7EAB15FE7557","BBEDFD83A2B14F5190EA7EAB15FE7557","980ef3d2-82eb-4f12-8186-7f8ef12eef25","051c06f1-75cc-4548-856d-4923ddaba0dc","{""num_scrambled_semantic"":""8"",""num_scrambled_causal"":""4"",""num_scrambled_schematic"":""4"",""participantId"":""BBEDFD83A2B14F5190EA7EAB15FE7557"",""assignmentId"":""980ef3d2-82eb-4f12-8186-7f8ef12eef25"",""projectId"":""051c06f1-75cc-4548-856d-4923ddaba0dc""}","https://test12345.live/?num_scrambled_semantic=8&num_scrambled_causal=4&num_scrambled_schematic=4&participantId=BBEDFD83A2B14F5190EA7EAB15FE7557&assignmentId=980ef3d2-82eb-4f12-8186-7f8ef12eef25&projectId=051c06f1-75cc-4548-856d-4923ddaba0dc","BBEDFD83A2B14F5190EA7EAB15FE7557-2025-05-15-19-33-39","","null","","images/causal_sequence/coin_causal/coin_causal_3.png","null","",""
"","","","","","image-button-response","44","215030","0.0-10.0-1.0-1.6","BBEDFD83A2B14F5190EA7EAB15FE7557","BBEDFD83A2B14F5190EA7EAB15FE7557","980ef3d2-82eb-4f12-8186-7f8ef12eef25","051c06f1-75cc-4548-856d-4923ddaba0dc","{""num_scrambled_semantic"":""8"",""num_scrambled_causal"":""4"",""num_scrambled_schematic"":""4"",""participantId"":""BBEDFD83A2B14F5190EA7EAB15FE7557"",""assignmentId"":""980ef3d2-82eb-4f12-8186-7f8ef12eef25"",""projectId"":""051c06f1-75cc-4548-856d-4923ddaba0dc""}","https://test12345.live/?num_scrambled_semantic=8&num_scrambled_causal=4&num_scrambled_schematic=4&participantId=BBEDFD83A2B14F5190EA7EAB15FE7557&assignmentId=980ef3d2-82eb-4f12-8186-7f8ef12eef25&projectId=051c06f1-75cc-4548-856d-4923ddaba0dc","BBEDFD83A2B14F5190EA7EAB15FE7557-2025-05-15-19-33-39","","569","","images/causal_sequence/coin_causal/coin_causal_3.png","0","",""
"","","","","","image-button-response","45","216834","0.0-10.0-1.0-2.6","BBEDFD83A2B14F5190EA7EAB15FE7557","BBEDFD83A2B14F5190EA7EAB15FE7557","980ef3d2-82eb-4f12-8186-7f8ef12eef25","051c06f1-75cc-4548-856d-4923ddaba0dc","{""num_scrambled_semantic"":""8"",""num_scrambled_causal"":""4"",""num_scrambled_schematic"":""4"",""participantId"":""BBEDFD83A2B14F5190EA7EAB15FE7557"",""assignmentId"":""980ef3d2-82eb-4f12-8186-7f8ef12eef25"",""projectId"":""051c06f1-75cc-4548-856d-4923ddaba0dc""}","https://test12345.live/?num_scrambled_semantic=8&num_scrambled_causal=4&num_scrambled_schematic=4&participantId=BBEDFD83A2B14F5190EA7EAB15FE7557&assignmentId=980ef3d2-82eb-4f12-8186-7f8ef12eef25&projectId=051c06f1-75cc-4548-856d-4923ddaba0dc","BBEDFD83A2B14F5190EA7EAB15FE7557-2025-05-15-19-33-39","","null","","[]","null","",""
"","","","","","image-button-response","46","221336","0.0-10.0-1.0-0.7","BBEDFD83A2B14F5190EA7EAB15FE7557","BBEDFD83A2B14F5190EA7EAB15FE7557","980ef3d2-82eb-4f12-8186-7f8ef12eef25","051c06f1-75cc-4548-856d-4923ddaba0dc","{""num_scrambled_semantic"":""8"",""num_scrambled_causal"":""4"",""num_scrambled_schematic"":""4"",""participantId"":""BBEDFD83A2B14F5190EA7EAB15FE7557"",""assignmentId"":""980ef3d2-82eb-4f12-8186-7f8ef12eef25"",""projectId"":""051c06f1-75cc-4548-856d-4923ddaba0dc""}","https://test12345.live/?num_scrambled_semantic=8&num_scrambled_causal=4&num_scrambled_schematic=4&participantId=BBEDFD83A2B14F5190EA7EAB15FE7557&assignmentId=980ef3d2-82eb-4f12-8186-7f8ef12eef25&projectId=051c06f1-75cc-4548-856d-4923ddaba0dc","BBEDFD83A2B14F5190EA7EAB15FE7557-2025-05-15-19-33-39","","null","","images/causal_sequence/coin_causal/coin_causal_4.png","null","",""
"","","","","","image-button-response","47","222142","0.0-10.0-1.0-1.7","BBEDFD83A2B14F5190EA7EAB15FE7557","BBEDFD83A2B14F5190EA7EAB15FE7557","980ef3d2-82eb-4f12-8186-7f8ef12eef25","051c06f1-75cc-4548-856d-4923ddaba0dc","{""num_scrambled_semantic"":""8"",""num_scrambled_causal"":""4"",""num_scrambled_schematic"":""4"",""participantId"":""BBEDFD83A2B14F5190EA7EAB15FE7557"",""assignmentId"":""980ef3d2-82eb-4f12-8186-7f8ef12eef25"",""projectId"":""051c06f1-75cc-4548-856d-4923ddaba0dc""}","https://test12345.live/?num_scrambled_semantic=8&num_scrambled_causal=4&num_scrambled_schematic=4&participantId=BBEDFD83A2B14F5190EA7EAB15FE7557&assignmentId=980ef3d2-82eb-4f12-8186-7f8ef12eef25&projectId=051c06f1-75cc-4548-856d-4923ddaba0dc","BBEDFD83A2B14F5190EA7EAB15FE7557-2025-05-15-19-33-39","","805","","images/causal_sequence/coin_causal/coin_causal_4.png","0","",""
"","","","","","image-button-response","48","223947","0.0-10.0-1.0-2.7","BBEDFD83A2B14F5190EA7EAB15FE7557","BBEDFD83A2B14F5190EA7EAB15FE7557","980ef3d2-82eb-4f12-8186-7f8ef12eef25","051c06f1-75cc-4548-856d-4923ddaba0dc","{""num_scrambled_semantic"":""8"",""num_scrambled_causal"":""4"",""num_scrambled_schematic"":""4"",""participantId"":""BBEDFD83A2B14F5190EA7EAB15FE7557"",""assignmentId"":""980ef3d2-82eb-4f12-8186-7f8ef12eef25"",""projectId"":""051c06f1-75cc-4548-856d-4923ddaba0dc""}","https://test12345.live/?num_scrambled_semantic=8&num_scrambled_causal=4&num_scrambled_schematic=4&participantId=BBEDFD83A2B14F5190EA7EAB15FE7557&assignmentId=980ef3d2-82eb-4f12-8186-7f8ef12eef25&projectId=051c06f1-75cc-4548-856d-4923ddaba0dc","BBEDFD83A2B14F5190EA7EAB15FE7557-2025-05-15-19-33-39","","null","","[]","null","",""
"","","","","","image-button-response","49","228451","0.0-10.0-1.0-0.8","BBEDFD83A2B14F5190EA7EAB15FE7557","BBEDFD83A2B14F5190EA7EAB15FE7557","980ef3d2-82eb-4f12-8186-7f8ef12eef25","051c06f1-75cc-4548-856d-4923ddaba0dc","{""num_scrambled_semantic"":""8"",""num_scrambled_causal"":""4"",""num_scrambled_schematic"":""4"",""participantId"":""BBEDFD83A2B14F5190EA7EAB15FE7557"",""assignmentId"":""980ef3d2-82eb-4f12-8186-7f8ef12eef25"",""projectId"":""051c06f1-75cc-4548-856d-4923ddaba0dc""}","https://test12345.live/?num_scrambled_semantic=8&num_scrambled_causal=4&num_scrambled_schematic=4&participantId=BBEDFD83A2B14F5190EA7EAB15FE7557&assignmentId=980ef3d2-82eb-4f12-8186-7f8ef12eef25&projectId=051c06f1-75cc-4548-856d-4923ddaba0dc","BBEDFD83A2B14F5190EA7EAB15FE7557-2025-05-15-19-33-39","","null","","images/causal_sequence/coin_causal/coin_causal_7.png","null","",""
"","","","","","image-button-response","50","229639","0.0-10.0-1.0-1.8","BBEDFD83A2B14F5190EA7EAB15FE7557","BBEDFD83A2B14F5190EA7EAB15FE7557","980ef3d2-82eb-4f12-8186-7f8ef12eef25","051c06f1-75cc-4548-856d-4923ddaba0dc","{""num_scrambled_semantic"":""8"",""num_scrambled_causal"":""4"",""num_scrambled_schematic"":""4"",""participantId"":""BBEDFD83A2B14F5190EA7EAB15FE7557"",""assignmentId"":""980ef3d2-82eb-4f12-8186-7f8ef12eef25"",""projectId"":""051c06f1-75cc-4548-856d-4923ddaba0dc""}","https://test12345.live/?num_scrambled_semantic=8&num_scrambled_causal=4&num_scrambled_schematic=4&participantId=BBEDFD83A2B14F5190EA7EAB15FE7557&assignmentId=980ef3d2-82eb-4f12-8186-7f8ef12eef25&projectId=051c06f1-75cc-4548-856d-4923ddaba0dc","BBEDFD83A2B14F5190EA7EAB15FE7557-2025-05-15-19-33-39","","1187","","images/causal_sequence/coin_causal/coin_causal_7.png","0","",""
"","","","","","image-button-response","51","231444","0.0-10.0-1.0-2.8","BBEDFD83A2B14F5190EA7EAB15FE7557","BBEDFD83A2B14F5190EA7EAB15FE7557","980ef3d2-82eb-4f12-8186-7f8ef12eef25","051c06f1-75cc-4548-856d-4923ddaba0dc","{""num_scrambled_semantic"":""8"",""num_scrambled_causal"":""4"",""num_scrambled_schematic"":""4"",""participantId"":""BBEDFD83A2B14F5190EA7EAB15FE7557"",""assignmentId"":""980ef3d2-82eb-4f12-8186-7f8ef12eef25"",""projectId"":""051c06f1-75cc-4548-856d-4923ddaba0dc""}","https://test12345.live/?num_scrambled_semantic=8&num_scrambled_causal=4&num_scrambled_schematic=4&participantId=BBEDFD83A2B14F5190EA7EAB15FE7557&assignmentId=980ef3d2-82eb-4f12-8186-7f8ef12eef25&projectId=051c06f1-75cc-4548-856d-4923ddaba0dc","BBEDFD83A2B14F5190EA7EAB15FE7557-2025-05-15-19-33-39","","null","","[]","null","",""
"","","","","","image-button-response","52","235950","0.0-10.0-1.0-0.9","BBEDFD83A2B14F5190EA7EAB15FE7557","BBEDFD83A2B14F5190EA7EAB15FE7557","980ef3d2-82eb-4f12-8186-7f8ef12eef25","051c06f1-75cc-4548-856d-4923ddaba0dc","{""num_scrambled_semantic"":""8"",""num_scrambled_causal"":""4"",""num_scrambled_schematic"":""4"",""participantId"":""BBEDFD83A2B14F5190EA7EAB15FE7557"",""assignmentId"":""980ef3d2-82eb-4f12-8186-7f8ef12eef25"",""projectId"":""051c06f1-75cc-4548-856d-4923ddaba0dc""}","https://test12345.live/?num_scrambled_semantic=8&num_scrambled_causal=4&num_scrambled_schematic=4&participantId=BBEDFD83A2B14F5190EA7EAB15FE7557&assignmentId=980ef3d2-82eb-4f12-8186-7f8ef12eef25&projectId=051c06f1-75cc-4548-856d-4923ddaba0dc","BBEDFD83A2B14F5190EA7EAB15FE7557-2025-05-15-19-33-39","","null","","images/causal_sequence/coin_causal/coin_causal_9.png","null","",""
"","","","","","image-button-response","53","239214","0.0-10.0-1.0-1.9","BBEDFD83A2B14F5190EA7EAB15FE7557","BBEDFD83A2B14F5190EA7EAB15FE7557","980ef3d2-82eb-4f12-8186-7f8ef12eef25","051c06f1-75cc-4548-856d-4923ddaba0dc","{""num_scrambled_semantic"":""8"",""num_scrambled_causal"":""4"",""num_scrambled_schematic"":""4"",""participantId"":""BBEDFD83A2B14F5190EA7EAB15FE7557"",""assignmentId"":""980ef3d2-82eb-4f12-8186-7f8ef12eef25"",""projectId"":""051c06f1-75cc-4548-856d-4923ddaba0dc""}","https://test12345.live/?num_scrambled_semantic=8&num_scrambled_causal=4&num_scrambled_schematic=4&participantId=BBEDFD83A2B14F5190EA7EAB15FE7557&assignmentId=980ef3d2-82eb-4f12-8186-7f8ef12eef25&projectId=051c06f1-75cc-4548-856d-4923ddaba0dc","BBEDFD83A2B14F5190EA7EAB15FE7557-2025-05-15-19-33-39","","3263","","images/causal_sequence/coin_causal/coin_causal_9.png","0","",""
"","","","","","image-button-response","54","241020","0.0-10.0-1.0-2.9","BBEDFD83A2B14F5190EA7EAB15FE7557","BBEDFD83A2B14F5190EA7EAB15FE7557","980ef3d2-82eb-4f12-8186-7f8ef12eef25","051c06f1-75cc-4548-856d-4923ddaba0dc","{""num_scrambled_semantic"":""8"",""num_scrambled_causal"":""4"",""num_scrambled_schematic"":""4"",""participantId"":""BBEDFD83A2B14F5190EA7EAB15FE7557"",""assignmentId"":""980ef3d2-82eb-4f12-8186-7f8ef12eef25"",""projectId"":""051c06f1-75cc-4548-856d-4923ddaba0dc""}","https://test12345.live/?num_scrambled_semantic=8&num_scrambled_causal=4&num_scrambled_schematic=4&participantId=BBEDFD83A2B14F5190EA7EAB15FE7557&assignmentId=980ef3d2-82eb-4f12-8186-7f8ef12eef25&projectId=051c06f1-75cc-4548-856d-4923ddaba0dc","BBEDFD83A2B14F5190EA7EAB15FE7557-2025-05-15-19-33-39","","null","","[]","null","",""
"","","","","","html-audio-response","55","276136","0.0-11.0","BBEDFD83A2B14F5190EA7EAB15FE7557","BBEDFD83A2B14F5190EA7EAB15FE7557","980ef3d2-82eb-4f12-8186-7f8ef12eef25","051c06f1-75cc-4548-856d-4923ddaba0dc","{""num_scrambled_semantic"":""8"",""num_scrambled_causal"":""4"",""num_scrambled_schematic"":""4"",""participantId"":""BBEDFD83A2B14F5190EA7EAB15FE7557"",""assignmentId"":""980ef3d2-82eb-4f12-8186-7f8ef12eef25"",""projectId"":""051c06f1-75cc-4548-856d-4923ddaba0dc""}","https://test12345.live/?num_scrambled_semantic=8&num_scrambled_causal=4&num_scrambled_schematic=4&participantId=BBEDFD83A2B14F5190EA7EAB15FE7557&assignmentId=980ef3d2-82eb-4f12-8186-7f8ef12eef25&projectId=051c06f1-75cc-4548-856d-4923ddaba0dc","BBEDFD83A2B14F5190EA7EAB15FE7557-2025-05-15-19-33-39","","26523","","[""<span style=\""color: red; font-size: 24px\""> NOW RECORDING</span><p>Please say out loud all the images you saw, as many as you can remember. The images can be said in any order.</p>""]","","2","coin_causal"
"","","","","","image-button-response","56","282147","0.0-12.0-0.0","BBEDFD83A2B14F5190EA7EAB15FE7557","BBEDFD83A2B14F5190EA7EAB15FE7557","980ef3d2-82eb-4f12-8186-7f8ef12eef25","051c06f1-75cc-4548-856d-4923ddaba0dc","{""num_scrambled_semantic"":""8"",""num_scrambled_causal"":""4"",""num_scrambled_schematic"":""4"",""participantId"":""BBEDFD83A2B14F5190EA7EAB15FE7557"",""assignmentId"":""980ef3d2-82eb-4f12-8186-7f8ef12eef25"",""projectId"":""051c06f1-75cc-4548-856d-4923ddaba0dc""}","https://test12345.live/?num_scrambled_semantic=8&num_scrambled_causal=4&num_scrambled_schematic=4&participantId=BBEDFD83A2B14F5190EA7EAB15FE7557&assignmentId=980ef3d2-82eb-4f12-8186-7f8ef12eef25&projectId=051c06f1-75cc-4548-856d-4923ddaba0dc","BBEDFD83A2B14F5190EA7EAB15FE7557-2025-05-15-19-33-39","","null","","images/semantic_sequence/redecorating_semantic/redecorating_semantic_0.png","null","",""
"","","","","","image-button-response","57","286649","0.0-12.0-1.0-0.0","BBEDFD83A2B14F5190EA7EAB15FE7557","BBEDFD83A2B14F5190EA7EAB15FE7557","980ef3d2-82eb-4f12-8186-7f8ef12eef25","051c06f1-75cc-4548-856d-4923ddaba0dc","{""num_scrambled_semantic"":""8"",""num_scrambled_causal"":""4"",""num_scrambled_schematic"":""4"",""participantId"":""BBEDFD83A2B14F5190EA7EAB15FE7557"",""assignmentId"":""980ef3d2-82eb-4f12-8186-7f8ef12eef25"",""projectId"":""051c06f1-75cc-4548-856d-4923ddaba0dc""}","https://test12345.live/?num_scrambled_semantic=8&num_scrambled_causal=4&num_scrambled_schematic=4&participantId=BBEDFD83A2B14F5190EA7EAB15FE7557&assignmentId=980ef3d2-82eb-4f12-8186-7f8ef12eef25&projectId=051c06f1-75cc-4548-856d-4923ddaba0dc","BBEDFD83A2B14F5190EA7EAB15FE7557-2025-05-15-19-33-39","","null","","images/semantic_sequence/redecorating_semantic/redecorating_semantic_1.png","null","",""
"","","","","","image-button-response","58","287749","0.0-12.0-1.0-1.0","BBEDFD83A2B14F5190EA7EAB15FE7557","BBEDFD83A2B14F5190EA7EAB15FE7557","980ef3d2-82eb-4f12-8186-7f8ef12eef25","051c06f1-75cc-4548-856d-4923ddaba0dc","{""num_scrambled_semantic"":""8"",""num_scrambled_causal"":""4"",""num_scrambled_schematic"":""4"",""participantId"":""BBEDFD83A2B14F5190EA7EAB15FE7557"",""assignmentId"":""980ef3d2-82eb-4f12-8186-7f8ef12eef25"",""projectId"":""051c06f1-75cc-4548-856d-4923ddaba0dc""}","https://test12345.live/?num_scrambled_semantic=8&num_scrambled_causal=4&num_scrambled_schematic=4&participantId=BBEDFD83A2B14F5190EA7EAB15FE7557&assignmentId=980ef3d2-82eb-4f12-8186-7f8ef12eef25&projectId=051c06f1-75cc-4548-856d-4923ddaba0dc","BBEDFD83A2B14F5190EA7EAB15FE7557-2025-05-15-19-33-39","","1098","","images/semantic_sequence/redecorating_semantic/redecorating_semantic_1.png","0","",""
"","","","","","image-button-response","59","289554","0.0-12.0-1.0-2.0","BBEDFD83A2B14F5190EA7EAB15FE7557","BBEDFD83A2B14F5190EA7EAB15FE7557","980ef3d2-82eb-4f12-8186-7f8ef12eef25","051c06f1-75cc-4548-856d-4923ddaba0dc","{""num_scrambled_semantic"":""8"",""num_scrambled_causal"":""4"",""num_scrambled_schematic"":""4"",""participantId"":""BBEDFD83A2B14F5190EA7EAB15FE7557"",""assignmentId"":""980ef3d2-82eb-4f12-8186-7f8ef12eef25"",""projectId"":""051c06f1-75cc-4548-856d-4923ddaba0dc""}","https://test12345.live/?num_scrambled_semantic=8&num_scrambled_causal=4&num_scrambled_schematic=4&participantId=BBEDFD83A2B14F5190EA7EAB15FE7557&assignmentId=980ef3d2-82eb-4f12-8186-7f8ef12eef25&projectId=051c06f1-75cc-4548-856d-4923ddaba0dc","BBEDFD83A2B14F5190EA7EAB15FE7557-2025-05-15-19-33-39","","null","","[]","null","",""
"","","","","","image-button-response","60","294059","0.0-12.0-1.0-0.1","BBEDFD83A2B14F5190EA7EAB15FE7557","BBEDFD83A2B14F5190EA7EAB15FE7557","980ef3d2-82eb-4f12-8186-7f8ef12eef25","051c06f1-75cc-4548-856d-4923ddaba0dc","{""num_scrambled_semantic"":""8"",""num_scrambled_causal"":""4"",""num_scrambled_schematic"":""4"",""participantId"":""BBEDFD83A2B14F5190EA7EAB15FE7557"",""assignmentId"":""980ef3d2-82eb-4f12-8186-7f8ef12eef25"",""projectId"":""051c06f1-75cc-4548-856d-4923ddaba0dc""}","https://test12345.live/?num_scrambled_semantic=8&num_scrambled_causal=4&num_scrambled_schematic=4&participantId=BBEDFD83A2B14F5190EA7EAB15FE7557&assignmentId=980ef3d2-82eb-4f12-8186-7f8ef12eef25&projectId=051c06f1-75cc-4548-856d-4923ddaba0dc","BBEDFD83A2B14F5190EA7EAB15FE7557-2025-05-15-19-33-39","","null","","images/semantic_sequence/redecorating_semantic/redecorating_semantic_2.png","null","",""
"","","","","","image-button-response","61","295673","0.0-12.0-1.0-1.1","BBEDFD83A2B14F5190EA7EAB15FE7557","BBEDFD83A2B14F5190EA7EAB15FE7557","980ef3d2-82eb-4f12-8186-7f8ef12eef25","051c06f1-75cc-4548-856d-4923ddaba0dc","{""num_scrambled_semantic"":""8"",""num_scrambled_causal"":""4"",""num_scrambled_schematic"":""4"",""participantId"":""BBEDFD83A2B14F5190EA7EAB15FE7557"",""assignmentId"":""980ef3d2-82eb-4f12-8186-7f8ef12eef25"",""projectId"":""051c06f1-75cc-4548-856d-4923ddaba0dc""}","https://test12345.live/?num_scrambled_semantic=8&num_scrambled_causal=4&num_scrambled_schematic=4&participantId=BBEDFD83A2B14F5190EA7EAB15FE7557&assignmentId=980ef3d2-82eb-4f12-8186-7f8ef12eef25&projectId=051c06f1-75cc-4548-856d-4923ddaba0dc","BBEDFD83A2B14F5190EA7EAB15FE7557-2025-05-15-19-33-39","","1613","","images/semantic_sequence/redecorating_semantic/redecorating_semantic_2.png","0","",""
"","","","","","image-button-response","62","297480","0.0-12.0-1.0-2.1","BBEDFD83A2B14F5190EA7EAB15FE7557","BBEDFD83A2B14F5190EA7EAB15FE7557","980ef3d2-82eb-4f12-8186-7f8ef12eef25","051c06f1-75cc-4548-856d-4923ddaba0dc","{""num_scrambled_semantic"":""8"",""num_scrambled_causal"":""4"",""num_scrambled_schematic"":""4"",""participantId"":""BBEDFD83A2B14F5190EA7EAB15FE7557"",""assignmentId"":""980ef3d2-82eb-4f12-8186-7f8ef12eef25"",""projectId"":""051c06f1-75cc-4548-856d-4923ddaba0dc""}","https://test12345.live/?num_scrambled_semantic=8&num_scrambled_causal=4&num_scrambled_schematic=4&participantId=BBEDFD83A2B14F5190EA7EAB15FE7557&assignmentId=980ef3d2-82eb-4f12-8186-7f8ef12eef25&projectId=051c06f1-75cc-4548-856d-4923ddaba0dc","BBEDFD83A2B14F5190EA7EAB15FE7557-2025-05-15-19-33-39","","null","","[]","null","",""
"","","","","","image-button-response","63","301985","0.0-12.0-1.0-0.2","BBEDFD83A2B14F5190EA7EAB15FE7557","BBEDFD83A2B14F5190EA7EAB15FE7557","980ef3d2-82eb-4f12-8186-7f8ef12eef25","051c06f1-75cc-4548-856d-4923ddaba0dc","{""num_scrambled_semantic"":""8"",""num_scrambled_causal"":""4"",""num_scrambled_schematic"":""4"",""participantId"":""BBEDFD83A2B14F5190EA7EAB15FE7557"",""assignmentId"":""980ef3d2-82eb-4f12-8186-7f8ef12eef25"",""projectId"":""051c06f1-75cc-4548-856d-4923ddaba0dc""}","https://test12345.live/?num_scrambled_semantic=8&num_scrambled_causal=4&num_scrambled_schematic=4&participantId=BBEDFD83A2B14F5190EA7EAB15FE7557&assignmentId=980ef3d2-82eb-4f12-8186-7f8ef12eef25&projectId=051c06f1-75cc-4548-856d-4923ddaba0dc","BBEDFD83A2B14F5190EA7EAB15FE7557-2025-05-15-19-33-39","","null","","images/semantic_sequence/redecorating_semantic/redecorating_semantic_4.png","null","",""
"","","","","","image-button-response","64","303095","0.0-12.0-1.0-1.2","BBEDFD83A2B14F5190EA7EAB15FE7557","BBEDFD83A2B14F5190EA7EAB15FE7557","980ef3d2-82eb-4f12-8186-7f8ef12eef25","051c06f1-75cc-4548-856d-4923ddaba0dc","{""num_scrambled_semantic"":""8"",""num_scrambled_causal"":""4"",""num_scrambled_schematic"":""4"",""participantId"":""BBEDFD83A2B14F5190EA7EAB15FE7557"",""assignmentId"":""980ef3d2-82eb-4f12-8186-7f8ef12eef25"",""projectId"":""051c06f1-75cc-4548-856d-4923ddaba0dc""}","https://test12345.live/?num_scrambled_semantic=8&num_scrambled_causal=4&num_scrambled_schematic=4&participantId=BBEDFD83A2B14F5190EA7EAB15FE7557&assignmentId=980ef3d2-82eb-4f12-8186-7f8ef12eef25&projectId=051c06f1-75cc-4548-856d-4923ddaba0dc","BBEDFD83A2B14F5190EA7EAB15FE7557-2025-05-15-19-33-39","","1109","","images/semantic_sequence/redecorating_semantic/redecorating_semantic_4.png","0","",""
"","","","","","image-button-response","65","304900","0.0-12.0-1.0-2.2","BBEDFD83A2B14F5190EA7EAB15FE7557","BBEDFD83A2B14F5190EA7EAB15FE7557","980ef3d2-82eb-4f12-8186-7f8ef12eef25","051c06f1-75cc-4548-856d-4923ddaba0dc","{""num_scrambled_semantic"":""8"",""num_scrambled_causal"":""4"",""num_scrambled_schematic"":""4"",""participantId"":""BBEDFD83A2B14F5190EA7EAB15FE7557"",""assignmentId"":""980ef3d2-82eb-4f12-8186-7f8ef12eef25"",""projectId"":""051c06f1-75cc-4548-856d-4923ddaba0dc""}","https://test12345.live/?num_scrambled_semantic=8&num_scrambled_causal=4&num_scrambled_schematic=4&participantId=BBEDFD83A2B14F5190EA7EAB15FE7557&assignmentId=980ef3d2-82eb-4f12-8186-7f8ef12eef25&projectId=051c06f1-75cc-4548-856d-4923ddaba0dc","BBEDFD83A2B14F5190EA7EAB15FE7557-2025-05-15-19-33-39","","null","","[]","null","",""
"","","","","","image-button-response","66","309405","0.0-12.0-1.0-0.3","BBEDFD83A2B14F5190EA7EAB15FE7557","BBEDFD83A2B14F5190EA7EAB15FE7557","980ef3d2-82eb-4f12-8186-7f8ef12eef25","051c06f1-75cc-4548-856d-4923ddaba0dc","{""num_scrambled_semantic"":""8"",""num_scrambled_causal"":""4"",""num_scrambled_schematic"":""4"",""participantId"":""BBEDFD83A2B14F5190EA7EAB15FE7557"",""assignmentId"":""980ef3d2-82eb-4f12-8186-7f8ef12eef25"",""projectId"":""051c06f1-75cc-4548-856d-4923ddaba0dc""}","https://test12345.live/?num_scrambled_semantic=8&num_scrambled_causal=4&num_scrambled_schematic=4&participantId=BBEDFD83A2B14F5190EA7EAB15FE7557&assignmentId=980ef3d2-82eb-4f12-8186-7f8ef12eef25&projectId=051c06f1-75cc-4548-856d-4923ddaba0dc","BBEDFD83A2B14F5190EA7EAB15FE7557-2025-05-15-19-33-39","","null","","images/semantic_sequence/redecorating_semantic/redecorating_semantic_5.png","null","",""
"","","","","","image-button-response","67","313411","0.0-12.0-1.0-1.3","BBEDFD83A2B14F5190EA7EAB15FE7557","BBEDFD83A2B14F5190EA7EAB15FE7557","980ef3d2-82eb-4f12-8186-7f8ef12eef25","051c06f1-75cc-4548-856d-4923ddaba0dc","{""num_scrambled_semantic"":""8"",""num_scrambled_causal"":""4"",""num_scrambled_schematic"":""4"",""participantId"":""BBEDFD83A2B14F5190EA7EAB15FE7557"",""assignmentId"":""980ef3d2-82eb-4f12-8186-7f8ef12eef25"",""projectId"":""051c06f1-75cc-4548-856d-4923ddaba0dc""}","https://test12345.live/?num_scrambled_semantic=8&num_scrambled_causal=4&num_scrambled_schematic=4&participantId=BBEDFD83A2B14F5190EA7EAB15FE7557&assignmentId=980ef3d2-82eb-4f12-8186-7f8ef12eef25&projectId=051c06f1-75cc-4548-856d-4923ddaba0dc","BBEDFD83A2B14F5190EA7EAB15FE7557-2025-05-15-19-33-39","","null","","images/semantic_sequence/redecorating_semantic/redecorating_semantic_5.png","null","",""
"","","","","","image-button-response","68","315215","0.0-12.0-1.0-2.3","BBEDFD83A2B14F5190EA7EAB15FE7557","BBEDFD83A2B14F5190EA7EAB15FE7557","980ef3d2-82eb-4f12-8186-7f8ef12eef25","051c06f1-75cc-4548-856d-4923ddaba0dc","{""num_scrambled_semantic"":""8"",""num_scrambled_causal"":""4"",""num_scrambled_schematic"":""4"",""participantId"":""BBEDFD83A2B14F5190EA7EAB15FE7557"",""assignmentId"":""980ef3d2-82eb-4f12-8186-7f8ef12eef25"",""projectId"":""051c06f1-75cc-4548-856d-4923ddaba0dc""}","https://test12345.live/?num_scrambled_semantic=8&num_scrambled_causal=4&num_scrambled_schematic=4&participantId=BBEDFD83A2B14F5190EA7EAB15FE7557&assignmentId=980ef3d2-82eb-4f12-8186-7f8ef12eef25&projectId=051c06f1-75cc-4548-856d-4923ddaba0dc","BBEDFD83A2B14F5190EA7EAB15FE7557-2025-05-15-19-33-39","","null","","[]","null","",""
"","","","","","image-button-response","69","319719","0.0-12.0-1.0-0.4","BBEDFD83A2B14F5190EA7EAB15FE7557","BBEDFD83A2B14F5190EA7EAB15FE7557","980ef3d2-82eb-4f12-8186-7f8ef12eef25","051c06f1-75cc-4548-856d-4923ddaba0dc","{""num_scrambled_semantic"":""8"",""num_scrambled_causal"":""4"",""num_scrambled_schematic"":""4"",""participantId"":""BBEDFD83A2B14F5190EA7EAB15FE7557"",""assignmentId"":""980ef3d2-82eb-4f12-8186-7f8ef12eef25"",""projectId"":""051c06f1-75cc-4548-856d-4923ddaba0dc""}","https://test12345.live/?num_scrambled_semantic=8&num_scrambled_causal=4&num_scrambled_schematic=4&participantId=BBEDFD83A2B14F5190EA7EAB15FE7557&assignmentId=980ef3d2-82eb-4f12-8186-7f8ef12eef25&projectId=051c06f1-75cc-4548-856d-4923ddaba0dc","BBEDFD83A2B14F5190EA7EAB15FE7557-2025-05-15-19-33-39","","null","","images/semantic_sequence/redecorating_semantic/redecorating_semantic_6.png","null","",""
"","","","","","image-button-response","70","320565","0.0-12.0-1.0-1.4","BBEDFD83A2B14F5190EA7EAB15FE7557","BBEDFD83A2B14F5190EA7EAB15FE7557","980ef3d2-82eb-4f12-8186-7f8ef12eef25","051c06f1-75cc-4548-856d-4923ddaba0dc","{""num_scrambled_semantic"":""8"",""num_scrambled_causal"":""4"",""num_scrambled_schematic"":""4"",""participantId"":""BBEDFD83A2B14F5190EA7EAB15FE7557"",""assignmentId"":""980ef3d2-82eb-4f12-8186-7f8ef12eef25"",""projectId"":""051c06f1-75cc-4548-856d-4923ddaba0dc""}","https://test12345.live/?num_scrambled_semantic=8&num_scrambled_causal=4&num_scrambled_schematic=4&participantId=BBEDFD83A2B14F5190EA7EAB15FE7557&assignmentId=980ef3d2-82eb-4f12-8186-7f8ef12eef25&projectId=051c06f1-75cc-4548-856d-4923ddaba0dc","BBEDFD83A2B14F5190EA7EAB15FE7557-2025-05-15-19-33-39","","845","","images/semantic_sequence/redecorating_semantic/redecorating_semantic_6.png","0","",""
"","","","","","image-button-response","71","322370","0.0-12.0-1.0-2.4","BBEDFD83A2B14F5190EA7EAB15FE7557","BBEDFD83A2B14F5190EA7EAB15FE7557","980ef3d2-82eb-4f12-8186-7f8ef12eef25","051c06f1-75cc-4548-856d-4923ddaba0dc","{""num_scrambled_semantic"":""8"",""num_scrambled_causal"":""4"",""num_scrambled_schematic"":""4"",""participantId"":""BBEDFD83A2B14F5190EA7EAB15FE7557"",""assignmentId"":""980ef3d2-82eb-4f12-8186-7f8ef12eef25"",""projectId"":""051c06f1-75cc-4548-856d-4923ddaba0dc""}","https://test12345.live/?num_scrambled_semantic=8&num_scrambled_causal=4&num_scrambled_schematic=4&participantId=BBEDFD83A2B14F5190EA7EAB15FE7557&assignmentId=980ef3d2-82eb-4f12-8186-7f8ef12eef25&projectId=051c06f1-75cc-4548-856d-4923ddaba0dc","BBEDFD83A2B14F5190EA7EAB15FE7557-2025-05-15-19-33-39","","null","","[]","null","",""
"","","","","","image-button-response","72","326875","0.0-12.0-1.0-0.5","BBEDFD83A2B14F5190EA7EAB15FE7557","BBEDFD83A2B14F5190EA7EAB15FE7557","980ef3d2-82eb-4f12-8186-7f8ef12eef25","051c06f1-75cc-4548-856d-4923ddaba0dc","{""num_scrambled_semantic"":""8"",""num_scrambled_causal"":""4"",""num_scrambled_schematic"":""4"",""participantId"":""BBEDFD83A2B14F5190EA7EAB15FE7557"",""assignmentId"":""980ef3d2-82eb-4f12-8186-7f8ef12eef25"",""projectId"":""051c06f1-75cc-4548-856d-4923ddaba0dc""}","https://test12345.live/?num_scrambled_semantic=8&num_scrambled_causal=4&num_scrambled_schematic=4&participantId=BBEDFD83A2B14F5190EA7EAB15FE7557&assignmentId=980ef3d2-82eb-4f12-8186-7f8ef12eef25&projectId=051c06f1-75cc-4548-856d-4923ddaba0dc","BBEDFD83A2B14F5190EA7EAB15FE7557-2025-05-15-19-33-39","","null","","images/semantic_sequence/redecorating_semantic/redecorating_semantic_7.png","null","",""
"","","","","","image-button-response","73","328647","0.0-12.0-1.0-1.5","BBEDFD83A2B14F5190EA7EAB15FE7557","BBEDFD83A2B14F5190EA7EAB15FE7557","980ef3d2-82eb-4f12-8186-7f8ef12eef25","051c06f1-75cc-4548-856d-4923ddaba0dc","{""num_scrambled_semantic"":""8"",""num_scrambled_causal"":""4"",""num_scrambled_schematic"":""4"",""participantId"":""BBEDFD83A2B14F5190EA7EAB15FE7557"",""assignmentId"":""980ef3d2-82eb-4f12-8186-7f8ef12eef25"",""projectId"":""051c06f1-75cc-4548-856d-4923ddaba0dc""}","https://test12345.live/?num_scrambled_semantic=8&num_scrambled_causal=4&num_scrambled_schematic=4&participantId=BBEDFD83A2B14F5190EA7EAB15FE7557&assignmentId=980ef3d2-82eb-4f12-8186-7f8ef12eef25&projectId=051c06f1-75cc-4548-856d-4923ddaba0dc","BBEDFD83A2B14F5190EA7EAB15FE7557-2025-05-15-19-33-39","","1771","","images/semantic_sequence/redecorating_semantic/redecorating_semantic_7.png","0","",""
"","","","","","image-button-response","74","330448","0.0-12.0-1.0-2.5","BBEDFD83A2B14F5190EA7EAB15FE7557","BBEDFD83A2B14F5190EA7EAB15FE7557","980ef3d2-82eb-4f12-8186-7f8ef12eef25","051c06f1-75cc-4548-856d-4923ddaba0dc","{""num_scrambled_semantic"":""8"",""num_scrambled_causal"":""4"",""num_scrambled_schematic"":""4"",""participantId"":""BBEDFD83A2B14F5190EA7EAB15FE7557"",""assignmentId"":""980ef3d2-82eb-4f12-8186-7f8ef12eef25"",""projectId"":""051c06f1-75cc-4548-856d-4923ddaba0dc""}","https://test12345.live/?num_scrambled_semantic=8&num_scrambled_causal=4&num_scrambled_schematic=4&participantId=BBEDFD83A2B14F5190EA7EAB15FE7557&assignmentId=980ef3d2-82eb-4f12-8186-7f8ef12eef25&projectId=051c06f1-75cc-4548-856d-4923ddaba0dc","BBEDFD83A2B14F5190EA7EAB15FE7557-2025-05-15-19-33-39","","null","","[]","null","",""
"","","","","","image-button-response","75","334955","0.0-12.0-1.0-0.6","BBEDFD83A2B14F5190EA7EAB15FE7557","BBEDFD83A2B14F5190EA7EAB15FE7557","980ef3d2-82eb-4f12-8186-7f8ef12eef25","051c06f1-75cc-4548-856d-4923ddaba0dc","{""num_scrambled_semantic"":""8"",""num_scrambled_causal"":""4"",""num_scrambled_schematic"":""4"",""participantId"":""BBEDFD83A2B14F5190EA7EAB15FE7557"",""assignmentId"":""980ef3d2-82eb-4f12-8186-7f8ef12eef25"",""projectId"":""051c06f1-75cc-4548-856d-4923ddaba0dc""}","https://test12345.live/?num_scrambled_semantic=8&num_scrambled_causal=4&num_scrambled_schematic=4&participantId=BBEDFD83A2B14F5190EA7EAB15FE7557&assignmentId=980ef3d2-82eb-4f12-8186-7f8ef12eef25&projectId=051c06f1-75cc-4548-856d-4923ddaba0dc","BBEDFD83A2B14F5190EA7EAB15FE7557-2025-05-15-19-33-39","","null","","images/semantic_sequence/redecorating_semantic/redecorating_semantic_9.png","null","",""
"","","","","","image-button-response","76","336029","0.0-12.0-1.0-1.6","BBEDFD83A2B14F5190EA7EAB15FE7557","BBEDFD83A2B14F5190EA7EAB15FE7557","980ef3d2-82eb-4f12-8186-7f8ef12eef25","051c06f1-75cc-4548-856d-4923ddaba0dc","{""num_scrambled_semantic"":""8"",""num_scrambled_causal"":""4"",""num_scrambled_schematic"":""4"",""participantId"":""BBEDFD83A2B14F5190EA7EAB15FE7557"",""assignmentId"":""980ef3d2-82eb-4f12-8186-7f8ef12eef25"",""projectId"":""051c06f1-75cc-4548-856d-4923ddaba0dc""}","https://test12345.live/?num_scrambled_semantic=8&num_scrambled_causal=4&num_scrambled_schematic=4&participantId=BBEDFD83A2B14F5190EA7EAB15FE7557&assignmentId=980ef3d2-82eb-4f12-8186-7f8ef12eef25&projectId=051c06f1-75cc-4548-856d-4923ddaba0dc","BBEDFD83A2B14F5190EA7EAB15FE7557-2025-05-15-19-33-39","","1073","","images/semantic_sequence/redecorating_semantic/redecorating_semantic_9.png","0","",""
"","","","","","image-button-response","77","337835","0.0-12.0-1.0-2.6","BBEDFD83A2B14F5190EA7EAB15FE7557","BBEDFD83A2B14F5190EA7EAB15FE7557","980ef3d2-82eb-4f12-8186-7f8ef12eef25","051c06f1-75cc-4548-856d-4923ddaba0dc","{""num_scrambled_semantic"":""8"",""num_scrambled_causal"":""4"",""num_scrambled_schematic"":""4"",""participantId"":""BBEDFD83A2B14F5190EA7EAB15FE7557"",""assignmentId"":""980ef3d2-82eb-4f12-8186-7f8ef12eef25"",""projectId"":""051c06f1-75cc-4548-856d-4923ddaba0dc""}","https://test12345.live/?num_scrambled_semantic=8&num_scrambled_causal=4&num_scrambled_schematic=4&participantId=BBEDFD83A2B14F5190EA7EAB15FE7557&assignmentId=980ef3d2-82eb-4f12-8186-7f8ef12eef25&projectId=051c06f1-75cc-4548-856d-4923ddaba0dc","BBEDFD83A2B14F5190EA7EAB15FE7557-2025-05-15-19-33-39","","null","","[]","null","",""
"","","","","","image-button-response","78","342336","0.0-12.0-1.0-0.7","BBEDFD83A2B14F5190EA7EAB15FE7557","BBEDFD83A2B14F5190EA7EAB15FE7557","980ef3d2-82eb-4f12-8186-7f8ef12eef25","051c06f1-75cc-4548-856d-4923ddaba0dc","{""num_scrambled_semantic"":""8"",""num_scrambled_causal"":""4"",""num_scrambled_schematic"":""4"",""participantId"":""BBEDFD83A2B14F5190EA7EAB15FE7557"",""assignmentId"":""980ef3d2-82eb-4f12-8186-7f8ef12eef25"",""projectId"":""051c06f1-75cc-4548-856d-4923ddaba0dc""}","https://test12345.live/?num_scrambled_semantic=8&num_scrambled_causal=4&num_scrambled_schematic=4&participantId=BBEDFD83A2B14F5190EA7EAB15FE7557&assignmentId=980ef3d2-82eb-4f12-8186-7f8ef12eef25&projectId=051c06f1-75cc-4548-856d-4923ddaba0dc","BBEDFD83A2B14F5190EA7EAB15FE7557-2025-05-15-19-33-39","","null","","images/semantic_sequence/redecorating_semantic/redecorating_semantic_8.png","null","",""
"","","","","","image-button-response","79","344092","0.0-12.0-1.0-1.7","BBEDFD83A2B14F5190EA7EAB15FE7557","BBEDFD83A2B14F5190EA7EAB15FE7557","980ef3d2-82eb-4f12-8186-7f8ef12eef25","051c06f1-75cc-4548-856d-4923ddaba0dc","{""num_scrambled_semantic"":""8"",""num_scrambled_causal"":""4"",""num_scrambled_schematic"":""4"",""participantId"":""BBEDFD83A2B14F5190EA7EAB15FE7557"",""assignmentId"":""980ef3d2-82eb-4f12-8186-7f8ef12eef25"",""projectId"":""051c06f1-75cc-4548-856d-4923ddaba0dc""}","https://test12345.live/?num_scrambled_semantic=8&num_scrambled_causal=4&num_scrambled_schematic=4&participantId=BBEDFD83A2B14F5190EA7EAB15FE7557&assignmentId=980ef3d2-82eb-4f12-8186-7f8ef12eef25&projectId=051c06f1-75cc-4548-856d-4923ddaba0dc","BBEDFD83A2B14F5190EA7EAB15FE7557-2025-05-15-19-33-39","","1755","","images/semantic_sequence/redecorating_semantic/redecorating_semantic_8.png","0","",""
"","","","","","image-button-response","80","345895","0.0-12.0-1.0-2.7","BBEDFD83A2B14F5190EA7EAB15FE7557","BBEDFD83A2B14F5190EA7EAB15FE7557","980ef3d2-82eb-4f12-8186-7f8ef12eef25","051c06f1-75cc-4548-856d-4923ddaba0dc","{""num_scrambled_semantic"":""8"",""num_scrambled_causal"":""4"",""num_scrambled_schematic"":""4"",""participantId"":""BBEDFD83A2B14F5190EA7EAB15FE7557"",""assignmentId"":""980ef3d2-82eb-4f12-8186-7f8ef12eef25"",""projectId"":""051c06f1-75cc-4548-856d-4923ddaba0dc""}","https://test12345.live/?num_scrambled_semantic=8&num_scrambled_causal=4&num_scrambled_schematic=4&participantId=BBEDFD83A2B14F5190EA7EAB15FE7557&assignmentId=980ef3d2-82eb-4f12-8186-7f8ef12eef25&projectId=051c06f1-75cc-4548-856d-4923ddaba0dc","BBEDFD83A2B14F5190EA7EAB15FE7557-2025-05-15-19-33-39","","null","","[]","null","",""
"","","","","","image-button-response","81","350400","0.0-12.0-1.0-0.8","BBEDFD83A2B14F5190EA7EAB15FE7557","BBEDFD83A2B14F5190EA7EAB15FE7557","980ef3d2-82eb-4f12-8186-7f8ef12eef25","051c06f1-75cc-4548-856d-4923ddaba0dc","{""num_scrambled_semantic"":""8"",""num_scrambled_causal"":""4"",""num_scrambled_schematic"":""4"",""participantId"":""BBEDFD83A2B14F5190EA7EAB15FE7557"",""assignmentId"":""980ef3d2-82eb-4f12-8186-7f8ef12eef25"",""projectId"":""051c06f1-75cc-4548-856d-4923ddaba0dc""}","https://test12345.live/?num_scrambled_semantic=8&num_scrambled_causal=4&num_scrambled_schematic=4&participantId=BBEDFD83A2B14F5190EA7EAB15FE7557&assignmentId=980ef3d2-82eb-4f12-8186-7f8ef12eef25&projectId=051c06f1-75cc-4548-856d-4923ddaba0dc","BBEDFD83A2B14F5190EA7EAB15FE7557-2025-05-15-19-33-39","","null","","images/semantic_sequence/redecorating_semantic/redecorating_semantic_ten.png","null","",""
"","","","","","image-button-response","82","351908","0.0-12.0-1.0-1.8","BBEDFD83A2B14F5190EA7EAB15FE7557","BBEDFD83A2B14F5190EA7EAB15FE7557","980ef3d2-82eb-4f12-8186-7f8ef12eef25","051c06f1-75cc-4548-856d-4923ddaba0dc","{""num_scrambled_semantic"":""8"",""num_scrambled_causal"":""4"",""num_scrambled_schematic"":""4"",""participantId"":""BBEDFD83A2B14F5190EA7EAB15FE7557"",""assignmentId"":""980ef3d2-82eb-4f12-8186-7f8ef12eef25"",""projectId"":""051c06f1-75cc-4548-856d-4923ddaba0dc""}","https://test12345.live/?num_scrambled_semantic=8&num_scrambled_causal=4&num_scrambled_schematic=4&participantId=BBEDFD83A2B14F5190EA7EAB15FE7557&assignmentId=980ef3d2-82eb-4f12-8186-7f8ef12eef25&projectId=051c06f1-75cc-4548-856d-4923ddaba0dc","BBEDFD83A2B14F5190EA7EAB15FE7557-2025-05-15-19-33-39","","1507","","images/semantic_sequence/redecorating_semantic/redecorating_semantic_ten.png","0","",""
"","","","","","image-button-response","83","353715","0.0-12.0-1.0-2.8","BBEDFD83A2B14F5190EA7EAB15FE7557","BBEDFD83A2B14F5190EA7EAB15FE7557","980ef3d2-82eb-4f12-8186-7f8ef12eef25","051c06f1-75cc-4548-856d-4923ddaba0dc","{""num_scrambled_semantic"":""8"",""num_scrambled_causal"":""4"",""num_scrambled_schematic"":""4"",""participantId"":""BBEDFD83A2B14F5190EA7EAB15FE7557"",""assignmentId"":""980ef3d2-82eb-4f12-8186-7f8ef12eef25"",""projectId"":""051c06f1-75cc-4548-856d-4923ddaba0dc""}","https://test12345.live/?num_scrambled_semantic=8&num_scrambled_causal=4&num_scrambled_schematic=4&participantId=BBEDFD83A2B14F5190EA7EAB15FE7557&assignmentId=980ef3d2-82eb-4f12-8186-7f8ef12eef25&projectId=051c06f1-75cc-4548-856d-4923ddaba0dc","BBEDFD83A2B14F5190EA7EAB15FE7557-2025-05-15-19-33-39","","null","","[]","null","",""
"","","","","","image-button-response","84","358216","0.0-12.0-1.0-0.9","BBEDFD83A2B14F5190EA7EAB15FE7557","BBEDFD83A2B14F5190EA7EAB15FE7557","980ef3d2-82eb-4f12-8186-7f8ef12eef25","051c06f1-75cc-4548-856d-4923ddaba0dc","{""num_scrambled_semantic"":""8"",""num_scrambled_causal"":""4"",""num_scrambled_schematic"":""4"",""participantId"":""BBEDFD83A2B14F5190EA7EAB15FE7557"",""assignmentId"":""980ef3d2-82eb-4f12-8186-7f8ef12eef25"",""projectId"":""051c06f1-75cc-4548-856d-4923ddaba0dc""}","https://test12345.live/?num_scrambled_semantic=8&num_scrambled_causal=4&num_scrambled_schematic=4&participantId=BBEDFD83A2B14F5190EA7EAB15FE7557&assignmentId=980ef3d2-82eb-4f12-8186-7f8ef12eef25&projectId=051c06f1-75cc-4548-856d-4923ddaba0dc","BBEDFD83A2B14F5190EA7EAB15FE7557-2025-05-15-19-33-39","","null","","images/semantic_sequence/redecorating_semantic/redecorating_semantic_3.png","null","",""
"","","","","","image-button-response","85","362220","0.0-12.0-1.0-1.9","BBEDFD83A2B14F5190EA7EAB15FE7557","BBEDFD83A2B14F5190EA7EAB15FE7557","980ef3d2-82eb-4f12-8186-7f8ef12eef25","051c06f1-75cc-4548-856d-4923ddaba0dc","{""num_scrambled_semantic"":""8"",""num_scrambled_causal"":""4"",""num_scrambled_schematic"":""4"",""participantId"":""BBEDFD83A2B14F5190EA7EAB15FE7557"",""assignmentId"":""980ef3d2-82eb-4f12-8186-7f8ef12eef25"",""projectId"":""051c06f1-75cc-4548-856d-4923ddaba0dc""}","https://test12345.live/?num_scrambled_semantic=8&num_scrambled_causal=4&num_scrambled_schematic=4&participantId=BBEDFD83A2B14F5190EA7EAB15FE7557&assignmentId=980ef3d2-82eb-4f12-8186-7f8ef12eef25&projectId=051c06f1-75cc-4548-856d-4923ddaba0dc","BBEDFD83A2B14F5190EA7EAB15FE7557-2025-05-15-19-33-39","","null","","images/semantic_sequence/redecorating_semantic/redecorating_semantic_3.png","null","",""
"","","","","","image-button-response","86","364025","0.0-12.0-1.0-2.9","BBEDFD83A2B14F5190EA7EAB15FE7557","BBEDFD83A2B14F5190EA7EAB15FE7557","980ef3d2-82eb-4f12-8186-7f8ef12eef25","051c06f1-75cc-4548-856d-4923ddaba0dc","{""num_scrambled_semantic"":""8"",""num_scrambled_causal"":""4"",""num_scrambled_schematic"":""4"",""participantId"":""BBEDFD83A2B14F5190EA7EAB15FE7557"",""assignmentId"":""980ef3d2-82eb-4f12-8186-7f8ef12eef25"",""projectId"":""051c06f1-75cc-4548-856d-4923ddaba0dc""}","https://test12345.live/?num_scrambled_semantic=8&num_scrambled_causal=4&num_scrambled_schematic=4&participantId=BBEDFD83A2B14F5190EA7EAB15FE7557&assignmentId=980ef3d2-82eb-4f12-8186-7f8ef12eef25&projectId=051c06f1-75cc-4548-856d-4923ddaba0dc","BBEDFD83A2B14F5190EA7EAB15FE7557-2025-05-15-19-33-39","","null","","[]","null","",""
"","","","","","html-audio-response","87","474409","0.0-13.0","BBEDFD83A2B14F5190EA7EAB15FE7557","BBEDFD83A2B14F5190EA7EAB15FE7557","980ef3d2-82eb-4f12-8186-7f8ef12eef25","051c06f1-75cc-4548-856d-4923ddaba0dc","{""num_scrambled_semantic"":""8"",""num_scrambled_causal"":""4"",""num_scrambled_schematic"":""4"",""participantId"":""BBEDFD83A2B14F5190EA7EAB15FE7557"",""assignmentId"":""980ef3d2-82eb-4f12-8186-7f8ef12eef25"",""projectId"":""051c06f1-75cc-4548-856d-4923ddaba0dc""}","https://test12345.live/?num_scrambled_semantic=8&num_scrambled_causal=4&num_scrambled_schematic=4&participantId=BBEDFD83A2B14F5190EA7EAB15FE7557&assignmentId=980ef3d2-82eb-4f12-8186-7f8ef12eef25&projectId=051c06f1-75cc-4548-856d-4923ddaba0dc","BBEDFD83A2B14F5190EA7EAB15FE7557-2025-05-15-19-33-39","","18959","","[""<span style=\""color: red; font-size: 24px\""> NOW RECORDING</span><p>Please say out loud all the images you saw, as many as you can remember. The images can be said in any order.</p>""]","","2","redecorating_semantic"
"","","","","","image-button-response","88","480421","0.0-14.0-0.0","BBEDFD83A2B14F5190EA7EAB15FE7557","BBEDFD83A2B14F5190EA7EAB15FE7557","980ef3d2-82eb-4f12-8186-7f8ef12eef25","051c06f1-75cc-4548-856d-4923ddaba0dc","{""num_scrambled_semantic"":""8"",""num_scrambled_causal"":""4"",""num_scrambled_schematic"":""4"",""participantId"":""BBEDFD83A2B14F5190EA7EAB15FE7557"",""assignmentId"":""980ef3d2-82eb-4f12-8186-7f8ef12eef25"",""projectId"":""051c06f1-75cc-4548-856d-4923ddaba0dc""}","https://test12345.live/?num_scrambled_semantic=8&num_scrambled_causal=4&num_scrambled_schematic=4&participantId=BBEDFD83A2B14F5190EA7EAB15FE7557&assignmentId=980ef3d2-82eb-4f12-8186-7f8ef12eef25&projectId=051c06f1-75cc-4548-856d-4923ddaba0dc","BBEDFD83A2B14F5190EA7EAB15FE7557-2025-05-15-19-33-39","","null","","images/semantic_sequence/market_semantic/market_semantic_0.png","null","",""
"","","","","","image-button-response","89","484925","0.0-14.0-1.0-0.0","BBEDFD83A2B14F5190EA7EAB15FE7557","BBEDFD83A2B14F5190EA7EAB15FE7557","980ef3d2-82eb-4f12-8186-7f8ef12eef25","051c06f1-75cc-4548-856d-4923ddaba0dc","{""num_scrambled_semantic"":""8"",""num_scrambled_causal"":""4"",""num_scrambled_schematic"":""4"",""participantId"":""BBEDFD83A2B14F5190EA7EAB15FE7557"",""assignmentId"":""980ef3d2-82eb-4f12-8186-7f8ef12eef25"",""projectId"":""051c06f1-75cc-4548-856d-4923ddaba0dc""}","https://test12345.live/?num_scrambled_semantic=8&num_scrambled_causal=4&num_scrambled_schematic=4&participantId=BBEDFD83A2B14F5190EA7EAB15FE7557&assignmentId=980ef3d2-82eb-4f12-8186-7f8ef12eef25&projectId=051c06f1-75cc-4548-856d-4923ddaba0dc","BBEDFD83A2B14F5190EA7EAB15FE7557-2025-05-15-19-33-39","","null","","images/semantic_sequence/market_semantic/market_semantic_1.png","null","",""
"","","","","","image-button-response","90","487408","0.0-14.0-1.0-1.0","BBEDFD83A2B14F5190EA7EAB15FE7557","BBEDFD83A2B14F5190EA7EAB15FE7557","980ef3d2-82eb-4f12-8186-7f8ef12eef25","051c06f1-75cc-4548-856d-4923ddaba0dc","{""num_scrambled_semantic"":""8"",""num_scrambled_causal"":""4"",""num_scrambled_schematic"":""4"",""participantId"":""BBEDFD83A2B14F5190EA7EAB15FE7557"",""assignmentId"":""980ef3d2-82eb-4f12-8186-7f8ef12eef25"",""projectId"":""051c06f1-75cc-4548-856d-4923ddaba0dc""}","https://test12345.live/?num_scrambled_semantic=8&num_scrambled_causal=4&num_scrambled_schematic=4&participantId=BBEDFD83A2B14F5190EA7EAB15FE7557&assignmentId=980ef3d2-82eb-4f12-8186-7f8ef12eef25&projectId=051c06f1-75cc-4548-856d-4923ddaba0dc","BBEDFD83A2B14F5190EA7EAB15FE7557-2025-05-15-19-33-39","","2482","","images/semantic_sequence/market_semantic/market_semantic_1.png","1","",""
"","","","","","image-button-response","91","489215","0.0-14.0-1.0-2.0","BBEDFD83A2B14F5190EA7EAB15FE7557","BBEDFD83A2B14F5190EA7EAB15FE7557","980ef3d2-82eb-4f12-8186-7f8ef12eef25","051c06f1-75cc-4548-856d-4923ddaba0dc","{""num_scrambled_semantic"":""8"",""num_scrambled_causal"":""4"",""num_scrambled_schematic"":""4"",""participantId"":""BBEDFD83A2B14F5190EA7EAB15FE7557"",""assignmentId"":""980ef3d2-82eb-4f12-8186-7f8ef12eef25"",""projectId"":""051c06f1-75cc-4548-856d-4923ddaba0dc""}","https://test12345.live/?num_scrambled_semantic=8&num_scrambled_causal=4&num_scrambled_schematic=4&participantId=BBEDFD83A2B14F5190EA7EAB15FE7557&assignmentId=980ef3d2-82eb-4f12-8186-7f8ef12eef25&projectId=051c06f1-75cc-4548-856d-4923ddaba0dc","BBEDFD83A2B14F5190EA7EAB15FE7557-2025-05-15-19-33-39","","null","","[]","null","",""
"","","","","","image-button-response","92","493721","0.0-14.0-1.0-0.1","BBEDFD83A2B14F5190EA7EAB15FE7557","BBEDFD83A2B14F5190EA7EAB15FE7557","980ef3d2-82eb-4f12-8186-7f8ef12eef25","051c06f1-75cc-4548-856d-4923ddaba0dc","{""num_scrambled_semantic"":""8"",""num_scrambled_causal"":""4"",""num_scrambled_schematic"":""4"",""participantId"":""BBEDFD83A2B14F5190EA7EAB15FE7557"",""assignmentId"":""980ef3d2-82eb-4f12-8186-7f8ef12eef25"",""projectId"":""051c06f1-75cc-4548-856d-4923ddaba0dc""}","https://test12345.live/?num_scrambled_semantic=8&num_scrambled_causal=4&num_scrambled_schematic=4&participantId=BBEDFD83A2B14F5190EA7EAB15FE7557&assignmentId=980ef3d2-82eb-4f12-8186-7f8ef12eef25&projectId=051c06f1-75cc-4548-856d-4923ddaba0dc","BBEDFD83A2B14F5190EA7EAB15FE7557-2025-05-15-19-33-39","","null","","images/semantic_sequence/market_semantic/market_semantic_7.png","null","",""
"","","","","","image-button-response","93","496920","0.0-14.0-1.0-1.1","BBEDFD83A2B14F5190EA7EAB15FE7557","BBEDFD83A2B14F5190EA7EAB15FE7557","980ef3d2-82eb-4f12-8186-7f8ef12eef25","051c06f1-75cc-4548-856d-4923ddaba0dc","{""num_scrambled_semantic"":""8"",""num_scrambled_causal"":""4"",""num_scrambled_schematic"":""4"",""participantId"":""BBEDFD83A2B14F5190EA7EAB15FE7557"",""assignmentId"":""980ef3d2-82eb-4f12-8186-7f8ef12eef25"",""projectId"":""051c06f1-75cc-4548-856d-4923ddaba0dc""}","https://test12345.live/?num_scrambled_semantic=8&num_scrambled_causal=4&num_scrambled_schematic=4&participantId=BBEDFD83A2B14F5190EA7EAB15FE7557&assignmentId=980ef3d2-82eb-4f12-8186-7f8ef12eef25&projectId=051c06f1-75cc-4548-856d-4923ddaba0dc","BBEDFD83A2B14F5190EA7EAB15FE7557-2025-05-15-19-33-39","","3197","","images/semantic_sequence/market_semantic/market_semantic_7.png","0","",""
"","","","","","image-button-response","94","498725","0.0-14.0-1.0-2.1","BBEDFD83A2B14F5190EA7EAB15FE7557","BBEDFD83A2B14F5190EA7EAB15FE7557","980ef3d2-82eb-4f12-8186-7f8ef12eef25","051c06f1-75cc-4548-856d-4923ddaba0dc","{""num_scrambled_semantic"":""8"",""num_scrambled_causal"":""4"",""num_scrambled_schematic"":""4"",""participantId"":""BBEDFD83A2B14F5190EA7EAB15FE7557"",""assignmentId"":""980ef3d2-82eb-4f12-8186-7f8ef12eef25"",""projectId"":""051c06f1-75cc-4548-856d-4923ddaba0dc""}","https://test12345.live/?num_scrambled_semantic=8&num_scrambled_causal=4&num_scrambled_schematic=4&participantId=BBEDFD83A2B14F5190EA7EAB15FE7557&assignmentId=980ef3d2-82eb-4f12-8186-7f8ef12eef25&projectId=051c06f1-75cc-4548-856d-4923ddaba0dc","BBEDFD83A2B14F5190EA7EAB15FE7557-2025-05-15-19-33-39","","null","","[]","null","",""
"","","","","","image-button-response","95","503231","0.0-14.0-1.0-0.2","BBEDFD83A2B14F5190EA7EAB15FE7557","BBEDFD83A2B14F5190EA7EAB15FE7557","980ef3d2-82eb-4f12-8186-7f8ef12eef25","051c06f1-75cc-4548-856d-4923ddaba0dc","{""num_scrambled_semantic"":""8"",""num_scrambled_causal"":""4"",""num_scrambled_schematic"":""4"",""participantId"":""BBEDFD83A2B14F5190EA7EAB15FE7557"",""assignmentId"":""980ef3d2-82eb-4f12-8186-7f8ef12eef25"",""projectId"":""051c06f1-75cc-4548-856d-4923ddaba0dc""}","https://test12345.live/?num_scrambled_semantic=8&num_scrambled_causal=4&num_scrambled_schematic=4&participantId=BBEDFD83A2B14F5190EA7EAB15FE7557&assignmentId=980ef3d2-82eb-4f12-8186-7f8ef12eef25&projectId=051c06f1-75cc-4548-856d-4923ddaba0dc","BBEDFD83A2B14F5190EA7EAB15FE7557-2025-05-15-19-33-39","","null","","images/semantic_sequence/market_semantic/market_semantic_2.png","null","",""
"","","","","","image-button-response","96","504368","0.0-14.0-1.0-1.2","BBEDFD83A2B14F5190EA7EAB15FE7557","BBEDFD83A2B14F5190EA7EAB15FE7557","980ef3d2-82eb-4f12-8186-7f8ef12eef25","051c06f1-75cc-4548-856d-4923ddaba0dc","{""num_scrambled_semantic"":""8"",""num_scrambled_causal"":""4"",""num_scrambled_schematic"":""4"",""participantId"":""BBEDFD83A2B14F5190EA7EAB15FE7557"",""assignmentId"":""980ef3d2-82eb-4f12-8186-7f8ef12eef25"",""projectId"":""051c06f1-75cc-4548-856d-4923ddaba0dc""}","https://test12345.live/?num_scrambled_semantic=8&num_scrambled_causal=4&num_scrambled_schematic=4&participantId=BBEDFD83A2B14F5190EA7EAB15FE7557&assignmentId=980ef3d2-82eb-4f12-8186-7f8ef12eef25&projectId=051c06f1-75cc-4548-856d-4923ddaba0dc","BBEDFD83A2B14F5190EA7EAB15FE7557-2025-05-15-19-33-39","","1136","","images/semantic_sequence/market_semantic/market_semantic_2.png","1","",""
"","","","","","image-button-response","97","506175","0.0-14.0-1.0-2.2","BBEDFD83A2B14F5190EA7EAB15FE7557","BBEDFD83A2B14F5190EA7EAB15FE7557","980ef3d2-82eb-4f12-8186-7f8ef12eef25","051c06f1-75cc-4548-856d-4923ddaba0dc","{""num_scrambled_semantic"":""8"",""num_scrambled_causal"":""4"",""num_scrambled_schematic"":""4"",""participantId"":""BBEDFD83A2B14F5190EA7EAB15FE7557"",""assignmentId"":""980ef3d2-82eb-4f12-8186-7f8ef12eef25"",""projectId"":""051c06f1-75cc-4548-856d-4923ddaba0dc""}","https://test12345.live/?num_scrambled_semantic=8&num_scrambled_causal=4&num_scrambled_schematic=4&participantId=BBEDFD83A2B14F5190EA7EAB15FE7557&assignmentId=980ef3d2-82eb-4f12-8186-7f8ef12eef25&projectId=051c06f1-75cc-4548-856d-4923ddaba0dc","BBEDFD83A2B14F5190EA7EAB15FE7557-2025-05-15-19-33-39","","null","","[]","null","",""
"","","","","","image-button-response","98","510681","0.0-14.0-1.0-0.3","BBEDFD83A2B14F5190EA7EAB15FE7557","BBEDFD83A2B14F5190EA7EAB15FE7557","980ef3d2-82eb-4f12-8186-7f8ef12eef25","051c06f1-75cc-4548-856d-4923ddaba0dc","{""num_scrambled_semantic"":""8"",""num_scrambled_causal"":""4"",""num_scrambled_schematic"":""4"",""participantId"":""BBEDFD83A2B14F5190EA7EAB15FE7557"",""assignmentId"":""980ef3d2-82eb-4f12-8186-7f8ef12eef25"",""projectId"":""051c06f1-75cc-4548-856d-4923ddaba0dc""}","https://test12345.live/?num_scrambled_semantic=8&num_scrambled_causal=4&num_scrambled_schematic=4&participantId=BBEDFD83A2B14F5190EA7EAB15FE7557&assignmentId=980ef3d2-82eb-4f12-8186-7f8ef12eef25&projectId=051c06f1-75cc-4548-856d-4923ddaba0dc","BBEDFD83A2B14F5190EA7EAB15FE7557-2025-05-15-19-33-39","","null","","images/semantic_sequence/market_semantic/market_semantic_8.png","null","",""
"","","","","","image-button-response","99","512695","0.0-14.0-1.0-1.3","BBEDFD83A2B14F5190EA7EAB15FE7557","BBEDFD83A2B14F5190EA7EAB15FE7557","980ef3d2-82eb-4f12-8186-7f8ef12eef25","051c06f1-75cc-4548-856d-4923ddaba0dc","{""num_scrambled_semantic"":""8"",""num_scrambled_causal"":""4"",""num_scrambled_schematic"":""4"",""participantId"":""BBEDFD83A2B14F5190EA7EAB15FE7557"",""assignmentId"":""980ef3d2-82eb-4f12-8186-7f8ef12eef25"",""projectId"":""051c06f1-75cc-4548-856d-4923ddaba0dc""}","https://test12345.live/?num_scrambled_semantic=8&num_scrambled_causal=4&num_scrambled_schematic=4&participantId=BBEDFD83A2B14F5190EA7EAB15FE7557&assignmentId=980ef3d2-82eb-4f12-8186-7f8ef12eef25&projectId=051c06f1-75cc-4548-856d-4923ddaba0dc","BBEDFD83A2B14F5190EA7EAB15FE7557-2025-05-15-19-33-39","","2013","","images/semantic_sequence/market_semantic/market_semantic_8.png","1","",""
"","","","","","image-button-response","100","514501","0.0-14.0-1.0-2.3","BBEDFD83A2B14F5190EA7EAB15FE7557","BBEDFD83A2B14F5190EA7EAB15FE7557","980ef3d2-82eb-4f12-8186-7f8ef12eef25","051c06f1-75cc-4548-856d-4923ddaba0dc","{""num_scrambled_semantic"":""8"",""num_scrambled_causal"":""4"",""num_scrambled_schematic"":""4"",""participantId"":""BBEDFD83A2B14F5190EA7EAB15FE7557"",""assignmentId"":""980ef3d2-82eb-4f12-8186-7f8ef12eef25"",""projectId"":""051c06f1-75cc-4548-856d-4923ddaba0dc""}","https://test12345.live/?num_scrambled_semantic=8&num_scrambled_causal=4&num_scrambled_schematic=4&participantId=BBEDFD83A2B14F5190EA7EAB15FE7557&assignmentId=980ef3d2-82eb-4f12-8186-7f8ef12eef25&projectId=051c06f1-75cc-4548-856d-4923ddaba0dc","BBEDFD83A2B14F5190EA7EAB15FE7557-2025-05-15-19-33-39","","null","","[]","null","",""
"","","","","","image-button-response","101","519005","0.0-14.0-1.0-0.4","BBEDFD83A2B14F5190EA7EAB15FE7557","BBEDFD83A2B14F5190EA7EAB15FE7557","980ef3d2-82eb-4f12-8186-7f8ef12eef25","051c06f1-75cc-4548-856d-4923ddaba0dc","{""num_scrambled_semantic"":""8"",""num_scrambled_causal"":""4"",""num_scrambled_schematic"":""4"",""participantId"":""BBEDFD83A2B14F5190EA7EAB15FE7557"",""assignmentId"":""980ef3d2-82eb-4f12-8186-7f8ef12eef25"",""projectId"":""051c06f1-75cc-4548-856d-4923ddaba0dc""}","https://test12345.live/?num_scrambled_semantic=8&num_scrambled_causal=4&num_scrambled_schematic=4&participantId=BBEDFD83A2B14F5190EA7EAB15FE7557&assignmentId=980ef3d2-82eb-4f12-8186-7f8ef12eef25&projectId=051c06f1-75cc-4548-856d-4923ddaba0dc","BBEDFD83A2B14F5190EA7EAB15FE7557-2025-05-15-19-33-39","","null","","images/semantic_sequence/market_semantic/market_semantic_4.png","null","",""
"","","","","","image-button-response","102","522169","0.0-14.0-1.0-1.4","BBEDFD83A2B14F5190EA7EAB15FE7557","BBEDFD83A2B14F5190EA7EAB15FE7557","980ef3d2-82eb-4f12-8186-7f8ef12eef25","051c06f1-75cc-4548-856d-4923ddaba0dc","{""num_scrambled_semantic"":""8"",""num_scrambled_causal"":""4"",""num_scrambled_schematic"":""4"",""participantId"":""BBEDFD83A2B14F5190EA7EAB15FE7557"",""assignmentId"":""980ef3d2-82eb-4f12-8186-7f8ef12eef25"",""projectId"":""051c06f1-75cc-4548-856d-4923ddaba0dc""}","https://test12345.live/?num_scrambled_semantic=8&num_scrambled_causal=4&num_scrambled_schematic=4&participantId=BBEDFD83A2B14F5190EA7EAB15FE7557&assignmentId=980ef3d2-82eb-4f12-8186-7f8ef12eef25&projectId=051c06f1-75cc-4548-856d-4923ddaba0dc","BBEDFD83A2B14F5190EA7EAB15FE7557-2025-05-15-19-33-39","","3163","","images/semantic_sequence/market_semantic/market_semantic_4.png","0","",""
"","","","","","image-button-response","103","523975","0.0-14.0-1.0-2.4","BBEDFD83A2B14F5190EA7EAB15FE7557","BBEDFD83A2B14F5190EA7EAB15FE7557","980ef3d2-82eb-4f12-8186-7f8ef12eef25","051c06f1-75cc-4548-856d-4923ddaba0dc","{""num_scrambled_semantic"":""8"",""num_scrambled_causal"":""4"",""num_scrambled_schematic"":""4"",""participantId"":""BBEDFD83A2B14F5190EA7EAB15FE7557"",""assignmentId"":""980ef3d2-82eb-4f12-8186-7f8ef12eef25"",""projectId"":""051c06f1-75cc-4548-856d-4923ddaba0dc""}","https://test12345.live/?num_scrambled_semantic=8&num_scrambled_causal=4&num_scrambled_schematic=4&participantId=BBEDFD83A2B14F5190EA7EAB15FE7557&assignmentId=980ef3d2-82eb-4f12-8186-7f8ef12eef25&projectId=051c06f1-75cc-4548-856d-4923ddaba0dc","BBEDFD83A2B14F5190EA7EAB15FE7557-2025-05-15-19-33-39","","null","","[]","null","",""
"","","","","","image-button-response","104","528481","0.0-14.0-1.0-0.5","BBEDFD83A2B14F5190EA7EAB15FE7557","BBEDFD83A2B14F5190EA7EAB15FE7557","980ef3d2-82eb-4f12-8186-7f8ef12eef25","051c06f1-75cc-4548-856d-4923ddaba0dc","{""num_scrambled_semantic"":""8"",""num_scrambled_causal"":""4"",""num_scrambled_schematic"":""4"",""participantId"":""BBEDFD83A2B14F5190EA7EAB15FE7557"",""assignmentId"":""980ef3d2-82eb-4f12-8186-7f8ef12eef25"",""projectId"":""051c06f1-75cc-4548-856d-4923ddaba0dc""}","https://test12345.live/?num_scrambled_semantic=8&num_scrambled_causal=4&num_scrambled_schematic=4&participantId=BBEDFD83A2B14F5190EA7EAB15FE7557&assignmentId=980ef3d2-82eb-4f12-8186-7f8ef12eef25&projectId=051c06f1-75cc-4548-856d-4923ddaba0dc","BBEDFD83A2B14F5190EA7EAB15FE7557-2025-05-15-19-33-39","","null","","images/semantic_sequence/market_semantic/market_semantic_6.png","null","",""
"","","","","","image-button-response","105","532293","0.0-14.0-1.0-1.5","BBEDFD83A2B14F5190EA7EAB15FE7557","BBEDFD83A2B14F5190EA7EAB15FE7557","980ef3d2-82eb-4f12-8186-7f8ef12eef25","051c06f1-75cc-4548-856d-4923ddaba0dc","{""num_scrambled_semantic"":""8"",""num_scrambled_causal"":""4"",""num_scrambled_schematic"":""4"",""participantId"":""BBEDFD83A2B14F5190EA7EAB15FE7557"",""assignmentId"":""980ef3d2-82eb-4f12-8186-7f8ef12eef25"",""projectId"":""051c06f1-75cc-4548-856d-4923ddaba0dc""}","https://test12345.live/?num_scrambled_semantic=8&num_scrambled_causal=4&num_scrambled_schematic=4&participantId=BBEDFD83A2B14F5190EA7EAB15FE7557&assignmentId=980ef3d2-82eb-4f12-8186-7f8ef12eef25&projectId=051c06f1-75cc-4548-856d-4923ddaba0dc","BBEDFD83A2B14F5190EA7EAB15FE7557-2025-05-15-19-33-39","","3811","","images/semantic_sequence/market_semantic/market_semantic_6.png","0","",""
"","","","","","image-button-response","106","534095","0.0-14.0-1.0-2.5","BBEDFD83A2B14F5190EA7EAB15FE7557","BBEDFD83A2B14F5190EA7EAB15FE7557","980ef3d2-82eb-4f12-8186-7f8ef12eef25","051c06f1-75cc-4548-856d-4923ddaba0dc","{""num_scrambled_semantic"":""8"",""num_scrambled_causal"":""4"",""num_scrambled_schematic"":""4"",""participantId"":""BBEDFD83A2B14F5190EA7EAB15FE7557"",""assignmentId"":""980ef3d2-82eb-4f12-8186-7f8ef12eef25"",""projectId"":""051c06f1-75cc-4548-856d-4923ddaba0dc""}","https://test12345.live/?num_scrambled_semantic=8&num_scrambled_causal=4&num_scrambled_schematic=4&participantId=BBEDFD83A2B14F5190EA7EAB15FE7557&assignmentId=980ef3d2-82eb-4f12-8186-7f8ef12eef25&projectId=051c06f1-75cc-4548-856d-4923ddaba0dc","BBEDFD83A2B14F5190EA7EAB15FE7557-2025-05-15-19-33-39","","null","","[]","null","",""
"","","","","","image-button-response","107","538601","0.0-14.0-1.0-0.6","BBEDFD83A2B14F5190EA7EAB15FE7557","BBEDFD83A2B14F5190EA7EAB15FE7557","980ef3d2-82eb-4f12-8186-7f8ef12eef25","051c06f1-75cc-4548-856d-4923ddaba0dc","{""num_scrambled_semantic"":""8"",""num_scrambled_causal"":""4"",""num_scrambled_schematic"":""4"",""participantId"":""BBEDFD83A2B14F5190EA7EAB15FE7557"",""assignmentId"":""980ef3d2-82eb-4f12-8186-7f8ef12eef25"",""projectId"":""051c06f1-75cc-4548-856d-4923ddaba0dc""}","https://test12345.live/?num_scrambled_semantic=8&num_scrambled_causal=4&num_scrambled_schematic=4&participantId=BBEDFD83A2B14F5190EA7EAB15FE7557&assignmentId=980ef3d2-82eb-4f12-8186-7f8ef12eef25&projectId=051c06f1-75cc-4548-856d-4923ddaba0dc","BBEDFD83A2B14F5190EA7EAB15FE7557-2025-05-15-19-33-39","","null","","images/semantic_sequence/market_semantic/market_semantic_5.png","null","",""
"","","","","","image-button-response","108","539280","0.0-14.0-1.0-1.6","BBEDFD83A2B14F5190EA7EAB15FE7557","BBEDFD83A2B14F5190EA7EAB15FE7557","980ef3d2-82eb-4f12-8186-7f8ef12eef25","051c06f1-75cc-4548-856d-4923ddaba0dc","{""num_scrambled_semantic"":""8"",""num_scrambled_causal"":""4"",""num_scrambled_schematic"":""4"",""participantId"":""BBEDFD83A2B14F5190EA7EAB15FE7557"",""assignmentId"":""980ef3d2-82eb-4f12-8186-7f8ef12eef25"",""projectId"":""051c06f1-75cc-4548-856d-4923ddaba0dc""}","https://test12345.live/?num_scrambled_semantic=8&num_scrambled_causal=4&num_scrambled_schematic=4&participantId=BBEDFD83A2B14F5190EA7EAB15FE7557&assignmentId=980ef3d2-82eb-4f12-8186-7f8ef12eef25&projectId=051c06f1-75cc-4548-856d-4923ddaba0dc","BBEDFD83A2B14F5190EA7EAB15FE7557-2025-05-15-19-33-39","","678","","images/semantic_sequence/market_semantic/market_semantic_5.png","1","",""
"","","","","","image-button-response","109","541085","0.0-14.0-1.0-2.6","BBEDFD83A2B14F5190EA7EAB15FE7557","BBEDFD83A2B14F5190EA7EAB15FE7557","980ef3d2-82eb-4f12-8186-7f8ef12eef25","051c06f1-75cc-4548-856d-4923ddaba0dc","{""num_scrambled_semantic"":""8"",""num_scrambled_causal"":""4"",""num_scrambled_schematic"":""4"",""participantId"":""BBEDFD83A2B14F5190EA7EAB15FE7557"",""assignmentId"":""980ef3d2-82eb-4f12-8186-7f8ef12eef25"",""projectId"":""051c06f1-75cc-4548-856d-4923ddaba0dc""}","https://test12345.live/?num_scrambled_semantic=8&num_scrambled_causal=4&num_scrambled_schematic=4&participantId=BBEDFD83A2B14F5190EA7EAB15FE7557&assignmentId=980ef3d2-82eb-4f12-8186-7f8ef12eef25&projectId=051c06f1-75cc-4548-856d-4923ddaba0dc","BBEDFD83A2B14F5190EA7EAB15FE7557-2025-05-15-19-33-39","","null","","[]","null","",""
"","","","","","image-button-response","110","545589","0.0-14.0-1.0-0.7","BBEDFD83A2B14F5190EA7EAB15FE7557","BBEDFD83A2B14F5190EA7EAB15FE7557","980ef3d2-82eb-4f12-8186-7f8ef12eef25","051c06f1-75cc-4548-856d-4923ddaba0dc","{""num_scrambled_semantic"":""8"",""num_scrambled_causal"":""4"",""num_scrambled_schematic"":""4"",""participantId"":""BBEDFD83A2B14F5190EA7EAB15FE7557"",""assignmentId"":""980ef3d2-82eb-4f12-8186-7f8ef12eef25"",""projectId"":""051c06f1-75cc-4548-856d-4923ddaba0dc""}","https://test12345.live/?num_scrambled_semantic=8&num_scrambled_causal=4&num_scrambled_schematic=4&participantId=BBEDFD83A2B14F5190EA7EAB15FE7557&assignmentId=980ef3d2-82eb-4f12-8186-7f8ef12eef25&projectId=051c06f1-75cc-4548-856d-4923ddaba0dc","BBEDFD83A2B14F5190EA7EAB15FE7557-2025-05-15-19-33-39","","null","","images/semantic_sequence/market_semantic/market_semantic_ten.png","null","",""
"","","","","","image-button-response","111","549595","0.0-14.0-1.0-1.7","BBEDFD83A2B14F5190EA7EAB15FE7557","BBEDFD83A2B14F5190EA7EAB15FE7557","980ef3d2-82eb-4f12-8186-7f8ef12eef25","051c06f1-75cc-4548-856d-4923ddaba0dc","{""num_scrambled_semantic"":""8"",""num_scrambled_causal"":""4"",""num_scrambled_schematic"":""4"",""participantId"":""BBEDFD83A2B14F5190EA7EAB15FE7557"",""assignmentId"":""980ef3d2-82eb-4f12-8186-7f8ef12eef25"",""projectId"":""051c06f1-75cc-4548-856d-4923ddaba0dc""}","https://test12345.live/?num_scrambled_semantic=8&num_scrambled_causal=4&num_scrambled_schematic=4&participantId=BBEDFD83A2B14F5190EA7EAB15FE7557&assignmentId=980ef3d2-82eb-4f12-8186-7f8ef12eef25&projectId=051c06f1-75cc-4548-856d-4923ddaba0dc","BBEDFD83A2B14F5190EA7EAB15FE7557-2025-05-15-19-33-39","","null","","images/semantic_sequence/market_semantic/market_semantic_ten.png","null","",""
"","","","","","image-button-response","112","551396","0.0-14.0-1.0-2.7","BBEDFD83A2B14F5190EA7EAB15FE7557","BBEDFD83A2B14F5190EA7EAB15FE7557","980ef3d2-82eb-4f12-8186-7f8ef12eef25","051c06f1-75cc-4548-856d-4923ddaba0dc","{""num_scrambled_semantic"":""8"",""num_scrambled_causal"":""4"",""num_scrambled_schematic"":""4"",""participantId"":""BBEDFD83A2B14F5190EA7EAB15FE7557"",""assignmentId"":""980ef3d2-82eb-4f12-8186-7f8ef12eef25"",""projectId"":""051c06f1-75cc-4548-856d-4923ddaba0dc""}","https://test12345.live/?num_scrambled_semantic=8&num_scrambled_causal=4&num_scrambled_schematic=4&participantId=BBEDFD83A2B14F5190EA7EAB15FE7557&assignmentId=980ef3d2-82eb-4f12-8186-7f8ef12eef25&projectId=051c06f1-75cc-4548-856d-4923ddaba0dc","BBEDFD83A2B14F5190EA7EAB15FE7557-2025-05-15-19-33-39","","null","","[]","null","",""
"","","","","","image-button-response","113","555898","0.0-14.0-1.0-0.8","BBEDFD83A2B14F5190EA7EAB15FE7557","BBEDFD83A2B14F5190EA7EAB15FE7557","980ef3d2-82eb-4f12-8186-7f8ef12eef25","051c06f1-75cc-4548-856d-4923ddaba0dc","{""num_scrambled_semantic"":""8"",""num_scrambled_causal"":""4"",""num_scrambled_schematic"":""4"",""participantId"":""BBEDFD83A2B14F5190EA7EAB15FE7557"",""assignmentId"":""980ef3d2-82eb-4f12-8186-7f8ef12eef25"",""projectId"":""051c06f1-75cc-4548-856d-4923ddaba0dc""}","https://test12345.live/?num_scrambled_semantic=8&num_scrambled_causal=4&num_scrambled_schematic=4&participantId=BBEDFD83A2B14F5190EA7EAB15FE7557&assignmentId=980ef3d2-82eb-4f12-8186-7f8ef12eef25&projectId=051c06f1-75cc-4548-856d-4923ddaba0dc","BBEDFD83A2B14F5190EA7EAB15FE7557-2025-05-15-19-33-39","","null","","images/semantic_sequence/market_semantic/market_semantic_3.png","null","",""
"","","","","","image-button-response","114","556632","0.0-14.0-1.0-1.8","BBEDFD83A2B14F5190EA7EAB15FE7557","BBEDFD83A2B14F5190EA7EAB15FE7557","980ef3d2-82eb-4f12-8186-7f8ef12eef25","051c06f1-75cc-4548-856d-4923ddaba0dc","{""num_scrambled_semantic"":""8"",""num_scrambled_causal"":""4"",""num_scrambled_schematic"":""4"",""participantId"":""BBEDFD83A2B14F5190EA7EAB15FE7557"",""assignmentId"":""980ef3d2-82eb-4f12-8186-7f8ef12eef25"",""projectId"":""051c06f1-75cc-4548-856d-4923ddaba0dc""}","https://test12345.live/?num_scrambled_semantic=8&num_scrambled_causal=4&num_scrambled_schematic=4&participantId=BBEDFD83A2B14F5190EA7EAB15FE7557&assignmentId=980ef3d2-82eb-4f12-8186-7f8ef12eef25&projectId=051c06f1-75cc-4548-856d-4923ddaba0dc","BBEDFD83A2B14F5190EA7EAB15FE7557-2025-05-15-19-33-39","","733","","images/semantic_sequence/market_semantic/market_semantic_3.png","1","",""
