"success","timeout","failed_images","failed_audio","failed_video","trial_type","trial_index","time_elapsed","internal_node_id","subject","subject_id","study_id","session_id","urlvar","current_url","audio_id","view_history","rt","device_id","stimulus","response","estimated_stimulus_onset","seq_name"
"true","false","[]","[]","[]","preload","0","4145","0.0-0.0","BBF5A87C7549473CBA51955F9AAB0BB1","BBF5A87C7549473CBA51955F9AAB0BB1","1b7dec7d-e218-4b8f-b98a-945530e7c314","a9f3d40c-5730-405c-b25e-1034c4c56f3f","{""num_scrambled_semantic"":""8"",""num_scrambled_causal"":""4"",""num_scrambled_schematic"":""4"",""participantId"":""BBF5A87C7549473CBA51955F9AAB0BB1"",""assignmentId"":""1b7dec7d-e218-4b8f-b98a-945530e7c314"",""projectId"":""a9f3d40c-5730-405c-b25e-1034c4c56f3f""}","https://test12345.live/?num_scrambled_semantic=8&num_scrambled_causal=4&num_scrambled_schematic=4&participantId=BBF5A87C7549473CBA51955F9AAB0BB1&assignmentId=1b7dec7d-e218-4b8f-b98a-945530e7c314&projectId=a9f3d40c-5730-405c-b25e-1034c4c56f3f","BBF5A87C7549473CBA51955F9AAB0BB1-2025-08-07-20-48-33","","","","","","",""
"","","","","","instructions","1","26492","0.0-1.0","BBF5A87C7549473CBA51955F9AAB0BB1","BBF5A87C7549473CBA51955F9AAB0BB1","1b7dec7d-e218-4b8f-b98a-945530e7c314","a9f3d40c-5730-405c-b25e-1034c4c56f3f","{""num_scrambled_semantic"":""8"",""num_scrambled_causal"":""4"",""num_scrambled_schematic"":""4"",""participantId"":""BBF5A87C7549473CBA51955F9AAB0BB1"",""assignmentId"":""1b7dec7d-e218-4b8f-b98a-945530e7c314"",""projectId"":""a9f3d40c-5730-405c-b25e-1034c4c56f3f""}","https://test12345.live/?num_scrambled_semantic=8&num_scrambled_causal=4&num_scrambled_schematic=4&participantId=BBF5A87C7549473CBA51955F9AAB0BB1&assignmentId=1b7dec7d-e218-4b8f-b98a-945530e7c314&projectId=a9f3d40c-5730-405c-b25e-1034c4c56f3f","BBF5A87C7549473CBA51955F9AAB0BB1-2025-08-07-20-48-33","[{""page_index"":0,""viewing_time"":22345}]","22345","","","","",""
"","","","","","instructions","2","59102","0.0-2.0","BBF5A87C7549473CBA51955F9AAB0BB1","BBF5A87C7549473CBA51955F9AAB0BB1","1b7dec7d-e218-4b8f-b98a-945530e7c314","a9f3d40c-5730-405c-b25e-1034c4c56f3f","{""num_scrambled_semantic"":""8"",""num_scrambled_causal"":""4"",""num_scrambled_schematic"":""4"",""participantId"":""BBF5A87C7549473CBA51955F9AAB0BB1"",""assignmentId"":""1b7dec7d-e218-4b8f-b98a-945530e7c314"",""projectId"":""a9f3d40c-5730-405c-b25e-1034c4c56f3f""}","https://test12345.live/?num_scrambled_semantic=8&num_scrambled_causal=4&num_scrambled_schematic=4&participantId=BBF5A87C7549473CBA51955F9AAB0BB1&assignmentId=1b7dec7d-e218-4b8f-b98a-945530e7c314&projectId=a9f3d40c-5730-405c-b25e-1034c4c56f3f","BBF5A87C7549473CBA51955F9AAB0BB1-2025-08-07-20-48-33","[{""page_index"":0,""viewing_time"":32608}]","32608","","","","",""
"true","","","","","fullscreen","3","61678","0.0-3.0","BBF5A87C7549473CBA51955F9AAB0BB1","BBF5A87C7549473CBA51955F9AAB0BB1","1b7dec7d-e218-4b8f-b98a-945530e7c314","a9f3d40c-5730-405c-b25e-1034c4c56f3f","{""num_scrambled_semantic"":""8"",""num_scrambled_causal"":""4"",""num_scrambled_schematic"":""4"",""participantId"":""BBF5A87C7549473CBA51955F9AAB0BB1"",""assignmentId"":""1b7dec7d-e218-4b8f-b98a-945530e7c314"",""projectId"":""a9f3d40c-5730-405c-b25e-1034c4c56f3f""}","https://test12345.live/?num_scrambled_semantic=8&num_scrambled_causal=4&num_scrambled_schematic=4&participantId=BBF5A87C7549473CBA51955F9AAB0BB1&assignmentId=1b7dec7d-e218-4b8f-b98a-945530e7c314&projectId=a9f3d40c-5730-405c-b25e-1034c4c56f3f","BBF5A87C7549473CBA51955F9AAB0BB1-2025-08-07-20-48-33","","1567","","","","",""
"","","","","","initialize-microphone","4","74743","0.0-4.0-0.0","BBF5A87C7549473CBA51955F9AAB0BB1","BBF5A87C7549473CBA51955F9AAB0BB1","1b7dec7d-e218-4b8f-b98a-945530e7c314","a9f3d40c-5730-405c-b25e-1034c4c56f3f","{""num_scrambled_semantic"":""8"",""num_scrambled_causal"":""4"",""num_scrambled_schematic"":""4"",""participantId"":""BBF5A87C7549473CBA51955F9AAB0BB1"",""assignmentId"":""1b7dec7d-e218-4b8f-b98a-945530e7c314"",""projectId"":""a9f3d40c-5730-405c-b25e-1034c4c56f3f""}","https://test12345.live/?num_scrambled_semantic=8&num_scrambled_causal=4&num_scrambled_schematic=4&participantId=BBF5A87C7549473CBA51955F9AAB0BB1&assignmentId=1b7dec7d-e218-4b8f-b98a-945530e7c314&projectId=a9f3d40c-5730-405c-b25e-1034c4c56f3f","BBF5A87C7549473CBA51955F9AAB0BB1-2025-08-07-20-48-33","","","8a5090f44093e6b9120da5755cbda152a69843684cdf01ac15981e7419f73ea5","","","",""
"","","","","","html-audio-response","5","78305","0.0-4.0-1.0","BBF5A87C7549473CBA51955F9AAB0BB1","BBF5A87C7549473CBA51955F9AAB0BB1","1b7dec7d-e218-4b8f-b98a-945530e7c314","a9f3d40c-5730-405c-b25e-1034c4c56f3f","{""num_scrambled_semantic"":""8"",""num_scrambled_causal"":""4"",""num_scrambled_schematic"":""4"",""participantId"":""BBF5A87C7549473CBA51955F9AAB0BB1"",""assignmentId"":""1b7dec7d-e218-4b8f-b98a-945530e7c314"",""projectId"":""a9f3d40c-5730-405c-b25e-1034c4c56f3f""}","https://test12345.live/?num_scrambled_semantic=8&num_scrambled_causal=4&num_scrambled_schematic=4&participantId=BBF5A87C7549473CBA51955F9AAB0BB1&assignmentId=1b7dec7d-e218-4b8f-b98a-945530e7c314&projectId=a9f3d40c-5730-405c-b25e-1034c4c56f3f","BBF5A87C7549473CBA51955F9AAB0BB1-2025-08-07-20-48-33","","1857","","<span style=""color: red; font-size: 24px""> NOW RECORDING</span>
        <p>Please test Microphone</p>","","7",""
"","","","","","html-button-response","6","79519","0.0-4.0-2.0","BBF5A87C7549473CBA51955F9AAB0BB1","BBF5A87C7549473CBA51955F9AAB0BB1","1b7dec7d-e218-4b8f-b98a-945530e7c314","a9f3d40c-5730-405c-b25e-1034c4c56f3f","{""num_scrambled_semantic"":""8"",""num_scrambled_causal"":""4"",""num_scrambled_schematic"":""4"",""participantId"":""BBF5A87C7549473CBA51955F9AAB0BB1"",""assignmentId"":""1b7dec7d-e218-4b8f-b98a-945530e7c314"",""projectId"":""a9f3d40c-5730-405c-b25e-1034c4c56f3f""}","https://test12345.live/?num_scrambled_semantic=8&num_scrambled_causal=4&num_scrambled_schematic=4&participantId=BBF5A87C7549473CBA51955F9AAB0BB1&assignmentId=1b7dec7d-e218-4b8f-b98a-945530e7c314&projectId=a9f3d40c-5730-405c-b25e-1034c4c56f3f","BBF5A87C7549473CBA51955F9AAB0BB1-2025-08-07-20-48-33","","1213","","<p style=""font-size:48px; color:red;"">Is Microphone OK?</p>","1","",""
"","","","","","instructions","7","82414","0.0-5.0","BBF5A87C7549473CBA51955F9AAB0BB1","BBF5A87C7549473CBA51955F9AAB0BB1","1b7dec7d-e218-4b8f-b98a-945530e7c314","a9f3d40c-5730-405c-b25e-1034c4c56f3f","{""num_scrambled_semantic"":""8"",""num_scrambled_causal"":""4"",""num_scrambled_schematic"":""4"",""participantId"":""BBF5A87C7549473CBA51955F9AAB0BB1"",""assignmentId"":""1b7dec7d-e218-4b8f-b98a-945530e7c314"",""projectId"":""a9f3d40c-5730-405c-b25e-1034c4c56f3f""}","https://test12345.live/?num_scrambled_semantic=8&num_scrambled_causal=4&num_scrambled_schematic=4&participantId=BBF5A87C7549473CBA51955F9AAB0BB1&assignmentId=1b7dec7d-e218-4b8f-b98a-945530e7c314&projectId=a9f3d40c-5730-405c-b25e-1034c4c56f3f","BBF5A87C7549473CBA51955F9AAB0BB1-2025-08-07-20-48-33","[{""page_index"":0,""viewing_time"":1493},{""page_index"":1,""viewing_time"":1401}]","2894","","","","",""
"","","","","","image-button-response","8","88417","0.0-6.0-0.0","BBF5A87C7549473CBA51955F9AAB0BB1","BBF5A87C7549473CBA51955F9AAB0BB1","1b7dec7d-e218-4b8f-b98a-945530e7c314","a9f3d40c-5730-405c-b25e-1034c4c56f3f","{""num_scrambled_semantic"":""8"",""num_scrambled_causal"":""4"",""num_scrambled_schematic"":""4"",""participantId"":""BBF5A87C7549473CBA51955F9AAB0BB1"",""assignmentId"":""1b7dec7d-e218-4b8f-b98a-945530e7c314"",""projectId"":""a9f3d40c-5730-405c-b25e-1034c4c56f3f""}","https://test12345.live/?num_scrambled_semantic=8&num_scrambled_causal=4&num_scrambled_schematic=4&participantId=BBF5A87C7549473CBA51955F9AAB0BB1&assignmentId=1b7dec7d-e218-4b8f-b98a-945530e7c314&projectId=a9f3d40c-5730-405c-b25e-1034c4c56f3f","BBF5A87C7549473CBA51955F9AAB0BB1-2025-08-07-20-48-33","","null","","images/instructions/movie_0.png","null","",""
"","","","","","image-button-response","9","92921","0.0-6.0-1.0-0.0","BBF5A87C7549473CBA51955F9AAB0BB1","BBF5A87C7549473CBA51955F9AAB0BB1","1b7dec7d-e218-4b8f-b98a-945530e7c314","a9f3d40c-5730-405c-b25e-1034c4c56f3f","{""num_scrambled_semantic"":""8"",""num_scrambled_causal"":""4"",""num_scrambled_schematic"":""4"",""participantId"":""BBF5A87C7549473CBA51955F9AAB0BB1"",""assignmentId"":""1b7dec7d-e218-4b8f-b98a-945530e7c314"",""projectId"":""a9f3d40c-5730-405c-b25e-1034c4c56f3f""}","https://test12345.live/?num_scrambled_semantic=8&num_scrambled_causal=4&num_scrambled_schematic=4&participantId=BBF5A87C7549473CBA51955F9AAB0BB1&assignmentId=1b7dec7d-e218-4b8f-b98a-945530e7c314&projectId=a9f3d40c-5730-405c-b25e-1034c4c56f3f","BBF5A87C7549473CBA51955F9AAB0BB1-2025-08-07-20-48-33","","null","","images/instructions/movie_1.png","null","",""
"","","","","","image-button-response","10","96936","0.0-6.0-1.0-1.0","BBF5A87C7549473CBA51955F9AAB0BB1","BBF5A87C7549473CBA51955F9AAB0BB1","1b7dec7d-e218-4b8f-b98a-945530e7c314","a9f3d40c-5730-405c-b25e-1034c4c56f3f","{""num_scrambled_semantic"":""8"",""num_scrambled_causal"":""4"",""num_scrambled_schematic"":""4"",""participantId"":""BBF5A87C7549473CBA51955F9AAB0BB1"",""assignmentId"":""1b7dec7d-e218-4b8f-b98a-945530e7c314"",""projectId"":""a9f3d40c-5730-405c-b25e-1034c4c56f3f""}","https://test12345.live/?num_scrambled_semantic=8&num_scrambled_causal=4&num_scrambled_schematic=4&participantId=BBF5A87C7549473CBA51955F9AAB0BB1&assignmentId=1b7dec7d-e218-4b8f-b98a-945530e7c314&projectId=a9f3d40c-5730-405c-b25e-1034c4c56f3f","BBF5A87C7549473CBA51955F9AAB0BB1-2025-08-07-20-48-33","","null","","images/instructions/movie_1.png","null","",""
"","","","","","image-button-response","11","98743","0.0-6.0-1.0-2.0","BBF5A87C7549473CBA51955F9AAB0BB1","BBF5A87C7549473CBA51955F9AAB0BB1","1b7dec7d-e218-4b8f-b98a-945530e7c314","a9f3d40c-5730-405c-b25e-1034c4c56f3f","{""num_scrambled_semantic"":""8"",""num_scrambled_causal"":""4"",""num_scrambled_schematic"":""4"",""participantId"":""BBF5A87C7549473CBA51955F9AAB0BB1"",""assignmentId"":""1b7dec7d-e218-4b8f-b98a-945530e7c314"",""projectId"":""a9f3d40c-5730-405c-b25e-1034c4c56f3f""}","https://test12345.live/?num_scrambled_semantic=8&num_scrambled_causal=4&num_scrambled_schematic=4&participantId=BBF5A87C7549473CBA51955F9AAB0BB1&assignmentId=1b7dec7d-e218-4b8f-b98a-945530e7c314&projectId=a9f3d40c-5730-405c-b25e-1034c4c56f3f","BBF5A87C7549473CBA51955F9AAB0BB1-2025-08-07-20-48-33","","null","","[]","null","",""
"","","","","","image-button-response","12","103255","0.0-6.0-1.0-0.1","BBF5A87C7549473CBA51955F9AAB0BB1","BBF5A87C7549473CBA51955F9AAB0BB1","1b7dec7d-e218-4b8f-b98a-945530e7c314","a9f3d40c-5730-405c-b25e-1034c4c56f3f","{""num_scrambled_semantic"":""8"",""num_scrambled_causal"":""4"",""num_scrambled_schematic"":""4"",""participantId"":""BBF5A87C7549473CBA51955F9AAB0BB1"",""assignmentId"":""1b7dec7d-e218-4b8f-b98a-945530e7c314"",""projectId"":""a9f3d40c-5730-405c-b25e-1034c4c56f3f""}","https://test12345.live/?num_scrambled_semantic=8&num_scrambled_causal=4&num_scrambled_schematic=4&participantId=BBF5A87C7549473CBA51955F9AAB0BB1&assignmentId=1b7dec7d-e218-4b8f-b98a-945530e7c314&projectId=a9f3d40c-5730-405c-b25e-1034c4c56f3f","BBF5A87C7549473CBA51955F9AAB0BB1-2025-08-07-20-48-33","","null","","images/instructions/movie_2.png","null","",""
"","","","","","image-button-response","13","107265","0.0-6.0-1.0-1.1","BBF5A87C7549473CBA51955F9AAB0BB1","BBF5A87C7549473CBA51955F9AAB0BB1","1b7dec7d-e218-4b8f-b98a-945530e7c314","a9f3d40c-5730-405c-b25e-1034c4c56f3f","{""num_scrambled_semantic"":""8"",""num_scrambled_causal"":""4"",""num_scrambled_schematic"":""4"",""participantId"":""BBF5A87C7549473CBA51955F9AAB0BB1"",""assignmentId"":""1b7dec7d-e218-4b8f-b98a-945530e7c314"",""projectId"":""a9f3d40c-5730-405c-b25e-1034c4c56f3f""}","https://test12345.live/?num_scrambled_semantic=8&num_scrambled_causal=4&num_scrambled_schematic=4&participantId=BBF5A87C7549473CBA51955F9AAB0BB1&assignmentId=1b7dec7d-e218-4b8f-b98a-945530e7c314&projectId=a9f3d40c-5730-405c-b25e-1034c4c56f3f","BBF5A87C7549473CBA51955F9AAB0BB1-2025-08-07-20-48-33","","null","","images/instructions/movie_2.png","null","",""
"","","","","","image-button-response","14","109069","0.0-6.0-1.0-2.1","BBF5A87C7549473CBA51955F9AAB0BB1","BBF5A87C7549473CBA51955F9AAB0BB1","1b7dec7d-e218-4b8f-b98a-945530e7c314","a9f3d40c-5730-405c-b25e-1034c4c56f3f","{""num_scrambled_semantic"":""8"",""num_scrambled_causal"":""4"",""num_scrambled_schematic"":""4"",""participantId"":""BBF5A87C7549473CBA51955F9AAB0BB1"",""assignmentId"":""1b7dec7d-e218-4b8f-b98a-945530e7c314"",""projectId"":""a9f3d40c-5730-405c-b25e-1034c4c56f3f""}","https://test12345.live/?num_scrambled_semantic=8&num_scrambled_causal=4&num_scrambled_schematic=4&participantId=BBF5A87C7549473CBA51955F9AAB0BB1&assignmentId=1b7dec7d-e218-4b8f-b98a-945530e7c314&projectId=a9f3d40c-5730-405c-b25e-1034c4c56f3f","BBF5A87C7549473CBA51955F9AAB0BB1-2025-08-07-20-48-33","","null","","[]","null","",""
"","","","","","image-button-response","15","113576","0.0-6.0-1.0-0.2","BBF5A87C7549473CBA51955F9AAB0BB1","BBF5A87C7549473CBA51955F9AAB0BB1","1b7dec7d-e218-4b8f-b98a-945530e7c314","a9f3d40c-5730-405c-b25e-1034c4c56f3f","{""num_scrambled_semantic"":""8"",""num_scrambled_causal"":""4"",""num_scrambled_schematic"":""4"",""participantId"":""BBF5A87C7549473CBA51955F9AAB0BB1"",""assignmentId"":""1b7dec7d-e218-4b8f-b98a-945530e7c314"",""projectId"":""a9f3d40c-5730-405c-b25e-1034c4c56f3f""}","https://test12345.live/?num_scrambled_semantic=8&num_scrambled_causal=4&num_scrambled_schematic=4&participantId=BBF5A87C7549473CBA51955F9AAB0BB1&assignmentId=1b7dec7d-e218-4b8f-b98a-945530e7c314&projectId=a9f3d40c-5730-405c-b25e-1034c4c56f3f","BBF5A87C7549473CBA51955F9AAB0BB1-2025-08-07-20-48-33","","null","","images/instructions/movie_3.png","null","",""
"","","","","","image-button-response","16","117583","0.0-6.0-1.0-1.2","BBF5A87C7549473CBA51955F9AAB0BB1","BBF5A87C7549473CBA51955F9AAB0BB1","1b7dec7d-e218-4b8f-b98a-945530e7c314","a9f3d40c-5730-405c-b25e-1034c4c56f3f","{""num_scrambled_semantic"":""8"",""num_scrambled_causal"":""4"",""num_scrambled_schematic"":""4"",""participantId"":""BBF5A87C7549473CBA51955F9AAB0BB1"",""assignmentId"":""1b7dec7d-e218-4b8f-b98a-945530e7c314"",""projectId"":""a9f3d40c-5730-405c-b25e-1034c4c56f3f""}","https://test12345.live/?num_scrambled_semantic=8&num_scrambled_causal=4&num_scrambled_schematic=4&participantId=BBF5A87C7549473CBA51955F9AAB0BB1&assignmentId=1b7dec7d-e218-4b8f-b98a-945530e7c314&projectId=a9f3d40c-5730-405c-b25e-1034c4c56f3f","BBF5A87C7549473CBA51955F9AAB0BB1-2025-08-07-20-48-33","","null","","images/instructions/movie_3.png","null","",""
"","","","","","image-button-response","17","119384","0.0-6.0-1.0-2.2","BBF5A87C7549473CBA51955F9AAB0BB1","BBF5A87C7549473CBA51955F9AAB0BB1","1b7dec7d-e218-4b8f-b98a-945530e7c314","a9f3d40c-5730-405c-b25e-1034c4c56f3f","{""num_scrambled_semantic"":""8"",""num_scrambled_causal"":""4"",""num_scrambled_schematic"":""4"",""participantId"":""BBF5A87C7549473CBA51955F9AAB0BB1"",""assignmentId"":""1b7dec7d-e218-4b8f-b98a-945530e7c314"",""projectId"":""a9f3d40c-5730-405c-b25e-1034c4c56f3f""}","https://test12345.live/?num_scrambled_semantic=8&num_scrambled_causal=4&num_scrambled_schematic=4&participantId=BBF5A87C7549473CBA51955F9AAB0BB1&assignmentId=1b7dec7d-e218-4b8f-b98a-945530e7c314&projectId=a9f3d40c-5730-405c-b25e-1034c4c56f3f","BBF5A87C7549473CBA51955F9AAB0BB1-2025-08-07-20-48-33","","null","","[]","null","",""
"","","","","","image-button-response","18","123889","0.0-6.0-1.0-0.3","BBF5A87C7549473CBA51955F9AAB0BB1","BBF5A87C7549473CBA51955F9AAB0BB1","1b7dec7d-e218-4b8f-b98a-945530e7c314","a9f3d40c-5730-405c-b25e-1034c4c56f3f","{""num_scrambled_semantic"":""8"",""num_scrambled_causal"":""4"",""num_scrambled_schematic"":""4"",""participantId"":""BBF5A87C7549473CBA51955F9AAB0BB1"",""assignmentId"":""1b7dec7d-e218-4b8f-b98a-945530e7c314"",""projectId"":""a9f3d40c-5730-405c-b25e-1034c4c56f3f""}","https://test12345.live/?num_scrambled_semantic=8&num_scrambled_causal=4&num_scrambled_schematic=4&participantId=BBF5A87C7549473CBA51955F9AAB0BB1&assignmentId=1b7dec7d-e218-4b8f-b98a-945530e7c314&projectId=a9f3d40c-5730-405c-b25e-1034c4c56f3f","BBF5A87C7549473CBA51955F9AAB0BB1-2025-08-07-20-48-33","","null","","images/instructions/movie_4.png","null","",""
"","","","","","image-button-response","19","127900","0.0-6.0-1.0-1.3","BBF5A87C7549473CBA51955F9AAB0BB1","BBF5A87C7549473CBA51955F9AAB0BB1","1b7dec7d-e218-4b8f-b98a-945530e7c314","a9f3d40c-5730-405c-b25e-1034c4c56f3f","{""num_scrambled_semantic"":""8"",""num_scrambled_causal"":""4"",""num_scrambled_schematic"":""4"",""participantId"":""BBF5A87C7549473CBA51955F9AAB0BB1"",""assignmentId"":""1b7dec7d-e218-4b8f-b98a-945530e7c314"",""projectId"":""a9f3d40c-5730-405c-b25e-1034c4c56f3f""}","https://test12345.live/?num_scrambled_semantic=8&num_scrambled_causal=4&num_scrambled_schematic=4&participantId=BBF5A87C7549473CBA51955F9AAB0BB1&assignmentId=1b7dec7d-e218-4b8f-b98a-945530e7c314&projectId=a9f3d40c-5730-405c-b25e-1034c4c56f3f","BBF5A87C7549473CBA51955F9AAB0BB1-2025-08-07-20-48-33","","null","","images/instructions/movie_4.png","null","",""
"","","","","","image-button-response","20","129703","0.0-6.0-1.0-2.3","BBF5A87C7549473CBA51955F9AAB0BB1","BBF5A87C7549473CBA51955F9AAB0BB1","1b7dec7d-e218-4b8f-b98a-945530e7c314","a9f3d40c-5730-405c-b25e-1034c4c56f3f","{""num_scrambled_semantic"":""8"",""num_scrambled_causal"":""4"",""num_scrambled_schematic"":""4"",""participantId"":""BBF5A87C7549473CBA51955F9AAB0BB1"",""assignmentId"":""1b7dec7d-e218-4b8f-b98a-945530e7c314"",""projectId"":""a9f3d40c-5730-405c-b25e-1034c4c56f3f""}","https://test12345.live/?num_scrambled_semantic=8&num_scrambled_causal=4&num_scrambled_schematic=4&participantId=BBF5A87C7549473CBA51955F9AAB0BB1&assignmentId=1b7dec7d-e218-4b8f-b98a-945530e7c314&projectId=a9f3d40c-5730-405c-b25e-1034c4c56f3f","BBF5A87C7549473CBA51955F9AAB0BB1-2025-08-07-20-48-33","","null","","[]","null","",""
"","","","","","instructions","21","149002","0.0-7.0","BBF5A87C7549473CBA51955F9AAB0BB1","BBF5A87C7549473CBA51955F9AAB0BB1","1b7dec7d-e218-4b8f-b98a-945530e7c314","a9f3d40c-5730-405c-b25e-1034c4c56f3f","{""num_scrambled_semantic"":""8"",""num_scrambled_causal"":""4"",""num_scrambled_schematic"":""4"",""participantId"":""BBF5A87C7549473CBA51955F9AAB0BB1"",""assignmentId"":""1b7dec7d-e218-4b8f-b98a-945530e7c314"",""projectId"":""a9f3d40c-5730-405c-b25e-1034c4c56f3f""}","https://test12345.live/?num_scrambled_semantic=8&num_scrambled_causal=4&num_scrambled_schematic=4&participantId=BBF5A87C7549473CBA51955F9AAB0BB1&assignmentId=1b7dec7d-e218-4b8f-b98a-945530e7c314&projectId=a9f3d40c-5730-405c-b25e-1034c4c56f3f","BBF5A87C7549473CBA51955F9AAB0BB1-2025-08-07-20-48-33","[{""page_index"":0,""viewing_time"":18372},{""page_index"":1,""viewing_time"":927}]","19299","","","","",""
"","","","","","html-audio-response","22","150899","0.0-8.0","BBF5A87C7549473CBA51955F9AAB0BB1","BBF5A87C7549473CBA51955F9AAB0BB1","1b7dec7d-e218-4b8f-b98a-945530e7c314","a9f3d40c-5730-405c-b25e-1034c4c56f3f","{""num_scrambled_semantic"":""8"",""num_scrambled_causal"":""4"",""num_scrambled_schematic"":""4"",""participantId"":""BBF5A87C7549473CBA51955F9AAB0BB1"",""assignmentId"":""1b7dec7d-e218-4b8f-b98a-945530e7c314"",""projectId"":""a9f3d40c-5730-405c-b25e-1034c4c56f3f""}","https://test12345.live/?num_scrambled_semantic=8&num_scrambled_causal=4&num_scrambled_schematic=4&participantId=BBF5A87C7549473CBA51955F9AAB0BB1&assignmentId=1b7dec7d-e218-4b8f-b98a-945530e7c314&projectId=a9f3d40c-5730-405c-b25e-1034c4c56f3f","BBF5A87C7549473CBA51955F9AAB0BB1-2025-08-07-20-48-33","","1137","","[""<span style=\""color: red; font-size: 24px\""> NOW RECORDING</span><p>Please say out loud all the images you saw, as many as you can remember. The images can be said in any order.</p>""]","","1",""
"","","","","","instructions","23","152062","0.0-9.0","BBF5A87C7549473CBA51955F9AAB0BB1","BBF5A87C7549473CBA51955F9AAB0BB1","1b7dec7d-e218-4b8f-b98a-945530e7c314","a9f3d40c-5730-405c-b25e-1034c4c56f3f","{""num_scrambled_semantic"":""8"",""num_scrambled_causal"":""4"",""num_scrambled_schematic"":""4"",""participantId"":""BBF5A87C7549473CBA51955F9AAB0BB1"",""assignmentId"":""1b7dec7d-e218-4b8f-b98a-945530e7c314"",""projectId"":""a9f3d40c-5730-405c-b25e-1034c4c56f3f""}","https://test12345.live/?num_scrambled_semantic=8&num_scrambled_causal=4&num_scrambled_schematic=4&participantId=BBF5A87C7549473CBA51955F9AAB0BB1&assignmentId=1b7dec7d-e218-4b8f-b98a-945530e7c314&projectId=a9f3d40c-5730-405c-b25e-1034c4c56f3f","BBF5A87C7549473CBA51955F9AAB0BB1-2025-08-07-20-48-33","[{""page_index"":0,""viewing_time"":1161}]","1161","","","","",""
"","","","","","image-button-response","24","158611","0.0-10.0-0.0","BBF5A87C7549473CBA51955F9AAB0BB1","BBF5A87C7549473CBA51955F9AAB0BB1","1b7dec7d-e218-4b8f-b98a-945530e7c314","a9f3d40c-5730-405c-b25e-1034c4c56f3f","{""num_scrambled_semantic"":""8"",""num_scrambled_causal"":""4"",""num_scrambled_schematic"":""4"",""participantId"":""BBF5A87C7549473CBA51955F9AAB0BB1"",""assignmentId"":""1b7dec7d-e218-4b8f-b98a-945530e7c314"",""projectId"":""a9f3d40c-5730-405c-b25e-1034c4c56f3f""}","https://test12345.live/?num_scrambled_semantic=8&num_scrambled_causal=4&num_scrambled_schematic=4&participantId=BBF5A87C7549473CBA51955F9AAB0BB1&assignmentId=1b7dec7d-e218-4b8f-b98a-945530e7c314&projectId=a9f3d40c-5730-405c-b25e-1034c4c56f3f","BBF5A87C7549473CBA51955F9AAB0BB1-2025-08-07-20-48-33","","null","","images/causal_sequence/package_causal/package_causal_0.png","null","",""
"","","","","","image-button-response","25","163613","0.0-10.0-1.0-0.0","BBF5A87C7549473CBA51955F9AAB0BB1","BBF5A87C7549473CBA51955F9AAB0BB1","1b7dec7d-e218-4b8f-b98a-945530e7c314","a9f3d40c-5730-405c-b25e-1034c4c56f3f","{""num_scrambled_semantic"":""8"",""num_scrambled_causal"":""4"",""num_scrambled_schematic"":""4"",""participantId"":""BBF5A87C7549473CBA51955F9AAB0BB1"",""assignmentId"":""1b7dec7d-e218-4b8f-b98a-945530e7c314"",""projectId"":""a9f3d40c-5730-405c-b25e-1034c4c56f3f""}","https://test12345.live/?num_scrambled_semantic=8&num_scrambled_causal=4&num_scrambled_schematic=4&participantId=BBF5A87C7549473CBA51955F9AAB0BB1&assignmentId=1b7dec7d-e218-4b8f-b98a-945530e7c314&projectId=a9f3d40c-5730-405c-b25e-1034c4c56f3f","BBF5A87C7549473CBA51955F9AAB0BB1-2025-08-07-20-48-33","","null","","images/causal_sequence/package_causal/package_causal_5.png","null","",""
"","","","","","image-button-response","26","168610","0.0-10.0-1.0-1.0","BBF5A87C7549473CBA51955F9AAB0BB1","BBF5A87C7549473CBA51955F9AAB0BB1","1b7dec7d-e218-4b8f-b98a-945530e7c314","a9f3d40c-5730-405c-b25e-1034c4c56f3f","{""num_scrambled_semantic"":""8"",""num_scrambled_causal"":""4"",""num_scrambled_schematic"":""4"",""participantId"":""BBF5A87C7549473CBA51955F9AAB0BB1"",""assignmentId"":""1b7dec7d-e218-4b8f-b98a-945530e7c314"",""projectId"":""a9f3d40c-5730-405c-b25e-1034c4c56f3f""}","https://test12345.live/?num_scrambled_semantic=8&num_scrambled_causal=4&num_scrambled_schematic=4&participantId=BBF5A87C7549473CBA51955F9AAB0BB1&assignmentId=1b7dec7d-e218-4b8f-b98a-945530e7c314&projectId=a9f3d40c-5730-405c-b25e-1034c4c56f3f","BBF5A87C7549473CBA51955F9AAB0BB1-2025-08-07-20-48-33","","null","","images/causal_sequence/package_causal/package_causal_5.png","null","",""
"","","","","","image-button-response","27","170609","0.0-10.0-1.0-2.0","BBF5A87C7549473CBA51955F9AAB0BB1","BBF5A87C7549473CBA51955F9AAB0BB1","1b7dec7d-e218-4b8f-b98a-945530e7c314","a9f3d40c-5730-405c-b25e-1034c4c56f3f","{""num_scrambled_semantic"":""8"",""num_scrambled_causal"":""4"",""num_scrambled_schematic"":""4"",""participantId"":""BBF5A87C7549473CBA51955F9AAB0BB1"",""assignmentId"":""1b7dec7d-e218-4b8f-b98a-945530e7c314"",""projectId"":""a9f3d40c-5730-405c-b25e-1034c4c56f3f""}","https://test12345.live/?num_scrambled_semantic=8&num_scrambled_causal=4&num_scrambled_schematic=4&participantId=BBF5A87C7549473CBA51955F9AAB0BB1&assignmentId=1b7dec7d-e218-4b8f-b98a-945530e7c314&projectId=a9f3d40c-5730-405c-b25e-1034c4c56f3f","BBF5A87C7549473CBA51955F9AAB0BB1-2025-08-07-20-48-33","","null","","[]","null","",""
"","","","","","image-button-response","28","175620","0.0-10.0-1.0-0.1","BBF5A87C7549473CBA51955F9AAB0BB1","BBF5A87C7549473CBA51955F9AAB0BB1","1b7dec7d-e218-4b8f-b98a-945530e7c314","a9f3d40c-5730-405c-b25e-1034c4c56f3f","{""num_scrambled_semantic"":""8"",""num_scrambled_causal"":""4"",""num_scrambled_schematic"":""4"",""participantId"":""BBF5A87C7549473CBA51955F9AAB0BB1"",""assignmentId"":""1b7dec7d-e218-4b8f-b98a-945530e7c314"",""projectId"":""a9f3d40c-5730-405c-b25e-1034c4c56f3f""}","https://test12345.live/?num_scrambled_semantic=8&num_scrambled_causal=4&num_scrambled_schematic=4&participantId=BBF5A87C7549473CBA51955F9AAB0BB1&assignmentId=1b7dec7d-e218-4b8f-b98a-945530e7c314&projectId=a9f3d40c-5730-405c-b25e-1034c4c56f3f","BBF5A87C7549473CBA51955F9AAB0BB1-2025-08-07-20-48-33","","null","","images/causal_sequence/package_causal/package_causal_9.png","null","",""
"","","","","","image-button-response","29","180609","0.0-10.0-1.0-1.1","BBF5A87C7549473CBA51955F9AAB0BB1","BBF5A87C7549473CBA51955F9AAB0BB1","1b7dec7d-e218-4b8f-b98a-945530e7c314","a9f3d40c-5730-405c-b25e-1034c4c56f3f","{""num_scrambled_semantic"":""8"",""num_scrambled_causal"":""4"",""num_scrambled_schematic"":""4"",""participantId"":""BBF5A87C7549473CBA51955F9AAB0BB1"",""assignmentId"":""1b7dec7d-e218-4b8f-b98a-945530e7c314"",""projectId"":""a9f3d40c-5730-405c-b25e-1034c4c56f3f""}","https://test12345.live/?num_scrambled_semantic=8&num_scrambled_causal=4&num_scrambled_schematic=4&participantId=BBF5A87C7549473CBA51955F9AAB0BB1&assignmentId=1b7dec7d-e218-4b8f-b98a-945530e7c314&projectId=a9f3d40c-5730-405c-b25e-1034c4c56f3f","BBF5A87C7549473CBA51955F9AAB0BB1-2025-08-07-20-48-33","","null","","images/causal_sequence/package_causal/package_causal_9.png","null","",""
"","","","","","image-button-response","30","182616","0.0-10.0-1.0-2.1","BBF5A87C7549473CBA51955F9AAB0BB1","BBF5A87C7549473CBA51955F9AAB0BB1","1b7dec7d-e218-4b8f-b98a-945530e7c314","a9f3d40c-5730-405c-b25e-1034c4c56f3f","{""num_scrambled_semantic"":""8"",""num_scrambled_causal"":""4"",""num_scrambled_schematic"":""4"",""participantId"":""BBF5A87C7549473CBA51955F9AAB0BB1"",""assignmentId"":""1b7dec7d-e218-4b8f-b98a-945530e7c314"",""projectId"":""a9f3d40c-5730-405c-b25e-1034c4c56f3f""}","https://test12345.live/?num_scrambled_semantic=8&num_scrambled_causal=4&num_scrambled_schematic=4&participantId=BBF5A87C7549473CBA51955F9AAB0BB1&assignmentId=1b7dec7d-e218-4b8f-b98a-945530e7c314&projectId=a9f3d40c-5730-405c-b25e-1034c4c56f3f","BBF5A87C7549473CBA51955F9AAB0BB1-2025-08-07-20-48-33","","null","","[]","null","",""
"","","","","","image-button-response","31","187616","0.0-10.0-1.0-0.2","BBF5A87C7549473CBA51955F9AAB0BB1","BBF5A87C7549473CBA51955F9AAB0BB1","1b7dec7d-e218-4b8f-b98a-945530e7c314","a9f3d40c-5730-405c-b25e-1034c4c56f3f","{""num_scrambled_semantic"":""8"",""num_scrambled_causal"":""4"",""num_scrambled_schematic"":""4"",""participantId"":""BBF5A87C7549473CBA51955F9AAB0BB1"",""assignmentId"":""1b7dec7d-e218-4b8f-b98a-945530e7c314"",""projectId"":""a9f3d40c-5730-405c-b25e-1034c4c56f3f""}","https://test12345.live/?num_scrambled_semantic=8&num_scrambled_causal=4&num_scrambled_schematic=4&participantId=BBF5A87C7549473CBA51955F9AAB0BB1&assignmentId=1b7dec7d-e218-4b8f-b98a-945530e7c314&projectId=a9f3d40c-5730-405c-b25e-1034c4c56f3f","BBF5A87C7549473CBA51955F9AAB0BB1-2025-08-07-20-48-33","","null","","images/causal_sequence/package_causal/package_causal_1.png","null","",""
"","","","","","image-button-response","32","192609","0.0-10.0-1.0-1.2","BBF5A87C7549473CBA51955F9AAB0BB1","BBF5A87C7549473CBA51955F9AAB0BB1","1b7dec7d-e218-4b8f-b98a-945530e7c314","a9f3d40c-5730-405c-b25e-1034c4c56f3f","{""num_scrambled_semantic"":""8"",""num_scrambled_causal"":""4"",""num_scrambled_schematic"":""4"",""participantId"":""BBF5A87C7549473CBA51955F9AAB0BB1"",""assignmentId"":""1b7dec7d-e218-4b8f-b98a-945530e7c314"",""projectId"":""a9f3d40c-5730-405c-b25e-1034c4c56f3f""}","https://test12345.live/?num_scrambled_semantic=8&num_scrambled_causal=4&num_scrambled_schematic=4&participantId=BBF5A87C7549473CBA51955F9AAB0BB1&assignmentId=1b7dec7d-e218-4b8f-b98a-945530e7c314&projectId=a9f3d40c-5730-405c-b25e-1034c4c56f3f","BBF5A87C7549473CBA51955F9AAB0BB1-2025-08-07-20-48-33","","null","","images/causal_sequence/package_causal/package_causal_1.png","null","",""
"","","","","","image-button-response","33","194618","0.0-10.0-1.0-2.2","BBF5A87C7549473CBA51955F9AAB0BB1","BBF5A87C7549473CBA51955F9AAB0BB1","1b7dec7d-e218-4b8f-b98a-945530e7c314","a9f3d40c-5730-405c-b25e-1034c4c56f3f","{""num_scrambled_semantic"":""8"",""num_scrambled_causal"":""4"",""num_scrambled_schematic"":""4"",""participantId"":""BBF5A87C7549473CBA51955F9AAB0BB1"",""assignmentId"":""1b7dec7d-e218-4b8f-b98a-945530e7c314"",""projectId"":""a9f3d40c-5730-405c-b25e-1034c4c56f3f""}","https://test12345.live/?num_scrambled_semantic=8&num_scrambled_causal=4&num_scrambled_schematic=4&participantId=BBF5A87C7549473CBA51955F9AAB0BB1&assignmentId=1b7dec7d-e218-4b8f-b98a-945530e7c314&projectId=a9f3d40c-5730-405c-b25e-1034c4c56f3f","BBF5A87C7549473CBA51955F9AAB0BB1-2025-08-07-20-48-33","","null","","[]","null","",""
"","","","","","image-button-response","34","199616","0.0-10.0-1.0-0.3","BBF5A87C7549473CBA51955F9AAB0BB1","BBF5A87C7549473CBA51955F9AAB0BB1","1b7dec7d-e218-4b8f-b98a-945530e7c314","a9f3d40c-5730-405c-b25e-1034c4c56f3f","{""num_scrambled_semantic"":""8"",""num_scrambled_causal"":""4"",""num_scrambled_schematic"":""4"",""participantId"":""BBF5A87C7549473CBA51955F9AAB0BB1"",""assignmentId"":""1b7dec7d-e218-4b8f-b98a-945530e7c314"",""projectId"":""a9f3d40c-5730-405c-b25e-1034c4c56f3f""}","https://test12345.live/?num_scrambled_semantic=8&num_scrambled_causal=4&num_scrambled_schematic=4&participantId=BBF5A87C7549473CBA51955F9AAB0BB1&assignmentId=1b7dec7d-e218-4b8f-b98a-945530e7c314&projectId=a9f3d40c-5730-405c-b25e-1034c4c56f3f","BBF5A87C7549473CBA51955F9AAB0BB1-2025-08-07-20-48-33","","null","","images/causal_sequence/package_causal/package_causal_4.png","null","",""
"","","","","","image-button-response","35","204623","0.0-10.0-1.0-1.3","BBF5A87C7549473CBA51955F9AAB0BB1","BBF5A87C7549473CBA51955F9AAB0BB1","1b7dec7d-e218-4b8f-b98a-945530e7c314","a9f3d40c-5730-405c-b25e-1034c4c56f3f","{""num_scrambled_semantic"":""8"",""num_scrambled_causal"":""4"",""num_scrambled_schematic"":""4"",""participantId"":""BBF5A87C7549473CBA51955F9AAB0BB1"",""assignmentId"":""1b7dec7d-e218-4b8f-b98a-945530e7c314"",""projectId"":""a9f3d40c-5730-405c-b25e-1034c4c56f3f""}","https://test12345.live/?num_scrambled_semantic=8&num_scrambled_causal=4&num_scrambled_schematic=4&participantId=BBF5A87C7549473CBA51955F9AAB0BB1&assignmentId=1b7dec7d-e218-4b8f-b98a-945530e7c314&projectId=a9f3d40c-5730-405c-b25e-1034c4c56f3f","BBF5A87C7549473CBA51955F9AAB0BB1-2025-08-07-20-48-33","","null","","images/causal_sequence/package_causal/package_causal_4.png","null","",""
"","","","","","image-button-response","36","206619","0.0-10.0-1.0-2.3","BBF5A87C7549473CBA51955F9AAB0BB1","BBF5A87C7549473CBA51955F9AAB0BB1","1b7dec7d-e218-4b8f-b98a-945530e7c314","a9f3d40c-5730-405c-b25e-1034c4c56f3f","{""num_scrambled_semantic"":""8"",""num_scrambled_causal"":""4"",""num_scrambled_schematic"":""4"",""participantId"":""BBF5A87C7549473CBA51955F9AAB0BB1"",""assignmentId"":""1b7dec7d-e218-4b8f-b98a-945530e7c314"",""projectId"":""a9f3d40c-5730-405c-b25e-1034c4c56f3f""}","https://test12345.live/?num_scrambled_semantic=8&num_scrambled_causal=4&num_scrambled_schematic=4&participantId=BBF5A87C7549473CBA51955F9AAB0BB1&assignmentId=1b7dec7d-e218-4b8f-b98a-945530e7c314&projectId=a9f3d40c-5730-405c-b25e-1034c4c56f3f","BBF5A87C7549473CBA51955F9AAB0BB1-2025-08-07-20-48-33","","null","","[]","null","",""
"","","","","","image-button-response","37","211610","0.0-10.0-1.0-0.4","BBF5A87C7549473CBA51955F9AAB0BB1","BBF5A87C7549473CBA51955F9AAB0BB1","1b7dec7d-e218-4b8f-b98a-945530e7c314","a9f3d40c-5730-405c-b25e-1034c4c56f3f","{""num_scrambled_semantic"":""8"",""num_scrambled_causal"":""4"",""num_scrambled_schematic"":""4"",""participantId"":""BBF5A87C7549473CBA51955F9AAB0BB1"",""assignmentId"":""1b7dec7d-e218-4b8f-b98a-945530e7c314"",""projectId"":""a9f3d40c-5730-405c-b25e-1034c4c56f3f""}","https://test12345.live/?num_scrambled_semantic=8&num_scrambled_causal=4&num_scrambled_schematic=4&participantId=BBF5A87C7549473CBA51955F9AAB0BB1&assignmentId=1b7dec7d-e218-4b8f-b98a-945530e7c314&projectId=a9f3d40c-5730-405c-b25e-1034c4c56f3f","BBF5A87C7549473CBA51955F9AAB0BB1-2025-08-07-20-48-33","","null","","images/causal_sequence/package_causal/package_causal_ten.png","null","",""
"","","","","","image-button-response","38","216475","0.0-10.0-1.0-1.4","BBF5A87C7549473CBA51955F9AAB0BB1","BBF5A87C7549473CBA51955F9AAB0BB1","1b7dec7d-e218-4b8f-b98a-945530e7c314","a9f3d40c-5730-405c-b25e-1034c4c56f3f","{""num_scrambled_semantic"":""8"",""num_scrambled_causal"":""4"",""num_scrambled_schematic"":""4"",""participantId"":""BBF5A87C7549473CBA51955F9AAB0BB1"",""assignmentId"":""1b7dec7d-e218-4b8f-b98a-945530e7c314"",""projectId"":""a9f3d40c-5730-405c-b25e-1034c4c56f3f""}","https://test12345.live/?num_scrambled_semantic=8&num_scrambled_causal=4&num_scrambled_schematic=4&participantId=BBF5A87C7549473CBA51955F9AAB0BB1&assignmentId=1b7dec7d-e218-4b8f-b98a-945530e7c314&projectId=a9f3d40c-5730-405c-b25e-1034c4c56f3f","BBF5A87C7549473CBA51955F9AAB0BB1-2025-08-07-20-48-33","","null","","images/causal_sequence/package_causal/package_causal_ten.png","null","",""
"","","","","","image-button-response","39","218277","0.0-10.0-1.0-2.4","BBF5A87C7549473CBA51955F9AAB0BB1","BBF5A87C7549473CBA51955F9AAB0BB1","1b7dec7d-e218-4b8f-b98a-945530e7c314","a9f3d40c-5730-405c-b25e-1034c4c56f3f","{""num_scrambled_semantic"":""8"",""num_scrambled_causal"":""4"",""num_scrambled_schematic"":""4"",""participantId"":""BBF5A87C7549473CBA51955F9AAB0BB1"",""assignmentId"":""1b7dec7d-e218-4b8f-b98a-945530e7c314"",""projectId"":""a9f3d40c-5730-405c-b25e-1034c4c56f3f""}","https://test12345.live/?num_scrambled_semantic=8&num_scrambled_causal=4&num_scrambled_schematic=4&participantId=BBF5A87C7549473CBA51955F9AAB0BB1&assignmentId=1b7dec7d-e218-4b8f-b98a-945530e7c314&projectId=a9f3d40c-5730-405c-b25e-1034c4c56f3f","BBF5A87C7549473CBA51955F9AAB0BB1-2025-08-07-20-48-33","","null","","[]","null","",""
"","","","","","image-button-response","40","223610","0.0-10.0-1.0-0.5","BBF5A87C7549473CBA51955F9AAB0BB1","BBF5A87C7549473CBA51955F9AAB0BB1","1b7dec7d-e218-4b8f-b98a-945530e7c314","a9f3d40c-5730-405c-b25e-1034c4c56f3f","{""num_scrambled_semantic"":""8"",""num_scrambled_causal"":""4"",""num_scrambled_schematic"":""4"",""participantId"":""BBF5A87C7549473CBA51955F9AAB0BB1"",""assignmentId"":""1b7dec7d-e218-4b8f-b98a-945530e7c314"",""projectId"":""a9f3d40c-5730-405c-b25e-1034c4c56f3f""}","https://test12345.live/?num_scrambled_semantic=8&num_scrambled_causal=4&num_scrambled_schematic=4&participantId=BBF5A87C7549473CBA51955F9AAB0BB1&assignmentId=1b7dec7d-e218-4b8f-b98a-945530e7c314&projectId=a9f3d40c-5730-405c-b25e-1034c4c56f3f","BBF5A87C7549473CBA51955F9AAB0BB1-2025-08-07-20-48-33","","null","","images/causal_sequence/package_causal/package_causal_3.png","null","",""
"","","","","","image-button-response","41","228615","0.0-10.0-1.0-1.5","BBF5A87C7549473CBA51955F9AAB0BB1","BBF5A87C7549473CBA51955F9AAB0BB1","1b7dec7d-e218-4b8f-b98a-945530e7c314","a9f3d40c-5730-405c-b25e-1034c4c56f3f","{""num_scrambled_semantic"":""8"",""num_scrambled_causal"":""4"",""num_scrambled_schematic"":""4"",""participantId"":""BBF5A87C7549473CBA51955F9AAB0BB1"",""assignmentId"":""1b7dec7d-e218-4b8f-b98a-945530e7c314"",""projectId"":""a9f3d40c-5730-405c-b25e-1034c4c56f3f""}","https://test12345.live/?num_scrambled_semantic=8&num_scrambled_causal=4&num_scrambled_schematic=4&participantId=BBF5A87C7549473CBA51955F9AAB0BB1&assignmentId=1b7dec7d-e218-4b8f-b98a-945530e7c314&projectId=a9f3d40c-5730-405c-b25e-1034c4c56f3f","BBF5A87C7549473CBA51955F9AAB0BB1-2025-08-07-20-48-33","","null","","images/causal_sequence/package_causal/package_causal_3.png","null","",""
"","","","","","image-button-response","42","230607","0.0-10.0-1.0-2.5","BBF5A87C7549473CBA51955F9AAB0BB1","BBF5A87C7549473CBA51955F9AAB0BB1","1b7dec7d-e218-4b8f-b98a-945530e7c314","a9f3d40c-5730-405c-b25e-1034c4c56f3f","{""num_scrambled_semantic"":""8"",""num_scrambled_causal"":""4"",""num_scrambled_schematic"":""4"",""participantId"":""BBF5A87C7549473CBA51955F9AAB0BB1"",""assignmentId"":""1b7dec7d-e218-4b8f-b98a-945530e7c314"",""projectId"":""a9f3d40c-5730-405c-b25e-1034c4c56f3f""}","https://test12345.live/?num_scrambled_semantic=8&num_scrambled_causal=4&num_scrambled_schematic=4&participantId=BBF5A87C7549473CBA51955F9AAB0BB1&assignmentId=1b7dec7d-e218-4b8f-b98a-945530e7c314&projectId=a9f3d40c-5730-405c-b25e-1034c4c56f3f","BBF5A87C7549473CBA51955F9AAB0BB1-2025-08-07-20-48-33","","null","","[]","null","",""
"","","","","","image-button-response","43","235612","0.0-10.0-1.0-0.6","BBF5A87C7549473CBA51955F9AAB0BB1","BBF5A87C7549473CBA51955F9AAB0BB1","1b7dec7d-e218-4b8f-b98a-945530e7c314","a9f3d40c-5730-405c-b25e-1034c4c56f3f","{""num_scrambled_semantic"":""8"",""num_scrambled_causal"":""4"",""num_scrambled_schematic"":""4"",""participantId"":""BBF5A87C7549473CBA51955F9AAB0BB1"",""assignmentId"":""1b7dec7d-e218-4b8f-b98a-945530e7c314"",""projectId"":""a9f3d40c-5730-405c-b25e-1034c4c56f3f""}","https://test12345.live/?num_scrambled_semantic=8&num_scrambled_causal=4&num_scrambled_schematic=4&participantId=BBF5A87C7549473CBA51955F9AAB0BB1&assignmentId=1b7dec7d-e218-4b8f-b98a-945530e7c314&projectId=a9f3d40c-5730-405c-b25e-1034c4c56f3f","BBF5A87C7549473CBA51955F9AAB0BB1-2025-08-07-20-48-33","","null","","images/causal_sequence/package_causal/package_causal_6.png","null","",""
"","","","","","image-button-response","44","240613","0.0-10.0-1.0-1.6","BBF5A87C7549473CBA51955F9AAB0BB1","BBF5A87C7549473CBA51955F9AAB0BB1","1b7dec7d-e218-4b8f-b98a-945530e7c314","a9f3d40c-5730-405c-b25e-1034c4c56f3f","{""num_scrambled_semantic"":""8"",""num_scrambled_causal"":""4"",""num_scrambled_schematic"":""4"",""participantId"":""BBF5A87C7549473CBA51955F9AAB0BB1"",""assignmentId"":""1b7dec7d-e218-4b8f-b98a-945530e7c314"",""projectId"":""a9f3d40c-5730-405c-b25e-1034c4c56f3f""}","https://test12345.live/?num_scrambled_semantic=8&num_scrambled_causal=4&num_scrambled_schematic=4&participantId=BBF5A87C7549473CBA51955F9AAB0BB1&assignmentId=1b7dec7d-e218-4b8f-b98a-945530e7c314&projectId=a9f3d40c-5730-405c-b25e-1034c4c56f3f","BBF5A87C7549473CBA51955F9AAB0BB1-2025-08-07-20-48-33","","null","","images/causal_sequence/package_causal/package_causal_6.png","null","",""
"","","","","","image-button-response","45","242612","0.0-10.0-1.0-2.6","BBF5A87C7549473CBA51955F9AAB0BB1","BBF5A87C7549473CBA51955F9AAB0BB1","1b7dec7d-e218-4b8f-b98a-945530e7c314","a9f3d40c-5730-405c-b25e-1034c4c56f3f","{""num_scrambled_semantic"":""8"",""num_scrambled_causal"":""4"",""num_scrambled_schematic"":""4"",""participantId"":""BBF5A87C7549473CBA51955F9AAB0BB1"",""assignmentId"":""1b7dec7d-e218-4b8f-b98a-945530e7c314"",""projectId"":""a9f3d40c-5730-405c-b25e-1034c4c56f3f""}","https://test12345.live/?num_scrambled_semantic=8&num_scrambled_causal=4&num_scrambled_schematic=4&participantId=BBF5A87C7549473CBA51955F9AAB0BB1&assignmentId=1b7dec7d-e218-4b8f-b98a-945530e7c314&projectId=a9f3d40c-5730-405c-b25e-1034c4c56f3f","BBF5A87C7549473CBA51955F9AAB0BB1-2025-08-07-20-48-33","","null","","[]","null","",""
"","","","","","image-button-response","46","247129","0.0-10.0-1.0-0.7","BBF5A87C7549473CBA51955F9AAB0BB1","BBF5A87C7549473CBA51955F9AAB0BB1","1b7dec7d-e218-4b8f-b98a-945530e7c314","a9f3d40c-5730-405c-b25e-1034c4c56f3f","{""num_scrambled_semantic"":""8"",""num_scrambled_causal"":""4"",""num_scrambled_schematic"":""4"",""participantId"":""BBF5A87C7549473CBA51955F9AAB0BB1"",""assignmentId"":""1b7dec7d-e218-4b8f-b98a-945530e7c314"",""projectId"":""a9f3d40c-5730-405c-b25e-1034c4c56f3f""}","https://test12345.live/?num_scrambled_semantic=8&num_scrambled_causal=4&num_scrambled_schematic=4&participantId=BBF5A87C7549473CBA51955F9AAB0BB1&assignmentId=1b7dec7d-e218-4b8f-b98a-945530e7c314&projectId=a9f3d40c-5730-405c-b25e-1034c4c56f3f","BBF5A87C7549473CBA51955F9AAB0BB1-2025-08-07-20-48-33","","null","","images/causal_sequence/package_causal/package_causal_7.png","null","",""
"","","","","","image-button-response","47","250751","0.0-10.0-1.0-1.7","BBF5A87C7549473CBA51955F9AAB0BB1","BBF5A87C7549473CBA51955F9AAB0BB1","1b7dec7d-e218-4b8f-b98a-945530e7c314","a9f3d40c-5730-405c-b25e-1034c4c56f3f","{""num_scrambled_semantic"":""8"",""num_scrambled_causal"":""4"",""num_scrambled_schematic"":""4"",""participantId"":""BBF5A87C7549473CBA51955F9AAB0BB1"",""assignmentId"":""1b7dec7d-e218-4b8f-b98a-945530e7c314"",""projectId"":""a9f3d40c-5730-405c-b25e-1034c4c56f3f""}","https://test12345.live/?num_scrambled_semantic=8&num_scrambled_causal=4&num_scrambled_schematic=4&participantId=BBF5A87C7549473CBA51955F9AAB0BB1&assignmentId=1b7dec7d-e218-4b8f-b98a-945530e7c314&projectId=a9f3d40c-5730-405c-b25e-1034c4c56f3f","BBF5A87C7549473CBA51955F9AAB0BB1-2025-08-07-20-48-33","","3620","","images/causal_sequence/package_causal/package_causal_7.png","0","",""
"","","","","","image-button-response","48","252562","0.0-10.0-1.0-2.7","BBF5A87C7549473CBA51955F9AAB0BB1","BBF5A87C7549473CBA51955F9AAB0BB1","1b7dec7d-e218-4b8f-b98a-945530e7c314","a9f3d40c-5730-405c-b25e-1034c4c56f3f","{""num_scrambled_semantic"":""8"",""num_scrambled_causal"":""4"",""num_scrambled_schematic"":""4"",""participantId"":""BBF5A87C7549473CBA51955F9AAB0BB1"",""assignmentId"":""1b7dec7d-e218-4b8f-b98a-945530e7c314"",""projectId"":""a9f3d40c-5730-405c-b25e-1034c4c56f3f""}","https://test12345.live/?num_scrambled_semantic=8&num_scrambled_causal=4&num_scrambled_schematic=4&participantId=BBF5A87C7549473CBA51955F9AAB0BB1&assignmentId=1b7dec7d-e218-4b8f-b98a-945530e7c314&projectId=a9f3d40c-5730-405c-b25e-1034c4c56f3f","BBF5A87C7549473CBA51955F9AAB0BB1-2025-08-07-20-48-33","","null","","[]","null","",""
"","","","","","image-button-response","49","257069","0.0-10.0-1.0-0.8","BBF5A87C7549473CBA51955F9AAB0BB1","BBF5A87C7549473CBA51955F9AAB0BB1","1b7dec7d-e218-4b8f-b98a-945530e7c314","a9f3d40c-5730-405c-b25e-1034c4c56f3f","{""num_scrambled_semantic"":""8"",""num_scrambled_causal"":""4"",""num_scrambled_schematic"":""4"",""participantId"":""BBF5A87C7549473CBA51955F9AAB0BB1"",""assignmentId"":""1b7dec7d-e218-4b8f-b98a-945530e7c314"",""projectId"":""a9f3d40c-5730-405c-b25e-1034c4c56f3f""}","https://test12345.live/?num_scrambled_semantic=8&num_scrambled_causal=4&num_scrambled_schematic=4&participantId=BBF5A87C7549473CBA51955F9AAB0BB1&assignmentId=1b7dec7d-e218-4b8f-b98a-945530e7c314&projectId=a9f3d40c-5730-405c-b25e-1034c4c56f3f","BBF5A87C7549473CBA51955F9AAB0BB1-2025-08-07-20-48-33","","null","","images/causal_sequence/package_causal/package_causal_2.png","null","",""
"","","","","","image-button-response","50","261071","0.0-10.0-1.0-1.8","BBF5A87C7549473CBA51955F9AAB0BB1","BBF5A87C7549473CBA51955F9AAB0BB1","1b7dec7d-e218-4b8f-b98a-945530e7c314","a9f3d40c-5730-405c-b25e-1034c4c56f3f","{""num_scrambled_semantic"":""8"",""num_scrambled_causal"":""4"",""num_scrambled_schematic"":""4"",""participantId"":""BBF5A87C7549473CBA51955F9AAB0BB1"",""assignmentId"":""1b7dec7d-e218-4b8f-b98a-945530e7c314"",""projectId"":""a9f3d40c-5730-405c-b25e-1034c4c56f3f""}","https://test12345.live/?num_scrambled_semantic=8&num_scrambled_causal=4&num_scrambled_schematic=4&participantId=BBF5A87C7549473CBA51955F9AAB0BB1&assignmentId=1b7dec7d-e218-4b8f-b98a-945530e7c314&projectId=a9f3d40c-5730-405c-b25e-1034c4c56f3f","BBF5A87C7549473CBA51955F9AAB0BB1-2025-08-07-20-48-33","","null","","images/causal_sequence/package_causal/package_causal_2.png","null","",""
"","","","","","image-button-response","51","262885","0.0-10.0-1.0-2.8","BBF5A87C7549473CBA51955F9AAB0BB1","BBF5A87C7549473CBA51955F9AAB0BB1","1b7dec7d-e218-4b8f-b98a-945530e7c314","a9f3d40c-5730-405c-b25e-1034c4c56f3f","{""num_scrambled_semantic"":""8"",""num_scrambled_causal"":""4"",""num_scrambled_schematic"":""4"",""participantId"":""BBF5A87C7549473CBA51955F9AAB0BB1"",""assignmentId"":""1b7dec7d-e218-4b8f-b98a-945530e7c314"",""projectId"":""a9f3d40c-5730-405c-b25e-1034c4c56f3f""}","https://test12345.live/?num_scrambled_semantic=8&num_scrambled_causal=4&num_scrambled_schematic=4&participantId=BBF5A87C7549473CBA51955F9AAB0BB1&assignmentId=1b7dec7d-e218-4b8f-b98a-945530e7c314&projectId=a9f3d40c-5730-405c-b25e-1034c4c56f3f","BBF5A87C7549473CBA51955F9AAB0BB1-2025-08-07-20-48-33","","null","","[]","null","",""
"","","","","","image-button-response","52","267388","0.0-10.0-1.0-0.9","BBF5A87C7549473CBA51955F9AAB0BB1","BBF5A87C7549473CBA51955F9AAB0BB1","1b7dec7d-e218-4b8f-b98a-945530e7c314","a9f3d40c-5730-405c-b25e-1034c4c56f3f","{""num_scrambled_semantic"":""8"",""num_scrambled_causal"":""4"",""num_scrambled_schematic"":""4"",""participantId"":""BBF5A87C7549473CBA51955F9AAB0BB1"",""assignmentId"":""1b7dec7d-e218-4b8f-b98a-945530e7c314"",""projectId"":""a9f3d40c-5730-405c-b25e-1034c4c56f3f""}","https://test12345.live/?num_scrambled_semantic=8&num_scrambled_causal=4&num_scrambled_schematic=4&participantId=BBF5A87C7549473CBA51955F9AAB0BB1&assignmentId=1b7dec7d-e218-4b8f-b98a-945530e7c314&projectId=a9f3d40c-5730-405c-b25e-1034c4c56f3f","BBF5A87C7549473CBA51955F9AAB0BB1-2025-08-07-20-48-33","","null","","images/causal_sequence/package_causal/package_causal_8.png","null","",""
"","","","","","image-button-response","53","271398","0.0-10.0-1.0-1.9","BBF5A87C7549473CBA51955F9AAB0BB1","BBF5A87C7549473CBA51955F9AAB0BB1","1b7dec7d-e218-4b8f-b98a-945530e7c314","a9f3d40c-5730-405c-b25e-1034c4c56f3f","{""num_scrambled_semantic"":""8"",""num_scrambled_causal"":""4"",""num_scrambled_schematic"":""4"",""participantId"":""BBF5A87C7549473CBA51955F9AAB0BB1"",""assignmentId"":""1b7dec7d-e218-4b8f-b98a-945530e7c314"",""projectId"":""a9f3d40c-5730-405c-b25e-1034c4c56f3f""}","https://test12345.live/?num_scrambled_semantic=8&num_scrambled_causal=4&num_scrambled_schematic=4&participantId=BBF5A87C7549473CBA51955F9AAB0BB1&assignmentId=1b7dec7d-e218-4b8f-b98a-945530e7c314&projectId=a9f3d40c-5730-405c-b25e-1034c4c56f3f","BBF5A87C7549473CBA51955F9AAB0BB1-2025-08-07-20-48-33","","null","","images/causal_sequence/package_causal/package_causal_8.png","null","",""
"","","","","","image-button-response","54","273202","0.0-10.0-1.0-2.9","BBF5A87C7549473CBA51955F9AAB0BB1","BBF5A87C7549473CBA51955F9AAB0BB1","1b7dec7d-e218-4b8f-b98a-945530e7c314","a9f3d40c-5730-405c-b25e-1034c4c56f3f","{""num_scrambled_semantic"":""8"",""num_scrambled_causal"":""4"",""num_scrambled_schematic"":""4"",""participantId"":""BBF5A87C7549473CBA51955F9AAB0BB1"",""assignmentId"":""1b7dec7d-e218-4b8f-b98a-945530e7c314"",""projectId"":""a9f3d40c-5730-405c-b25e-1034c4c56f3f""}","https://test12345.live/?num_scrambled_semantic=8&num_scrambled_causal=4&num_scrambled_schematic=4&participantId=BBF5A87C7549473CBA51955F9AAB0BB1&assignmentId=1b7dec7d-e218-4b8f-b98a-945530e7c314&projectId=a9f3d40c-5730-405c-b25e-1034c4c56f3f","BBF5A87C7549473CBA51955F9AAB0BB1-2025-08-07-20-48-33","","null","","[]","null","",""
"","","","","","html-audio-response","55","278142","0.0-11.0","BBF5A87C7549473CBA51955F9AAB0BB1","BBF5A87C7549473CBA51955F9AAB0BB1","1b7dec7d-e218-4b8f-b98a-945530e7c314","a9f3d40c-5730-405c-b25e-1034c4c56f3f","{""num_scrambled_semantic"":""8"",""num_scrambled_causal"":""4"",""num_scrambled_schematic"":""4"",""participantId"":""BBF5A87C7549473CBA51955F9AAB0BB1"",""assignmentId"":""1b7dec7d-e218-4b8f-b98a-945530e7c314"",""projectId"":""a9f3d40c-5730-405c-b25e-1034c4c56f3f""}","https://test12345.live/?num_scrambled_semantic=8&num_scrambled_causal=4&num_scrambled_schematic=4&participantId=BBF5A87C7549473CBA51955F9AAB0BB1&assignmentId=1b7dec7d-e218-4b8f-b98a-945530e7c314&projectId=a9f3d40c-5730-405c-b25e-1034c4c56f3f","BBF5A87C7549473CBA51955F9AAB0BB1-2025-08-07-20-48-33","","3102","","[""<span style=\""color: red; font-size: 24px\""> NOW RECORDING</span><p>Please say out loud all the images you saw, as many as you can remember. The images can be said in any order.</p>""]","","1","package_causal"
"","","","","","image-button-response","56","284612","0.0-12.0-0.0","BBF5A87C7549473CBA51955F9AAB0BB1","BBF5A87C7549473CBA51955F9AAB0BB1","1b7dec7d-e218-4b8f-b98a-945530e7c314","a9f3d40c-5730-405c-b25e-1034c4c56f3f","{""num_scrambled_semantic"":""8"",""num_scrambled_causal"":""4"",""num_scrambled_schematic"":""4"",""participantId"":""BBF5A87C7549473CBA51955F9AAB0BB1"",""assignmentId"":""1b7dec7d-e218-4b8f-b98a-945530e7c314"",""projectId"":""a9f3d40c-5730-405c-b25e-1034c4c56f3f""}","https://test12345.live/?num_scrambled_semantic=8&num_scrambled_causal=4&num_scrambled_schematic=4&participantId=BBF5A87C7549473CBA51955F9AAB0BB1&assignmentId=1b7dec7d-e218-4b8f-b98a-945530e7c314&projectId=a9f3d40c-5730-405c-b25e-1034c4c56f3f","BBF5A87C7549473CBA51955F9AAB0BB1-2025-08-07-20-48-33","","null","","images/semantic_sequence/using_technology_semantic/using_technology_semantic_0.png","null","",""
"","","","","","image-button-response","57","289607","0.0-12.0-1.0-0.0","BBF5A87C7549473CBA51955F9AAB0BB1","BBF5A87C7549473CBA51955F9AAB0BB1","1b7dec7d-e218-4b8f-b98a-945530e7c314","a9f3d40c-5730-405c-b25e-1034c4c56f3f","{""num_scrambled_semantic"":""8"",""num_scrambled_causal"":""4"",""num_scrambled_schematic"":""4"",""participantId"":""BBF5A87C7549473CBA51955F9AAB0BB1"",""assignmentId"":""1b7dec7d-e218-4b8f-b98a-945530e7c314"",""projectId"":""a9f3d40c-5730-405c-b25e-1034c4c56f3f""}","https://test12345.live/?num_scrambled_semantic=8&num_scrambled_causal=4&num_scrambled_schematic=4&participantId=BBF5A87C7549473CBA51955F9AAB0BB1&assignmentId=1b7dec7d-e218-4b8f-b98a-945530e7c314&projectId=a9f3d40c-5730-405c-b25e-1034c4c56f3f","BBF5A87C7549473CBA51955F9AAB0BB1-2025-08-07-20-48-33","","null","","images/semantic_sequence/using_technology_semantic/using_technology_semantic_ten.png","null","",""
"","","","","","image-button-response","58","294622","0.0-12.0-1.0-1.0","BBF5A87C7549473CBA51955F9AAB0BB1","BBF5A87C7549473CBA51955F9AAB0BB1","1b7dec7d-e218-4b8f-b98a-945530e7c314","a9f3d40c-5730-405c-b25e-1034c4c56f3f","{""num_scrambled_semantic"":""8"",""num_scrambled_causal"":""4"",""num_scrambled_schematic"":""4"",""participantId"":""BBF5A87C7549473CBA51955F9AAB0BB1"",""assignmentId"":""1b7dec7d-e218-4b8f-b98a-945530e7c314"",""projectId"":""a9f3d40c-5730-405c-b25e-1034c4c56f3f""}","https://test12345.live/?num_scrambled_semantic=8&num_scrambled_causal=4&num_scrambled_schematic=4&participantId=BBF5A87C7549473CBA51955F9AAB0BB1&assignmentId=1b7dec7d-e218-4b8f-b98a-945530e7c314&projectId=a9f3d40c-5730-405c-b25e-1034c4c56f3f","BBF5A87C7549473CBA51955F9AAB0BB1-2025-08-07-20-48-33","","null","","images/semantic_sequence/using_technology_semantic/using_technology_semantic_ten.png","null","",""
"","","","","","image-button-response","59","296610","0.0-12.0-1.0-2.0","BBF5A87C7549473CBA51955F9AAB0BB1","BBF5A87C7549473CBA51955F9AAB0BB1","1b7dec7d-e218-4b8f-b98a-945530e7c314","a9f3d40c-5730-405c-b25e-1034c4c56f3f","{""num_scrambled_semantic"":""8"",""num_scrambled_causal"":""4"",""num_scrambled_schematic"":""4"",""participantId"":""BBF5A87C7549473CBA51955F9AAB0BB1"",""assignmentId"":""1b7dec7d-e218-4b8f-b98a-945530e7c314"",""projectId"":""a9f3d40c-5730-405c-b25e-1034c4c56f3f""}","https://test12345.live/?num_scrambled_semantic=8&num_scrambled_causal=4&num_scrambled_schematic=4&participantId=BBF5A87C7549473CBA51955F9AAB0BB1&assignmentId=1b7dec7d-e218-4b8f-b98a-945530e7c314&projectId=a9f3d40c-5730-405c-b25e-1034c4c56f3f","BBF5A87C7549473CBA51955F9AAB0BB1-2025-08-07-20-48-33","","null","","[]","null","",""
"","","","","","image-button-response","60","301612","0.0-12.0-1.0-0.1","BBF5A87C7549473CBA51955F9AAB0BB1","BBF5A87C7549473CBA51955F9AAB0BB1","1b7dec7d-e218-4b8f-b98a-945530e7c314","a9f3d40c-5730-405c-b25e-1034c4c56f3f","{""num_scrambled_semantic"":""8"",""num_scrambled_causal"":""4"",""num_scrambled_schematic"":""4"",""participantId"":""BBF5A87C7549473CBA51955F9AAB0BB1"",""assignmentId"":""1b7dec7d-e218-4b8f-b98a-945530e7c314"",""projectId"":""a9f3d40c-5730-405c-b25e-1034c4c56f3f""}","https://test12345.live/?num_scrambled_semantic=8&num_scrambled_causal=4&num_scrambled_schematic=4&participantId=BBF5A87C7549473CBA51955F9AAB0BB1&assignmentId=1b7dec7d-e218-4b8f-b98a-945530e7c314&projectId=a9f3d40c-5730-405c-b25e-1034c4c56f3f","BBF5A87C7549473CBA51955F9AAB0BB1-2025-08-07-20-48-33","","null","","images/semantic_sequence/using_technology_semantic/using_technology_semantic_3.png","null","",""
"","","","","","image-button-response","61","306619","0.0-12.0-1.0-1.1","BBF5A87C7549473CBA51955F9AAB0BB1","BBF5A87C7549473CBA51955F9AAB0BB1","1b7dec7d-e218-4b8f-b98a-945530e7c314","a9f3d40c-5730-405c-b25e-1034c4c56f3f","{""num_scrambled_semantic"":""8"",""num_scrambled_causal"":""4"",""num_scrambled_schematic"":""4"",""participantId"":""BBF5A87C7549473CBA51955F9AAB0BB1"",""assignmentId"":""1b7dec7d-e218-4b8f-b98a-945530e7c314"",""projectId"":""a9f3d40c-5730-405c-b25e-1034c4c56f3f""}","https://test12345.live/?num_scrambled_semantic=8&num_scrambled_causal=4&num_scrambled_schematic=4&participantId=BBF5A87C7549473CBA51955F9AAB0BB1&assignmentId=1b7dec7d-e218-4b8f-b98a-945530e7c314&projectId=a9f3d40c-5730-405c-b25e-1034c4c56f3f","BBF5A87C7549473CBA51955F9AAB0BB1-2025-08-07-20-48-33","","null","","images/semantic_sequence/using_technology_semantic/using_technology_semantic_3.png","null","",""
"","","","","","image-button-response","62","308615","0.0-12.0-1.0-2.1","BBF5A87C7549473CBA51955F9AAB0BB1","BBF5A87C7549473CBA51955F9AAB0BB1","1b7dec7d-e218-4b8f-b98a-945530e7c314","a9f3d40c-5730-405c-b25e-1034c4c56f3f","{""num_scrambled_semantic"":""8"",""num_scrambled_causal"":""4"",""num_scrambled_schematic"":""4"",""participantId"":""BBF5A87C7549473CBA51955F9AAB0BB1"",""assignmentId"":""1b7dec7d-e218-4b8f-b98a-945530e7c314"",""projectId"":""a9f3d40c-5730-405c-b25e-1034c4c56f3f""}","https://test12345.live/?num_scrambled_semantic=8&num_scrambled_causal=4&num_scrambled_schematic=4&participantId=BBF5A87C7549473CBA51955F9AAB0BB1&assignmentId=1b7dec7d-e218-4b8f-b98a-945530e7c314&projectId=a9f3d40c-5730-405c-b25e-1034c4c56f3f","BBF5A87C7549473CBA51955F9AAB0BB1-2025-08-07-20-48-33","","null","","[]","null","",""
"","","","","","image-button-response","63","313616","0.0-12.0-1.0-0.2","BBF5A87C7549473CBA51955F9AAB0BB1","BBF5A87C7549473CBA51955F9AAB0BB1","1b7dec7d-e218-4b8f-b98a-945530e7c314","a9f3d40c-5730-405c-b25e-1034c4c56f3f","{""num_scrambled_semantic"":""8"",""num_scrambled_causal"":""4"",""num_scrambled_schematic"":""4"",""participantId"":""BBF5A87C7549473CBA51955F9AAB0BB1"",""assignmentId"":""1b7dec7d-e218-4b8f-b98a-945530e7c314"",""projectId"":""a9f3d40c-5730-405c-b25e-1034c4c56f3f""}","https://test12345.live/?num_scrambled_semantic=8&num_scrambled_causal=4&num_scrambled_schematic=4&participantId=BBF5A87C7549473CBA51955F9AAB0BB1&assignmentId=1b7dec7d-e218-4b8f-b98a-945530e7c314&projectId=a9f3d40c-5730-405c-b25e-1034c4c56f3f","BBF5A87C7549473CBA51955F9AAB0BB1-2025-08-07-20-48-33","","null","","images/semantic_sequence/using_technology_semantic/using_technology_semantic_5.png","null","",""
"","","","","","image-button-response","64","317618","0.0-12.0-1.0-1.2","BBF5A87C7549473CBA51955F9AAB0BB1","BBF5A87C7549473CBA51955F9AAB0BB1","1b7dec7d-e218-4b8f-b98a-945530e7c314","a9f3d40c-5730-405c-b25e-1034c4c56f3f","{""num_scrambled_semantic"":""8"",""num_scrambled_causal"":""4"",""num_scrambled_schematic"":""4"",""participantId"":""BBF5A87C7549473CBA51955F9AAB0BB1"",""assignmentId"":""1b7dec7d-e218-4b8f-b98a-945530e7c314"",""projectId"":""a9f3d40c-5730-405c-b25e-1034c4c56f3f""}","https://test12345.live/?num_scrambled_semantic=8&num_scrambled_causal=4&num_scrambled_schematic=4&participantId=BBF5A87C7549473CBA51955F9AAB0BB1&assignmentId=1b7dec7d-e218-4b8f-b98a-945530e7c314&projectId=a9f3d40c-5730-405c-b25e-1034c4c56f3f","BBF5A87C7549473CBA51955F9AAB0BB1-2025-08-07-20-48-33","","null","","images/semantic_sequence/using_technology_semantic/using_technology_semantic_5.png","null","",""
"","","","","","image-button-response","65","319428","0.0-12.0-1.0-2.2","BBF5A87C7549473CBA51955F9AAB0BB1","BBF5A87C7549473CBA51955F9AAB0BB1","1b7dec7d-e218-4b8f-b98a-945530e7c314","a9f3d40c-5730-405c-b25e-1034c4c56f3f","{""num_scrambled_semantic"":""8"",""num_scrambled_causal"":""4"",""num_scrambled_schematic"":""4"",""participantId"":""BBF5A87C7549473CBA51955F9AAB0BB1"",""assignmentId"":""1b7dec7d-e218-4b8f-b98a-945530e7c314"",""projectId"":""a9f3d40c-5730-405c-b25e-1034c4c56f3f""}","https://test12345.live/?num_scrambled_semantic=8&num_scrambled_causal=4&num_scrambled_schematic=4&participantId=BBF5A87C7549473CBA51955F9AAB0BB1&assignmentId=1b7dec7d-e218-4b8f-b98a-945530e7c314&projectId=a9f3d40c-5730-405c-b25e-1034c4c56f3f","BBF5A87C7549473CBA51955F9AAB0BB1-2025-08-07-20-48-33","","null","","[]","null","",""
"","","","","","image-button-response","66","323937","0.0-12.0-1.0-0.3","BBF5A87C7549473CBA51955F9AAB0BB1","BBF5A87C7549473CBA51955F9AAB0BB1","1b7dec7d-e218-4b8f-b98a-945530e7c314","a9f3d40c-5730-405c-b25e-1034c4c56f3f","{""num_scrambled_semantic"":""8"",""num_scrambled_causal"":""4"",""num_scrambled_schematic"":""4"",""participantId"":""BBF5A87C7549473CBA51955F9AAB0BB1"",""assignmentId"":""1b7dec7d-e218-4b8f-b98a-945530e7c314"",""projectId"":""a9f3d40c-5730-405c-b25e-1034c4c56f3f""}","https://test12345.live/?num_scrambled_semantic=8&num_scrambled_causal=4&num_scrambled_schematic=4&participantId=BBF5A87C7549473CBA51955F9AAB0BB1&assignmentId=1b7dec7d-e218-4b8f-b98a-945530e7c314&projectId=a9f3d40c-5730-405c-b25e-1034c4c56f3f","BBF5A87C7549473CBA51955F9AAB0BB1-2025-08-07-20-48-33","","null","","images/semantic_sequence/using_technology_semantic/using_technology_semantic_1.png","null","",""
"","","","","","image-button-response","67","328621","0.0-12.0-1.0-1.3","BBF5A87C7549473CBA51955F9AAB0BB1","BBF5A87C7549473CBA51955F9AAB0BB1","1b7dec7d-e218-4b8f-b98a-945530e7c314","a9f3d40c-5730-405c-b25e-1034c4c56f3f","{""num_scrambled_semantic"":""8"",""num_scrambled_causal"":""4"",""num_scrambled_schematic"":""4"",""participantId"":""BBF5A87C7549473CBA51955F9AAB0BB1"",""assignmentId"":""1b7dec7d-e218-4b8f-b98a-945530e7c314"",""projectId"":""a9f3d40c-5730-405c-b25e-1034c4c56f3f""}","https://test12345.live/?num_scrambled_semantic=8&num_scrambled_causal=4&num_scrambled_schematic=4&participantId=BBF5A87C7549473CBA51955F9AAB0BB1&assignmentId=1b7dec7d-e218-4b8f-b98a-945530e7c314&projectId=a9f3d40c-5730-405c-b25e-1034c4c56f3f","BBF5A87C7549473CBA51955F9AAB0BB1-2025-08-07-20-48-33","","null","","images/semantic_sequence/using_technology_semantic/using_technology_semantic_1.png","null","",""
"","","","","","image-button-response","68","330422","0.0-12.0-1.0-2.3","BBF5A87C7549473CBA51955F9AAB0BB1","BBF5A87C7549473CBA51955F9AAB0BB1","1b7dec7d-e218-4b8f-b98a-945530e7c314","a9f3d40c-5730-405c-b25e-1034c4c56f3f","{""num_scrambled_semantic"":""8"",""num_scrambled_causal"":""4"",""num_scrambled_schematic"":""4"",""participantId"":""BBF5A87C7549473CBA51955F9AAB0BB1"",""assignmentId"":""1b7dec7d-e218-4b8f-b98a-945530e7c314"",""projectId"":""a9f3d40c-5730-405c-b25e-1034c4c56f3f""}","https://test12345.live/?num_scrambled_semantic=8&num_scrambled_causal=4&num_scrambled_schematic=4&participantId=BBF5A87C7549473CBA51955F9AAB0BB1&assignmentId=1b7dec7d-e218-4b8f-b98a-945530e7c314&projectId=a9f3d40c-5730-405c-b25e-1034c4c56f3f","BBF5A87C7549473CBA51955F9AAB0BB1-2025-08-07-20-48-33","","null","","[]","null","",""
"","","","","","image-button-response","69","335614","0.0-12.0-1.0-0.4","BBF5A87C7549473CBA51955F9AAB0BB1","BBF5A87C7549473CBA51955F9AAB0BB1","1b7dec7d-e218-4b8f-b98a-945530e7c314","a9f3d40c-5730-405c-b25e-1034c4c56f3f","{""num_scrambled_semantic"":""8"",""num_scrambled_causal"":""4"",""num_scrambled_schematic"":""4"",""participantId"":""BBF5A87C7549473CBA51955F9AAB0BB1"",""assignmentId"":""1b7dec7d-e218-4b8f-b98a-945530e7c314"",""projectId"":""a9f3d40c-5730-405c-b25e-1034c4c56f3f""}","https://test12345.live/?num_scrambled_semantic=8&num_scrambled_causal=4&num_scrambled_schematic=4&participantId=BBF5A87C7549473CBA51955F9AAB0BB1&assignmentId=1b7dec7d-e218-4b8f-b98a-945530e7c314&projectId=a9f3d40c-5730-405c-b25e-1034c4c56f3f","BBF5A87C7549473CBA51955F9AAB0BB1-2025-08-07-20-48-33","","null","","images/semantic_sequence/using_technology_semantic/using_technology_semantic_2.png","null","",""
"","","","","","image-button-response","70","340617","0.0-12.0-1.0-1.4","BBF5A87C7549473CBA51955F9AAB0BB1","BBF5A87C7549473CBA51955F9AAB0BB1","1b7dec7d-e218-4b8f-b98a-945530e7c314","a9f3d40c-5730-405c-b25e-1034c4c56f3f","{""num_scrambled_semantic"":""8"",""num_scrambled_causal"":""4"",""num_scrambled_schematic"":""4"",""participantId"":""BBF5A87C7549473CBA51955F9AAB0BB1"",""assignmentId"":""1b7dec7d-e218-4b8f-b98a-945530e7c314"",""projectId"":""a9f3d40c-5730-405c-b25e-1034c4c56f3f""}","https://test12345.live/?num_scrambled_semantic=8&num_scrambled_causal=4&num_scrambled_schematic=4&participantId=BBF5A87C7549473CBA51955F9AAB0BB1&assignmentId=1b7dec7d-e218-4b8f-b98a-945530e7c314&projectId=a9f3d40c-5730-405c-b25e-1034c4c56f3f","BBF5A87C7549473CBA51955F9AAB0BB1-2025-08-07-20-48-33","","null","","images/semantic_sequence/using_technology_semantic/using_technology_semantic_2.png","null","",""
"","","","","","image-button-response","71","342617","0.0-12.0-1.0-2.4","BBF5A87C7549473CBA51955F9AAB0BB1","BBF5A87C7549473CBA51955F9AAB0BB1","1b7dec7d-e218-4b8f-b98a-945530e7c314","a9f3d40c-5730-405c-b25e-1034c4c56f3f","{""num_scrambled_semantic"":""8"",""num_scrambled_causal"":""4"",""num_scrambled_schematic"":""4"",""participantId"":""BBF5A87C7549473CBA51955F9AAB0BB1"",""assignmentId"":""1b7dec7d-e218-4b8f-b98a-945530e7c314"",""projectId"":""a9f3d40c-5730-405c-b25e-1034c4c56f3f""}","https://test12345.live/?num_scrambled_semantic=8&num_scrambled_causal=4&num_scrambled_schematic=4&participantId=BBF5A87C7549473CBA51955F9AAB0BB1&assignmentId=1b7dec7d-e218-4b8f-b98a-945530e7c314&projectId=a9f3d40c-5730-405c-b25e-1034c4c56f3f","BBF5A87C7549473CBA51955F9AAB0BB1-2025-08-07-20-48-33","","null","","[]","null","",""
"","","","","","image-button-response","72","347618","0.0-12.0-1.0-0.5","BBF5A87C7549473CBA51955F9AAB0BB1","BBF5A87C7549473CBA51955F9AAB0BB1","1b7dec7d-e218-4b8f-b98a-945530e7c314","a9f3d40c-5730-405c-b25e-1034c4c56f3f","{""num_scrambled_semantic"":""8"",""num_scrambled_causal"":""4"",""num_scrambled_schematic"":""4"",""participantId"":""BBF5A87C7549473CBA51955F9AAB0BB1"",""assignmentId"":""1b7dec7d-e218-4b8f-b98a-945530e7c314"",""projectId"":""a9f3d40c-5730-405c-b25e-1034c4c56f3f""}","https://test12345.live/?num_scrambled_semantic=8&num_scrambled_causal=4&num_scrambled_schematic=4&participantId=BBF5A87C7549473CBA51955F9AAB0BB1&assignmentId=1b7dec7d-e218-4b8f-b98a-945530e7c314&projectId=a9f3d40c-5730-405c-b25e-1034c4c56f3f","BBF5A87C7549473CBA51955F9AAB0BB1-2025-08-07-20-48-33","","null","","images/semantic_sequence/using_technology_semantic/using_technology_semantic_4.png","null","",""
"","","","","","image-button-response","73","350032","0.0-12.0-1.0-1.5","BBF5A87C7549473CBA51955F9AAB0BB1","BBF5A87C7549473CBA51955F9AAB0BB1","1b7dec7d-e218-4b8f-b98a-945530e7c314","a9f3d40c-5730-405c-b25e-1034c4c56f3f","{""num_scrambled_semantic"":""8"",""num_scrambled_causal"":""4"",""num_scrambled_schematic"":""4"",""participantId"":""BBF5A87C7549473CBA51955F9AAB0BB1"",""assignmentId"":""1b7dec7d-e218-4b8f-b98a-945530e7c314"",""projectId"":""a9f3d40c-5730-405c-b25e-1034c4c56f3f""}","https://test12345.live/?num_scrambled_semantic=8&num_scrambled_causal=4&num_scrambled_schematic=4&participantId=BBF5A87C7549473CBA51955F9AAB0BB1&assignmentId=1b7dec7d-e218-4b8f-b98a-945530e7c314&projectId=a9f3d40c-5730-405c-b25e-1034c4c56f3f","BBF5A87C7549473CBA51955F9AAB0BB1-2025-08-07-20-48-33","","2412","","images/semantic_sequence/using_technology_semantic/using_technology_semantic_4.png","0","",""
"","","","","","image-button-response","74","351837","0.0-12.0-1.0-2.5","BBF5A87C7549473CBA51955F9AAB0BB1","BBF5A87C7549473CBA51955F9AAB0BB1","1b7dec7d-e218-4b8f-b98a-945530e7c314","a9f3d40c-5730-405c-b25e-1034c4c56f3f","{""num_scrambled_semantic"":""8"",""num_scrambled_causal"":""4"",""num_scrambled_schematic"":""4"",""participantId"":""BBF5A87C7549473CBA51955F9AAB0BB1"",""assignmentId"":""1b7dec7d-e218-4b8f-b98a-945530e7c314"",""projectId"":""a9f3d40c-5730-405c-b25e-1034c4c56f3f""}","https://test12345.live/?num_scrambled_semantic=8&num_scrambled_causal=4&num_scrambled_schematic=4&participantId=BBF5A87C7549473CBA51955F9AAB0BB1&assignmentId=1b7dec7d-e218-4b8f-b98a-945530e7c314&projectId=a9f3d40c-5730-405c-b25e-1034c4c56f3f","BBF5A87C7549473CBA51955F9AAB0BB1-2025-08-07-20-48-33","","null","","[]","null","",""
"","","","","","image-button-response","75","356345","0.0-12.0-1.0-0.6","BBF5A87C7549473CBA51955F9AAB0BB1","BBF5A87C7549473CBA51955F9AAB0BB1","1b7dec7d-e218-4b8f-b98a-945530e7c314","a9f3d40c-5730-405c-b25e-1034c4c56f3f","{""num_scrambled_semantic"":""8"",""num_scrambled_causal"":""4"",""num_scrambled_schematic"":""4"",""participantId"":""BBF5A87C7549473CBA51955F9AAB0BB1"",""assignmentId"":""1b7dec7d-e218-4b8f-b98a-945530e7c314"",""projectId"":""a9f3d40c-5730-405c-b25e-1034c4c56f3f""}","https://test12345.live/?num_scrambled_semantic=8&num_scrambled_causal=4&num_scrambled_schematic=4&participantId=BBF5A87C7549473CBA51955F9AAB0BB1&assignmentId=1b7dec7d-e218-4b8f-b98a-945530e7c314&projectId=a9f3d40c-5730-405c-b25e-1034c4c56f3f","BBF5A87C7549473CBA51955F9AAB0BB1-2025-08-07-20-48-33","","null","","images/semantic_sequence/using_technology_semantic/using_technology_semantic_6.png","null","",""
"","","","","","image-button-response","76","360357","0.0-12.0-1.0-1.6","BBF5A87C7549473CBA51955F9AAB0BB1","BBF5A87C7549473CBA51955F9AAB0BB1","1b7dec7d-e218-4b8f-b98a-945530e7c314","a9f3d40c-5730-405c-b25e-1034c4c56f3f","{""num_scrambled_semantic"":""8"",""num_scrambled_causal"":""4"",""num_scrambled_schematic"":""4"",""participantId"":""BBF5A87C7549473CBA51955F9AAB0BB1"",""assignmentId"":""1b7dec7d-e218-4b8f-b98a-945530e7c314"",""projectId"":""a9f3d40c-5730-405c-b25e-1034c4c56f3f""}","https://test12345.live/?num_scrambled_semantic=8&num_scrambled_causal=4&num_scrambled_schematic=4&participantId=BBF5A87C7549473CBA51955F9AAB0BB1&assignmentId=1b7dec7d-e218-4b8f-b98a-945530e7c314&projectId=a9f3d40c-5730-405c-b25e-1034c4c56f3f","BBF5A87C7549473CBA51955F9AAB0BB1-2025-08-07-20-48-33","","null","","images/semantic_sequence/using_technology_semantic/using_technology_semantic_6.png","null","",""
"","","","","","image-button-response","77","362169","0.0-12.0-1.0-2.6","BBF5A87C7549473CBA51955F9AAB0BB1","BBF5A87C7549473CBA51955F9AAB0BB1","1b7dec7d-e218-4b8f-b98a-945530e7c314","a9f3d40c-5730-405c-b25e-1034c4c56f3f","{""num_scrambled_semantic"":""8"",""num_scrambled_causal"":""4"",""num_scrambled_schematic"":""4"",""participantId"":""BBF5A87C7549473CBA51955F9AAB0BB1"",""assignmentId"":""1b7dec7d-e218-4b8f-b98a-945530e7c314"",""projectId"":""a9f3d40c-5730-405c-b25e-1034c4c56f3f""}","https://test12345.live/?num_scrambled_semantic=8&num_scrambled_causal=4&num_scrambled_schematic=4&participantId=BBF5A87C7549473CBA51955F9AAB0BB1&assignmentId=1b7dec7d-e218-4b8f-b98a-945530e7c314&projectId=a9f3d40c-5730-405c-b25e-1034c4c56f3f","BBF5A87C7549473CBA51955F9AAB0BB1-2025-08-07-20-48-33","","null","","[]","null","",""
"","","","","","image-button-response","78","366672","0.0-12.0-1.0-0.7","BBF5A87C7549473CBA51955F9AAB0BB1","BBF5A87C7549473CBA51955F9AAB0BB1","1b7dec7d-e218-4b8f-b98a-945530e7c314","a9f3d40c-5730-405c-b25e-1034c4c56f3f","{""num_scrambled_semantic"":""8"",""num_scrambled_causal"":""4"",""num_scrambled_schematic"":""4"",""participantId"":""BBF5A87C7549473CBA51955F9AAB0BB1"",""assignmentId"":""1b7dec7d-e218-4b8f-b98a-945530e7c314"",""projectId"":""a9f3d40c-5730-405c-b25e-1034c4c56f3f""}","https://test12345.live/?num_scrambled_semantic=8&num_scrambled_causal=4&num_scrambled_schematic=4&participantId=BBF5A87C7549473CBA51955F9AAB0BB1&assignmentId=1b7dec7d-e218-4b8f-b98a-945530e7c314&projectId=a9f3d40c-5730-405c-b25e-1034c4c56f3f","BBF5A87C7549473CBA51955F9AAB0BB1-2025-08-07-20-48-33","","null","","images/semantic_sequence/using_technology_semantic/using_technology_semantic_8.png","null","",""
"","","","","","image-button-response","79","369376","0.0-12.0-1.0-1.7","BBF5A87C7549473CBA51955F9AAB0BB1","BBF5A87C7549473CBA51955F9AAB0BB1","1b7dec7d-e218-4b8f-b98a-945530e7c314","a9f3d40c-5730-405c-b25e-1034c4c56f3f","{""num_scrambled_semantic"":""8"",""num_scrambled_causal"":""4"",""num_scrambled_schematic"":""4"",""participantId"":""BBF5A87C7549473CBA51955F9AAB0BB1"",""assignmentId"":""1b7dec7d-e218-4b8f-b98a-945530e7c314"",""projectId"":""a9f3d40c-5730-405c-b25e-1034c4c56f3f""}","https://test12345.live/?num_scrambled_semantic=8&num_scrambled_causal=4&num_scrambled_schematic=4&participantId=BBF5A87C7549473CBA51955F9AAB0BB1&assignmentId=1b7dec7d-e218-4b8f-b98a-945530e7c314&projectId=a9f3d40c-5730-405c-b25e-1034c4c56f3f","BBF5A87C7549473CBA51955F9AAB0BB1-2025-08-07-20-48-33","","2703","","images/semantic_sequence/using_technology_semantic/using_technology_semantic_8.png","0","",""
"","","","","","image-button-response","80","371190","0.0-12.0-1.0-2.7","BBF5A87C7549473CBA51955F9AAB0BB1","BBF5A87C7549473CBA51955F9AAB0BB1","1b7dec7d-e218-4b8f-b98a-945530e7c314","a9f3d40c-5730-405c-b25e-1034c4c56f3f","{""num_scrambled_semantic"":""8"",""num_scrambled_causal"":""4"",""num_scrambled_schematic"":""4"",""participantId"":""BBF5A87C7549473CBA51955F9AAB0BB1"",""assignmentId"":""1b7dec7d-e218-4b8f-b98a-945530e7c314"",""projectId"":""a9f3d40c-5730-405c-b25e-1034c4c56f3f""}","https://test12345.live/?num_scrambled_semantic=8&num_scrambled_causal=4&num_scrambled_schematic=4&participantId=BBF5A87C7549473CBA51955F9AAB0BB1&assignmentId=1b7dec7d-e218-4b8f-b98a-945530e7c314&projectId=a9f3d40c-5730-405c-b25e-1034c4c56f3f","BBF5A87C7549473CBA51955F9AAB0BB1-2025-08-07-20-48-33","","null","","[]","null","",""
"","","","","","image-button-response","81","376611","0.0-12.0-1.0-0.8","BBF5A87C7549473CBA51955F9AAB0BB1","BBF5A87C7549473CBA51955F9AAB0BB1","1b7dec7d-e218-4b8f-b98a-945530e7c314","a9f3d40c-5730-405c-b25e-1034c4c56f3f","{""num_scrambled_semantic"":""8"",""num_scrambled_causal"":""4"",""num_scrambled_schematic"":""4"",""participantId"":""BBF5A87C7549473CBA51955F9AAB0BB1"",""assignmentId"":""1b7dec7d-e218-4b8f-b98a-945530e7c314"",""projectId"":""a9f3d40c-5730-405c-b25e-1034c4c56f3f""}","https://test12345.live/?num_scrambled_semantic=8&num_scrambled_causal=4&num_scrambled_schematic=4&participantId=BBF5A87C7549473CBA51955F9AAB0BB1&assignmentId=1b7dec7d-e218-4b8f-b98a-945530e7c314&projectId=a9f3d40c-5730-405c-b25e-1034c4c56f3f","BBF5A87C7549473CBA51955F9AAB0BB1-2025-08-07-20-48-33","","null","","images/semantic_sequence/using_technology_semantic/using_technology_semantic_7.png","null","",""
"","","","","","image-button-response","82","381615","0.0-12.0-1.0-1.8","BBF5A87C7549473CBA51955F9AAB0BB1","BBF5A87C7549473CBA51955F9AAB0BB1","1b7dec7d-e218-4b8f-b98a-945530e7c314","a9f3d40c-5730-405c-b25e-1034c4c56f3f","{""num_scrambled_semantic"":""8"",""num_scrambled_causal"":""4"",""num_scrambled_schematic"":""4"",""participantId"":""BBF5A87C7549473CBA51955F9AAB0BB1"",""assignmentId"":""1b7dec7d-e218-4b8f-b98a-945530e7c314"",""projectId"":""a9f3d40c-5730-405c-b25e-1034c4c56f3f""}","https://test12345.live/?num_scrambled_semantic=8&num_scrambled_causal=4&num_scrambled_schematic=4&participantId=BBF5A87C7549473CBA51955F9AAB0BB1&assignmentId=1b7dec7d-e218-4b8f-b98a-945530e7c314&projectId=a9f3d40c-5730-405c-b25e-1034c4c56f3f","BBF5A87C7549473CBA51955F9AAB0BB1-2025-08-07-20-48-33","","null","","images/semantic_sequence/using_technology_semantic/using_technology_semantic_7.png","null","",""
"","","","","","image-button-response","83","383619","0.0-12.0-1.0-2.8","BBF5A87C7549473CBA51955F9AAB0BB1","BBF5A87C7549473CBA51955F9AAB0BB1","1b7dec7d-e218-4b8f-b98a-945530e7c314","a9f3d40c-5730-405c-b25e-1034c4c56f3f","{""num_scrambled_semantic"":""8"",""num_scrambled_causal"":""4"",""num_scrambled_schematic"":""4"",""participantId"":""BBF5A87C7549473CBA51955F9AAB0BB1"",""assignmentId"":""1b7dec7d-e218-4b8f-b98a-945530e7c314"",""projectId"":""a9f3d40c-5730-405c-b25e-1034c4c56f3f""}","https://test12345.live/?num_scrambled_semantic=8&num_scrambled_causal=4&num_scrambled_schematic=4&participantId=BBF5A87C7549473CBA51955F9AAB0BB1&assignmentId=1b7dec7d-e218-4b8f-b98a-945530e7c314&projectId=a9f3d40c-5730-405c-b25e-1034c4c56f3f","BBF5A87C7549473CBA51955F9AAB0BB1-2025-08-07-20-48-33","","null","","[]","null","",""
"","","","","","image-button-response","84","388613","0.0-12.0-1.0-0.9","BBF5A87C7549473CBA51955F9AAB0BB1","BBF5A87C7549473CBA51955F9AAB0BB1","1b7dec7d-e218-4b8f-b98a-945530e7c314","a9f3d40c-5730-405c-b25e-1034c4c56f3f","{""num_scrambled_semantic"":""8"",""num_scrambled_causal"":""4"",""num_scrambled_schematic"":""4"",""participantId"":""BBF5A87C7549473CBA51955F9AAB0BB1"",""assignmentId"":""1b7dec7d-e218-4b8f-b98a-945530e7c314"",""projectId"":""a9f3d40c-5730-405c-b25e-1034c4c56f3f""}","https://test12345.live/?num_scrambled_semantic=8&num_scrambled_causal=4&num_scrambled_schematic=4&participantId=BBF5A87C7549473CBA51955F9AAB0BB1&assignmentId=1b7dec7d-e218-4b8f-b98a-945530e7c314&projectId=a9f3d40c-5730-405c-b25e-1034c4c56f3f","BBF5A87C7549473CBA51955F9AAB0BB1-2025-08-07-20-48-33","","null","","images/semantic_sequence/using_technology_semantic/using_technology_semantic_9.png","null","",""
"","","","","","image-button-response","85","393615","0.0-12.0-1.0-1.9","BBF5A87C7549473CBA51955F9AAB0BB1","BBF5A87C7549473CBA51955F9AAB0BB1","1b7dec7d-e218-4b8f-b98a-945530e7c314","a9f3d40c-5730-405c-b25e-1034c4c56f3f","{""num_scrambled_semantic"":""8"",""num_scrambled_causal"":""4"",""num_scrambled_schematic"":""4"",""participantId"":""BBF5A87C7549473CBA51955F9AAB0BB1"",""assignmentId"":""1b7dec7d-e218-4b8f-b98a-945530e7c314"",""projectId"":""a9f3d40c-5730-405c-b25e-1034c4c56f3f""}","https://test12345.live/?num_scrambled_semantic=8&num_scrambled_causal=4&num_scrambled_schematic=4&participantId=BBF5A87C7549473CBA51955F9AAB0BB1&assignmentId=1b7dec7d-e218-4b8f-b98a-945530e7c314&projectId=a9f3d40c-5730-405c-b25e-1034c4c56f3f","BBF5A87C7549473CBA51955F9AAB0BB1-2025-08-07-20-48-33","","null","","images/semantic_sequence/using_technology_semantic/using_technology_semantic_9.png","null","",""
"","","","","","image-button-response","86","395614","0.0-12.0-1.0-2.9","BBF5A87C7549473CBA51955F9AAB0BB1","BBF5A87C7549473CBA51955F9AAB0BB1","1b7dec7d-e218-4b8f-b98a-945530e7c314","a9f3d40c-5730-405c-b25e-1034c4c56f3f","{""num_scrambled_semantic"":""8"",""num_scrambled_causal"":""4"",""num_scrambled_schematic"":""4"",""participantId"":""BBF5A87C7549473CBA51955F9AAB0BB1"",""assignmentId"":""1b7dec7d-e218-4b8f-b98a-945530e7c314"",""projectId"":""a9f3d40c-5730-405c-b25e-1034c4c56f3f""}","https://test12345.live/?num_scrambled_semantic=8&num_scrambled_causal=4&num_scrambled_schematic=4&participantId=BBF5A87C7549473CBA51955F9AAB0BB1&assignmentId=1b7dec7d-e218-4b8f-b98a-945530e7c314&projectId=a9f3d40c-5730-405c-b25e-1034c4c56f3f","BBF5A87C7549473CBA51955F9AAB0BB1-2025-08-07-20-48-33","","null","","[]","null","",""
"","","","","","html-audio-response","87","413224","0.0-13.0","BBF5A87C7549473CBA51955F9AAB0BB1","BBF5A87C7549473CBA51955F9AAB0BB1","1b7dec7d-e218-4b8f-b98a-945530e7c314","a9f3d40c-5730-405c-b25e-1034c4c56f3f","{""num_scrambled_semantic"":""8"",""num_scrambled_causal"":""4"",""num_scrambled_schematic"":""4"",""participantId"":""BBF5A87C7549473CBA51955F9AAB0BB1"",""assignmentId"":""1b7dec7d-e218-4b8f-b98a-945530e7c314"",""projectId"":""a9f3d40c-5730-405c-b25e-1034c4c56f3f""}","https://test12345.live/?num_scrambled_semantic=8&num_scrambled_causal=4&num_scrambled_schematic=4&participantId=BBF5A87C7549473CBA51955F9AAB0BB1&assignmentId=1b7dec7d-e218-4b8f-b98a-945530e7c314&projectId=a9f3d40c-5730-405c-b25e-1034c4c56f3f","BBF5A87C7549473CBA51955F9AAB0BB1-2025-08-07-20-48-33","","2955","","[""<span style=\""color: red; font-size: 24px\""> NOW RECORDING</span><p>Please say out loud all the images you saw, as many as you can remember. The images can be said in any order.</p>""]","","13494","using_technology_semantic"
"","","","","","image-button-response","88","419234","0.0-14.0-0.0","BBF5A87C7549473CBA51955F9AAB0BB1","BBF5A87C7549473CBA51955F9AAB0BB1","1b7dec7d-e218-4b8f-b98a-945530e7c314","a9f3d40c-5730-405c-b25e-1034c4c56f3f","{""num_scrambled_semantic"":""8"",""num_scrambled_causal"":""4"",""num_scrambled_schematic"":""4"",""participantId"":""BBF5A87C7549473CBA51955F9AAB0BB1"",""assignmentId"":""1b7dec7d-e218-4b8f-b98a-945530e7c314"",""projectId"":""a9f3d40c-5730-405c-b25e-1034c4c56f3f""}","https://test12345.live/?num_scrambled_semantic=8&num_scrambled_causal=4&num_scrambled_schematic=4&participantId=BBF5A87C7549473CBA51955F9AAB0BB1&assignmentId=1b7dec7d-e218-4b8f-b98a-945530e7c314&projectId=a9f3d40c-5730-405c-b25e-1034c4c56f3f","BBF5A87C7549473CBA51955F9AAB0BB1-2025-08-07-20-48-33","","null","","images/semantic_sequence/creative_activities_semantic/creative_activities_semantic_0.png","null","",""
"","","","","","image-button-response","89","423746","0.0-14.0-1.0-0.0","BBF5A87C7549473CBA51955F9AAB0BB1","BBF5A87C7549473CBA51955F9AAB0BB1","1b7dec7d-e218-4b8f-b98a-945530e7c314","a9f3d40c-5730-405c-b25e-1034c4c56f3f","{""num_scrambled_semantic"":""8"",""num_scrambled_causal"":""4"",""num_scrambled_schematic"":""4"",""participantId"":""BBF5A87C7549473CBA51955F9AAB0BB1"",""assignmentId"":""1b7dec7d-e218-4b8f-b98a-945530e7c314"",""projectId"":""a9f3d40c-5730-405c-b25e-1034c4c56f3f""}","https://test12345.live/?num_scrambled_semantic=8&num_scrambled_causal=4&num_scrambled_schematic=4&participantId=BBF5A87C7549473CBA51955F9AAB0BB1&assignmentId=1b7dec7d-e218-4b8f-b98a-945530e7c314&projectId=a9f3d40c-5730-405c-b25e-1034c4c56f3f","BBF5A87C7549473CBA51955F9AAB0BB1-2025-08-07-20-48-33","","null","","images/semantic_sequence/creative_activities_semantic/creative_activities_semantic_1.png","null","",""
"","","","","","image-button-response","90","427753","0.0-14.0-1.0-1.0","BBF5A87C7549473CBA51955F9AAB0BB1","BBF5A87C7549473CBA51955F9AAB0BB1","1b7dec7d-e218-4b8f-b98a-945530e7c314","a9f3d40c-5730-405c-b25e-1034c4c56f3f","{""num_scrambled_semantic"":""8"",""num_scrambled_causal"":""4"",""num_scrambled_schematic"":""4"",""participantId"":""BBF5A87C7549473CBA51955F9AAB0BB1"",""assignmentId"":""1b7dec7d-e218-4b8f-b98a-945530e7c314"",""projectId"":""a9f3d40c-5730-405c-b25e-1034c4c56f3f""}","https://test12345.live/?num_scrambled_semantic=8&num_scrambled_causal=4&num_scrambled_schematic=4&participantId=BBF5A87C7549473CBA51955F9AAB0BB1&assignmentId=1b7dec7d-e218-4b8f-b98a-945530e7c314&projectId=a9f3d40c-5730-405c-b25e-1034c4c56f3f","BBF5A87C7549473CBA51955F9AAB0BB1-2025-08-07-20-48-33","","null","","images/semantic_sequence/creative_activities_semantic/creative_activities_semantic_1.png","null","",""
"","","","","","image-button-response","91","429555","0.0-14.0-1.0-2.0","BBF5A87C7549473CBA51955F9AAB0BB1","BBF5A87C7549473CBA51955F9AAB0BB1","1b7dec7d-e218-4b8f-b98a-945530e7c314","a9f3d40c-5730-405c-b25e-1034c4c56f3f","{""num_scrambled_semantic"":""8"",""num_scrambled_causal"":""4"",""num_scrambled_schematic"":""4"",""participantId"":""BBF5A87C7549473CBA51955F9AAB0BB1"",""assignmentId"":""1b7dec7d-e218-4b8f-b98a-945530e7c314"",""projectId"":""a9f3d40c-5730-405c-b25e-1034c4c56f3f""}","https://test12345.live/?num_scrambled_semantic=8&num_scrambled_causal=4&num_scrambled_schematic=4&participantId=BBF5A87C7549473CBA51955F9AAB0BB1&assignmentId=1b7dec7d-e218-4b8f-b98a-945530e7c314&projectId=a9f3d40c-5730-405c-b25e-1034c4c56f3f","BBF5A87C7549473CBA51955F9AAB0BB1-2025-08-07-20-48-33","","null","","[]","null","",""
"","","","","","image-button-response","92","434057","0.0-14.0-1.0-0.1","BBF5A87C7549473CBA51955F9AAB0BB1","BBF5A87C7549473CBA51955F9AAB0BB1","1b7dec7d-e218-4b8f-b98a-945530e7c314","a9f3d40c-5730-405c-b25e-1034c4c56f3f","{""num_scrambled_semantic"":""8"",""num_scrambled_causal"":""4"",""num_scrambled_schematic"":""4"",""participantId"":""BBF5A87C7549473CBA51955F9AAB0BB1"",""assignmentId"":""1b7dec7d-e218-4b8f-b98a-945530e7c314"",""projectId"":""a9f3d40c-5730-405c-b25e-1034c4c56f3f""}","https://test12345.live/?num_scrambled_semantic=8&num_scrambled_causal=4&num_scrambled_schematic=4&participantId=BBF5A87C7549473CBA51955F9AAB0BB1&assignmentId=1b7dec7d-e218-4b8f-b98a-945530e7c314&projectId=a9f3d40c-5730-405c-b25e-1034c4c56f3f","BBF5A87C7549473CBA51955F9AAB0BB1-2025-08-07-20-48-33","","null","","images/semantic_sequence/creative_activities_semantic/creative_activities_semantic_ten.png","null","",""
"","","","","","image-button-response","93","438073","0.0-14.0-1.0-1.1","BBF5A87C7549473CBA51955F9AAB0BB1","BBF5A87C7549473CBA51955F9AAB0BB1","1b7dec7d-e218-4b8f-b98a-945530e7c314","a9f3d40c-5730-405c-b25e-1034c4c56f3f","{""num_scrambled_semantic"":""8"",""num_scrambled_causal"":""4"",""num_scrambled_schematic"":""4"",""participantId"":""BBF5A87C7549473CBA51955F9AAB0BB1"",""assignmentId"":""1b7dec7d-e218-4b8f-b98a-945530e7c314"",""projectId"":""a9f3d40c-5730-405c-b25e-1034c4c56f3f""}","https://test12345.live/?num_scrambled_semantic=8&num_scrambled_causal=4&num_scrambled_schematic=4&participantId=BBF5A87C7549473CBA51955F9AAB0BB1&assignmentId=1b7dec7d-e218-4b8f-b98a-945530e7c314&projectId=a9f3d40c-5730-405c-b25e-1034c4c56f3f","BBF5A87C7549473CBA51955F9AAB0BB1-2025-08-07-20-48-33","","null","","images/semantic_sequence/creative_activities_semantic/creative_activities_semantic_ten.png","null","",""
"","","","","","image-button-response","94","439885","0.0-14.0-1.0-2.1","BBF5A87C7549473CBA51955F9AAB0BB1","BBF5A87C7549473CBA51955F9AAB0BB1","1b7dec7d-e218-4b8f-b98a-945530e7c314","a9f3d40c-5730-405c-b25e-1034c4c56f3f","{""num_scrambled_semantic"":""8"",""num_scrambled_causal"":""4"",""num_scrambled_schematic"":""4"",""participantId"":""BBF5A87C7549473CBA51955F9AAB0BB1"",""assignmentId"":""1b7dec7d-e218-4b8f-b98a-945530e7c314"",""projectId"":""a9f3d40c-5730-405c-b25e-1034c4c56f3f""}","https://test12345.live/?num_scrambled_semantic=8&num_scrambled_causal=4&num_scrambled_schematic=4&participantId=BBF5A87C7549473CBA51955F9AAB0BB1&assignmentId=1b7dec7d-e218-4b8f-b98a-945530e7c314&projectId=a9f3d40c-5730-405c-b25e-1034c4c56f3f","BBF5A87C7549473CBA51955F9AAB0BB1-2025-08-07-20-48-33","","null","","[]","null","",""
"","","","","","image-button-response","95","444615","0.0-14.0-1.0-0.2","BBF5A87C7549473CBA51955F9AAB0BB1","BBF5A87C7549473CBA51955F9AAB0BB1","1b7dec7d-e218-4b8f-b98a-945530e7c314","a9f3d40c-5730-405c-b25e-1034c4c56f3f","{""num_scrambled_semantic"":""8"",""num_scrambled_causal"":""4"",""num_scrambled_schematic"":""4"",""participantId"":""BBF5A87C7549473CBA51955F9AAB0BB1"",""assignmentId"":""1b7dec7d-e218-4b8f-b98a-945530e7c314"",""projectId"":""a9f3d40c-5730-405c-b25e-1034c4c56f3f""}","https://test12345.live/?num_scrambled_semantic=8&num_scrambled_causal=4&num_scrambled_schematic=4&participantId=BBF5A87C7549473CBA51955F9AAB0BB1&assignmentId=1b7dec7d-e218-4b8f-b98a-945530e7c314&projectId=a9f3d40c-5730-405c-b25e-1034c4c56f3f","BBF5A87C7549473CBA51955F9AAB0BB1-2025-08-07-20-48-33","","null","","images/semantic_sequence/creative_activities_semantic/creative_activities_semantic_3.png","null","",""
"","","","","","image-button-response","96","449610","0.0-14.0-1.0-1.2","BBF5A87C7549473CBA51955F9AAB0BB1","BBF5A87C7549473CBA51955F9AAB0BB1","1b7dec7d-e218-4b8f-b98a-945530e7c314","a9f3d40c-5730-405c-b25e-1034c4c56f3f","{""num_scrambled_semantic"":""8"",""num_scrambled_causal"":""4"",""num_scrambled_schematic"":""4"",""participantId"":""BBF5A87C7549473CBA51955F9AAB0BB1"",""assignmentId"":""1b7dec7d-e218-4b8f-b98a-945530e7c314"",""projectId"":""a9f3d40c-5730-405c-b25e-1034c4c56f3f""}","https://test12345.live/?num_scrambled_semantic=8&num_scrambled_causal=4&num_scrambled_schematic=4&participantId=BBF5A87C7549473CBA51955F9AAB0BB1&assignmentId=1b7dec7d-e218-4b8f-b98a-945530e7c314&projectId=a9f3d40c-5730-405c-b25e-1034c4c56f3f","BBF5A87C7549473CBA51955F9AAB0BB1-2025-08-07-20-48-33","","null","","images/semantic_sequence/creative_activities_semantic/creative_activities_semantic_3.png","null","",""
"","","","","","image-button-response","97","451608","0.0-14.0-1.0-2.2","BBF5A87C7549473CBA51955F9AAB0BB1","BBF5A87C7549473CBA51955F9AAB0BB1","1b7dec7d-e218-4b8f-b98a-945530e7c314","a9f3d40c-5730-405c-b25e-1034c4c56f3f","{""num_scrambled_semantic"":""8"",""num_scrambled_causal"":""4"",""num_scrambled_schematic"":""4"",""participantId"":""BBF5A87C7549473CBA51955F9AAB0BB1"",""assignmentId"":""1b7dec7d-e218-4b8f-b98a-945530e7c314"",""projectId"":""a9f3d40c-5730-405c-b25e-1034c4c56f3f""}","https://test12345.live/?num_scrambled_semantic=8&num_scrambled_causal=4&num_scrambled_schematic=4&participantId=BBF5A87C7549473CBA51955F9AAB0BB1&assignmentId=1b7dec7d-e218-4b8f-b98a-945530e7c314&projectId=a9f3d40c-5730-405c-b25e-1034c4c56f3f","BBF5A87C7549473CBA51955F9AAB0BB1-2025-08-07-20-48-33","","null","","[]","null","",""
"","","","","","image-button-response","98","456621","0.0-14.0-1.0-0.3","BBF5A87C7549473CBA51955F9AAB0BB1","BBF5A87C7549473CBA51955F9AAB0BB1","1b7dec7d-e218-4b8f-b98a-945530e7c314","a9f3d40c-5730-405c-b25e-1034c4c56f3f","{""num_scrambled_semantic"":""8"",""num_scrambled_causal"":""4"",""num_scrambled_schematic"":""4"",""participantId"":""BBF5A87C7549473CBA51955F9AAB0BB1"",""assignmentId"":""1b7dec7d-e218-4b8f-b98a-945530e7c314"",""projectId"":""a9f3d40c-5730-405c-b25e-1034c4c56f3f""}","https://test12345.live/?num_scrambled_semantic=8&num_scrambled_causal=4&num_scrambled_schematic=4&participantId=BBF5A87C7549473CBA51955F9AAB0BB1&assignmentId=1b7dec7d-e218-4b8f-b98a-945530e7c314&projectId=a9f3d40c-5730-405c-b25e-1034c4c56f3f","BBF5A87C7549473CBA51955F9AAB0BB1-2025-08-07-20-48-33","","null","","images/semantic_sequence/creative_activities_semantic/creative_activities_semantic_6.png","null","",""
"","","","","","image-button-response","99","461615","0.0-14.0-1.0-1.3","BBF5A87C7549473CBA51955F9AAB0BB1","BBF5A87C7549473CBA51955F9AAB0BB1","1b7dec7d-e218-4b8f-b98a-945530e7c314","a9f3d40c-5730-405c-b25e-1034c4c56f3f","{""num_scrambled_semantic"":""8"",""num_scrambled_causal"":""4"",""num_scrambled_schematic"":""4"",""participantId"":""BBF5A87C7549473CBA51955F9AAB0BB1"",""assignmentId"":""1b7dec7d-e218-4b8f-b98a-945530e7c314"",""projectId"":""a9f3d40c-5730-405c-b25e-1034c4c56f3f""}","https://test12345.live/?num_scrambled_semantic=8&num_scrambled_causal=4&num_scrambled_schematic=4&participantId=BBF5A87C7549473CBA51955F9AAB0BB1&assignmentId=1b7dec7d-e218-4b8f-b98a-945530e7c314&projectId=a9f3d40c-5730-405c-b25e-1034c4c56f3f","BBF5A87C7549473CBA51955F9AAB0BB1-2025-08-07-20-48-33","","null","","images/semantic_sequence/creative_activities_semantic/creative_activities_semantic_6.png","null","",""
"","","","","","image-button-response","100","463610","0.0-14.0-1.0-2.3","BBF5A87C7549473CBA51955F9AAB0BB1","BBF5A87C7549473CBA51955F9AAB0BB1","1b7dec7d-e218-4b8f-b98a-945530e7c314","a9f3d40c-5730-405c-b25e-1034c4c56f3f","{""num_scrambled_semantic"":""8"",""num_scrambled_causal"":""4"",""num_scrambled_schematic"":""4"",""participantId"":""BBF5A87C7549473CBA51955F9AAB0BB1"",""assignmentId"":""1b7dec7d-e218-4b8f-b98a-945530e7c314"",""projectId"":""a9f3d40c-5730-405c-b25e-1034c4c56f3f""}","https://test12345.live/?num_scrambled_semantic=8&num_scrambled_causal=4&num_scrambled_schematic=4&participantId=BBF5A87C7549473CBA51955F9AAB0BB1&assignmentId=1b7dec7d-e218-4b8f-b98a-945530e7c314&projectId=a9f3d40c-5730-405c-b25e-1034c4c56f3f","BBF5A87C7549473CBA51955F9AAB0BB1-2025-08-07-20-48-33","","null","","[]","null","",""
"","","","","","image-button-response","101","468617","0.0-14.0-1.0-0.4","BBF5A87C7549473CBA51955F9AAB0BB1","BBF5A87C7549473CBA51955F9AAB0BB1","1b7dec7d-e218-4b8f-b98a-945530e7c314","a9f3d40c-5730-405c-b25e-1034c4c56f3f","{""num_scrambled_semantic"":""8"",""num_scrambled_causal"":""4"",""num_scrambled_schematic"":""4"",""participantId"":""BBF5A87C7549473CBA51955F9AAB0BB1"",""assignmentId"":""1b7dec7d-e218-4b8f-b98a-945530e7c314"",""projectId"":""a9f3d40c-5730-405c-b25e-1034c4c56f3f""}","https://test12345.live/?num_scrambled_semantic=8&num_scrambled_causal=4&num_scrambled_schematic=4&participantId=BBF5A87C7549473CBA51955F9AAB0BB1&assignmentId=1b7dec7d-e218-4b8f-b98a-945530e7c314&projectId=a9f3d40c-5730-405c-b25e-1034c4c56f3f","BBF5A87C7549473CBA51955F9AAB0BB1-2025-08-07-20-48-33","","null","","images/semantic_sequence/creative_activities_semantic/creative_activities_semantic_8.png","null","",""
"","","","","","image-button-response","102","472622","0.0-14.0-1.0-1.4","BBF5A87C7549473CBA51955F9AAB0BB1","BBF5A87C7549473CBA51955F9AAB0BB1","1b7dec7d-e218-4b8f-b98a-945530e7c314","a9f3d40c-5730-405c-b25e-1034c4c56f3f","{""num_scrambled_semantic"":""8"",""num_scrambled_causal"":""4"",""num_scrambled_schematic"":""4"",""participantId"":""BBF5A87C7549473CBA51955F9AAB0BB1"",""assignmentId"":""1b7dec7d-e218-4b8f-b98a-945530e7c314"",""projectId"":""a9f3d40c-5730-405c-b25e-1034c4c56f3f""}","https://test12345.live/?num_scrambled_semantic=8&num_scrambled_causal=4&num_scrambled_schematic=4&participantId=BBF5A87C7549473CBA51955F9AAB0BB1&assignmentId=1b7dec7d-e218-4b8f-b98a-945530e7c314&projectId=a9f3d40c-5730-405c-b25e-1034c4c56f3f","BBF5A87C7549473CBA51955F9AAB0BB1-2025-08-07-20-48-33","","null","","images/semantic_sequence/creative_activities_semantic/creative_activities_semantic_8.png","null","",""
"","","","","","image-button-response","103","474424","0.0-14.0-1.0-2.4","BBF5A87C7549473CBA51955F9AAB0BB1","BBF5A87C7549473CBA51955F9AAB0BB1","1b7dec7d-e218-4b8f-b98a-945530e7c314","a9f3d40c-5730-405c-b25e-1034c4c56f3f","{""num_scrambled_semantic"":""8"",""num_scrambled_causal"":""4"",""num_scrambled_schematic"":""4"",""participantId"":""BBF5A87C7549473CBA51955F9AAB0BB1"",""assignmentId"":""1b7dec7d-e218-4b8f-b98a-945530e7c314"",""projectId"":""a9f3d40c-5730-405c-b25e-1034c4c56f3f""}","https://test12345.live/?num_scrambled_semantic=8&num_scrambled_causal=4&num_scrambled_schematic=4&participantId=BBF5A87C7549473CBA51955F9AAB0BB1&assignmentId=1b7dec7d-e218-4b8f-b98a-945530e7c314&projectId=a9f3d40c-5730-405c-b25e-1034c4c56f3f","BBF5A87C7549473CBA51955F9AAB0BB1-2025-08-07-20-48-33","","null","","[]","null","",""
"","","","","","image-button-response","104","478930","0.0-14.0-1.0-0.5","BBF5A87C7549473CBA51955F9AAB0BB1","BBF5A87C7549473CBA51955F9AAB0BB1","1b7dec7d-e218-4b8f-b98a-945530e7c314","a9f3d40c-5730-405c-b25e-1034c4c56f3f","{""num_scrambled_semantic"":""8"",""num_scrambled_causal"":""4"",""num_scrambled_schematic"":""4"",""participantId"":""BBF5A87C7549473CBA51955F9AAB0BB1"",""assignmentId"":""1b7dec7d-e218-4b8f-b98a-945530e7c314"",""projectId"":""a9f3d40c-5730-405c-b25e-1034c4c56f3f""}","https://test12345.live/?num_scrambled_semantic=8&num_scrambled_causal=4&num_scrambled_schematic=4&participantId=BBF5A87C7549473CBA51955F9AAB0BB1&assignmentId=1b7dec7d-e218-4b8f-b98a-945530e7c314&projectId=a9f3d40c-5730-405c-b25e-1034c4c56f3f","BBF5A87C7549473CBA51955F9AAB0BB1-2025-08-07-20-48-33","","null","","images/semantic_sequence/creative_activities_semantic/creative_activities_semantic_5.png","null","",""
"","","","","","image-button-response","105","482604","0.0-14.0-1.0-1.5","BBF5A87C7549473CBA51955F9AAB0BB1","BBF5A87C7549473CBA51955F9AAB0BB1","1b7dec7d-e218-4b8f-b98a-945530e7c314","a9f3d40c-5730-405c-b25e-1034c4c56f3f","{""num_scrambled_semantic"":""8"",""num_scrambled_causal"":""4"",""num_scrambled_schematic"":""4"",""participantId"":""BBF5A87C7549473CBA51955F9AAB0BB1"",""assignmentId"":""1b7dec7d-e218-4b8f-b98a-945530e7c314"",""projectId"":""a9f3d40c-5730-405c-b25e-1034c4c56f3f""}","https://test12345.live/?num_scrambled_semantic=8&num_scrambled_causal=4&num_scrambled_schematic=4&participantId=BBF5A87C7549473CBA51955F9AAB0BB1&assignmentId=1b7dec7d-e218-4b8f-b98a-945530e7c314&projectId=a9f3d40c-5730-405c-b25e-1034c4c56f3f","BBF5A87C7549473CBA51955F9AAB0BB1-2025-08-07-20-48-33","","3672","","images/semantic_sequence/creative_activities_semantic/creative_activities_semantic_5.png","0","",""
"","","","","","image-button-response","106","484414","0.0-14.0-1.0-2.5","BBF5A87C7549473CBA51955F9AAB0BB1","BBF5A87C7549473CBA51955F9AAB0BB1","1b7dec7d-e218-4b8f-b98a-945530e7c314","a9f3d40c-5730-405c-b25e-1034c4c56f3f","{""num_scrambled_semantic"":""8"",""num_scrambled_causal"":""4"",""num_scrambled_schematic"":""4"",""participantId"":""BBF5A87C7549473CBA51955F9AAB0BB1"",""assignmentId"":""1b7dec7d-e218-4b8f-b98a-945530e7c314"",""projectId"":""a9f3d40c-5730-405c-b25e-1034c4c56f3f""}","https://test12345.live/?num_scrambled_semantic=8&num_scrambled_causal=4&num_scrambled_schematic=4&participantId=BBF5A87C7549473CBA51955F9AAB0BB1&assignmentId=1b7dec7d-e218-4b8f-b98a-945530e7c314&projectId=a9f3d40c-5730-405c-b25e-1034c4c56f3f","BBF5A87C7549473CBA51955F9AAB0BB1-2025-08-07-20-48-33","","null","","[]","null","",""
"","","","","","image-button-response","107","488930","0.0-14.0-1.0-0.6","BBF5A87C7549473CBA51955F9AAB0BB1","BBF5A87C7549473CBA51955F9AAB0BB1","1b7dec7d-e218-4b8f-b98a-945530e7c314","a9f3d40c-5730-405c-b25e-1034c4c56f3f","{""num_scrambled_semantic"":""8"",""num_scrambled_causal"":""4"",""num_scrambled_schematic"":""4"",""participantId"":""BBF5A87C7549473CBA51955F9AAB0BB1"",""assignmentId"":""1b7dec7d-e218-4b8f-b98a-945530e7c314"",""projectId"":""a9f3d40c-5730-405c-b25e-1034c4c56f3f""}","https://test12345.live/?num_scrambled_semantic=8&num_scrambled_causal=4&num_scrambled_schematic=4&participantId=BBF5A87C7549473CBA51955F9AAB0BB1&assignmentId=1b7dec7d-e218-4b8f-b98a-945530e7c314&projectId=a9f3d40c-5730-405c-b25e-1034c4c56f3f","BBF5A87C7549473CBA51955F9AAB0BB1-2025-08-07-20-48-33","","null","","images/semantic_sequence/creative_activities_semantic/creative_activities_semantic_7.png","null","",""
"","","","","","image-button-response","108","490050","0.0-14.0-1.0-1.6","BBF5A87C7549473CBA51955F9AAB0BB1","BBF5A87C7549473CBA51955F9AAB0BB1","1b7dec7d-e218-4b8f-b98a-945530e7c314","a9f3d40c-5730-405c-b25e-1034c4c56f3f","{""num_scrambled_semantic"":""8"",""num_scrambled_causal"":""4"",""num_scrambled_schematic"":""4"",""participantId"":""BBF5A87C7549473CBA51955F9AAB0BB1"",""assignmentId"":""1b7dec7d-e218-4b8f-b98a-945530e7c314"",""projectId"":""a9f3d40c-5730-405c-b25e-1034c4c56f3f""}","https://test12345.live/?num_scrambled_semantic=8&num_scrambled_causal=4&num_scrambled_schematic=4&participantId=BBF5A87C7549473CBA51955F9AAB0BB1&assignmentId=1b7dec7d-e218-4b8f-b98a-945530e7c314&projectId=a9f3d40c-5730-405c-b25e-1034c4c56f3f","BBF5A87C7549473CBA51955F9AAB0BB1-2025-08-07-20-48-33","","1118","","images/semantic_sequence/creative_activities_semantic/creative_activities_semantic_7.png","0","",""
"","","","","","image-button-response","109","491856","0.0-14.0-1.0-2.6","BBF5A87C7549473CBA51955F9AAB0BB1","BBF5A87C7549473CBA51955F9AAB0BB1","1b7dec7d-e218-4b8f-b98a-945530e7c314","a9f3d40c-5730-405c-b25e-1034c4c56f3f","{""num_scrambled_semantic"":""8"",""num_scrambled_causal"":""4"",""num_scrambled_schematic"":""4"",""participantId"":""BBF5A87C7549473CBA51955F9AAB0BB1"",""assignmentId"":""1b7dec7d-e218-4b8f-b98a-945530e7c314"",""projectId"":""a9f3d40c-5730-405c-b25e-1034c4c56f3f""}","https://test12345.live/?num_scrambled_semantic=8&num_scrambled_causal=4&num_scrambled_schematic=4&participantId=BBF5A87C7549473CBA51955F9AAB0BB1&assignmentId=1b7dec7d-e218-4b8f-b98a-945530e7c314&projectId=a9f3d40c-5730-405c-b25e-1034c4c56f3f","BBF5A87C7549473CBA51955F9AAB0BB1-2025-08-07-20-48-33","","null","","[]","null","",""
"","","","","","image-button-response","110","496360","0.0-14.0-1.0-0.7","BBF5A87C7549473CBA51955F9AAB0BB1","BBF5A87C7549473CBA51955F9AAB0BB1","1b7dec7d-e218-4b8f-b98a-945530e7c314","a9f3d40c-5730-405c-b25e-1034c4c56f3f","{""num_scrambled_semantic"":""8"",""num_scrambled_causal"":""4"",""num_scrambled_schematic"":""4"",""participantId"":""BBF5A87C7549473CBA51955F9AAB0BB1"",""assignmentId"":""1b7dec7d-e218-4b8f-b98a-945530e7c314"",""projectId"":""a9f3d40c-5730-405c-b25e-1034c4c56f3f""}","https://test12345.live/?num_scrambled_semantic=8&num_scrambled_causal=4&num_scrambled_schematic=4&participantId=BBF5A87C7549473CBA51955F9AAB0BB1&assignmentId=1b7dec7d-e218-4b8f-b98a-945530e7c314&projectId=a9f3d40c-5730-405c-b25e-1034c4c56f3f","BBF5A87C7549473CBA51955F9AAB0BB1-2025-08-07-20-48-33","","null","","images/semantic_sequence/creative_activities_semantic/creative_activities_semantic_9.png","null","",""
"","","","","","image-button-response","111","497223","0.0-14.0-1.0-1.7","BBF5A87C7549473CBA51955F9AAB0BB1","BBF5A87C7549473CBA51955F9AAB0BB1","1b7dec7d-e218-4b8f-b98a-945530e7c314","a9f3d40c-5730-405c-b25e-1034c4c56f3f","{""num_scrambled_semantic"":""8"",""num_scrambled_causal"":""4"",""num_scrambled_schematic"":""4"",""participantId"":""BBF5A87C7549473CBA51955F9AAB0BB1"",""assignmentId"":""1b7dec7d-e218-4b8f-b98a-945530e7c314"",""projectId"":""a9f3d40c-5730-405c-b25e-1034c4c56f3f""}","https://test12345.live/?num_scrambled_semantic=8&num_scrambled_causal=4&num_scrambled_schematic=4&participantId=BBF5A87C7549473CBA51955F9AAB0BB1&assignmentId=1b7dec7d-e218-4b8f-b98a-945530e7c314&projectId=a9f3d40c-5730-405c-b25e-1034c4c56f3f","BBF5A87C7549473CBA51955F9AAB0BB1-2025-08-07-20-48-33","","862","","images/semantic_sequence/creative_activities_semantic/creative_activities_semantic_9.png","0","",""
"","","","","","image-button-response","112","499026","0.0-14.0-1.0-2.7","BBF5A87C7549473CBA51955F9AAB0BB1","BBF5A87C7549473CBA51955F9AAB0BB1","1b7dec7d-e218-4b8f-b98a-945530e7c314","a9f3d40c-5730-405c-b25e-1034c4c56f3f","{""num_scrambled_semantic"":""8"",""num_scrambled_causal"":""4"",""num_scrambled_schematic"":""4"",""participantId"":""BBF5A87C7549473CBA51955F9AAB0BB1"",""assignmentId"":""1b7dec7d-e218-4b8f-b98a-945530e7c314"",""projectId"":""a9f3d40c-5730-405c-b25e-1034c4c56f3f""}","https://test12345.live/?num_scrambled_semantic=8&num_scrambled_causal=4&num_scrambled_schematic=4&participantId=BBF5A87C7549473CBA51955F9AAB0BB1&assignmentId=1b7dec7d-e218-4b8f-b98a-945530e7c314&projectId=a9f3d40c-5730-405c-b25e-1034c4c56f3f","BBF5A87C7549473CBA51955F9AAB0BB1-2025-08-07-20-48-33","","null","","[]","null","",""
"","","","","","image-button-response","113","503538","0.0-14.0-1.0-0.8","BBF5A87C7549473CBA51955F9AAB0BB1","BBF5A87C7549473CBA51955F9AAB0BB1","1b7dec7d-e218-4b8f-b98a-945530e7c314","a9f3d40c-5730-405c-b25e-1034c4c56f3f","{""num_scrambled_semantic"":""8"",""num_scrambled_causal"":""4"",""num_scrambled_schematic"":""4"",""participantId"":""BBF5A87C7549473CBA51955F9AAB0BB1"",""assignmentId"":""1b7dec7d-e218-4b8f-b98a-945530e7c314"",""projectId"":""a9f3d40c-5730-405c-b25e-1034c4c56f3f""}","https://test12345.live/?num_scrambled_semantic=8&num_scrambled_causal=4&num_scrambled_schematic=4&participantId=BBF5A87C7549473CBA51955F9AAB0BB1&assignmentId=1b7dec7d-e218-4b8f-b98a-945530e7c314&projectId=a9f3d40c-5730-405c-b25e-1034c4c56f3f","BBF5A87C7549473CBA51955F9AAB0BB1-2025-08-07-20-48-33","","null","","images/semantic_sequence/creative_activities_semantic/creative_activities_semantic_4.png","null","",""
