"success","timeout","failed_images","failed_audio","failed_video","trial_type","trial_index","time_elapsed","internal_node_id","subject","subject_id","study_id","session_id","urlvar","current_url","audio_id","view_history","rt","device_id","stimulus","response","estimated_stimulus_onset","seq_name"
"true","false","[]","[]","[]","preload","0","13042","0.0-0.0","BCF1104BBF8B4C4A8EE80B9D598175B0","BCF1104BBF8B4C4A8EE80B9D598175B0","38eb12fa-d9dd-40b3-9c7f-a3ad4e06c8d7","051c06f1-75cc-4548-856d-4923ddaba0dc","{""num_scrambled_semantic"":""8"",""num_scrambled_causal"":""4"",""num_scrambled_schematic"":""4"",""participantId"":""BCF1104BBF8B4C4A8EE80B9D598175B0"",""assignmentId"":""38eb12fa-d9dd-40b3-9c7f-a3ad4e06c8d7"",""projectId"":""051c06f1-75cc-4548-856d-4923ddaba0dc""}","https://test12345.live/?num_scrambled_semantic=8&num_scrambled_causal=4&num_scrambled_schematic=4&participantId=BCF1104BBF8B4C4A8EE80B9D598175B0&assignmentId=38eb12fa-d9dd-40b3-9c7f-a3ad4e06c8d7&projectId=051c06f1-75cc-4548-856d-4923ddaba0dc","BCF1104BBF8B4C4A8EE80B9D598175B0-2025-05-15-19-05-13","","","","","","",""
"","","","","","instructions","1","60737","0.0-1.0","BCF1104BBF8B4C4A8EE80B9D598175B0","BCF1104BBF8B4C4A8EE80B9D598175B0","38eb12fa-d9dd-40b3-9c7f-a3ad4e06c8d7","051c06f1-75cc-4548-856d-4923ddaba0dc","{""num_scrambled_semantic"":""8"",""num_scrambled_causal"":""4"",""num_scrambled_schematic"":""4"",""participantId"":""BCF1104BBF8B4C4A8EE80B9D598175B0"",""assignmentId"":""38eb12fa-d9dd-40b3-9c7f-a3ad4e06c8d7"",""projectId"":""051c06f1-75cc-4548-856d-4923ddaba0dc""}","https://test12345.live/?num_scrambled_semantic=8&num_scrambled_causal=4&num_scrambled_schematic=4&participantId=BCF1104BBF8B4C4A8EE80B9D598175B0&assignmentId=38eb12fa-d9dd-40b3-9c7f-a3ad4e06c8d7&projectId=051c06f1-75cc-4548-856d-4923ddaba0dc","BCF1104BBF8B4C4A8EE80B9D598175B0-2025-05-15-19-05-13","[{""page_index"":0,""viewing_time"":47687}]","47687","","","","",""
"","","","","","instructions","2","64533","0.0-2.0","BCF1104BBF8B4C4A8EE80B9D598175B0","BCF1104BBF8B4C4A8EE80B9D598175B0","38eb12fa-d9dd-40b3-9c7f-a3ad4e06c8d7","051c06f1-75cc-4548-856d-4923ddaba0dc","{""num_scrambled_semantic"":""8"",""num_scrambled_causal"":""4"",""num_scrambled_schematic"":""4"",""participantId"":""BCF1104BBF8B4C4A8EE80B9D598175B0"",""assignmentId"":""38eb12fa-d9dd-40b3-9c7f-a3ad4e06c8d7"",""projectId"":""051c06f1-75cc-4548-856d-4923ddaba0dc""}","https://test12345.live/?num_scrambled_semantic=8&num_scrambled_causal=4&num_scrambled_schematic=4&participantId=BCF1104BBF8B4C4A8EE80B9D598175B0&assignmentId=38eb12fa-d9dd-40b3-9c7f-a3ad4e06c8d7&projectId=051c06f1-75cc-4548-856d-4923ddaba0dc","BCF1104BBF8B4C4A8EE80B9D598175B0-2025-05-15-19-05-13","[{""page_index"":0,""viewing_time"":3795}]","3795","","","","",""
"true","","","","","fullscreen","3","67329","0.0-3.0","BCF1104BBF8B4C4A8EE80B9D598175B0","BCF1104BBF8B4C4A8EE80B9D598175B0","38eb12fa-d9dd-40b3-9c7f-a3ad4e06c8d7","051c06f1-75cc-4548-856d-4923ddaba0dc","{""num_scrambled_semantic"":""8"",""num_scrambled_causal"":""4"",""num_scrambled_schematic"":""4"",""participantId"":""BCF1104BBF8B4C4A8EE80B9D598175B0"",""assignmentId"":""38eb12fa-d9dd-40b3-9c7f-a3ad4e06c8d7"",""projectId"":""051c06f1-75cc-4548-856d-4923ddaba0dc""}","https://test12345.live/?num_scrambled_semantic=8&num_scrambled_causal=4&num_scrambled_schematic=4&participantId=BCF1104BBF8B4C4A8EE80B9D598175B0&assignmentId=38eb12fa-d9dd-40b3-9c7f-a3ad4e06c8d7&projectId=051c06f1-75cc-4548-856d-4923ddaba0dc","BCF1104BBF8B4C4A8EE80B9D598175B0-2025-05-15-19-05-13","","1792","","","","",""
"","","","","","initialize-microphone","4","72616","0.0-4.0-0.0","BCF1104BBF8B4C4A8EE80B9D598175B0","BCF1104BBF8B4C4A8EE80B9D598175B0","38eb12fa-d9dd-40b3-9c7f-a3ad4e06c8d7","051c06f1-75cc-4548-856d-4923ddaba0dc","{""num_scrambled_semantic"":""8"",""num_scrambled_causal"":""4"",""num_scrambled_schematic"":""4"",""participantId"":""BCF1104BBF8B4C4A8EE80B9D598175B0"",""assignmentId"":""38eb12fa-d9dd-40b3-9c7f-a3ad4e06c8d7"",""projectId"":""051c06f1-75cc-4548-856d-4923ddaba0dc""}","https://test12345.live/?num_scrambled_semantic=8&num_scrambled_causal=4&num_scrambled_schematic=4&participantId=BCF1104BBF8B4C4A8EE80B9D598175B0&assignmentId=38eb12fa-d9dd-40b3-9c7f-a3ad4e06c8d7&projectId=051c06f1-75cc-4548-856d-4923ddaba0dc","BCF1104BBF8B4C4A8EE80B9D598175B0-2025-05-15-19-05-13","","","d904e1ca6ea3911bd0a7d57e2ea03d62338eef7503a61769ed0818f18896e380","","","",""
"","","","","","html-audio-response","5","92878","0.0-4.0-1.0","BCF1104BBF8B4C4A8EE80B9D598175B0","BCF1104BBF8B4C4A8EE80B9D598175B0","38eb12fa-d9dd-40b3-9c7f-a3ad4e06c8d7","051c06f1-75cc-4548-856d-4923ddaba0dc","{""num_scrambled_semantic"":""8"",""num_scrambled_causal"":""4"",""num_scrambled_schematic"":""4"",""participantId"":""BCF1104BBF8B4C4A8EE80B9D598175B0"",""assignmentId"":""38eb12fa-d9dd-40b3-9c7f-a3ad4e06c8d7"",""projectId"":""051c06f1-75cc-4548-856d-4923ddaba0dc""}","https://test12345.live/?num_scrambled_semantic=8&num_scrambled_causal=4&num_scrambled_schematic=4&participantId=BCF1104BBF8B4C4A8EE80B9D598175B0&assignmentId=38eb12fa-d9dd-40b3-9c7f-a3ad4e06c8d7&projectId=051c06f1-75cc-4548-856d-4923ddaba0dc","BCF1104BBF8B4C4A8EE80B9D598175B0-2025-05-15-19-05-13","","9525","","<span style=""color: red; font-size: 24px""> NOW RECORDING</span>
        <p>Please test Microphone</p>","","14",""
"","","","","","html-button-response","6","94551","0.0-4.0-2.0","BCF1104BBF8B4C4A8EE80B9D598175B0","BCF1104BBF8B4C4A8EE80B9D598175B0","38eb12fa-d9dd-40b3-9c7f-a3ad4e06c8d7","051c06f1-75cc-4548-856d-4923ddaba0dc","{""num_scrambled_semantic"":""8"",""num_scrambled_causal"":""4"",""num_scrambled_schematic"":""4"",""participantId"":""BCF1104BBF8B4C4A8EE80B9D598175B0"",""assignmentId"":""38eb12fa-d9dd-40b3-9c7f-a3ad4e06c8d7"",""projectId"":""051c06f1-75cc-4548-856d-4923ddaba0dc""}","https://test12345.live/?num_scrambled_semantic=8&num_scrambled_causal=4&num_scrambled_schematic=4&participantId=BCF1104BBF8B4C4A8EE80B9D598175B0&assignmentId=38eb12fa-d9dd-40b3-9c7f-a3ad4e06c8d7&projectId=051c06f1-75cc-4548-856d-4923ddaba0dc","BCF1104BBF8B4C4A8EE80B9D598175B0-2025-05-15-19-05-13","","1671","","<p style=""font-size:48px; color:red;"">Is Microphone OK?</p>","1","",""
"","","","","","instructions","7","111608","0.0-5.0","BCF1104BBF8B4C4A8EE80B9D598175B0","BCF1104BBF8B4C4A8EE80B9D598175B0","38eb12fa-d9dd-40b3-9c7f-a3ad4e06c8d7","051c06f1-75cc-4548-856d-4923ddaba0dc","{""num_scrambled_semantic"":""8"",""num_scrambled_causal"":""4"",""num_scrambled_schematic"":""4"",""participantId"":""BCF1104BBF8B4C4A8EE80B9D598175B0"",""assignmentId"":""38eb12fa-d9dd-40b3-9c7f-a3ad4e06c8d7"",""projectId"":""051c06f1-75cc-4548-856d-4923ddaba0dc""}","https://test12345.live/?num_scrambled_semantic=8&num_scrambled_causal=4&num_scrambled_schematic=4&participantId=BCF1104BBF8B4C4A8EE80B9D598175B0&assignmentId=38eb12fa-d9dd-40b3-9c7f-a3ad4e06c8d7&projectId=051c06f1-75cc-4548-856d-4923ddaba0dc","BCF1104BBF8B4C4A8EE80B9D598175B0-2025-05-15-19-05-13","[{""page_index"":0,""viewing_time"":7424},{""page_index"":1,""viewing_time"":9626}]","17051","","","","",""
"","","","","","image-button-response","8","117615","0.0-6.0-0.0","BCF1104BBF8B4C4A8EE80B9D598175B0","BCF1104BBF8B4C4A8EE80B9D598175B0","38eb12fa-d9dd-40b3-9c7f-a3ad4e06c8d7","051c06f1-75cc-4548-856d-4923ddaba0dc","{""num_scrambled_semantic"":""8"",""num_scrambled_causal"":""4"",""num_scrambled_schematic"":""4"",""participantId"":""BCF1104BBF8B4C4A8EE80B9D598175B0"",""assignmentId"":""38eb12fa-d9dd-40b3-9c7f-a3ad4e06c8d7"",""projectId"":""051c06f1-75cc-4548-856d-4923ddaba0dc""}","https://test12345.live/?num_scrambled_semantic=8&num_scrambled_causal=4&num_scrambled_schematic=4&participantId=BCF1104BBF8B4C4A8EE80B9D598175B0&assignmentId=38eb12fa-d9dd-40b3-9c7f-a3ad4e06c8d7&projectId=051c06f1-75cc-4548-856d-4923ddaba0dc","BCF1104BBF8B4C4A8EE80B9D598175B0-2025-05-15-19-05-13","","null","","images/instructions/movie_0.png","null","",""
"","","","","","image-button-response","9","122133","0.0-6.0-1.0-0.0","BCF1104BBF8B4C4A8EE80B9D598175B0","BCF1104BBF8B4C4A8EE80B9D598175B0","38eb12fa-d9dd-40b3-9c7f-a3ad4e06c8d7","051c06f1-75cc-4548-856d-4923ddaba0dc","{""num_scrambled_semantic"":""8"",""num_scrambled_causal"":""4"",""num_scrambled_schematic"":""4"",""participantId"":""BCF1104BBF8B4C4A8EE80B9D598175B0"",""assignmentId"":""38eb12fa-d9dd-40b3-9c7f-a3ad4e06c8d7"",""projectId"":""051c06f1-75cc-4548-856d-4923ddaba0dc""}","https://test12345.live/?num_scrambled_semantic=8&num_scrambled_causal=4&num_scrambled_schematic=4&participantId=BCF1104BBF8B4C4A8EE80B9D598175B0&assignmentId=38eb12fa-d9dd-40b3-9c7f-a3ad4e06c8d7&projectId=051c06f1-75cc-4548-856d-4923ddaba0dc","BCF1104BBF8B4C4A8EE80B9D598175B0-2025-05-15-19-05-13","","null","","images/instructions/movie_1.png","null","",""
"","","","","","image-button-response","10","124879","0.0-6.0-1.0-1.0","BCF1104BBF8B4C4A8EE80B9D598175B0","BCF1104BBF8B4C4A8EE80B9D598175B0","38eb12fa-d9dd-40b3-9c7f-a3ad4e06c8d7","051c06f1-75cc-4548-856d-4923ddaba0dc","{""num_scrambled_semantic"":""8"",""num_scrambled_causal"":""4"",""num_scrambled_schematic"":""4"",""participantId"":""BCF1104BBF8B4C4A8EE80B9D598175B0"",""assignmentId"":""38eb12fa-d9dd-40b3-9c7f-a3ad4e06c8d7"",""projectId"":""051c06f1-75cc-4548-856d-4923ddaba0dc""}","https://test12345.live/?num_scrambled_semantic=8&num_scrambled_causal=4&num_scrambled_schematic=4&participantId=BCF1104BBF8B4C4A8EE80B9D598175B0&assignmentId=38eb12fa-d9dd-40b3-9c7f-a3ad4e06c8d7&projectId=051c06f1-75cc-4548-856d-4923ddaba0dc","BCF1104BBF8B4C4A8EE80B9D598175B0-2025-05-15-19-05-13","","2741","","images/instructions/movie_1.png","0","",""
"","","","","","image-button-response","11","126683","0.0-6.0-1.0-2.0","BCF1104BBF8B4C4A8EE80B9D598175B0","BCF1104BBF8B4C4A8EE80B9D598175B0","38eb12fa-d9dd-40b3-9c7f-a3ad4e06c8d7","051c06f1-75cc-4548-856d-4923ddaba0dc","{""num_scrambled_semantic"":""8"",""num_scrambled_causal"":""4"",""num_scrambled_schematic"":""4"",""participantId"":""BCF1104BBF8B4C4A8EE80B9D598175B0"",""assignmentId"":""38eb12fa-d9dd-40b3-9c7f-a3ad4e06c8d7"",""projectId"":""051c06f1-75cc-4548-856d-4923ddaba0dc""}","https://test12345.live/?num_scrambled_semantic=8&num_scrambled_causal=4&num_scrambled_schematic=4&participantId=BCF1104BBF8B4C4A8EE80B9D598175B0&assignmentId=38eb12fa-d9dd-40b3-9c7f-a3ad4e06c8d7&projectId=051c06f1-75cc-4548-856d-4923ddaba0dc","BCF1104BBF8B4C4A8EE80B9D598175B0-2025-05-15-19-05-13","","null","","[]","null","",""
"","","","","","image-button-response","12","131196","0.0-6.0-1.0-0.1","BCF1104BBF8B4C4A8EE80B9D598175B0","BCF1104BBF8B4C4A8EE80B9D598175B0","38eb12fa-d9dd-40b3-9c7f-a3ad4e06c8d7","051c06f1-75cc-4548-856d-4923ddaba0dc","{""num_scrambled_semantic"":""8"",""num_scrambled_causal"":""4"",""num_scrambled_schematic"":""4"",""participantId"":""BCF1104BBF8B4C4A8EE80B9D598175B0"",""assignmentId"":""38eb12fa-d9dd-40b3-9c7f-a3ad4e06c8d7"",""projectId"":""051c06f1-75cc-4548-856d-4923ddaba0dc""}","https://test12345.live/?num_scrambled_semantic=8&num_scrambled_causal=4&num_scrambled_schematic=4&participantId=BCF1104BBF8B4C4A8EE80B9D598175B0&assignmentId=38eb12fa-d9dd-40b3-9c7f-a3ad4e06c8d7&projectId=051c06f1-75cc-4548-856d-4923ddaba0dc","BCF1104BBF8B4C4A8EE80B9D598175B0-2025-05-15-19-05-13","","null","","images/instructions/movie_2.png","null","",""
"","","","","","image-button-response","13","132266","0.0-6.0-1.0-1.1","BCF1104BBF8B4C4A8EE80B9D598175B0","BCF1104BBF8B4C4A8EE80B9D598175B0","38eb12fa-d9dd-40b3-9c7f-a3ad4e06c8d7","051c06f1-75cc-4548-856d-4923ddaba0dc","{""num_scrambled_semantic"":""8"",""num_scrambled_causal"":""4"",""num_scrambled_schematic"":""4"",""participantId"":""BCF1104BBF8B4C4A8EE80B9D598175B0"",""assignmentId"":""38eb12fa-d9dd-40b3-9c7f-a3ad4e06c8d7"",""projectId"":""051c06f1-75cc-4548-856d-4923ddaba0dc""}","https://test12345.live/?num_scrambled_semantic=8&num_scrambled_causal=4&num_scrambled_schematic=4&participantId=BCF1104BBF8B4C4A8EE80B9D598175B0&assignmentId=38eb12fa-d9dd-40b3-9c7f-a3ad4e06c8d7&projectId=051c06f1-75cc-4548-856d-4923ddaba0dc","BCF1104BBF8B4C4A8EE80B9D598175B0-2025-05-15-19-05-13","","1061","","images/instructions/movie_2.png","0","",""
"","","","","","image-button-response","14","134075","0.0-6.0-1.0-2.1","BCF1104BBF8B4C4A8EE80B9D598175B0","BCF1104BBF8B4C4A8EE80B9D598175B0","38eb12fa-d9dd-40b3-9c7f-a3ad4e06c8d7","051c06f1-75cc-4548-856d-4923ddaba0dc","{""num_scrambled_semantic"":""8"",""num_scrambled_causal"":""4"",""num_scrambled_schematic"":""4"",""participantId"":""BCF1104BBF8B4C4A8EE80B9D598175B0"",""assignmentId"":""38eb12fa-d9dd-40b3-9c7f-a3ad4e06c8d7"",""projectId"":""051c06f1-75cc-4548-856d-4923ddaba0dc""}","https://test12345.live/?num_scrambled_semantic=8&num_scrambled_causal=4&num_scrambled_schematic=4&participantId=BCF1104BBF8B4C4A8EE80B9D598175B0&assignmentId=38eb12fa-d9dd-40b3-9c7f-a3ad4e06c8d7&projectId=051c06f1-75cc-4548-856d-4923ddaba0dc","BCF1104BBF8B4C4A8EE80B9D598175B0-2025-05-15-19-05-13","","null","","[]","null","",""
"","","","","","image-button-response","15","138589","0.0-6.0-1.0-0.2","BCF1104BBF8B4C4A8EE80B9D598175B0","BCF1104BBF8B4C4A8EE80B9D598175B0","38eb12fa-d9dd-40b3-9c7f-a3ad4e06c8d7","051c06f1-75cc-4548-856d-4923ddaba0dc","{""num_scrambled_semantic"":""8"",""num_scrambled_causal"":""4"",""num_scrambled_schematic"":""4"",""participantId"":""BCF1104BBF8B4C4A8EE80B9D598175B0"",""assignmentId"":""38eb12fa-d9dd-40b3-9c7f-a3ad4e06c8d7"",""projectId"":""051c06f1-75cc-4548-856d-4923ddaba0dc""}","https://test12345.live/?num_scrambled_semantic=8&num_scrambled_causal=4&num_scrambled_schematic=4&participantId=BCF1104BBF8B4C4A8EE80B9D598175B0&assignmentId=38eb12fa-d9dd-40b3-9c7f-a3ad4e06c8d7&projectId=051c06f1-75cc-4548-856d-4923ddaba0dc","BCF1104BBF8B4C4A8EE80B9D598175B0-2025-05-15-19-05-13","","null","","images/instructions/movie_3.png","null","",""
"","","","","","image-button-response","16","142483","0.0-6.0-1.0-1.2","BCF1104BBF8B4C4A8EE80B9D598175B0","BCF1104BBF8B4C4A8EE80B9D598175B0","38eb12fa-d9dd-40b3-9c7f-a3ad4e06c8d7","051c06f1-75cc-4548-856d-4923ddaba0dc","{""num_scrambled_semantic"":""8"",""num_scrambled_causal"":""4"",""num_scrambled_schematic"":""4"",""participantId"":""BCF1104BBF8B4C4A8EE80B9D598175B0"",""assignmentId"":""38eb12fa-d9dd-40b3-9c7f-a3ad4e06c8d7"",""projectId"":""051c06f1-75cc-4548-856d-4923ddaba0dc""}","https://test12345.live/?num_scrambled_semantic=8&num_scrambled_causal=4&num_scrambled_schematic=4&participantId=BCF1104BBF8B4C4A8EE80B9D598175B0&assignmentId=38eb12fa-d9dd-40b3-9c7f-a3ad4e06c8d7&projectId=051c06f1-75cc-4548-856d-4923ddaba0dc","BCF1104BBF8B4C4A8EE80B9D598175B0-2025-05-15-19-05-13","","3887","","images/instructions/movie_3.png","0","",""
"","","","","","image-button-response","17","144287","0.0-6.0-1.0-2.2","BCF1104BBF8B4C4A8EE80B9D598175B0","BCF1104BBF8B4C4A8EE80B9D598175B0","38eb12fa-d9dd-40b3-9c7f-a3ad4e06c8d7","051c06f1-75cc-4548-856d-4923ddaba0dc","{""num_scrambled_semantic"":""8"",""num_scrambled_causal"":""4"",""num_scrambled_schematic"":""4"",""participantId"":""BCF1104BBF8B4C4A8EE80B9D598175B0"",""assignmentId"":""38eb12fa-d9dd-40b3-9c7f-a3ad4e06c8d7"",""projectId"":""051c06f1-75cc-4548-856d-4923ddaba0dc""}","https://test12345.live/?num_scrambled_semantic=8&num_scrambled_causal=4&num_scrambled_schematic=4&participantId=BCF1104BBF8B4C4A8EE80B9D598175B0&assignmentId=38eb12fa-d9dd-40b3-9c7f-a3ad4e06c8d7&projectId=051c06f1-75cc-4548-856d-4923ddaba0dc","BCF1104BBF8B4C4A8EE80B9D598175B0-2025-05-15-19-05-13","","null","","[]","null","",""
"","","","","","image-button-response","18","148794","0.0-6.0-1.0-0.3","BCF1104BBF8B4C4A8EE80B9D598175B0","BCF1104BBF8B4C4A8EE80B9D598175B0","38eb12fa-d9dd-40b3-9c7f-a3ad4e06c8d7","051c06f1-75cc-4548-856d-4923ddaba0dc","{""num_scrambled_semantic"":""8"",""num_scrambled_causal"":""4"",""num_scrambled_schematic"":""4"",""participantId"":""BCF1104BBF8B4C4A8EE80B9D598175B0"",""assignmentId"":""38eb12fa-d9dd-40b3-9c7f-a3ad4e06c8d7"",""projectId"":""051c06f1-75cc-4548-856d-4923ddaba0dc""}","https://test12345.live/?num_scrambled_semantic=8&num_scrambled_causal=4&num_scrambled_schematic=4&participantId=BCF1104BBF8B4C4A8EE80B9D598175B0&assignmentId=38eb12fa-d9dd-40b3-9c7f-a3ad4e06c8d7&projectId=051c06f1-75cc-4548-856d-4923ddaba0dc","BCF1104BBF8B4C4A8EE80B9D598175B0-2025-05-15-19-05-13","","null","","images/instructions/movie_4.png","null","",""
"","","","","","image-button-response","19","150300","0.0-6.0-1.0-1.3","BCF1104BBF8B4C4A8EE80B9D598175B0","BCF1104BBF8B4C4A8EE80B9D598175B0","38eb12fa-d9dd-40b3-9c7f-a3ad4e06c8d7","051c06f1-75cc-4548-856d-4923ddaba0dc","{""num_scrambled_semantic"":""8"",""num_scrambled_causal"":""4"",""num_scrambled_schematic"":""4"",""participantId"":""BCF1104BBF8B4C4A8EE80B9D598175B0"",""assignmentId"":""38eb12fa-d9dd-40b3-9c7f-a3ad4e06c8d7"",""projectId"":""051c06f1-75cc-4548-856d-4923ddaba0dc""}","https://test12345.live/?num_scrambled_semantic=8&num_scrambled_causal=4&num_scrambled_schematic=4&participantId=BCF1104BBF8B4C4A8EE80B9D598175B0&assignmentId=38eb12fa-d9dd-40b3-9c7f-a3ad4e06c8d7&projectId=051c06f1-75cc-4548-856d-4923ddaba0dc","BCF1104BBF8B4C4A8EE80B9D598175B0-2025-05-15-19-05-13","","1501","","images/instructions/movie_4.png","0","",""
"","","","","","image-button-response","20","152107","0.0-6.0-1.0-2.3","BCF1104BBF8B4C4A8EE80B9D598175B0","BCF1104BBF8B4C4A8EE80B9D598175B0","38eb12fa-d9dd-40b3-9c7f-a3ad4e06c8d7","051c06f1-75cc-4548-856d-4923ddaba0dc","{""num_scrambled_semantic"":""8"",""num_scrambled_causal"":""4"",""num_scrambled_schematic"":""4"",""participantId"":""BCF1104BBF8B4C4A8EE80B9D598175B0"",""assignmentId"":""38eb12fa-d9dd-40b3-9c7f-a3ad4e06c8d7"",""projectId"":""051c06f1-75cc-4548-856d-4923ddaba0dc""}","https://test12345.live/?num_scrambled_semantic=8&num_scrambled_causal=4&num_scrambled_schematic=4&participantId=BCF1104BBF8B4C4A8EE80B9D598175B0&assignmentId=38eb12fa-d9dd-40b3-9c7f-a3ad4e06c8d7&projectId=051c06f1-75cc-4548-856d-4923ddaba0dc","BCF1104BBF8B4C4A8EE80B9D598175B0-2025-05-15-19-05-13","","null","","[]","null","",""
"","","","","","instructions","21","160655","0.0-7.0","BCF1104BBF8B4C4A8EE80B9D598175B0","BCF1104BBF8B4C4A8EE80B9D598175B0","38eb12fa-d9dd-40b3-9c7f-a3ad4e06c8d7","051c06f1-75cc-4548-856d-4923ddaba0dc","{""num_scrambled_semantic"":""8"",""num_scrambled_causal"":""4"",""num_scrambled_schematic"":""4"",""participantId"":""BCF1104BBF8B4C4A8EE80B9D598175B0"",""assignmentId"":""38eb12fa-d9dd-40b3-9c7f-a3ad4e06c8d7"",""projectId"":""051c06f1-75cc-4548-856d-4923ddaba0dc""}","https://test12345.live/?num_scrambled_semantic=8&num_scrambled_causal=4&num_scrambled_schematic=4&participantId=BCF1104BBF8B4C4A8EE80B9D598175B0&assignmentId=38eb12fa-d9dd-40b3-9c7f-a3ad4e06c8d7&projectId=051c06f1-75cc-4548-856d-4923ddaba0dc","BCF1104BBF8B4C4A8EE80B9D598175B0-2025-05-15-19-05-13","[{""page_index"":0,""viewing_time"":7687},{""page_index"":1,""viewing_time"":853}]","8540","","","","",""
"","","","","","html-audio-response","22","193694","0.0-8.0","BCF1104BBF8B4C4A8EE80B9D598175B0","BCF1104BBF8B4C4A8EE80B9D598175B0","38eb12fa-d9dd-40b3-9c7f-a3ad4e06c8d7","051c06f1-75cc-4548-856d-4923ddaba0dc","{""num_scrambled_semantic"":""8"",""num_scrambled_causal"":""4"",""num_scrambled_schematic"":""4"",""participantId"":""BCF1104BBF8B4C4A8EE80B9D598175B0"",""assignmentId"":""38eb12fa-d9dd-40b3-9c7f-a3ad4e06c8d7"",""projectId"":""051c06f1-75cc-4548-856d-4923ddaba0dc""}","https://test12345.live/?num_scrambled_semantic=8&num_scrambled_causal=4&num_scrambled_schematic=4&participantId=BCF1104BBF8B4C4A8EE80B9D598175B0&assignmentId=38eb12fa-d9dd-40b3-9c7f-a3ad4e06c8d7&projectId=051c06f1-75cc-4548-856d-4923ddaba0dc","BCF1104BBF8B4C4A8EE80B9D598175B0-2025-05-15-19-05-13","","12086","","[""<span style=\""color: red; font-size: 24px\""> NOW RECORDING</span><p>Please say out loud all the images you saw, as many as you can remember. The images can be said in any order.</p>""]","","17",""
"","","","","","instructions","23","194425","0.0-9.0","BCF1104BBF8B4C4A8EE80B9D598175B0","BCF1104BBF8B4C4A8EE80B9D598175B0","38eb12fa-d9dd-40b3-9c7f-a3ad4e06c8d7","051c06f1-75cc-4548-856d-4923ddaba0dc","{""num_scrambled_semantic"":""8"",""num_scrambled_causal"":""4"",""num_scrambled_schematic"":""4"",""participantId"":""BCF1104BBF8B4C4A8EE80B9D598175B0"",""assignmentId"":""38eb12fa-d9dd-40b3-9c7f-a3ad4e06c8d7"",""projectId"":""051c06f1-75cc-4548-856d-4923ddaba0dc""}","https://test12345.live/?num_scrambled_semantic=8&num_scrambled_causal=4&num_scrambled_schematic=4&participantId=BCF1104BBF8B4C4A8EE80B9D598175B0&assignmentId=38eb12fa-d9dd-40b3-9c7f-a3ad4e06c8d7&projectId=051c06f1-75cc-4548-856d-4923ddaba0dc","BCF1104BBF8B4C4A8EE80B9D598175B0-2025-05-15-19-05-13","[{""page_index"":0,""viewing_time"":701}]","701","","","","",""
"","","","","","image-button-response","24","200435","0.0-10.0-0.0","BCF1104BBF8B4C4A8EE80B9D598175B0","BCF1104BBF8B4C4A8EE80B9D598175B0","38eb12fa-d9dd-40b3-9c7f-a3ad4e06c8d7","051c06f1-75cc-4548-856d-4923ddaba0dc","{""num_scrambled_semantic"":""8"",""num_scrambled_causal"":""4"",""num_scrambled_schematic"":""4"",""participantId"":""BCF1104BBF8B4C4A8EE80B9D598175B0"",""assignmentId"":""38eb12fa-d9dd-40b3-9c7f-a3ad4e06c8d7"",""projectId"":""051c06f1-75cc-4548-856d-4923ddaba0dc""}","https://test12345.live/?num_scrambled_semantic=8&num_scrambled_causal=4&num_scrambled_schematic=4&participantId=BCF1104BBF8B4C4A8EE80B9D598175B0&assignmentId=38eb12fa-d9dd-40b3-9c7f-a3ad4e06c8d7&projectId=051c06f1-75cc-4548-856d-4923ddaba0dc","BCF1104BBF8B4C4A8EE80B9D598175B0-2025-05-15-19-05-13","","null","","images/semantic_sequence/redecorating_semantic/redecorating_semantic_0.png","null","",""
"","","","","","image-button-response","25","204944","0.0-10.0-1.0-0.0","BCF1104BBF8B4C4A8EE80B9D598175B0","BCF1104BBF8B4C4A8EE80B9D598175B0","38eb12fa-d9dd-40b3-9c7f-a3ad4e06c8d7","051c06f1-75cc-4548-856d-4923ddaba0dc","{""num_scrambled_semantic"":""8"",""num_scrambled_causal"":""4"",""num_scrambled_schematic"":""4"",""participantId"":""BCF1104BBF8B4C4A8EE80B9D598175B0"",""assignmentId"":""38eb12fa-d9dd-40b3-9c7f-a3ad4e06c8d7"",""projectId"":""051c06f1-75cc-4548-856d-4923ddaba0dc""}","https://test12345.live/?num_scrambled_semantic=8&num_scrambled_causal=4&num_scrambled_schematic=4&participantId=BCF1104BBF8B4C4A8EE80B9D598175B0&assignmentId=38eb12fa-d9dd-40b3-9c7f-a3ad4e06c8d7&projectId=051c06f1-75cc-4548-856d-4923ddaba0dc","BCF1104BBF8B4C4A8EE80B9D598175B0-2025-05-15-19-05-13","","null","","images/semantic_sequence/redecorating_semantic/redecorating_semantic_9.png","null","",""
"","","","","","image-button-response","26","208966","0.0-10.0-1.0-1.0","BCF1104BBF8B4C4A8EE80B9D598175B0","BCF1104BBF8B4C4A8EE80B9D598175B0","38eb12fa-d9dd-40b3-9c7f-a3ad4e06c8d7","051c06f1-75cc-4548-856d-4923ddaba0dc","{""num_scrambled_semantic"":""8"",""num_scrambled_causal"":""4"",""num_scrambled_schematic"":""4"",""participantId"":""BCF1104BBF8B4C4A8EE80B9D598175B0"",""assignmentId"":""38eb12fa-d9dd-40b3-9c7f-a3ad4e06c8d7"",""projectId"":""051c06f1-75cc-4548-856d-4923ddaba0dc""}","https://test12345.live/?num_scrambled_semantic=8&num_scrambled_causal=4&num_scrambled_schematic=4&participantId=BCF1104BBF8B4C4A8EE80B9D598175B0&assignmentId=38eb12fa-d9dd-40b3-9c7f-a3ad4e06c8d7&projectId=051c06f1-75cc-4548-856d-4923ddaba0dc","BCF1104BBF8B4C4A8EE80B9D598175B0-2025-05-15-19-05-13","","null","","images/semantic_sequence/redecorating_semantic/redecorating_semantic_9.png","null","",""
"","","","","","image-button-response","27","210776","0.0-10.0-1.0-2.0","BCF1104BBF8B4C4A8EE80B9D598175B0","BCF1104BBF8B4C4A8EE80B9D598175B0","38eb12fa-d9dd-40b3-9c7f-a3ad4e06c8d7","051c06f1-75cc-4548-856d-4923ddaba0dc","{""num_scrambled_semantic"":""8"",""num_scrambled_causal"":""4"",""num_scrambled_schematic"":""4"",""participantId"":""BCF1104BBF8B4C4A8EE80B9D598175B0"",""assignmentId"":""38eb12fa-d9dd-40b3-9c7f-a3ad4e06c8d7"",""projectId"":""051c06f1-75cc-4548-856d-4923ddaba0dc""}","https://test12345.live/?num_scrambled_semantic=8&num_scrambled_causal=4&num_scrambled_schematic=4&participantId=BCF1104BBF8B4C4A8EE80B9D598175B0&assignmentId=38eb12fa-d9dd-40b3-9c7f-a3ad4e06c8d7&projectId=051c06f1-75cc-4548-856d-4923ddaba0dc","BCF1104BBF8B4C4A8EE80B9D598175B0-2025-05-15-19-05-13","","null","","[]","null","",""
"","","","","","image-button-response","28","215281","0.0-10.0-1.0-0.1","BCF1104BBF8B4C4A8EE80B9D598175B0","BCF1104BBF8B4C4A8EE80B9D598175B0","38eb12fa-d9dd-40b3-9c7f-a3ad4e06c8d7","051c06f1-75cc-4548-856d-4923ddaba0dc","{""num_scrambled_semantic"":""8"",""num_scrambled_causal"":""4"",""num_scrambled_schematic"":""4"",""participantId"":""BCF1104BBF8B4C4A8EE80B9D598175B0"",""assignmentId"":""38eb12fa-d9dd-40b3-9c7f-a3ad4e06c8d7"",""projectId"":""051c06f1-75cc-4548-856d-4923ddaba0dc""}","https://test12345.live/?num_scrambled_semantic=8&num_scrambled_causal=4&num_scrambled_schematic=4&participantId=BCF1104BBF8B4C4A8EE80B9D598175B0&assignmentId=38eb12fa-d9dd-40b3-9c7f-a3ad4e06c8d7&projectId=051c06f1-75cc-4548-856d-4923ddaba0dc","BCF1104BBF8B4C4A8EE80B9D598175B0-2025-05-15-19-05-13","","null","","images/semantic_sequence/redecorating_semantic/redecorating_semantic_4.png","null","",""
"","","","","","image-button-response","29","216535","0.0-10.0-1.0-1.1","BCF1104BBF8B4C4A8EE80B9D598175B0","BCF1104BBF8B4C4A8EE80B9D598175B0","38eb12fa-d9dd-40b3-9c7f-a3ad4e06c8d7","051c06f1-75cc-4548-856d-4923ddaba0dc","{""num_scrambled_semantic"":""8"",""num_scrambled_causal"":""4"",""num_scrambled_schematic"":""4"",""participantId"":""BCF1104BBF8B4C4A8EE80B9D598175B0"",""assignmentId"":""38eb12fa-d9dd-40b3-9c7f-a3ad4e06c8d7"",""projectId"":""051c06f1-75cc-4548-856d-4923ddaba0dc""}","https://test12345.live/?num_scrambled_semantic=8&num_scrambled_causal=4&num_scrambled_schematic=4&participantId=BCF1104BBF8B4C4A8EE80B9D598175B0&assignmentId=38eb12fa-d9dd-40b3-9c7f-a3ad4e06c8d7&projectId=051c06f1-75cc-4548-856d-4923ddaba0dc","BCF1104BBF8B4C4A8EE80B9D598175B0-2025-05-15-19-05-13","","1245","","images/semantic_sequence/redecorating_semantic/redecorating_semantic_4.png","0","",""
"","","","","","image-button-response","30","218350","0.0-10.0-1.0-2.1","BCF1104BBF8B4C4A8EE80B9D598175B0","BCF1104BBF8B4C4A8EE80B9D598175B0","38eb12fa-d9dd-40b3-9c7f-a3ad4e06c8d7","051c06f1-75cc-4548-856d-4923ddaba0dc","{""num_scrambled_semantic"":""8"",""num_scrambled_causal"":""4"",""num_scrambled_schematic"":""4"",""participantId"":""BCF1104BBF8B4C4A8EE80B9D598175B0"",""assignmentId"":""38eb12fa-d9dd-40b3-9c7f-a3ad4e06c8d7"",""projectId"":""051c06f1-75cc-4548-856d-4923ddaba0dc""}","https://test12345.live/?num_scrambled_semantic=8&num_scrambled_causal=4&num_scrambled_schematic=4&participantId=BCF1104BBF8B4C4A8EE80B9D598175B0&assignmentId=38eb12fa-d9dd-40b3-9c7f-a3ad4e06c8d7&projectId=051c06f1-75cc-4548-856d-4923ddaba0dc","BCF1104BBF8B4C4A8EE80B9D598175B0-2025-05-15-19-05-13","","null","","[]","null","",""
"","","","","","image-button-response","31","222862","0.0-10.0-1.0-0.2","BCF1104BBF8B4C4A8EE80B9D598175B0","BCF1104BBF8B4C4A8EE80B9D598175B0","38eb12fa-d9dd-40b3-9c7f-a3ad4e06c8d7","051c06f1-75cc-4548-856d-4923ddaba0dc","{""num_scrambled_semantic"":""8"",""num_scrambled_causal"":""4"",""num_scrambled_schematic"":""4"",""participantId"":""BCF1104BBF8B4C4A8EE80B9D598175B0"",""assignmentId"":""38eb12fa-d9dd-40b3-9c7f-a3ad4e06c8d7"",""projectId"":""051c06f1-75cc-4548-856d-4923ddaba0dc""}","https://test12345.live/?num_scrambled_semantic=8&num_scrambled_causal=4&num_scrambled_schematic=4&participantId=BCF1104BBF8B4C4A8EE80B9D598175B0&assignmentId=38eb12fa-d9dd-40b3-9c7f-a3ad4e06c8d7&projectId=051c06f1-75cc-4548-856d-4923ddaba0dc","BCF1104BBF8B4C4A8EE80B9D598175B0-2025-05-15-19-05-13","","null","","images/semantic_sequence/redecorating_semantic/redecorating_semantic_ten.png","null","",""
"","","","","","image-button-response","32","224053","0.0-10.0-1.0-1.2","BCF1104BBF8B4C4A8EE80B9D598175B0","BCF1104BBF8B4C4A8EE80B9D598175B0","38eb12fa-d9dd-40b3-9c7f-a3ad4e06c8d7","051c06f1-75cc-4548-856d-4923ddaba0dc","{""num_scrambled_semantic"":""8"",""num_scrambled_causal"":""4"",""num_scrambled_schematic"":""4"",""participantId"":""BCF1104BBF8B4C4A8EE80B9D598175B0"",""assignmentId"":""38eb12fa-d9dd-40b3-9c7f-a3ad4e06c8d7"",""projectId"":""051c06f1-75cc-4548-856d-4923ddaba0dc""}","https://test12345.live/?num_scrambled_semantic=8&num_scrambled_causal=4&num_scrambled_schematic=4&participantId=BCF1104BBF8B4C4A8EE80B9D598175B0&assignmentId=38eb12fa-d9dd-40b3-9c7f-a3ad4e06c8d7&projectId=051c06f1-75cc-4548-856d-4923ddaba0dc","BCF1104BBF8B4C4A8EE80B9D598175B0-2025-05-15-19-05-13","","1187","","images/semantic_sequence/redecorating_semantic/redecorating_semantic_ten.png","0","",""
"","","","","","image-button-response","33","225857","0.0-10.0-1.0-2.2","BCF1104BBF8B4C4A8EE80B9D598175B0","BCF1104BBF8B4C4A8EE80B9D598175B0","38eb12fa-d9dd-40b3-9c7f-a3ad4e06c8d7","051c06f1-75cc-4548-856d-4923ddaba0dc","{""num_scrambled_semantic"":""8"",""num_scrambled_causal"":""4"",""num_scrambled_schematic"":""4"",""participantId"":""BCF1104BBF8B4C4A8EE80B9D598175B0"",""assignmentId"":""38eb12fa-d9dd-40b3-9c7f-a3ad4e06c8d7"",""projectId"":""051c06f1-75cc-4548-856d-4923ddaba0dc""}","https://test12345.live/?num_scrambled_semantic=8&num_scrambled_causal=4&num_scrambled_schematic=4&participantId=BCF1104BBF8B4C4A8EE80B9D598175B0&assignmentId=38eb12fa-d9dd-40b3-9c7f-a3ad4e06c8d7&projectId=051c06f1-75cc-4548-856d-4923ddaba0dc","BCF1104BBF8B4C4A8EE80B9D598175B0-2025-05-15-19-05-13","","null","","[]","null","",""
"","","","","","image-button-response","34","230365","0.0-10.0-1.0-0.3","BCF1104BBF8B4C4A8EE80B9D598175B0","BCF1104BBF8B4C4A8EE80B9D598175B0","38eb12fa-d9dd-40b3-9c7f-a3ad4e06c8d7","051c06f1-75cc-4548-856d-4923ddaba0dc","{""num_scrambled_semantic"":""8"",""num_scrambled_causal"":""4"",""num_scrambled_schematic"":""4"",""participantId"":""BCF1104BBF8B4C4A8EE80B9D598175B0"",""assignmentId"":""38eb12fa-d9dd-40b3-9c7f-a3ad4e06c8d7"",""projectId"":""051c06f1-75cc-4548-856d-4923ddaba0dc""}","https://test12345.live/?num_scrambled_semantic=8&num_scrambled_causal=4&num_scrambled_schematic=4&participantId=BCF1104BBF8B4C4A8EE80B9D598175B0&assignmentId=38eb12fa-d9dd-40b3-9c7f-a3ad4e06c8d7&projectId=051c06f1-75cc-4548-856d-4923ddaba0dc","BCF1104BBF8B4C4A8EE80B9D598175B0-2025-05-15-19-05-13","","null","","images/semantic_sequence/redecorating_semantic/redecorating_semantic_6.png","null","",""
"","","","","","image-button-response","35","231344","0.0-10.0-1.0-1.3","BCF1104BBF8B4C4A8EE80B9D598175B0","BCF1104BBF8B4C4A8EE80B9D598175B0","38eb12fa-d9dd-40b3-9c7f-a3ad4e06c8d7","051c06f1-75cc-4548-856d-4923ddaba0dc","{""num_scrambled_semantic"":""8"",""num_scrambled_causal"":""4"",""num_scrambled_schematic"":""4"",""participantId"":""BCF1104BBF8B4C4A8EE80B9D598175B0"",""assignmentId"":""38eb12fa-d9dd-40b3-9c7f-a3ad4e06c8d7"",""projectId"":""051c06f1-75cc-4548-856d-4923ddaba0dc""}","https://test12345.live/?num_scrambled_semantic=8&num_scrambled_causal=4&num_scrambled_schematic=4&participantId=BCF1104BBF8B4C4A8EE80B9D598175B0&assignmentId=38eb12fa-d9dd-40b3-9c7f-a3ad4e06c8d7&projectId=051c06f1-75cc-4548-856d-4923ddaba0dc","BCF1104BBF8B4C4A8EE80B9D598175B0-2025-05-15-19-05-13","","971","","images/semantic_sequence/redecorating_semantic/redecorating_semantic_6.png","0","",""
"","","","","","image-button-response","36","233162","0.0-10.0-1.0-2.3","BCF1104BBF8B4C4A8EE80B9D598175B0","BCF1104BBF8B4C4A8EE80B9D598175B0","38eb12fa-d9dd-40b3-9c7f-a3ad4e06c8d7","051c06f1-75cc-4548-856d-4923ddaba0dc","{""num_scrambled_semantic"":""8"",""num_scrambled_causal"":""4"",""num_scrambled_schematic"":""4"",""participantId"":""BCF1104BBF8B4C4A8EE80B9D598175B0"",""assignmentId"":""38eb12fa-d9dd-40b3-9c7f-a3ad4e06c8d7"",""projectId"":""051c06f1-75cc-4548-856d-4923ddaba0dc""}","https://test12345.live/?num_scrambled_semantic=8&num_scrambled_causal=4&num_scrambled_schematic=4&participantId=BCF1104BBF8B4C4A8EE80B9D598175B0&assignmentId=38eb12fa-d9dd-40b3-9c7f-a3ad4e06c8d7&projectId=051c06f1-75cc-4548-856d-4923ddaba0dc","BCF1104BBF8B4C4A8EE80B9D598175B0-2025-05-15-19-05-13","","null","","[]","null","",""
"","","","","","image-button-response","37","237675","0.0-10.0-1.0-0.4","BCF1104BBF8B4C4A8EE80B9D598175B0","BCF1104BBF8B4C4A8EE80B9D598175B0","38eb12fa-d9dd-40b3-9c7f-a3ad4e06c8d7","051c06f1-75cc-4548-856d-4923ddaba0dc","{""num_scrambled_semantic"":""8"",""num_scrambled_causal"":""4"",""num_scrambled_schematic"":""4"",""participantId"":""BCF1104BBF8B4C4A8EE80B9D598175B0"",""assignmentId"":""38eb12fa-d9dd-40b3-9c7f-a3ad4e06c8d7"",""projectId"":""051c06f1-75cc-4548-856d-4923ddaba0dc""}","https://test12345.live/?num_scrambled_semantic=8&num_scrambled_causal=4&num_scrambled_schematic=4&participantId=BCF1104BBF8B4C4A8EE80B9D598175B0&assignmentId=38eb12fa-d9dd-40b3-9c7f-a3ad4e06c8d7&projectId=051c06f1-75cc-4548-856d-4923ddaba0dc","BCF1104BBF8B4C4A8EE80B9D598175B0-2025-05-15-19-05-13","","null","","images/semantic_sequence/redecorating_semantic/redecorating_semantic_5.png","null","",""
"","","","","","image-button-response","38","238424","0.0-10.0-1.0-1.4","BCF1104BBF8B4C4A8EE80B9D598175B0","BCF1104BBF8B4C4A8EE80B9D598175B0","38eb12fa-d9dd-40b3-9c7f-a3ad4e06c8d7","051c06f1-75cc-4548-856d-4923ddaba0dc","{""num_scrambled_semantic"":""8"",""num_scrambled_causal"":""4"",""num_scrambled_schematic"":""4"",""participantId"":""BCF1104BBF8B4C4A8EE80B9D598175B0"",""assignmentId"":""38eb12fa-d9dd-40b3-9c7f-a3ad4e06c8d7"",""projectId"":""051c06f1-75cc-4548-856d-4923ddaba0dc""}","https://test12345.live/?num_scrambled_semantic=8&num_scrambled_causal=4&num_scrambled_schematic=4&participantId=BCF1104BBF8B4C4A8EE80B9D598175B0&assignmentId=38eb12fa-d9dd-40b3-9c7f-a3ad4e06c8d7&projectId=051c06f1-75cc-4548-856d-4923ddaba0dc","BCF1104BBF8B4C4A8EE80B9D598175B0-2025-05-15-19-05-13","","741","","images/semantic_sequence/redecorating_semantic/redecorating_semantic_5.png","0","",""
"","","","","","image-button-response","39","240238","0.0-10.0-1.0-2.4","BCF1104BBF8B4C4A8EE80B9D598175B0","BCF1104BBF8B4C4A8EE80B9D598175B0","38eb12fa-d9dd-40b3-9c7f-a3ad4e06c8d7","051c06f1-75cc-4548-856d-4923ddaba0dc","{""num_scrambled_semantic"":""8"",""num_scrambled_causal"":""4"",""num_scrambled_schematic"":""4"",""participantId"":""BCF1104BBF8B4C4A8EE80B9D598175B0"",""assignmentId"":""38eb12fa-d9dd-40b3-9c7f-a3ad4e06c8d7"",""projectId"":""051c06f1-75cc-4548-856d-4923ddaba0dc""}","https://test12345.live/?num_scrambled_semantic=8&num_scrambled_causal=4&num_scrambled_schematic=4&participantId=BCF1104BBF8B4C4A8EE80B9D598175B0&assignmentId=38eb12fa-d9dd-40b3-9c7f-a3ad4e06c8d7&projectId=051c06f1-75cc-4548-856d-4923ddaba0dc","BCF1104BBF8B4C4A8EE80B9D598175B0-2025-05-15-19-05-13","","null","","[]","null","",""
"","","","","","image-button-response","40","244749","0.0-10.0-1.0-0.5","BCF1104BBF8B4C4A8EE80B9D598175B0","BCF1104BBF8B4C4A8EE80B9D598175B0","38eb12fa-d9dd-40b3-9c7f-a3ad4e06c8d7","051c06f1-75cc-4548-856d-4923ddaba0dc","{""num_scrambled_semantic"":""8"",""num_scrambled_causal"":""4"",""num_scrambled_schematic"":""4"",""participantId"":""BCF1104BBF8B4C4A8EE80B9D598175B0"",""assignmentId"":""38eb12fa-d9dd-40b3-9c7f-a3ad4e06c8d7"",""projectId"":""051c06f1-75cc-4548-856d-4923ddaba0dc""}","https://test12345.live/?num_scrambled_semantic=8&num_scrambled_causal=4&num_scrambled_schematic=4&participantId=BCF1104BBF8B4C4A8EE80B9D598175B0&assignmentId=38eb12fa-d9dd-40b3-9c7f-a3ad4e06c8d7&projectId=051c06f1-75cc-4548-856d-4923ddaba0dc","BCF1104BBF8B4C4A8EE80B9D598175B0-2025-05-15-19-05-13","","null","","images/semantic_sequence/redecorating_semantic/redecorating_semantic_1.png","null","",""
"","","","","","image-button-response","41","245886","0.0-10.0-1.0-1.5","BCF1104BBF8B4C4A8EE80B9D598175B0","BCF1104BBF8B4C4A8EE80B9D598175B0","38eb12fa-d9dd-40b3-9c7f-a3ad4e06c8d7","051c06f1-75cc-4548-856d-4923ddaba0dc","{""num_scrambled_semantic"":""8"",""num_scrambled_causal"":""4"",""num_scrambled_schematic"":""4"",""participantId"":""BCF1104BBF8B4C4A8EE80B9D598175B0"",""assignmentId"":""38eb12fa-d9dd-40b3-9c7f-a3ad4e06c8d7"",""projectId"":""051c06f1-75cc-4548-856d-4923ddaba0dc""}","https://test12345.live/?num_scrambled_semantic=8&num_scrambled_causal=4&num_scrambled_schematic=4&participantId=BCF1104BBF8B4C4A8EE80B9D598175B0&assignmentId=38eb12fa-d9dd-40b3-9c7f-a3ad4e06c8d7&projectId=051c06f1-75cc-4548-856d-4923ddaba0dc","BCF1104BBF8B4C4A8EE80B9D598175B0-2025-05-15-19-05-13","","1130","","images/semantic_sequence/redecorating_semantic/redecorating_semantic_1.png","0","",""
"","","","","","image-button-response","42","247692","0.0-10.0-1.0-2.5","BCF1104BBF8B4C4A8EE80B9D598175B0","BCF1104BBF8B4C4A8EE80B9D598175B0","38eb12fa-d9dd-40b3-9c7f-a3ad4e06c8d7","051c06f1-75cc-4548-856d-4923ddaba0dc","{""num_scrambled_semantic"":""8"",""num_scrambled_causal"":""4"",""num_scrambled_schematic"":""4"",""participantId"":""BCF1104BBF8B4C4A8EE80B9D598175B0"",""assignmentId"":""38eb12fa-d9dd-40b3-9c7f-a3ad4e06c8d7"",""projectId"":""051c06f1-75cc-4548-856d-4923ddaba0dc""}","https://test12345.live/?num_scrambled_semantic=8&num_scrambled_causal=4&num_scrambled_schematic=4&participantId=BCF1104BBF8B4C4A8EE80B9D598175B0&assignmentId=38eb12fa-d9dd-40b3-9c7f-a3ad4e06c8d7&projectId=051c06f1-75cc-4548-856d-4923ddaba0dc","BCF1104BBF8B4C4A8EE80B9D598175B0-2025-05-15-19-05-13","","null","","[]","null","",""
"","","","","","image-button-response","43","252196","0.0-10.0-1.0-0.6","BCF1104BBF8B4C4A8EE80B9D598175B0","BCF1104BBF8B4C4A8EE80B9D598175B0","38eb12fa-d9dd-40b3-9c7f-a3ad4e06c8d7","051c06f1-75cc-4548-856d-4923ddaba0dc","{""num_scrambled_semantic"":""8"",""num_scrambled_causal"":""4"",""num_scrambled_schematic"":""4"",""participantId"":""BCF1104BBF8B4C4A8EE80B9D598175B0"",""assignmentId"":""38eb12fa-d9dd-40b3-9c7f-a3ad4e06c8d7"",""projectId"":""051c06f1-75cc-4548-856d-4923ddaba0dc""}","https://test12345.live/?num_scrambled_semantic=8&num_scrambled_causal=4&num_scrambled_schematic=4&participantId=BCF1104BBF8B4C4A8EE80B9D598175B0&assignmentId=38eb12fa-d9dd-40b3-9c7f-a3ad4e06c8d7&projectId=051c06f1-75cc-4548-856d-4923ddaba0dc","BCF1104BBF8B4C4A8EE80B9D598175B0-2025-05-15-19-05-13","","null","","images/semantic_sequence/redecorating_semantic/redecorating_semantic_8.png","null","",""
"","","","","","image-button-response","44","253105","0.0-10.0-1.0-1.6","BCF1104BBF8B4C4A8EE80B9D598175B0","BCF1104BBF8B4C4A8EE80B9D598175B0","38eb12fa-d9dd-40b3-9c7f-a3ad4e06c8d7","051c06f1-75cc-4548-856d-4923ddaba0dc","{""num_scrambled_semantic"":""8"",""num_scrambled_causal"":""4"",""num_scrambled_schematic"":""4"",""participantId"":""BCF1104BBF8B4C4A8EE80B9D598175B0"",""assignmentId"":""38eb12fa-d9dd-40b3-9c7f-a3ad4e06c8d7"",""projectId"":""051c06f1-75cc-4548-856d-4923ddaba0dc""}","https://test12345.live/?num_scrambled_semantic=8&num_scrambled_causal=4&num_scrambled_schematic=4&participantId=BCF1104BBF8B4C4A8EE80B9D598175B0&assignmentId=38eb12fa-d9dd-40b3-9c7f-a3ad4e06c8d7&projectId=051c06f1-75cc-4548-856d-4923ddaba0dc","BCF1104BBF8B4C4A8EE80B9D598175B0-2025-05-15-19-05-13","","901","","images/semantic_sequence/redecorating_semantic/redecorating_semantic_8.png","0","",""
"","","","","","image-button-response","45","254916","0.0-10.0-1.0-2.6","BCF1104BBF8B4C4A8EE80B9D598175B0","BCF1104BBF8B4C4A8EE80B9D598175B0","38eb12fa-d9dd-40b3-9c7f-a3ad4e06c8d7","051c06f1-75cc-4548-856d-4923ddaba0dc","{""num_scrambled_semantic"":""8"",""num_scrambled_causal"":""4"",""num_scrambled_schematic"":""4"",""participantId"":""BCF1104BBF8B4C4A8EE80B9D598175B0"",""assignmentId"":""38eb12fa-d9dd-40b3-9c7f-a3ad4e06c8d7"",""projectId"":""051c06f1-75cc-4548-856d-4923ddaba0dc""}","https://test12345.live/?num_scrambled_semantic=8&num_scrambled_causal=4&num_scrambled_schematic=4&participantId=BCF1104BBF8B4C4A8EE80B9D598175B0&assignmentId=38eb12fa-d9dd-40b3-9c7f-a3ad4e06c8d7&projectId=051c06f1-75cc-4548-856d-4923ddaba0dc","BCF1104BBF8B4C4A8EE80B9D598175B0-2025-05-15-19-05-13","","null","","[]","null","",""
"","","","","","image-button-response","46","259423","0.0-10.0-1.0-0.7","BCF1104BBF8B4C4A8EE80B9D598175B0","BCF1104BBF8B4C4A8EE80B9D598175B0","38eb12fa-d9dd-40b3-9c7f-a3ad4e06c8d7","051c06f1-75cc-4548-856d-4923ddaba0dc","{""num_scrambled_semantic"":""8"",""num_scrambled_causal"":""4"",""num_scrambled_schematic"":""4"",""participantId"":""BCF1104BBF8B4C4A8EE80B9D598175B0"",""assignmentId"":""38eb12fa-d9dd-40b3-9c7f-a3ad4e06c8d7"",""projectId"":""051c06f1-75cc-4548-856d-4923ddaba0dc""}","https://test12345.live/?num_scrambled_semantic=8&num_scrambled_causal=4&num_scrambled_schematic=4&participantId=BCF1104BBF8B4C4A8EE80B9D598175B0&assignmentId=38eb12fa-d9dd-40b3-9c7f-a3ad4e06c8d7&projectId=051c06f1-75cc-4548-856d-4923ddaba0dc","BCF1104BBF8B4C4A8EE80B9D598175B0-2025-05-15-19-05-13","","null","","images/semantic_sequence/redecorating_semantic/redecorating_semantic_3.png","null","",""
"","","","","","image-button-response","47","261213","0.0-10.0-1.0-1.7","BCF1104BBF8B4C4A8EE80B9D598175B0","BCF1104BBF8B4C4A8EE80B9D598175B0","38eb12fa-d9dd-40b3-9c7f-a3ad4e06c8d7","051c06f1-75cc-4548-856d-4923ddaba0dc","{""num_scrambled_semantic"":""8"",""num_scrambled_causal"":""4"",""num_scrambled_schematic"":""4"",""participantId"":""BCF1104BBF8B4C4A8EE80B9D598175B0"",""assignmentId"":""38eb12fa-d9dd-40b3-9c7f-a3ad4e06c8d7"",""projectId"":""051c06f1-75cc-4548-856d-4923ddaba0dc""}","https://test12345.live/?num_scrambled_semantic=8&num_scrambled_causal=4&num_scrambled_schematic=4&participantId=BCF1104BBF8B4C4A8EE80B9D598175B0&assignmentId=38eb12fa-d9dd-40b3-9c7f-a3ad4e06c8d7&projectId=051c06f1-75cc-4548-856d-4923ddaba0dc","BCF1104BBF8B4C4A8EE80B9D598175B0-2025-05-15-19-05-13","","1784","","images/semantic_sequence/redecorating_semantic/redecorating_semantic_3.png","0","",""
"","","","","","image-button-response","48","263027","0.0-10.0-1.0-2.7","BCF1104BBF8B4C4A8EE80B9D598175B0","BCF1104BBF8B4C4A8EE80B9D598175B0","38eb12fa-d9dd-40b3-9c7f-a3ad4e06c8d7","051c06f1-75cc-4548-856d-4923ddaba0dc","{""num_scrambled_semantic"":""8"",""num_scrambled_causal"":""4"",""num_scrambled_schematic"":""4"",""participantId"":""BCF1104BBF8B4C4A8EE80B9D598175B0"",""assignmentId"":""38eb12fa-d9dd-40b3-9c7f-a3ad4e06c8d7"",""projectId"":""051c06f1-75cc-4548-856d-4923ddaba0dc""}","https://test12345.live/?num_scrambled_semantic=8&num_scrambled_causal=4&num_scrambled_schematic=4&participantId=BCF1104BBF8B4C4A8EE80B9D598175B0&assignmentId=38eb12fa-d9dd-40b3-9c7f-a3ad4e06c8d7&projectId=051c06f1-75cc-4548-856d-4923ddaba0dc","BCF1104BBF8B4C4A8EE80B9D598175B0-2025-05-15-19-05-13","","null","","[]","null","",""
"","","","","","image-button-response","49","267534","0.0-10.0-1.0-0.8","BCF1104BBF8B4C4A8EE80B9D598175B0","BCF1104BBF8B4C4A8EE80B9D598175B0","38eb12fa-d9dd-40b3-9c7f-a3ad4e06c8d7","051c06f1-75cc-4548-856d-4923ddaba0dc","{""num_scrambled_semantic"":""8"",""num_scrambled_causal"":""4"",""num_scrambled_schematic"":""4"",""participantId"":""BCF1104BBF8B4C4A8EE80B9D598175B0"",""assignmentId"":""38eb12fa-d9dd-40b3-9c7f-a3ad4e06c8d7"",""projectId"":""051c06f1-75cc-4548-856d-4923ddaba0dc""}","https://test12345.live/?num_scrambled_semantic=8&num_scrambled_causal=4&num_scrambled_schematic=4&participantId=BCF1104BBF8B4C4A8EE80B9D598175B0&assignmentId=38eb12fa-d9dd-40b3-9c7f-a3ad4e06c8d7&projectId=051c06f1-75cc-4548-856d-4923ddaba0dc","BCF1104BBF8B4C4A8EE80B9D598175B0-2025-05-15-19-05-13","","null","","images/semantic_sequence/redecorating_semantic/redecorating_semantic_7.png","null","",""
"","","","","","image-button-response","50","268585","0.0-10.0-1.0-1.8","BCF1104BBF8B4C4A8EE80B9D598175B0","BCF1104BBF8B4C4A8EE80B9D598175B0","38eb12fa-d9dd-40b3-9c7f-a3ad4e06c8d7","051c06f1-75cc-4548-856d-4923ddaba0dc","{""num_scrambled_semantic"":""8"",""num_scrambled_causal"":""4"",""num_scrambled_schematic"":""4"",""participantId"":""BCF1104BBF8B4C4A8EE80B9D598175B0"",""assignmentId"":""38eb12fa-d9dd-40b3-9c7f-a3ad4e06c8d7"",""projectId"":""051c06f1-75cc-4548-856d-4923ddaba0dc""}","https://test12345.live/?num_scrambled_semantic=8&num_scrambled_causal=4&num_scrambled_schematic=4&participantId=BCF1104BBF8B4C4A8EE80B9D598175B0&assignmentId=38eb12fa-d9dd-40b3-9c7f-a3ad4e06c8d7&projectId=051c06f1-75cc-4548-856d-4923ddaba0dc","BCF1104BBF8B4C4A8EE80B9D598175B0-2025-05-15-19-05-13","","1046","","images/semantic_sequence/redecorating_semantic/redecorating_semantic_7.png","0","",""
"","","","","","image-button-response","51","270396","0.0-10.0-1.0-2.8","BCF1104BBF8B4C4A8EE80B9D598175B0","BCF1104BBF8B4C4A8EE80B9D598175B0","38eb12fa-d9dd-40b3-9c7f-a3ad4e06c8d7","051c06f1-75cc-4548-856d-4923ddaba0dc","{""num_scrambled_semantic"":""8"",""num_scrambled_causal"":""4"",""num_scrambled_schematic"":""4"",""participantId"":""BCF1104BBF8B4C4A8EE80B9D598175B0"",""assignmentId"":""38eb12fa-d9dd-40b3-9c7f-a3ad4e06c8d7"",""projectId"":""051c06f1-75cc-4548-856d-4923ddaba0dc""}","https://test12345.live/?num_scrambled_semantic=8&num_scrambled_causal=4&num_scrambled_schematic=4&participantId=BCF1104BBF8B4C4A8EE80B9D598175B0&assignmentId=38eb12fa-d9dd-40b3-9c7f-a3ad4e06c8d7&projectId=051c06f1-75cc-4548-856d-4923ddaba0dc","BCF1104BBF8B4C4A8EE80B9D598175B0-2025-05-15-19-05-13","","null","","[]","null","",""
"","","","","","image-button-response","52","274918","0.0-10.0-1.0-0.9","BCF1104BBF8B4C4A8EE80B9D598175B0","BCF1104BBF8B4C4A8EE80B9D598175B0","38eb12fa-d9dd-40b3-9c7f-a3ad4e06c8d7","051c06f1-75cc-4548-856d-4923ddaba0dc","{""num_scrambled_semantic"":""8"",""num_scrambled_causal"":""4"",""num_scrambled_schematic"":""4"",""participantId"":""BCF1104BBF8B4C4A8EE80B9D598175B0"",""assignmentId"":""38eb12fa-d9dd-40b3-9c7f-a3ad4e06c8d7"",""projectId"":""051c06f1-75cc-4548-856d-4923ddaba0dc""}","https://test12345.live/?num_scrambled_semantic=8&num_scrambled_causal=4&num_scrambled_schematic=4&participantId=BCF1104BBF8B4C4A8EE80B9D598175B0&assignmentId=38eb12fa-d9dd-40b3-9c7f-a3ad4e06c8d7&projectId=051c06f1-75cc-4548-856d-4923ddaba0dc","BCF1104BBF8B4C4A8EE80B9D598175B0-2025-05-15-19-05-13","","null","","images/semantic_sequence/redecorating_semantic/redecorating_semantic_2.png","null","",""
"","","","","","image-button-response","53","275748","0.0-10.0-1.0-1.9","BCF1104BBF8B4C4A8EE80B9D598175B0","BCF1104BBF8B4C4A8EE80B9D598175B0","38eb12fa-d9dd-40b3-9c7f-a3ad4e06c8d7","051c06f1-75cc-4548-856d-4923ddaba0dc","{""num_scrambled_semantic"":""8"",""num_scrambled_causal"":""4"",""num_scrambled_schematic"":""4"",""participantId"":""BCF1104BBF8B4C4A8EE80B9D598175B0"",""assignmentId"":""38eb12fa-d9dd-40b3-9c7f-a3ad4e06c8d7"",""projectId"":""051c06f1-75cc-4548-856d-4923ddaba0dc""}","https://test12345.live/?num_scrambled_semantic=8&num_scrambled_causal=4&num_scrambled_schematic=4&participantId=BCF1104BBF8B4C4A8EE80B9D598175B0&assignmentId=38eb12fa-d9dd-40b3-9c7f-a3ad4e06c8d7&projectId=051c06f1-75cc-4548-856d-4923ddaba0dc","BCF1104BBF8B4C4A8EE80B9D598175B0-2025-05-15-19-05-13","","823","","images/semantic_sequence/redecorating_semantic/redecorating_semantic_2.png","0","",""
"","","","","","image-button-response","54","277559","0.0-10.0-1.0-2.9","BCF1104BBF8B4C4A8EE80B9D598175B0","BCF1104BBF8B4C4A8EE80B9D598175B0","38eb12fa-d9dd-40b3-9c7f-a3ad4e06c8d7","051c06f1-75cc-4548-856d-4923ddaba0dc","{""num_scrambled_semantic"":""8"",""num_scrambled_causal"":""4"",""num_scrambled_schematic"":""4"",""participantId"":""BCF1104BBF8B4C4A8EE80B9D598175B0"",""assignmentId"":""38eb12fa-d9dd-40b3-9c7f-a3ad4e06c8d7"",""projectId"":""051c06f1-75cc-4548-856d-4923ddaba0dc""}","https://test12345.live/?num_scrambled_semantic=8&num_scrambled_causal=4&num_scrambled_schematic=4&participantId=BCF1104BBF8B4C4A8EE80B9D598175B0&assignmentId=38eb12fa-d9dd-40b3-9c7f-a3ad4e06c8d7&projectId=051c06f1-75cc-4548-856d-4923ddaba0dc","BCF1104BBF8B4C4A8EE80B9D598175B0-2025-05-15-19-05-13","","null","","[]","null","",""
"","","","","","html-audio-response","55","300861","0.0-11.0","BCF1104BBF8B4C4A8EE80B9D598175B0","BCF1104BBF8B4C4A8EE80B9D598175B0","38eb12fa-d9dd-40b3-9c7f-a3ad4e06c8d7","051c06f1-75cc-4548-856d-4923ddaba0dc","{""num_scrambled_semantic"":""8"",""num_scrambled_causal"":""4"",""num_scrambled_schematic"":""4"",""participantId"":""BCF1104BBF8B4C4A8EE80B9D598175B0"",""assignmentId"":""38eb12fa-d9dd-40b3-9c7f-a3ad4e06c8d7"",""projectId"":""051c06f1-75cc-4548-856d-4923ddaba0dc""}","https://test12345.live/?num_scrambled_semantic=8&num_scrambled_causal=4&num_scrambled_schematic=4&participantId=BCF1104BBF8B4C4A8EE80B9D598175B0&assignmentId=38eb12fa-d9dd-40b3-9c7f-a3ad4e06c8d7&projectId=051c06f1-75cc-4548-856d-4923ddaba0dc","BCF1104BBF8B4C4A8EE80B9D598175B0-2025-05-15-19-05-13","","7281","","[""<span style=\""color: red; font-size: 24px\""> NOW RECORDING</span><p>Please say out loud all the images you saw, as many as you can remember. The images can be said in any order.</p>""]","","4","redecorating_semantic"
"","","","","","image-button-response","56","306885","0.0-12.0-0.0","BCF1104BBF8B4C4A8EE80B9D598175B0","BCF1104BBF8B4C4A8EE80B9D598175B0","38eb12fa-d9dd-40b3-9c7f-a3ad4e06c8d7","051c06f1-75cc-4548-856d-4923ddaba0dc","{""num_scrambled_semantic"":""8"",""num_scrambled_causal"":""4"",""num_scrambled_schematic"":""4"",""participantId"":""BCF1104BBF8B4C4A8EE80B9D598175B0"",""assignmentId"":""38eb12fa-d9dd-40b3-9c7f-a3ad4e06c8d7"",""projectId"":""051c06f1-75cc-4548-856d-4923ddaba0dc""}","https://test12345.live/?num_scrambled_semantic=8&num_scrambled_causal=4&num_scrambled_schematic=4&participantId=BCF1104BBF8B4C4A8EE80B9D598175B0&assignmentId=38eb12fa-d9dd-40b3-9c7f-a3ad4e06c8d7&projectId=051c06f1-75cc-4548-856d-4923ddaba0dc","BCF1104BBF8B4C4A8EE80B9D598175B0-2025-05-15-19-05-13","","null","","images/schematic_sequence/dinner_party_scheme/dinner_party_scheme_0.png","null","",""
"","","","","","image-button-response","57","311405","0.0-12.0-1.0-0.0","BCF1104BBF8B4C4A8EE80B9D598175B0","BCF1104BBF8B4C4A8EE80B9D598175B0","38eb12fa-d9dd-40b3-9c7f-a3ad4e06c8d7","051c06f1-75cc-4548-856d-4923ddaba0dc","{""num_scrambled_semantic"":""8"",""num_scrambled_causal"":""4"",""num_scrambled_schematic"":""4"",""participantId"":""BCF1104BBF8B4C4A8EE80B9D598175B0"",""assignmentId"":""38eb12fa-d9dd-40b3-9c7f-a3ad4e06c8d7"",""projectId"":""051c06f1-75cc-4548-856d-4923ddaba0dc""}","https://test12345.live/?num_scrambled_semantic=8&num_scrambled_causal=4&num_scrambled_schematic=4&participantId=BCF1104BBF8B4C4A8EE80B9D598175B0&assignmentId=38eb12fa-d9dd-40b3-9c7f-a3ad4e06c8d7&projectId=051c06f1-75cc-4548-856d-4923ddaba0dc","BCF1104BBF8B4C4A8EE80B9D598175B0-2025-05-15-19-05-13","","null","","images/schematic_sequence/dinner_party_scheme/dinner_party_scheme_1.png","null","",""
"","","","","","image-button-response","58","313937","0.0-12.0-1.0-1.0","BCF1104BBF8B4C4A8EE80B9D598175B0","BCF1104BBF8B4C4A8EE80B9D598175B0","38eb12fa-d9dd-40b3-9c7f-a3ad4e06c8d7","051c06f1-75cc-4548-856d-4923ddaba0dc","{""num_scrambled_semantic"":""8"",""num_scrambled_causal"":""4"",""num_scrambled_schematic"":""4"",""participantId"":""BCF1104BBF8B4C4A8EE80B9D598175B0"",""assignmentId"":""38eb12fa-d9dd-40b3-9c7f-a3ad4e06c8d7"",""projectId"":""051c06f1-75cc-4548-856d-4923ddaba0dc""}","https://test12345.live/?num_scrambled_semantic=8&num_scrambled_causal=4&num_scrambled_schematic=4&participantId=BCF1104BBF8B4C4A8EE80B9D598175B0&assignmentId=38eb12fa-d9dd-40b3-9c7f-a3ad4e06c8d7&projectId=051c06f1-75cc-4548-856d-4923ddaba0dc","BCF1104BBF8B4C4A8EE80B9D598175B0-2025-05-15-19-05-13","","2523","","images/schematic_sequence/dinner_party_scheme/dinner_party_scheme_1.png","0","",""
"","","","","","image-button-response","59","315743","0.0-12.0-1.0-2.0","BCF1104BBF8B4C4A8EE80B9D598175B0","BCF1104BBF8B4C4A8EE80B9D598175B0","38eb12fa-d9dd-40b3-9c7f-a3ad4e06c8d7","051c06f1-75cc-4548-856d-4923ddaba0dc","{""num_scrambled_semantic"":""8"",""num_scrambled_causal"":""4"",""num_scrambled_schematic"":""4"",""participantId"":""BCF1104BBF8B4C4A8EE80B9D598175B0"",""assignmentId"":""38eb12fa-d9dd-40b3-9c7f-a3ad4e06c8d7"",""projectId"":""051c06f1-75cc-4548-856d-4923ddaba0dc""}","https://test12345.live/?num_scrambled_semantic=8&num_scrambled_causal=4&num_scrambled_schematic=4&participantId=BCF1104BBF8B4C4A8EE80B9D598175B0&assignmentId=38eb12fa-d9dd-40b3-9c7f-a3ad4e06c8d7&projectId=051c06f1-75cc-4548-856d-4923ddaba0dc","BCF1104BBF8B4C4A8EE80B9D598175B0-2025-05-15-19-05-13","","null","","[]","null","",""
"","","","","","image-button-response","60","320259","0.0-12.0-1.0-0.1","BCF1104BBF8B4C4A8EE80B9D598175B0","BCF1104BBF8B4C4A8EE80B9D598175B0","38eb12fa-d9dd-40b3-9c7f-a3ad4e06c8d7","051c06f1-75cc-4548-856d-4923ddaba0dc","{""num_scrambled_semantic"":""8"",""num_scrambled_causal"":""4"",""num_scrambled_schematic"":""4"",""participantId"":""BCF1104BBF8B4C4A8EE80B9D598175B0"",""assignmentId"":""38eb12fa-d9dd-40b3-9c7f-a3ad4e06c8d7"",""projectId"":""051c06f1-75cc-4548-856d-4923ddaba0dc""}","https://test12345.live/?num_scrambled_semantic=8&num_scrambled_causal=4&num_scrambled_schematic=4&participantId=BCF1104BBF8B4C4A8EE80B9D598175B0&assignmentId=38eb12fa-d9dd-40b3-9c7f-a3ad4e06c8d7&projectId=051c06f1-75cc-4548-856d-4923ddaba0dc","BCF1104BBF8B4C4A8EE80B9D598175B0-2025-05-15-19-05-13","","null","","images/schematic_sequence/dinner_party_scheme/dinner_party_scheme_2.png","null","",""
"","","","","","image-button-response","61","321204","0.0-12.0-1.0-1.1","BCF1104BBF8B4C4A8EE80B9D598175B0","BCF1104BBF8B4C4A8EE80B9D598175B0","38eb12fa-d9dd-40b3-9c7f-a3ad4e06c8d7","051c06f1-75cc-4548-856d-4923ddaba0dc","{""num_scrambled_semantic"":""8"",""num_scrambled_causal"":""4"",""num_scrambled_schematic"":""4"",""participantId"":""BCF1104BBF8B4C4A8EE80B9D598175B0"",""assignmentId"":""38eb12fa-d9dd-40b3-9c7f-a3ad4e06c8d7"",""projectId"":""051c06f1-75cc-4548-856d-4923ddaba0dc""}","https://test12345.live/?num_scrambled_semantic=8&num_scrambled_causal=4&num_scrambled_schematic=4&participantId=BCF1104BBF8B4C4A8EE80B9D598175B0&assignmentId=38eb12fa-d9dd-40b3-9c7f-a3ad4e06c8d7&projectId=051c06f1-75cc-4548-856d-4923ddaba0dc","BCF1104BBF8B4C4A8EE80B9D598175B0-2025-05-15-19-05-13","","937","","images/schematic_sequence/dinner_party_scheme/dinner_party_scheme_2.png","0","",""
"","","","","","image-button-response","62","323022","0.0-12.0-1.0-2.1","BCF1104BBF8B4C4A8EE80B9D598175B0","BCF1104BBF8B4C4A8EE80B9D598175B0","38eb12fa-d9dd-40b3-9c7f-a3ad4e06c8d7","051c06f1-75cc-4548-856d-4923ddaba0dc","{""num_scrambled_semantic"":""8"",""num_scrambled_causal"":""4"",""num_scrambled_schematic"":""4"",""participantId"":""BCF1104BBF8B4C4A8EE80B9D598175B0"",""assignmentId"":""38eb12fa-d9dd-40b3-9c7f-a3ad4e06c8d7"",""projectId"":""051c06f1-75cc-4548-856d-4923ddaba0dc""}","https://test12345.live/?num_scrambled_semantic=8&num_scrambled_causal=4&num_scrambled_schematic=4&participantId=BCF1104BBF8B4C4A8EE80B9D598175B0&assignmentId=38eb12fa-d9dd-40b3-9c7f-a3ad4e06c8d7&projectId=051c06f1-75cc-4548-856d-4923ddaba0dc","BCF1104BBF8B4C4A8EE80B9D598175B0-2025-05-15-19-05-13","","null","","[]","null","",""
"","","","","","image-button-response","63","327537","0.0-12.0-1.0-0.2","BCF1104BBF8B4C4A8EE80B9D598175B0","BCF1104BBF8B4C4A8EE80B9D598175B0","38eb12fa-d9dd-40b3-9c7f-a3ad4e06c8d7","051c06f1-75cc-4548-856d-4923ddaba0dc","{""num_scrambled_semantic"":""8"",""num_scrambled_causal"":""4"",""num_scrambled_schematic"":""4"",""participantId"":""BCF1104BBF8B4C4A8EE80B9D598175B0"",""assignmentId"":""38eb12fa-d9dd-40b3-9c7f-a3ad4e06c8d7"",""projectId"":""051c06f1-75cc-4548-856d-4923ddaba0dc""}","https://test12345.live/?num_scrambled_semantic=8&num_scrambled_causal=4&num_scrambled_schematic=4&participantId=BCF1104BBF8B4C4A8EE80B9D598175B0&assignmentId=38eb12fa-d9dd-40b3-9c7f-a3ad4e06c8d7&projectId=051c06f1-75cc-4548-856d-4923ddaba0dc","BCF1104BBF8B4C4A8EE80B9D598175B0-2025-05-15-19-05-13","","null","","images/schematic_sequence/dinner_party_scheme/dinner_party_scheme_3.png","null","",""
"","","","","","image-button-response","64","328862","0.0-12.0-1.0-1.2","BCF1104BBF8B4C4A8EE80B9D598175B0","BCF1104BBF8B4C4A8EE80B9D598175B0","38eb12fa-d9dd-40b3-9c7f-a3ad4e06c8d7","051c06f1-75cc-4548-856d-4923ddaba0dc","{""num_scrambled_semantic"":""8"",""num_scrambled_causal"":""4"",""num_scrambled_schematic"":""4"",""participantId"":""BCF1104BBF8B4C4A8EE80B9D598175B0"",""assignmentId"":""38eb12fa-d9dd-40b3-9c7f-a3ad4e06c8d7"",""projectId"":""051c06f1-75cc-4548-856d-4923ddaba0dc""}","https://test12345.live/?num_scrambled_semantic=8&num_scrambled_causal=4&num_scrambled_schematic=4&participantId=BCF1104BBF8B4C4A8EE80B9D598175B0&assignmentId=38eb12fa-d9dd-40b3-9c7f-a3ad4e06c8d7&projectId=051c06f1-75cc-4548-856d-4923ddaba0dc","BCF1104BBF8B4C4A8EE80B9D598175B0-2025-05-15-19-05-13","","1318","","images/schematic_sequence/dinner_party_scheme/dinner_party_scheme_3.png","0","",""
"","","","","","image-button-response","65","330676","0.0-12.0-1.0-2.2","BCF1104BBF8B4C4A8EE80B9D598175B0","BCF1104BBF8B4C4A8EE80B9D598175B0","38eb12fa-d9dd-40b3-9c7f-a3ad4e06c8d7","051c06f1-75cc-4548-856d-4923ddaba0dc","{""num_scrambled_semantic"":""8"",""num_scrambled_causal"":""4"",""num_scrambled_schematic"":""4"",""participantId"":""BCF1104BBF8B4C4A8EE80B9D598175B0"",""assignmentId"":""38eb12fa-d9dd-40b3-9c7f-a3ad4e06c8d7"",""projectId"":""051c06f1-75cc-4548-856d-4923ddaba0dc""}","https://test12345.live/?num_scrambled_semantic=8&num_scrambled_causal=4&num_scrambled_schematic=4&participantId=BCF1104BBF8B4C4A8EE80B9D598175B0&assignmentId=38eb12fa-d9dd-40b3-9c7f-a3ad4e06c8d7&projectId=051c06f1-75cc-4548-856d-4923ddaba0dc","BCF1104BBF8B4C4A8EE80B9D598175B0-2025-05-15-19-05-13","","null","","[]","null","",""
"","","","","","image-button-response","66","335183","0.0-12.0-1.0-0.3","BCF1104BBF8B4C4A8EE80B9D598175B0","BCF1104BBF8B4C4A8EE80B9D598175B0","38eb12fa-d9dd-40b3-9c7f-a3ad4e06c8d7","051c06f1-75cc-4548-856d-4923ddaba0dc","{""num_scrambled_semantic"":""8"",""num_scrambled_causal"":""4"",""num_scrambled_schematic"":""4"",""participantId"":""BCF1104BBF8B4C4A8EE80B9D598175B0"",""assignmentId"":""38eb12fa-d9dd-40b3-9c7f-a3ad4e06c8d7"",""projectId"":""051c06f1-75cc-4548-856d-4923ddaba0dc""}","https://test12345.live/?num_scrambled_semantic=8&num_scrambled_causal=4&num_scrambled_schematic=4&participantId=BCF1104BBF8B4C4A8EE80B9D598175B0&assignmentId=38eb12fa-d9dd-40b3-9c7f-a3ad4e06c8d7&projectId=051c06f1-75cc-4548-856d-4923ddaba0dc","BCF1104BBF8B4C4A8EE80B9D598175B0-2025-05-15-19-05-13","","null","","images/schematic_sequence/dinner_party_scheme/dinner_party_scheme_8.png","null","",""
"","","","","","image-button-response","67","336093","0.0-12.0-1.0-1.3","BCF1104BBF8B4C4A8EE80B9D598175B0","BCF1104BBF8B4C4A8EE80B9D598175B0","38eb12fa-d9dd-40b3-9c7f-a3ad4e06c8d7","051c06f1-75cc-4548-856d-4923ddaba0dc","{""num_scrambled_semantic"":""8"",""num_scrambled_causal"":""4"",""num_scrambled_schematic"":""4"",""participantId"":""BCF1104BBF8B4C4A8EE80B9D598175B0"",""assignmentId"":""38eb12fa-d9dd-40b3-9c7f-a3ad4e06c8d7"",""projectId"":""051c06f1-75cc-4548-856d-4923ddaba0dc""}","https://test12345.live/?num_scrambled_semantic=8&num_scrambled_causal=4&num_scrambled_schematic=4&participantId=BCF1104BBF8B4C4A8EE80B9D598175B0&assignmentId=38eb12fa-d9dd-40b3-9c7f-a3ad4e06c8d7&projectId=051c06f1-75cc-4548-856d-4923ddaba0dc","BCF1104BBF8B4C4A8EE80B9D598175B0-2025-05-15-19-05-13","","903","","images/schematic_sequence/dinner_party_scheme/dinner_party_scheme_8.png","0","",""
"","","","","","image-button-response","68","337899","0.0-12.0-1.0-2.3","BCF1104BBF8B4C4A8EE80B9D598175B0","BCF1104BBF8B4C4A8EE80B9D598175B0","38eb12fa-d9dd-40b3-9c7f-a3ad4e06c8d7","051c06f1-75cc-4548-856d-4923ddaba0dc","{""num_scrambled_semantic"":""8"",""num_scrambled_causal"":""4"",""num_scrambled_schematic"":""4"",""participantId"":""BCF1104BBF8B4C4A8EE80B9D598175B0"",""assignmentId"":""38eb12fa-d9dd-40b3-9c7f-a3ad4e06c8d7"",""projectId"":""051c06f1-75cc-4548-856d-4923ddaba0dc""}","https://test12345.live/?num_scrambled_semantic=8&num_scrambled_causal=4&num_scrambled_schematic=4&participantId=BCF1104BBF8B4C4A8EE80B9D598175B0&assignmentId=38eb12fa-d9dd-40b3-9c7f-a3ad4e06c8d7&projectId=051c06f1-75cc-4548-856d-4923ddaba0dc","BCF1104BBF8B4C4A8EE80B9D598175B0-2025-05-15-19-05-13","","null","","[]","null","",""
"","","","","","image-button-response","69","342423","0.0-12.0-1.0-0.4","BCF1104BBF8B4C4A8EE80B9D598175B0","BCF1104BBF8B4C4A8EE80B9D598175B0","38eb12fa-d9dd-40b3-9c7f-a3ad4e06c8d7","051c06f1-75cc-4548-856d-4923ddaba0dc","{""num_scrambled_semantic"":""8"",""num_scrambled_causal"":""4"",""num_scrambled_schematic"":""4"",""participantId"":""BCF1104BBF8B4C4A8EE80B9D598175B0"",""assignmentId"":""38eb12fa-d9dd-40b3-9c7f-a3ad4e06c8d7"",""projectId"":""051c06f1-75cc-4548-856d-4923ddaba0dc""}","https://test12345.live/?num_scrambled_semantic=8&num_scrambled_causal=4&num_scrambled_schematic=4&participantId=BCF1104BBF8B4C4A8EE80B9D598175B0&assignmentId=38eb12fa-d9dd-40b3-9c7f-a3ad4e06c8d7&projectId=051c06f1-75cc-4548-856d-4923ddaba0dc","BCF1104BBF8B4C4A8EE80B9D598175B0-2025-05-15-19-05-13","","null","","images/schematic_sequence/dinner_party_scheme/dinner_party_scheme_9.png","null","",""
"","","","","","image-button-response","70","343033","0.0-12.0-1.0-1.4","BCF1104BBF8B4C4A8EE80B9D598175B0","BCF1104BBF8B4C4A8EE80B9D598175B0","38eb12fa-d9dd-40b3-9c7f-a3ad4e06c8d7","051c06f1-75cc-4548-856d-4923ddaba0dc","{""num_scrambled_semantic"":""8"",""num_scrambled_causal"":""4"",""num_scrambled_schematic"":""4"",""participantId"":""BCF1104BBF8B4C4A8EE80B9D598175B0"",""assignmentId"":""38eb12fa-d9dd-40b3-9c7f-a3ad4e06c8d7"",""projectId"":""051c06f1-75cc-4548-856d-4923ddaba0dc""}","https://test12345.live/?num_scrambled_semantic=8&num_scrambled_causal=4&num_scrambled_schematic=4&participantId=BCF1104BBF8B4C4A8EE80B9D598175B0&assignmentId=38eb12fa-d9dd-40b3-9c7f-a3ad4e06c8d7&projectId=051c06f1-75cc-4548-856d-4923ddaba0dc","BCF1104BBF8B4C4A8EE80B9D598175B0-2025-05-15-19-05-13","","604","","images/schematic_sequence/dinner_party_scheme/dinner_party_scheme_9.png","0","",""
"","","","","","image-button-response","71","344840","0.0-12.0-1.0-2.4","BCF1104BBF8B4C4A8EE80B9D598175B0","BCF1104BBF8B4C4A8EE80B9D598175B0","38eb12fa-d9dd-40b3-9c7f-a3ad4e06c8d7","051c06f1-75cc-4548-856d-4923ddaba0dc","{""num_scrambled_semantic"":""8"",""num_scrambled_causal"":""4"",""num_scrambled_schematic"":""4"",""participantId"":""BCF1104BBF8B4C4A8EE80B9D598175B0"",""assignmentId"":""38eb12fa-d9dd-40b3-9c7f-a3ad4e06c8d7"",""projectId"":""051c06f1-75cc-4548-856d-4923ddaba0dc""}","https://test12345.live/?num_scrambled_semantic=8&num_scrambled_causal=4&num_scrambled_schematic=4&participantId=BCF1104BBF8B4C4A8EE80B9D598175B0&assignmentId=38eb12fa-d9dd-40b3-9c7f-a3ad4e06c8d7&projectId=051c06f1-75cc-4548-856d-4923ddaba0dc","BCF1104BBF8B4C4A8EE80B9D598175B0-2025-05-15-19-05-13","","null","","[]","null","",""
"","","","","","image-button-response","72","349353","0.0-12.0-1.0-0.5","BCF1104BBF8B4C4A8EE80B9D598175B0","BCF1104BBF8B4C4A8EE80B9D598175B0","38eb12fa-d9dd-40b3-9c7f-a3ad4e06c8d7","051c06f1-75cc-4548-856d-4923ddaba0dc","{""num_scrambled_semantic"":""8"",""num_scrambled_causal"":""4"",""num_scrambled_schematic"":""4"",""participantId"":""BCF1104BBF8B4C4A8EE80B9D598175B0"",""assignmentId"":""38eb12fa-d9dd-40b3-9c7f-a3ad4e06c8d7"",""projectId"":""051c06f1-75cc-4548-856d-4923ddaba0dc""}","https://test12345.live/?num_scrambled_semantic=8&num_scrambled_causal=4&num_scrambled_schematic=4&participantId=BCF1104BBF8B4C4A8EE80B9D598175B0&assignmentId=38eb12fa-d9dd-40b3-9c7f-a3ad4e06c8d7&projectId=051c06f1-75cc-4548-856d-4923ddaba0dc","BCF1104BBF8B4C4A8EE80B9D598175B0-2025-05-15-19-05-13","","null","","images/schematic_sequence/dinner_party_scheme/dinner_party_scheme_4.png","null","",""
"","","","","","image-button-response","73","350743","0.0-12.0-1.0-1.5","BCF1104BBF8B4C4A8EE80B9D598175B0","BCF1104BBF8B4C4A8EE80B9D598175B0","38eb12fa-d9dd-40b3-9c7f-a3ad4e06c8d7","051c06f1-75cc-4548-856d-4923ddaba0dc","{""num_scrambled_semantic"":""8"",""num_scrambled_causal"":""4"",""num_scrambled_schematic"":""4"",""participantId"":""BCF1104BBF8B4C4A8EE80B9D598175B0"",""assignmentId"":""38eb12fa-d9dd-40b3-9c7f-a3ad4e06c8d7"",""projectId"":""051c06f1-75cc-4548-856d-4923ddaba0dc""}","https://test12345.live/?num_scrambled_semantic=8&num_scrambled_causal=4&num_scrambled_schematic=4&participantId=BCF1104BBF8B4C4A8EE80B9D598175B0&assignmentId=38eb12fa-d9dd-40b3-9c7f-a3ad4e06c8d7&projectId=051c06f1-75cc-4548-856d-4923ddaba0dc","BCF1104BBF8B4C4A8EE80B9D598175B0-2025-05-15-19-05-13","","1383","","images/schematic_sequence/dinner_party_scheme/dinner_party_scheme_4.png","0","",""
"","","","","","image-button-response","74","352553","0.0-12.0-1.0-2.5","BCF1104BBF8B4C4A8EE80B9D598175B0","BCF1104BBF8B4C4A8EE80B9D598175B0","38eb12fa-d9dd-40b3-9c7f-a3ad4e06c8d7","051c06f1-75cc-4548-856d-4923ddaba0dc","{""num_scrambled_semantic"":""8"",""num_scrambled_causal"":""4"",""num_scrambled_schematic"":""4"",""participantId"":""BCF1104BBF8B4C4A8EE80B9D598175B0"",""assignmentId"":""38eb12fa-d9dd-40b3-9c7f-a3ad4e06c8d7"",""projectId"":""051c06f1-75cc-4548-856d-4923ddaba0dc""}","https://test12345.live/?num_scrambled_semantic=8&num_scrambled_causal=4&num_scrambled_schematic=4&participantId=BCF1104BBF8B4C4A8EE80B9D598175B0&assignmentId=38eb12fa-d9dd-40b3-9c7f-a3ad4e06c8d7&projectId=051c06f1-75cc-4548-856d-4923ddaba0dc","BCF1104BBF8B4C4A8EE80B9D598175B0-2025-05-15-19-05-13","","null","","[]","null","",""
"","","","","","image-button-response","75","357063","0.0-12.0-1.0-0.6","BCF1104BBF8B4C4A8EE80B9D598175B0","BCF1104BBF8B4C4A8EE80B9D598175B0","38eb12fa-d9dd-40b3-9c7f-a3ad4e06c8d7","051c06f1-75cc-4548-856d-4923ddaba0dc","{""num_scrambled_semantic"":""8"",""num_scrambled_causal"":""4"",""num_scrambled_schematic"":""4"",""participantId"":""BCF1104BBF8B4C4A8EE80B9D598175B0"",""assignmentId"":""38eb12fa-d9dd-40b3-9c7f-a3ad4e06c8d7"",""projectId"":""051c06f1-75cc-4548-856d-4923ddaba0dc""}","https://test12345.live/?num_scrambled_semantic=8&num_scrambled_causal=4&num_scrambled_schematic=4&participantId=BCF1104BBF8B4C4A8EE80B9D598175B0&assignmentId=38eb12fa-d9dd-40b3-9c7f-a3ad4e06c8d7&projectId=051c06f1-75cc-4548-856d-4923ddaba0dc","BCF1104BBF8B4C4A8EE80B9D598175B0-2025-05-15-19-05-13","","null","","images/schematic_sequence/dinner_party_scheme/dinner_party_scheme_6.png","null","",""
"","","","","","image-button-response","76","358750","0.0-12.0-1.0-1.6","BCF1104BBF8B4C4A8EE80B9D598175B0","BCF1104BBF8B4C4A8EE80B9D598175B0","38eb12fa-d9dd-40b3-9c7f-a3ad4e06c8d7","051c06f1-75cc-4548-856d-4923ddaba0dc","{""num_scrambled_semantic"":""8"",""num_scrambled_causal"":""4"",""num_scrambled_schematic"":""4"",""participantId"":""BCF1104BBF8B4C4A8EE80B9D598175B0"",""assignmentId"":""38eb12fa-d9dd-40b3-9c7f-a3ad4e06c8d7"",""projectId"":""051c06f1-75cc-4548-856d-4923ddaba0dc""}","https://test12345.live/?num_scrambled_semantic=8&num_scrambled_causal=4&num_scrambled_schematic=4&participantId=BCF1104BBF8B4C4A8EE80B9D598175B0&assignmentId=38eb12fa-d9dd-40b3-9c7f-a3ad4e06c8d7&projectId=051c06f1-75cc-4548-856d-4923ddaba0dc","BCF1104BBF8B4C4A8EE80B9D598175B0-2025-05-15-19-05-13","","1681","","images/schematic_sequence/dinner_party_scheme/dinner_party_scheme_6.png","0","",""
"","","","","","image-button-response","77","360564","0.0-12.0-1.0-2.6","BCF1104BBF8B4C4A8EE80B9D598175B0","BCF1104BBF8B4C4A8EE80B9D598175B0","38eb12fa-d9dd-40b3-9c7f-a3ad4e06c8d7","051c06f1-75cc-4548-856d-4923ddaba0dc","{""num_scrambled_semantic"":""8"",""num_scrambled_causal"":""4"",""num_scrambled_schematic"":""4"",""participantId"":""BCF1104BBF8B4C4A8EE80B9D598175B0"",""assignmentId"":""38eb12fa-d9dd-40b3-9c7f-a3ad4e06c8d7"",""projectId"":""051c06f1-75cc-4548-856d-4923ddaba0dc""}","https://test12345.live/?num_scrambled_semantic=8&num_scrambled_causal=4&num_scrambled_schematic=4&participantId=BCF1104BBF8B4C4A8EE80B9D598175B0&assignmentId=38eb12fa-d9dd-40b3-9c7f-a3ad4e06c8d7&projectId=051c06f1-75cc-4548-856d-4923ddaba0dc","BCF1104BBF8B4C4A8EE80B9D598175B0-2025-05-15-19-05-13","","null","","[]","null","",""
"","","","","","image-button-response","78","365077","0.0-12.0-1.0-0.7","BCF1104BBF8B4C4A8EE80B9D598175B0","BCF1104BBF8B4C4A8EE80B9D598175B0","38eb12fa-d9dd-40b3-9c7f-a3ad4e06c8d7","051c06f1-75cc-4548-856d-4923ddaba0dc","{""num_scrambled_semantic"":""8"",""num_scrambled_causal"":""4"",""num_scrambled_schematic"":""4"",""participantId"":""BCF1104BBF8B4C4A8EE80B9D598175B0"",""assignmentId"":""38eb12fa-d9dd-40b3-9c7f-a3ad4e06c8d7"",""projectId"":""051c06f1-75cc-4548-856d-4923ddaba0dc""}","https://test12345.live/?num_scrambled_semantic=8&num_scrambled_causal=4&num_scrambled_schematic=4&participantId=BCF1104BBF8B4C4A8EE80B9D598175B0&assignmentId=38eb12fa-d9dd-40b3-9c7f-a3ad4e06c8d7&projectId=051c06f1-75cc-4548-856d-4923ddaba0dc","BCF1104BBF8B4C4A8EE80B9D598175B0-2025-05-15-19-05-13","","null","","images/schematic_sequence/dinner_party_scheme/dinner_party_scheme_5.png","null","",""
"","","","","","image-button-response","79","365830","0.0-12.0-1.0-1.7","BCF1104BBF8B4C4A8EE80B9D598175B0","BCF1104BBF8B4C4A8EE80B9D598175B0","38eb12fa-d9dd-40b3-9c7f-a3ad4e06c8d7","051c06f1-75cc-4548-856d-4923ddaba0dc","{""num_scrambled_semantic"":""8"",""num_scrambled_causal"":""4"",""num_scrambled_schematic"":""4"",""participantId"":""BCF1104BBF8B4C4A8EE80B9D598175B0"",""assignmentId"":""38eb12fa-d9dd-40b3-9c7f-a3ad4e06c8d7"",""projectId"":""051c06f1-75cc-4548-856d-4923ddaba0dc""}","https://test12345.live/?num_scrambled_semantic=8&num_scrambled_causal=4&num_scrambled_schematic=4&participantId=BCF1104BBF8B4C4A8EE80B9D598175B0&assignmentId=38eb12fa-d9dd-40b3-9c7f-a3ad4e06c8d7&projectId=051c06f1-75cc-4548-856d-4923ddaba0dc","BCF1104BBF8B4C4A8EE80B9D598175B0-2025-05-15-19-05-13","","747","","images/schematic_sequence/dinner_party_scheme/dinner_party_scheme_5.png","0","",""
"","","","","","image-button-response","80","367639","0.0-12.0-1.0-2.7","BCF1104BBF8B4C4A8EE80B9D598175B0","BCF1104BBF8B4C4A8EE80B9D598175B0","38eb12fa-d9dd-40b3-9c7f-a3ad4e06c8d7","051c06f1-75cc-4548-856d-4923ddaba0dc","{""num_scrambled_semantic"":""8"",""num_scrambled_causal"":""4"",""num_scrambled_schematic"":""4"",""participantId"":""BCF1104BBF8B4C4A8EE80B9D598175B0"",""assignmentId"":""38eb12fa-d9dd-40b3-9c7f-a3ad4e06c8d7"",""projectId"":""051c06f1-75cc-4548-856d-4923ddaba0dc""}","https://test12345.live/?num_scrambled_semantic=8&num_scrambled_causal=4&num_scrambled_schematic=4&participantId=BCF1104BBF8B4C4A8EE80B9D598175B0&assignmentId=38eb12fa-d9dd-40b3-9c7f-a3ad4e06c8d7&projectId=051c06f1-75cc-4548-856d-4923ddaba0dc","BCF1104BBF8B4C4A8EE80B9D598175B0-2025-05-15-19-05-13","","null","","[]","null","",""
"","","","","","image-button-response","81","372149","0.0-12.0-1.0-0.8","BCF1104BBF8B4C4A8EE80B9D598175B0","BCF1104BBF8B4C4A8EE80B9D598175B0","38eb12fa-d9dd-40b3-9c7f-a3ad4e06c8d7","051c06f1-75cc-4548-856d-4923ddaba0dc","{""num_scrambled_semantic"":""8"",""num_scrambled_causal"":""4"",""num_scrambled_schematic"":""4"",""participantId"":""BCF1104BBF8B4C4A8EE80B9D598175B0"",""assignmentId"":""38eb12fa-d9dd-40b3-9c7f-a3ad4e06c8d7"",""projectId"":""051c06f1-75cc-4548-856d-4923ddaba0dc""}","https://test12345.live/?num_scrambled_semantic=8&num_scrambled_causal=4&num_scrambled_schematic=4&participantId=BCF1104BBF8B4C4A8EE80B9D598175B0&assignmentId=38eb12fa-d9dd-40b3-9c7f-a3ad4e06c8d7&projectId=051c06f1-75cc-4548-856d-4923ddaba0dc","BCF1104BBF8B4C4A8EE80B9D598175B0-2025-05-15-19-05-13","","null","","images/schematic_sequence/dinner_party_scheme/dinner_party_scheme_ten.png","null","",""
"","","","","","image-button-response","82","372969","0.0-12.0-1.0-1.8","BCF1104BBF8B4C4A8EE80B9D598175B0","BCF1104BBF8B4C4A8EE80B9D598175B0","38eb12fa-d9dd-40b3-9c7f-a3ad4e06c8d7","051c06f1-75cc-4548-856d-4923ddaba0dc","{""num_scrambled_semantic"":""8"",""num_scrambled_causal"":""4"",""num_scrambled_schematic"":""4"",""participantId"":""BCF1104BBF8B4C4A8EE80B9D598175B0"",""assignmentId"":""38eb12fa-d9dd-40b3-9c7f-a3ad4e06c8d7"",""projectId"":""051c06f1-75cc-4548-856d-4923ddaba0dc""}","https://test12345.live/?num_scrambled_semantic=8&num_scrambled_causal=4&num_scrambled_schematic=4&participantId=BCF1104BBF8B4C4A8EE80B9D598175B0&assignmentId=38eb12fa-d9dd-40b3-9c7f-a3ad4e06c8d7&projectId=051c06f1-75cc-4548-856d-4923ddaba0dc","BCF1104BBF8B4C4A8EE80B9D598175B0-2025-05-15-19-05-13","","813","","images/schematic_sequence/dinner_party_scheme/dinner_party_scheme_ten.png","0","",""
"","","","","","image-button-response","83","374784","0.0-12.0-1.0-2.8","BCF1104BBF8B4C4A8EE80B9D598175B0","BCF1104BBF8B4C4A8EE80B9D598175B0","38eb12fa-d9dd-40b3-9c7f-a3ad4e06c8d7","051c06f1-75cc-4548-856d-4923ddaba0dc","{""num_scrambled_semantic"":""8"",""num_scrambled_causal"":""4"",""num_scrambled_schematic"":""4"",""participantId"":""BCF1104BBF8B4C4A8EE80B9D598175B0"",""assignmentId"":""38eb12fa-d9dd-40b3-9c7f-a3ad4e06c8d7"",""projectId"":""051c06f1-75cc-4548-856d-4923ddaba0dc""}","https://test12345.live/?num_scrambled_semantic=8&num_scrambled_causal=4&num_scrambled_schematic=4&participantId=BCF1104BBF8B4C4A8EE80B9D598175B0&assignmentId=38eb12fa-d9dd-40b3-9c7f-a3ad4e06c8d7&projectId=051c06f1-75cc-4548-856d-4923ddaba0dc","BCF1104BBF8B4C4A8EE80B9D598175B0-2025-05-15-19-05-13","","null","","[]","null","",""
"","","","","","image-button-response","84","379290","0.0-12.0-1.0-0.9","BCF1104BBF8B4C4A8EE80B9D598175B0","BCF1104BBF8B4C4A8EE80B9D598175B0","38eb12fa-d9dd-40b3-9c7f-a3ad4e06c8d7","051c06f1-75cc-4548-856d-4923ddaba0dc","{""num_scrambled_semantic"":""8"",""num_scrambled_causal"":""4"",""num_scrambled_schematic"":""4"",""participantId"":""BCF1104BBF8B4C4A8EE80B9D598175B0"",""assignmentId"":""38eb12fa-d9dd-40b3-9c7f-a3ad4e06c8d7"",""projectId"":""051c06f1-75cc-4548-856d-4923ddaba0dc""}","https://test12345.live/?num_scrambled_semantic=8&num_scrambled_causal=4&num_scrambled_schematic=4&participantId=BCF1104BBF8B4C4A8EE80B9D598175B0&assignmentId=38eb12fa-d9dd-40b3-9c7f-a3ad4e06c8d7&projectId=051c06f1-75cc-4548-856d-4923ddaba0dc","BCF1104BBF8B4C4A8EE80B9D598175B0-2025-05-15-19-05-13","","null","","images/schematic_sequence/dinner_party_scheme/dinner_party_scheme_7.png","null","",""
"","","","","","image-button-response","85","380085","0.0-12.0-1.0-1.9","BCF1104BBF8B4C4A8EE80B9D598175B0","BCF1104BBF8B4C4A8EE80B9D598175B0","38eb12fa-d9dd-40b3-9c7f-a3ad4e06c8d7","051c06f1-75cc-4548-856d-4923ddaba0dc","{""num_scrambled_semantic"":""8"",""num_scrambled_causal"":""4"",""num_scrambled_schematic"":""4"",""participantId"":""BCF1104BBF8B4C4A8EE80B9D598175B0"",""assignmentId"":""38eb12fa-d9dd-40b3-9c7f-a3ad4e06c8d7"",""projectId"":""051c06f1-75cc-4548-856d-4923ddaba0dc""}","https://test12345.live/?num_scrambled_semantic=8&num_scrambled_causal=4&num_scrambled_schematic=4&participantId=BCF1104BBF8B4C4A8EE80B9D598175B0&assignmentId=38eb12fa-d9dd-40b3-9c7f-a3ad4e06c8d7&projectId=051c06f1-75cc-4548-856d-4923ddaba0dc","BCF1104BBF8B4C4A8EE80B9D598175B0-2025-05-15-19-05-13","","788","","images/schematic_sequence/dinner_party_scheme/dinner_party_scheme_7.png","0","",""
"","","","","","image-button-response","86","381899","0.0-12.0-1.0-2.9","BCF1104BBF8B4C4A8EE80B9D598175B0","BCF1104BBF8B4C4A8EE80B9D598175B0","38eb12fa-d9dd-40b3-9c7f-a3ad4e06c8d7","051c06f1-75cc-4548-856d-4923ddaba0dc","{""num_scrambled_semantic"":""8"",""num_scrambled_causal"":""4"",""num_scrambled_schematic"":""4"",""participantId"":""BCF1104BBF8B4C4A8EE80B9D598175B0"",""assignmentId"":""38eb12fa-d9dd-40b3-9c7f-a3ad4e06c8d7"",""projectId"":""051c06f1-75cc-4548-856d-4923ddaba0dc""}","https://test12345.live/?num_scrambled_semantic=8&num_scrambled_causal=4&num_scrambled_schematic=4&participantId=BCF1104BBF8B4C4A8EE80B9D598175B0&assignmentId=38eb12fa-d9dd-40b3-9c7f-a3ad4e06c8d7&projectId=051c06f1-75cc-4548-856d-4923ddaba0dc","BCF1104BBF8B4C4A8EE80B9D598175B0-2025-05-15-19-05-13","","null","","[]","null","",""
"","","","","","html-audio-response","87","415471","0.0-13.0","BCF1104BBF8B4C4A8EE80B9D598175B0","BCF1104BBF8B4C4A8EE80B9D598175B0","38eb12fa-d9dd-40b3-9c7f-a3ad4e06c8d7","051c06f1-75cc-4548-856d-4923ddaba0dc","{""num_scrambled_semantic"":""8"",""num_scrambled_causal"":""4"",""num_scrambled_schematic"":""4"",""participantId"":""BCF1104BBF8B4C4A8EE80B9D598175B0"",""assignmentId"":""38eb12fa-d9dd-40b3-9c7f-a3ad4e06c8d7"",""projectId"":""051c06f1-75cc-4548-856d-4923ddaba0dc""}","https://test12345.live/?num_scrambled_semantic=8&num_scrambled_causal=4&num_scrambled_schematic=4&participantId=BCF1104BBF8B4C4A8EE80B9D598175B0&assignmentId=38eb12fa-d9dd-40b3-9c7f-a3ad4e06c8d7&projectId=051c06f1-75cc-4548-856d-4923ddaba0dc","BCF1104BBF8B4C4A8EE80B9D598175B0-2025-05-15-19-05-13","","16016","","[""<span style=\""color: red; font-size: 24px\""> NOW RECORDING</span><p>Please say out loud all the images you saw, as many as you can remember. The images can be said in any order.</p>""]","","8","dinner_party_scheme"
"","","","","","image-button-response","88","421490","0.0-14.0-0.0","BCF1104BBF8B4C4A8EE80B9D598175B0","BCF1104BBF8B4C4A8EE80B9D598175B0","38eb12fa-d9dd-40b3-9c7f-a3ad4e06c8d7","051c06f1-75cc-4548-856d-4923ddaba0dc","{""num_scrambled_semantic"":""8"",""num_scrambled_causal"":""4"",""num_scrambled_schematic"":""4"",""participantId"":""BCF1104BBF8B4C4A8EE80B9D598175B0"",""assignmentId"":""38eb12fa-d9dd-40b3-9c7f-a3ad4e06c8d7"",""projectId"":""051c06f1-75cc-4548-856d-4923ddaba0dc""}","https://test12345.live/?num_scrambled_semantic=8&num_scrambled_causal=4&num_scrambled_schematic=4&participantId=BCF1104BBF8B4C4A8EE80B9D598175B0&assignmentId=38eb12fa-d9dd-40b3-9c7f-a3ad4e06c8d7&projectId=051c06f1-75cc-4548-856d-4923ddaba0dc","BCF1104BBF8B4C4A8EE80B9D598175B0-2025-05-15-19-05-13","","null","","images/semantic_sequence/visiting_cities_semantic/visiting_cities_semantic_0.png","null","",""
"","","","","","image-button-response","89","426005","0.0-14.0-1.0-0.0","BCF1104BBF8B4C4A8EE80B9D598175B0","BCF1104BBF8B4C4A8EE80B9D598175B0","38eb12fa-d9dd-40b3-9c7f-a3ad4e06c8d7","051c06f1-75cc-4548-856d-4923ddaba0dc","{""num_scrambled_semantic"":""8"",""num_scrambled_causal"":""4"",""num_scrambled_schematic"":""4"",""participantId"":""BCF1104BBF8B4C4A8EE80B9D598175B0"",""assignmentId"":""38eb12fa-d9dd-40b3-9c7f-a3ad4e06c8d7"",""projectId"":""051c06f1-75cc-4548-856d-4923ddaba0dc""}","https://test12345.live/?num_scrambled_semantic=8&num_scrambled_causal=4&num_scrambled_schematic=4&participantId=BCF1104BBF8B4C4A8EE80B9D598175B0&assignmentId=38eb12fa-d9dd-40b3-9c7f-a3ad4e06c8d7&projectId=051c06f1-75cc-4548-856d-4923ddaba0dc","BCF1104BBF8B4C4A8EE80B9D598175B0-2025-05-15-19-05-13","","null","","images/semantic_sequence/visiting_cities_semantic/visiting_cities_semantic_1.png","null","",""
"","","","","","image-button-response","90","427238","0.0-14.0-1.0-1.0","BCF1104BBF8B4C4A8EE80B9D598175B0","BCF1104BBF8B4C4A8EE80B9D598175B0","38eb12fa-d9dd-40b3-9c7f-a3ad4e06c8d7","051c06f1-75cc-4548-856d-4923ddaba0dc","{""num_scrambled_semantic"":""8"",""num_scrambled_causal"":""4"",""num_scrambled_schematic"":""4"",""participantId"":""BCF1104BBF8B4C4A8EE80B9D598175B0"",""assignmentId"":""38eb12fa-d9dd-40b3-9c7f-a3ad4e06c8d7"",""projectId"":""051c06f1-75cc-4548-856d-4923ddaba0dc""}","https://test12345.live/?num_scrambled_semantic=8&num_scrambled_causal=4&num_scrambled_schematic=4&participantId=BCF1104BBF8B4C4A8EE80B9D598175B0&assignmentId=38eb12fa-d9dd-40b3-9c7f-a3ad4e06c8d7&projectId=051c06f1-75cc-4548-856d-4923ddaba0dc","BCF1104BBF8B4C4A8EE80B9D598175B0-2025-05-15-19-05-13","","1225","","images/semantic_sequence/visiting_cities_semantic/visiting_cities_semantic_1.png","0","",""
"","","","","","image-button-response","91","429058","0.0-14.0-1.0-2.0","BCF1104BBF8B4C4A8EE80B9D598175B0","BCF1104BBF8B4C4A8EE80B9D598175B0","38eb12fa-d9dd-40b3-9c7f-a3ad4e06c8d7","051c06f1-75cc-4548-856d-4923ddaba0dc","{""num_scrambled_semantic"":""8"",""num_scrambled_causal"":""4"",""num_scrambled_schematic"":""4"",""participantId"":""BCF1104BBF8B4C4A8EE80B9D598175B0"",""assignmentId"":""38eb12fa-d9dd-40b3-9c7f-a3ad4e06c8d7"",""projectId"":""051c06f1-75cc-4548-856d-4923ddaba0dc""}","https://test12345.live/?num_scrambled_semantic=8&num_scrambled_causal=4&num_scrambled_schematic=4&participantId=BCF1104BBF8B4C4A8EE80B9D598175B0&assignmentId=38eb12fa-d9dd-40b3-9c7f-a3ad4e06c8d7&projectId=051c06f1-75cc-4548-856d-4923ddaba0dc","BCF1104BBF8B4C4A8EE80B9D598175B0-2025-05-15-19-05-13","","null","","[]","null","",""
"","","","","","image-button-response","92","433564","0.0-14.0-1.0-0.1","BCF1104BBF8B4C4A8EE80B9D598175B0","BCF1104BBF8B4C4A8EE80B9D598175B0","38eb12fa-d9dd-40b3-9c7f-a3ad4e06c8d7","051c06f1-75cc-4548-856d-4923ddaba0dc","{""num_scrambled_semantic"":""8"",""num_scrambled_causal"":""4"",""num_scrambled_schematic"":""4"",""participantId"":""BCF1104BBF8B4C4A8EE80B9D598175B0"",""assignmentId"":""38eb12fa-d9dd-40b3-9c7f-a3ad4e06c8d7"",""projectId"":""051c06f1-75cc-4548-856d-4923ddaba0dc""}","https://test12345.live/?num_scrambled_semantic=8&num_scrambled_causal=4&num_scrambled_schematic=4&participantId=BCF1104BBF8B4C4A8EE80B9D598175B0&assignmentId=38eb12fa-d9dd-40b3-9c7f-a3ad4e06c8d7&projectId=051c06f1-75cc-4548-856d-4923ddaba0dc","BCF1104BBF8B4C4A8EE80B9D598175B0-2025-05-15-19-05-13","","null","","images/semantic_sequence/visiting_cities_semantic/visiting_cities_semantic_2.png","null","",""
"","","","","","image-button-response","93","436228","0.0-14.0-1.0-1.1","BCF1104BBF8B4C4A8EE80B9D598175B0","BCF1104BBF8B4C4A8EE80B9D598175B0","38eb12fa-d9dd-40b3-9c7f-a3ad4e06c8d7","051c06f1-75cc-4548-856d-4923ddaba0dc","{""num_scrambled_semantic"":""8"",""num_scrambled_causal"":""4"",""num_scrambled_schematic"":""4"",""participantId"":""BCF1104BBF8B4C4A8EE80B9D598175B0"",""assignmentId"":""38eb12fa-d9dd-40b3-9c7f-a3ad4e06c8d7"",""projectId"":""051c06f1-75cc-4548-856d-4923ddaba0dc""}","https://test12345.live/?num_scrambled_semantic=8&num_scrambled_causal=4&num_scrambled_schematic=4&participantId=BCF1104BBF8B4C4A8EE80B9D598175B0&assignmentId=38eb12fa-d9dd-40b3-9c7f-a3ad4e06c8d7&projectId=051c06f1-75cc-4548-856d-4923ddaba0dc","BCF1104BBF8B4C4A8EE80B9D598175B0-2025-05-15-19-05-13","","2656","","images/semantic_sequence/visiting_cities_semantic/visiting_cities_semantic_2.png","1","",""
"","","","","","image-button-response","94","438044","0.0-14.0-1.0-2.1","BCF1104BBF8B4C4A8EE80B9D598175B0","BCF1104BBF8B4C4A8EE80B9D598175B0","38eb12fa-d9dd-40b3-9c7f-a3ad4e06c8d7","051c06f1-75cc-4548-856d-4923ddaba0dc","{""num_scrambled_semantic"":""8"",""num_scrambled_causal"":""4"",""num_scrambled_schematic"":""4"",""participantId"":""BCF1104BBF8B4C4A8EE80B9D598175B0"",""assignmentId"":""38eb12fa-d9dd-40b3-9c7f-a3ad4e06c8d7"",""projectId"":""051c06f1-75cc-4548-856d-4923ddaba0dc""}","https://test12345.live/?num_scrambled_semantic=8&num_scrambled_causal=4&num_scrambled_schematic=4&participantId=BCF1104BBF8B4C4A8EE80B9D598175B0&assignmentId=38eb12fa-d9dd-40b3-9c7f-a3ad4e06c8d7&projectId=051c06f1-75cc-4548-856d-4923ddaba0dc","BCF1104BBF8B4C4A8EE80B9D598175B0-2025-05-15-19-05-13","","null","","[]","null","",""
"","","","","","image-button-response","95","442554","0.0-14.0-1.0-0.2","BCF1104BBF8B4C4A8EE80B9D598175B0","BCF1104BBF8B4C4A8EE80B9D598175B0","38eb12fa-d9dd-40b3-9c7f-a3ad4e06c8d7","051c06f1-75cc-4548-856d-4923ddaba0dc","{""num_scrambled_semantic"":""8"",""num_scrambled_causal"":""4"",""num_scrambled_schematic"":""4"",""participantId"":""BCF1104BBF8B4C4A8EE80B9D598175B0"",""assignmentId"":""38eb12fa-d9dd-40b3-9c7f-a3ad4e06c8d7"",""projectId"":""051c06f1-75cc-4548-856d-4923ddaba0dc""}","https://test12345.live/?num_scrambled_semantic=8&num_scrambled_causal=4&num_scrambled_schematic=4&participantId=BCF1104BBF8B4C4A8EE80B9D598175B0&assignmentId=38eb12fa-d9dd-40b3-9c7f-a3ad4e06c8d7&projectId=051c06f1-75cc-4548-856d-4923ddaba0dc","BCF1104BBF8B4C4A8EE80B9D598175B0-2025-05-15-19-05-13","","null","","images/semantic_sequence/visiting_cities_semantic/visiting_cities_semantic_3.png","null","",""
"","","","","","image-button-response","96","444245","0.0-14.0-1.0-1.2","BCF1104BBF8B4C4A8EE80B9D598175B0","BCF1104BBF8B4C4A8EE80B9D598175B0","38eb12fa-d9dd-40b3-9c7f-a3ad4e06c8d7","051c06f1-75cc-4548-856d-4923ddaba0dc","{""num_scrambled_semantic"":""8"",""num_scrambled_causal"":""4"",""num_scrambled_schematic"":""4"",""participantId"":""BCF1104BBF8B4C4A8EE80B9D598175B0"",""assignmentId"":""38eb12fa-d9dd-40b3-9c7f-a3ad4e06c8d7"",""projectId"":""051c06f1-75cc-4548-856d-4923ddaba0dc""}","https://test12345.live/?num_scrambled_semantic=8&num_scrambled_causal=4&num_scrambled_schematic=4&participantId=BCF1104BBF8B4C4A8EE80B9D598175B0&assignmentId=38eb12fa-d9dd-40b3-9c7f-a3ad4e06c8d7&projectId=051c06f1-75cc-4548-856d-4923ddaba0dc","BCF1104BBF8B4C4A8EE80B9D598175B0-2025-05-15-19-05-13","","1683","","images/semantic_sequence/visiting_cities_semantic/visiting_cities_semantic_3.png","1","",""
"","","","","","image-button-response","97","446058","0.0-14.0-1.0-2.2","BCF1104BBF8B4C4A8EE80B9D598175B0","BCF1104BBF8B4C4A8EE80B9D598175B0","38eb12fa-d9dd-40b3-9c7f-a3ad4e06c8d7","051c06f1-75cc-4548-856d-4923ddaba0dc","{""num_scrambled_semantic"":""8"",""num_scrambled_causal"":""4"",""num_scrambled_schematic"":""4"",""participantId"":""BCF1104BBF8B4C4A8EE80B9D598175B0"",""assignmentId"":""38eb12fa-d9dd-40b3-9c7f-a3ad4e06c8d7"",""projectId"":""051c06f1-75cc-4548-856d-4923ddaba0dc""}","https://test12345.live/?num_scrambled_semantic=8&num_scrambled_causal=4&num_scrambled_schematic=4&participantId=BCF1104BBF8B4C4A8EE80B9D598175B0&assignmentId=38eb12fa-d9dd-40b3-9c7f-a3ad4e06c8d7&projectId=051c06f1-75cc-4548-856d-4923ddaba0dc","BCF1104BBF8B4C4A8EE80B9D598175B0-2025-05-15-19-05-13","","null","","[]","null","",""
"","","","","","image-button-response","98","450566","0.0-14.0-1.0-0.3","BCF1104BBF8B4C4A8EE80B9D598175B0","BCF1104BBF8B4C4A8EE80B9D598175B0","38eb12fa-d9dd-40b3-9c7f-a3ad4e06c8d7","051c06f1-75cc-4548-856d-4923ddaba0dc","{""num_scrambled_semantic"":""8"",""num_scrambled_causal"":""4"",""num_scrambled_schematic"":""4"",""participantId"":""BCF1104BBF8B4C4A8EE80B9D598175B0"",""assignmentId"":""38eb12fa-d9dd-40b3-9c7f-a3ad4e06c8d7"",""projectId"":""051c06f1-75cc-4548-856d-4923ddaba0dc""}","https://test12345.live/?num_scrambled_semantic=8&num_scrambled_causal=4&num_scrambled_schematic=4&participantId=BCF1104BBF8B4C4A8EE80B9D598175B0&assignmentId=38eb12fa-d9dd-40b3-9c7f-a3ad4e06c8d7&projectId=051c06f1-75cc-4548-856d-4923ddaba0dc","BCF1104BBF8B4C4A8EE80B9D598175B0-2025-05-15-19-05-13","","null","","images/semantic_sequence/visiting_cities_semantic/visiting_cities_semantic_4.png","null","",""
"","","","","","image-button-response","99","452260","0.0-14.0-1.0-1.3","BCF1104BBF8B4C4A8EE80B9D598175B0","BCF1104BBF8B4C4A8EE80B9D598175B0","38eb12fa-d9dd-40b3-9c7f-a3ad4e06c8d7","051c06f1-75cc-4548-856d-4923ddaba0dc","{""num_scrambled_semantic"":""8"",""num_scrambled_causal"":""4"",""num_scrambled_schematic"":""4"",""participantId"":""BCF1104BBF8B4C4A8EE80B9D598175B0"",""assignmentId"":""38eb12fa-d9dd-40b3-9c7f-a3ad4e06c8d7"",""projectId"":""051c06f1-75cc-4548-856d-4923ddaba0dc""}","https://test12345.live/?num_scrambled_semantic=8&num_scrambled_causal=4&num_scrambled_schematic=4&participantId=BCF1104BBF8B4C4A8EE80B9D598175B0&assignmentId=38eb12fa-d9dd-40b3-9c7f-a3ad4e06c8d7&projectId=051c06f1-75cc-4548-856d-4923ddaba0dc","BCF1104BBF8B4C4A8EE80B9D598175B0-2025-05-15-19-05-13","","1685","","images/semantic_sequence/visiting_cities_semantic/visiting_cities_semantic_4.png","1","",""
"","","","","","image-button-response","100","454070","0.0-14.0-1.0-2.3","BCF1104BBF8B4C4A8EE80B9D598175B0","BCF1104BBF8B4C4A8EE80B9D598175B0","38eb12fa-d9dd-40b3-9c7f-a3ad4e06c8d7","051c06f1-75cc-4548-856d-4923ddaba0dc","{""num_scrambled_semantic"":""8"",""num_scrambled_causal"":""4"",""num_scrambled_schematic"":""4"",""participantId"":""BCF1104BBF8B4C4A8EE80B9D598175B0"",""assignmentId"":""38eb12fa-d9dd-40b3-9c7f-a3ad4e06c8d7"",""projectId"":""051c06f1-75cc-4548-856d-4923ddaba0dc""}","https://test12345.live/?num_scrambled_semantic=8&num_scrambled_causal=4&num_scrambled_schematic=4&participantId=BCF1104BBF8B4C4A8EE80B9D598175B0&assignmentId=38eb12fa-d9dd-40b3-9c7f-a3ad4e06c8d7&projectId=051c06f1-75cc-4548-856d-4923ddaba0dc","BCF1104BBF8B4C4A8EE80B9D598175B0-2025-05-15-19-05-13","","null","","[]","null","",""
"","","","","","image-button-response","101","458590","0.0-14.0-1.0-0.4","BCF1104BBF8B4C4A8EE80B9D598175B0","BCF1104BBF8B4C4A8EE80B9D598175B0","38eb12fa-d9dd-40b3-9c7f-a3ad4e06c8d7","051c06f1-75cc-4548-856d-4923ddaba0dc","{""num_scrambled_semantic"":""8"",""num_scrambled_causal"":""4"",""num_scrambled_schematic"":""4"",""participantId"":""BCF1104BBF8B4C4A8EE80B9D598175B0"",""assignmentId"":""38eb12fa-d9dd-40b3-9c7f-a3ad4e06c8d7"",""projectId"":""051c06f1-75cc-4548-856d-4923ddaba0dc""}","https://test12345.live/?num_scrambled_semantic=8&num_scrambled_causal=4&num_scrambled_schematic=4&participantId=BCF1104BBF8B4C4A8EE80B9D598175B0&assignmentId=38eb12fa-d9dd-40b3-9c7f-a3ad4e06c8d7&projectId=051c06f1-75cc-4548-856d-4923ddaba0dc","BCF1104BBF8B4C4A8EE80B9D598175B0-2025-05-15-19-05-13","","null","","images/semantic_sequence/visiting_cities_semantic/visiting_cities_semantic_5.png","null","",""
"","","","","","image-button-response","102","461209","0.0-14.0-1.0-1.4","BCF1104BBF8B4C4A8EE80B9D598175B0","BCF1104BBF8B4C4A8EE80B9D598175B0","38eb12fa-d9dd-40b3-9c7f-a3ad4e06c8d7","051c06f1-75cc-4548-856d-4923ddaba0dc","{""num_scrambled_semantic"":""8"",""num_scrambled_causal"":""4"",""num_scrambled_schematic"":""4"",""participantId"":""BCF1104BBF8B4C4A8EE80B9D598175B0"",""assignmentId"":""38eb12fa-d9dd-40b3-9c7f-a3ad4e06c8d7"",""projectId"":""051c06f1-75cc-4548-856d-4923ddaba0dc""}","https://test12345.live/?num_scrambled_semantic=8&num_scrambled_causal=4&num_scrambled_schematic=4&participantId=BCF1104BBF8B4C4A8EE80B9D598175B0&assignmentId=38eb12fa-d9dd-40b3-9c7f-a3ad4e06c8d7&projectId=051c06f1-75cc-4548-856d-4923ddaba0dc","BCF1104BBF8B4C4A8EE80B9D598175B0-2025-05-15-19-05-13","","2607","","images/semantic_sequence/visiting_cities_semantic/visiting_cities_semantic_5.png","0","",""
"","","","","","image-button-response","103","463023","0.0-14.0-1.0-2.4","BCF1104BBF8B4C4A8EE80B9D598175B0","BCF1104BBF8B4C4A8EE80B9D598175B0","38eb12fa-d9dd-40b3-9c7f-a3ad4e06c8d7","051c06f1-75cc-4548-856d-4923ddaba0dc","{""num_scrambled_semantic"":""8"",""num_scrambled_causal"":""4"",""num_scrambled_schematic"":""4"",""participantId"":""BCF1104BBF8B4C4A8EE80B9D598175B0"",""assignmentId"":""38eb12fa-d9dd-40b3-9c7f-a3ad4e06c8d7"",""projectId"":""051c06f1-75cc-4548-856d-4923ddaba0dc""}","https://test12345.live/?num_scrambled_semantic=8&num_scrambled_causal=4&num_scrambled_schematic=4&participantId=BCF1104BBF8B4C4A8EE80B9D598175B0&assignmentId=38eb12fa-d9dd-40b3-9c7f-a3ad4e06c8d7&projectId=051c06f1-75cc-4548-856d-4923ddaba0dc","BCF1104BBF8B4C4A8EE80B9D598175B0-2025-05-15-19-05-13","","null","","[]","null","",""
"","","","","","image-button-response","104","467535","0.0-14.0-1.0-0.5","BCF1104BBF8B4C4A8EE80B9D598175B0","BCF1104BBF8B4C4A8EE80B9D598175B0","38eb12fa-d9dd-40b3-9c7f-a3ad4e06c8d7","051c06f1-75cc-4548-856d-4923ddaba0dc","{""num_scrambled_semantic"":""8"",""num_scrambled_causal"":""4"",""num_scrambled_schematic"":""4"",""participantId"":""BCF1104BBF8B4C4A8EE80B9D598175B0"",""assignmentId"":""38eb12fa-d9dd-40b3-9c7f-a3ad4e06c8d7"",""projectId"":""051c06f1-75cc-4548-856d-4923ddaba0dc""}","https://test12345.live/?num_scrambled_semantic=8&num_scrambled_causal=4&num_scrambled_schematic=4&participantId=BCF1104BBF8B4C4A8EE80B9D598175B0&assignmentId=38eb12fa-d9dd-40b3-9c7f-a3ad4e06c8d7&projectId=051c06f1-75cc-4548-856d-4923ddaba0dc","BCF1104BBF8B4C4A8EE80B9D598175B0-2025-05-15-19-05-13","","null","","images/semantic_sequence/visiting_cities_semantic/visiting_cities_semantic_6.png","null","",""
"","","","","","image-button-response","105","468762","0.0-14.0-1.0-1.5","BCF1104BBF8B4C4A8EE80B9D598175B0","BCF1104BBF8B4C4A8EE80B9D598175B0","38eb12fa-d9dd-40b3-9c7f-a3ad4e06c8d7","051c06f1-75cc-4548-856d-4923ddaba0dc","{""num_scrambled_semantic"":""8"",""num_scrambled_causal"":""4"",""num_scrambled_schematic"":""4"",""participantId"":""BCF1104BBF8B4C4A8EE80B9D598175B0"",""assignmentId"":""38eb12fa-d9dd-40b3-9c7f-a3ad4e06c8d7"",""projectId"":""051c06f1-75cc-4548-856d-4923ddaba0dc""}","https://test12345.live/?num_scrambled_semantic=8&num_scrambled_causal=4&num_scrambled_schematic=4&participantId=BCF1104BBF8B4C4A8EE80B9D598175B0&assignmentId=38eb12fa-d9dd-40b3-9c7f-a3ad4e06c8d7&projectId=051c06f1-75cc-4548-856d-4923ddaba0dc","BCF1104BBF8B4C4A8EE80B9D598175B0-2025-05-15-19-05-13","","1219","","images/semantic_sequence/visiting_cities_semantic/visiting_cities_semantic_6.png","1","",""
"","","","","","image-button-response","106","470570","0.0-14.0-1.0-2.5","BCF1104BBF8B4C4A8EE80B9D598175B0","BCF1104BBF8B4C4A8EE80B9D598175B0","38eb12fa-d9dd-40b3-9c7f-a3ad4e06c8d7","051c06f1-75cc-4548-856d-4923ddaba0dc","{""num_scrambled_semantic"":""8"",""num_scrambled_causal"":""4"",""num_scrambled_schematic"":""4"",""participantId"":""BCF1104BBF8B4C4A8EE80B9D598175B0"",""assignmentId"":""38eb12fa-d9dd-40b3-9c7f-a3ad4e06c8d7"",""projectId"":""051c06f1-75cc-4548-856d-4923ddaba0dc""}","https://test12345.live/?num_scrambled_semantic=8&num_scrambled_causal=4&num_scrambled_schematic=4&participantId=BCF1104BBF8B4C4A8EE80B9D598175B0&assignmentId=38eb12fa-d9dd-40b3-9c7f-a3ad4e06c8d7&projectId=051c06f1-75cc-4548-856d-4923ddaba0dc","BCF1104BBF8B4C4A8EE80B9D598175B0-2025-05-15-19-05-13","","null","","[]","null","",""
"","","","","","image-button-response","107","475077","0.0-14.0-1.0-0.6","BCF1104BBF8B4C4A8EE80B9D598175B0","BCF1104BBF8B4C4A8EE80B9D598175B0","38eb12fa-d9dd-40b3-9c7f-a3ad4e06c8d7","051c06f1-75cc-4548-856d-4923ddaba0dc","{""num_scrambled_semantic"":""8"",""num_scrambled_causal"":""4"",""num_scrambled_schematic"":""4"",""participantId"":""BCF1104BBF8B4C4A8EE80B9D598175B0"",""assignmentId"":""38eb12fa-d9dd-40b3-9c7f-a3ad4e06c8d7"",""projectId"":""051c06f1-75cc-4548-856d-4923ddaba0dc""}","https://test12345.live/?num_scrambled_semantic=8&num_scrambled_causal=4&num_scrambled_schematic=4&participantId=BCF1104BBF8B4C4A8EE80B9D598175B0&assignmentId=38eb12fa-d9dd-40b3-9c7f-a3ad4e06c8d7&projectId=051c06f1-75cc-4548-856d-4923ddaba0dc","BCF1104BBF8B4C4A8EE80B9D598175B0-2025-05-15-19-05-13","","null","","images/semantic_sequence/visiting_cities_semantic/visiting_cities_semantic_7.png","null","",""
"","","","","","image-button-response","108","477870","0.0-14.0-1.0-1.6","BCF1104BBF8B4C4A8EE80B9D598175B0","BCF1104BBF8B4C4A8EE80B9D598175B0","38eb12fa-d9dd-40b3-9c7f-a3ad4e06c8d7","051c06f1-75cc-4548-856d-4923ddaba0dc","{""num_scrambled_semantic"":""8"",""num_scrambled_causal"":""4"",""num_scrambled_schematic"":""4"",""participantId"":""BCF1104BBF8B4C4A8EE80B9D598175B0"",""assignmentId"":""38eb12fa-d9dd-40b3-9c7f-a3ad4e06c8d7"",""projectId"":""051c06f1-75cc-4548-856d-4923ddaba0dc""}","https://test12345.live/?num_scrambled_semantic=8&num_scrambled_causal=4&num_scrambled_schematic=4&participantId=BCF1104BBF8B4C4A8EE80B9D598175B0&assignmentId=38eb12fa-d9dd-40b3-9c7f-a3ad4e06c8d7&projectId=051c06f1-75cc-4548-856d-4923ddaba0dc","BCF1104BBF8B4C4A8EE80B9D598175B0-2025-05-15-19-05-13","","2788","","images/semantic_sequence/visiting_cities_semantic/visiting_cities_semantic_7.png","0","",""
"","","","","","image-button-response","109","479686","0.0-14.0-1.0-2.6","BCF1104BBF8B4C4A8EE80B9D598175B0","BCF1104BBF8B4C4A8EE80B9D598175B0","38eb12fa-d9dd-40b3-9c7f-a3ad4e06c8d7","051c06f1-75cc-4548-856d-4923ddaba0dc","{""num_scrambled_semantic"":""8"",""num_scrambled_causal"":""4"",""num_scrambled_schematic"":""4"",""participantId"":""BCF1104BBF8B4C4A8EE80B9D598175B0"",""assignmentId"":""38eb12fa-d9dd-40b3-9c7f-a3ad4e06c8d7"",""projectId"":""051c06f1-75cc-4548-856d-4923ddaba0dc""}","https://test12345.live/?num_scrambled_semantic=8&num_scrambled_causal=4&num_scrambled_schematic=4&participantId=BCF1104BBF8B4C4A8EE80B9D598175B0&assignmentId=38eb12fa-d9dd-40b3-9c7f-a3ad4e06c8d7&projectId=051c06f1-75cc-4548-856d-4923ddaba0dc","BCF1104BBF8B4C4A8EE80B9D598175B0-2025-05-15-19-05-13","","null","","[]","null","",""
"","","","","","image-button-response","110","484193","0.0-14.0-1.0-0.7","BCF1104BBF8B4C4A8EE80B9D598175B0","BCF1104BBF8B4C4A8EE80B9D598175B0","38eb12fa-d9dd-40b3-9c7f-a3ad4e06c8d7","051c06f1-75cc-4548-856d-4923ddaba0dc","{""num_scrambled_semantic"":""8"",""num_scrambled_causal"":""4"",""num_scrambled_schematic"":""4"",""participantId"":""BCF1104BBF8B4C4A8EE80B9D598175B0"",""assignmentId"":""38eb12fa-d9dd-40b3-9c7f-a3ad4e06c8d7"",""projectId"":""051c06f1-75cc-4548-856d-4923ddaba0dc""}","https://test12345.live/?num_scrambled_semantic=8&num_scrambled_causal=4&num_scrambled_schematic=4&participantId=BCF1104BBF8B4C4A8EE80B9D598175B0&assignmentId=38eb12fa-d9dd-40b3-9c7f-a3ad4e06c8d7&projectId=051c06f1-75cc-4548-856d-4923ddaba0dc","BCF1104BBF8B4C4A8EE80B9D598175B0-2025-05-15-19-05-13","","null","","images/semantic_sequence/visiting_cities_semantic/visiting_cities_semantic_8.png","null","",""
"","","","","","image-button-response","111","485647","0.0-14.0-1.0-1.7","BCF1104BBF8B4C4A8EE80B9D598175B0","BCF1104BBF8B4C4A8EE80B9D598175B0","38eb12fa-d9dd-40b3-9c7f-a3ad4e06c8d7","051c06f1-75cc-4548-856d-4923ddaba0dc","{""num_scrambled_semantic"":""8"",""num_scrambled_causal"":""4"",""num_scrambled_schematic"":""4"",""participantId"":""BCF1104BBF8B4C4A8EE80B9D598175B0"",""assignmentId"":""38eb12fa-d9dd-40b3-9c7f-a3ad4e06c8d7"",""projectId"":""051c06f1-75cc-4548-856d-4923ddaba0dc""}","https://test12345.live/?num_scrambled_semantic=8&num_scrambled_causal=4&num_scrambled_schematic=4&participantId=BCF1104BBF8B4C4A8EE80B9D598175B0&assignmentId=38eb12fa-d9dd-40b3-9c7f-a3ad4e06c8d7&projectId=051c06f1-75cc-4548-856d-4923ddaba0dc","BCF1104BBF8B4C4A8EE80B9D598175B0-2025-05-15-19-05-13","","1449","","images/semantic_sequence/visiting_cities_semantic/visiting_cities_semantic_8.png","0","",""
"","","","","","image-button-response","112","487462","0.0-14.0-1.0-2.7","BCF1104BBF8B4C4A8EE80B9D598175B0","BCF1104BBF8B4C4A8EE80B9D598175B0","38eb12fa-d9dd-40b3-9c7f-a3ad4e06c8d7","051c06f1-75cc-4548-856d-4923ddaba0dc","{""num_scrambled_semantic"":""8"",""num_scrambled_causal"":""4"",""num_scrambled_schematic"":""4"",""participantId"":""BCF1104BBF8B4C4A8EE80B9D598175B0"",""assignmentId"":""38eb12fa-d9dd-40b3-9c7f-a3ad4e06c8d7"",""projectId"":""051c06f1-75cc-4548-856d-4923ddaba0dc""}","https://test12345.live/?num_scrambled_semantic=8&num_scrambled_causal=4&num_scrambled_schematic=4&participantId=BCF1104BBF8B4C4A8EE80B9D598175B0&assignmentId=38eb12fa-d9dd-40b3-9c7f-a3ad4e06c8d7&projectId=051c06f1-75cc-4548-856d-4923ddaba0dc","BCF1104BBF8B4C4A8EE80B9D598175B0-2025-05-15-19-05-13","","null","","[]","null","",""
"","","","","","image-button-response","113","491978","0.0-14.0-1.0-0.8","BCF1104BBF8B4C4A8EE80B9D598175B0","BCF1104BBF8B4C4A8EE80B9D598175B0","38eb12fa-d9dd-40b3-9c7f-a3ad4e06c8d7","051c06f1-75cc-4548-856d-4923ddaba0dc","{""num_scrambled_semantic"":""8"",""num_scrambled_causal"":""4"",""num_scrambled_schematic"":""4"",""participantId"":""BCF1104BBF8B4C4A8EE80B9D598175B0"",""assignmentId"":""38eb12fa-d9dd-40b3-9c7f-a3ad4e06c8d7"",""projectId"":""051c06f1-75cc-4548-856d-4923ddaba0dc""}","https://test12345.live/?num_scrambled_semantic=8&num_scrambled_causal=4&num_scrambled_schematic=4&participantId=BCF1104BBF8B4C4A8EE80B9D598175B0&assignmentId=38eb12fa-d9dd-40b3-9c7f-a3ad4e06c8d7&projectId=051c06f1-75cc-4548-856d-4923ddaba0dc","BCF1104BBF8B4C4A8EE80B9D598175B0-2025-05-15-19-05-13","","null","","images/semantic_sequence/visiting_cities_semantic/visiting_cities_semantic_9.png","null","",""
