"success","timeout","failed_images","failed_audio","failed_video","trial_type","trial_index","time_elapsed","internal_node_id","subject","subject_id","study_id","session_id","urlvar","current_url","audio_id","view_history","rt","device_id","stimulus","response","estimated_stimulus_onset","seq_name"
"true","false","[]","[]","[]","preload","0","5267","0.0-0.0","BDBBB366103E490B9C58A230957AB0D7","BDBBB366103E490B9C58A230957AB0D7","27005b3d-b496-44c3-b492-df5d2995a7ac","ba640c14-69c5-453e-80b2-29051492c0e0","{""num_scrambled_semantic"":""8"",""num_scrambled_causal"":""4"",""num_scrambled_schematic"":""4"",""participantId"":""BDBBB366103E490B9C58A230957AB0D7"",""assignmentId"":""27005b3d-b496-44c3-b492-df5d2995a7ac"",""projectId"":""ba640c14-69c5-453e-80b2-29051492c0e0""}","https://test12345.live/?num_scrambled_semantic=8&num_scrambled_causal=4&num_scrambled_schematic=4&participantId=BDBBB366103E490B9C58A230957AB0D7&assignmentId=27005b3d-b496-44c3-b492-df5d2995a7ac&projectId=ba640c14-69c5-453e-80b2-29051492c0e0","BDBBB366103E490B9C58A230957AB0D7-2025-05-14-21-29-28","","","","","","",""
"","","","","","instructions","1","25892","0.0-1.0","BDBBB366103E490B9C58A230957AB0D7","BDBBB366103E490B9C58A230957AB0D7","27005b3d-b496-44c3-b492-df5d2995a7ac","ba640c14-69c5-453e-80b2-29051492c0e0","{""num_scrambled_semantic"":""8"",""num_scrambled_causal"":""4"",""num_scrambled_schematic"":""4"",""participantId"":""BDBBB366103E490B9C58A230957AB0D7"",""assignmentId"":""27005b3d-b496-44c3-b492-df5d2995a7ac"",""projectId"":""ba640c14-69c5-453e-80b2-29051492c0e0""}","https://test12345.live/?num_scrambled_semantic=8&num_scrambled_causal=4&num_scrambled_schematic=4&participantId=BDBBB366103E490B9C58A230957AB0D7&assignmentId=27005b3d-b496-44c3-b492-df5d2995a7ac&projectId=ba640c14-69c5-453e-80b2-29051492c0e0","BDBBB366103E490B9C58A230957AB0D7-2025-05-14-21-29-28","[{""page_index"":0,""viewing_time"":20625}]","20625","","","","",""
"","","","","","instructions","2","69854","0.0-2.0","BDBBB366103E490B9C58A230957AB0D7","BDBBB366103E490B9C58A230957AB0D7","27005b3d-b496-44c3-b492-df5d2995a7ac","ba640c14-69c5-453e-80b2-29051492c0e0","{""num_scrambled_semantic"":""8"",""num_scrambled_causal"":""4"",""num_scrambled_schematic"":""4"",""participantId"":""BDBBB366103E490B9C58A230957AB0D7"",""assignmentId"":""27005b3d-b496-44c3-b492-df5d2995a7ac"",""projectId"":""ba640c14-69c5-453e-80b2-29051492c0e0""}","https://test12345.live/?num_scrambled_semantic=8&num_scrambled_causal=4&num_scrambled_schematic=4&participantId=BDBBB366103E490B9C58A230957AB0D7&assignmentId=27005b3d-b496-44c3-b492-df5d2995a7ac&projectId=ba640c14-69c5-453e-80b2-29051492c0e0","BDBBB366103E490B9C58A230957AB0D7-2025-05-14-21-29-28","[{""page_index"":0,""viewing_time"":43960}]","43961","","","","",""
"true","","","","","fullscreen","3","73090","0.0-3.0","BDBBB366103E490B9C58A230957AB0D7","BDBBB366103E490B9C58A230957AB0D7","27005b3d-b496-44c3-b492-df5d2995a7ac","ba640c14-69c5-453e-80b2-29051492c0e0","{""num_scrambled_semantic"":""8"",""num_scrambled_causal"":""4"",""num_scrambled_schematic"":""4"",""participantId"":""BDBBB366103E490B9C58A230957AB0D7"",""assignmentId"":""27005b3d-b496-44c3-b492-df5d2995a7ac"",""projectId"":""ba640c14-69c5-453e-80b2-29051492c0e0""}","https://test12345.live/?num_scrambled_semantic=8&num_scrambled_causal=4&num_scrambled_schematic=4&participantId=BDBBB366103E490B9C58A230957AB0D7&assignmentId=27005b3d-b496-44c3-b492-df5d2995a7ac&projectId=ba640c14-69c5-453e-80b2-29051492c0e0","BDBBB366103E490B9C58A230957AB0D7-2025-05-14-21-29-28","","2223","","","","",""
"","","","","","initialize-microphone","4","82215","0.0-4.0-0.0","BDBBB366103E490B9C58A230957AB0D7","BDBBB366103E490B9C58A230957AB0D7","27005b3d-b496-44c3-b492-df5d2995a7ac","ba640c14-69c5-453e-80b2-29051492c0e0","{""num_scrambled_semantic"":""8"",""num_scrambled_causal"":""4"",""num_scrambled_schematic"":""4"",""participantId"":""BDBBB366103E490B9C58A230957AB0D7"",""assignmentId"":""27005b3d-b496-44c3-b492-df5d2995a7ac"",""projectId"":""ba640c14-69c5-453e-80b2-29051492c0e0""}","https://test12345.live/?num_scrambled_semantic=8&num_scrambled_causal=4&num_scrambled_schematic=4&participantId=BDBBB366103E490B9C58A230957AB0D7&assignmentId=27005b3d-b496-44c3-b492-df5d2995a7ac&projectId=ba640c14-69c5-453e-80b2-29051492c0e0","BDBBB366103E490B9C58A230957AB0D7-2025-05-14-21-29-28","","","003622655160d86af9a85a89fc84810281aa2f29da59593c1f385a1b9b0cd63a","","","",""
"","","","","","html-audio-response","5","95779","0.0-4.0-1.0","BDBBB366103E490B9C58A230957AB0D7","BDBBB366103E490B9C58A230957AB0D7","27005b3d-b496-44c3-b492-df5d2995a7ac","ba640c14-69c5-453e-80b2-29051492c0e0","{""num_scrambled_semantic"":""8"",""num_scrambled_causal"":""4"",""num_scrambled_schematic"":""4"",""participantId"":""BDBBB366103E490B9C58A230957AB0D7"",""assignmentId"":""27005b3d-b496-44c3-b492-df5d2995a7ac"",""projectId"":""ba640c14-69c5-453e-80b2-29051492c0e0""}","https://test12345.live/?num_scrambled_semantic=8&num_scrambled_causal=4&num_scrambled_schematic=4&participantId=BDBBB366103E490B9C58A230957AB0D7&assignmentId=27005b3d-b496-44c3-b492-df5d2995a7ac&projectId=ba640c14-69c5-453e-80b2-29051492c0e0","BDBBB366103E490B9C58A230957AB0D7-2025-05-14-21-29-28","","4888","","<span style=""color: red; font-size: 24px""> NOW RECORDING</span>
        <p>Please test Microphone</p>","","4",""
"","","","","","html-button-response","6","97632","0.0-4.0-2.0","BDBBB366103E490B9C58A230957AB0D7","BDBBB366103E490B9C58A230957AB0D7","27005b3d-b496-44c3-b492-df5d2995a7ac","ba640c14-69c5-453e-80b2-29051492c0e0","{""num_scrambled_semantic"":""8"",""num_scrambled_causal"":""4"",""num_scrambled_schematic"":""4"",""participantId"":""BDBBB366103E490B9C58A230957AB0D7"",""assignmentId"":""27005b3d-b496-44c3-b492-df5d2995a7ac"",""projectId"":""ba640c14-69c5-453e-80b2-29051492c0e0""}","https://test12345.live/?num_scrambled_semantic=8&num_scrambled_causal=4&num_scrambled_schematic=4&participantId=BDBBB366103E490B9C58A230957AB0D7&assignmentId=27005b3d-b496-44c3-b492-df5d2995a7ac&projectId=ba640c14-69c5-453e-80b2-29051492c0e0","BDBBB366103E490B9C58A230957AB0D7-2025-05-14-21-29-28","","1852","","<p style=""font-size:48px; color:red;"">Is Microphone OK?</p>","1","",""
"","","","","","instructions","7","111407","0.0-5.0","BDBBB366103E490B9C58A230957AB0D7","BDBBB366103E490B9C58A230957AB0D7","27005b3d-b496-44c3-b492-df5d2995a7ac","ba640c14-69c5-453e-80b2-29051492c0e0","{""num_scrambled_semantic"":""8"",""num_scrambled_causal"":""4"",""num_scrambled_schematic"":""4"",""participantId"":""BDBBB366103E490B9C58A230957AB0D7"",""assignmentId"":""27005b3d-b496-44c3-b492-df5d2995a7ac"",""projectId"":""ba640c14-69c5-453e-80b2-29051492c0e0""}","https://test12345.live/?num_scrambled_semantic=8&num_scrambled_causal=4&num_scrambled_schematic=4&participantId=BDBBB366103E490B9C58A230957AB0D7&assignmentId=27005b3d-b496-44c3-b492-df5d2995a7ac&projectId=ba640c14-69c5-453e-80b2-29051492c0e0","BDBBB366103E490B9C58A230957AB0D7-2025-05-14-21-29-28","[{""page_index"":0,""viewing_time"":7997},{""page_index"":1,""viewing_time"":5777}]","13774","","","","",""
"","","","","","image-button-response","8","117428","0.0-6.0-0.0","BDBBB366103E490B9C58A230957AB0D7","BDBBB366103E490B9C58A230957AB0D7","27005b3d-b496-44c3-b492-df5d2995a7ac","ba640c14-69c5-453e-80b2-29051492c0e0","{""num_scrambled_semantic"":""8"",""num_scrambled_causal"":""4"",""num_scrambled_schematic"":""4"",""participantId"":""BDBBB366103E490B9C58A230957AB0D7"",""assignmentId"":""27005b3d-b496-44c3-b492-df5d2995a7ac"",""projectId"":""ba640c14-69c5-453e-80b2-29051492c0e0""}","https://test12345.live/?num_scrambled_semantic=8&num_scrambled_causal=4&num_scrambled_schematic=4&participantId=BDBBB366103E490B9C58A230957AB0D7&assignmentId=27005b3d-b496-44c3-b492-df5d2995a7ac&projectId=ba640c14-69c5-453e-80b2-29051492c0e0","BDBBB366103E490B9C58A230957AB0D7-2025-05-14-21-29-28","","null","","images/instructions/movie_0.png","null","",""
"","","","","","image-button-response","9","121940","0.0-6.0-1.0-0.0","BDBBB366103E490B9C58A230957AB0D7","BDBBB366103E490B9C58A230957AB0D7","27005b3d-b496-44c3-b492-df5d2995a7ac","ba640c14-69c5-453e-80b2-29051492c0e0","{""num_scrambled_semantic"":""8"",""num_scrambled_causal"":""4"",""num_scrambled_schematic"":""4"",""participantId"":""BDBBB366103E490B9C58A230957AB0D7"",""assignmentId"":""27005b3d-b496-44c3-b492-df5d2995a7ac"",""projectId"":""ba640c14-69c5-453e-80b2-29051492c0e0""}","https://test12345.live/?num_scrambled_semantic=8&num_scrambled_causal=4&num_scrambled_schematic=4&participantId=BDBBB366103E490B9C58A230957AB0D7&assignmentId=27005b3d-b496-44c3-b492-df5d2995a7ac&projectId=ba640c14-69c5-453e-80b2-29051492c0e0","BDBBB366103E490B9C58A230957AB0D7-2025-05-14-21-29-28","","null","","images/instructions/movie_1.png","null","",""
"","","","","","image-button-response","10","125943","0.0-6.0-1.0-1.0","BDBBB366103E490B9C58A230957AB0D7","BDBBB366103E490B9C58A230957AB0D7","27005b3d-b496-44c3-b492-df5d2995a7ac","ba640c14-69c5-453e-80b2-29051492c0e0","{""num_scrambled_semantic"":""8"",""num_scrambled_causal"":""4"",""num_scrambled_schematic"":""4"",""participantId"":""BDBBB366103E490B9C58A230957AB0D7"",""assignmentId"":""27005b3d-b496-44c3-b492-df5d2995a7ac"",""projectId"":""ba640c14-69c5-453e-80b2-29051492c0e0""}","https://test12345.live/?num_scrambled_semantic=8&num_scrambled_causal=4&num_scrambled_schematic=4&participantId=BDBBB366103E490B9C58A230957AB0D7&assignmentId=27005b3d-b496-44c3-b492-df5d2995a7ac&projectId=ba640c14-69c5-453e-80b2-29051492c0e0","BDBBB366103E490B9C58A230957AB0D7-2025-05-14-21-29-28","","null","","images/instructions/movie_1.png","null","",""
"","","","","","image-button-response","11","127756","0.0-6.0-1.0-2.0","BDBBB366103E490B9C58A230957AB0D7","BDBBB366103E490B9C58A230957AB0D7","27005b3d-b496-44c3-b492-df5d2995a7ac","ba640c14-69c5-453e-80b2-29051492c0e0","{""num_scrambled_semantic"":""8"",""num_scrambled_causal"":""4"",""num_scrambled_schematic"":""4"",""participantId"":""BDBBB366103E490B9C58A230957AB0D7"",""assignmentId"":""27005b3d-b496-44c3-b492-df5d2995a7ac"",""projectId"":""ba640c14-69c5-453e-80b2-29051492c0e0""}","https://test12345.live/?num_scrambled_semantic=8&num_scrambled_causal=4&num_scrambled_schematic=4&participantId=BDBBB366103E490B9C58A230957AB0D7&assignmentId=27005b3d-b496-44c3-b492-df5d2995a7ac&projectId=ba640c14-69c5-453e-80b2-29051492c0e0","BDBBB366103E490B9C58A230957AB0D7-2025-05-14-21-29-28","","null","","[]","null","",""
"","","","","","image-button-response","12","132270","0.0-6.0-1.0-0.1","BDBBB366103E490B9C58A230957AB0D7","BDBBB366103E490B9C58A230957AB0D7","27005b3d-b496-44c3-b492-df5d2995a7ac","ba640c14-69c5-453e-80b2-29051492c0e0","{""num_scrambled_semantic"":""8"",""num_scrambled_causal"":""4"",""num_scrambled_schematic"":""4"",""participantId"":""BDBBB366103E490B9C58A230957AB0D7"",""assignmentId"":""27005b3d-b496-44c3-b492-df5d2995a7ac"",""projectId"":""ba640c14-69c5-453e-80b2-29051492c0e0""}","https://test12345.live/?num_scrambled_semantic=8&num_scrambled_causal=4&num_scrambled_schematic=4&participantId=BDBBB366103E490B9C58A230957AB0D7&assignmentId=27005b3d-b496-44c3-b492-df5d2995a7ac&projectId=ba640c14-69c5-453e-80b2-29051492c0e0","BDBBB366103E490B9C58A230957AB0D7-2025-05-14-21-29-28","","null","","images/instructions/movie_2.png","null","",""
"","","","","","image-button-response","13","134280","0.0-6.0-1.0-1.1","BDBBB366103E490B9C58A230957AB0D7","BDBBB366103E490B9C58A230957AB0D7","27005b3d-b496-44c3-b492-df5d2995a7ac","ba640c14-69c5-453e-80b2-29051492c0e0","{""num_scrambled_semantic"":""8"",""num_scrambled_causal"":""4"",""num_scrambled_schematic"":""4"",""participantId"":""BDBBB366103E490B9C58A230957AB0D7"",""assignmentId"":""27005b3d-b496-44c3-b492-df5d2995a7ac"",""projectId"":""ba640c14-69c5-453e-80b2-29051492c0e0""}","https://test12345.live/?num_scrambled_semantic=8&num_scrambled_causal=4&num_scrambled_schematic=4&participantId=BDBBB366103E490B9C58A230957AB0D7&assignmentId=27005b3d-b496-44c3-b492-df5d2995a7ac&projectId=ba640c14-69c5-453e-80b2-29051492c0e0","BDBBB366103E490B9C58A230957AB0D7-2025-05-14-21-29-28","","2008","","images/instructions/movie_2.png","0","",""
"","","","","","image-button-response","14","136098","0.0-6.0-1.0-2.1","BDBBB366103E490B9C58A230957AB0D7","BDBBB366103E490B9C58A230957AB0D7","27005b3d-b496-44c3-b492-df5d2995a7ac","ba640c14-69c5-453e-80b2-29051492c0e0","{""num_scrambled_semantic"":""8"",""num_scrambled_causal"":""4"",""num_scrambled_schematic"":""4"",""participantId"":""BDBBB366103E490B9C58A230957AB0D7"",""assignmentId"":""27005b3d-b496-44c3-b492-df5d2995a7ac"",""projectId"":""ba640c14-69c5-453e-80b2-29051492c0e0""}","https://test12345.live/?num_scrambled_semantic=8&num_scrambled_causal=4&num_scrambled_schematic=4&participantId=BDBBB366103E490B9C58A230957AB0D7&assignmentId=27005b3d-b496-44c3-b492-df5d2995a7ac&projectId=ba640c14-69c5-453e-80b2-29051492c0e0","BDBBB366103E490B9C58A230957AB0D7-2025-05-14-21-29-28","","null","","[]","null","",""
"","","","","","image-button-response","15","140614","0.0-6.0-1.0-0.2","BDBBB366103E490B9C58A230957AB0D7","BDBBB366103E490B9C58A230957AB0D7","27005b3d-b496-44c3-b492-df5d2995a7ac","ba640c14-69c5-453e-80b2-29051492c0e0","{""num_scrambled_semantic"":""8"",""num_scrambled_causal"":""4"",""num_scrambled_schematic"":""4"",""participantId"":""BDBBB366103E490B9C58A230957AB0D7"",""assignmentId"":""27005b3d-b496-44c3-b492-df5d2995a7ac"",""projectId"":""ba640c14-69c5-453e-80b2-29051492c0e0""}","https://test12345.live/?num_scrambled_semantic=8&num_scrambled_causal=4&num_scrambled_schematic=4&participantId=BDBBB366103E490B9C58A230957AB0D7&assignmentId=27005b3d-b496-44c3-b492-df5d2995a7ac&projectId=ba640c14-69c5-453e-80b2-29051492c0e0","BDBBB366103E490B9C58A230957AB0D7-2025-05-14-21-29-28","","null","","images/instructions/movie_3.png","null","",""
"","","","","","image-button-response","16","142525","0.0-6.0-1.0-1.2","BDBBB366103E490B9C58A230957AB0D7","BDBBB366103E490B9C58A230957AB0D7","27005b3d-b496-44c3-b492-df5d2995a7ac","ba640c14-69c5-453e-80b2-29051492c0e0","{""num_scrambled_semantic"":""8"",""num_scrambled_causal"":""4"",""num_scrambled_schematic"":""4"",""participantId"":""BDBBB366103E490B9C58A230957AB0D7"",""assignmentId"":""27005b3d-b496-44c3-b492-df5d2995a7ac"",""projectId"":""ba640c14-69c5-453e-80b2-29051492c0e0""}","https://test12345.live/?num_scrambled_semantic=8&num_scrambled_causal=4&num_scrambled_schematic=4&participantId=BDBBB366103E490B9C58A230957AB0D7&assignmentId=27005b3d-b496-44c3-b492-df5d2995a7ac&projectId=ba640c14-69c5-453e-80b2-29051492c0e0","BDBBB366103E490B9C58A230957AB0D7-2025-05-14-21-29-28","","1909","","images/instructions/movie_3.png","0","",""
"","","","","","image-button-response","17","144329","0.0-6.0-1.0-2.2","BDBBB366103E490B9C58A230957AB0D7","BDBBB366103E490B9C58A230957AB0D7","27005b3d-b496-44c3-b492-df5d2995a7ac","ba640c14-69c5-453e-80b2-29051492c0e0","{""num_scrambled_semantic"":""8"",""num_scrambled_causal"":""4"",""num_scrambled_schematic"":""4"",""participantId"":""BDBBB366103E490B9C58A230957AB0D7"",""assignmentId"":""27005b3d-b496-44c3-b492-df5d2995a7ac"",""projectId"":""ba640c14-69c5-453e-80b2-29051492c0e0""}","https://test12345.live/?num_scrambled_semantic=8&num_scrambled_causal=4&num_scrambled_schematic=4&participantId=BDBBB366103E490B9C58A230957AB0D7&assignmentId=27005b3d-b496-44c3-b492-df5d2995a7ac&projectId=ba640c14-69c5-453e-80b2-29051492c0e0","BDBBB366103E490B9C58A230957AB0D7-2025-05-14-21-29-28","","null","","[]","null","",""
"","","","","","image-button-response","18","148832","0.0-6.0-1.0-0.3","BDBBB366103E490B9C58A230957AB0D7","BDBBB366103E490B9C58A230957AB0D7","27005b3d-b496-44c3-b492-df5d2995a7ac","ba640c14-69c5-453e-80b2-29051492c0e0","{""num_scrambled_semantic"":""8"",""num_scrambled_causal"":""4"",""num_scrambled_schematic"":""4"",""participantId"":""BDBBB366103E490B9C58A230957AB0D7"",""assignmentId"":""27005b3d-b496-44c3-b492-df5d2995a7ac"",""projectId"":""ba640c14-69c5-453e-80b2-29051492c0e0""}","https://test12345.live/?num_scrambled_semantic=8&num_scrambled_causal=4&num_scrambled_schematic=4&participantId=BDBBB366103E490B9C58A230957AB0D7&assignmentId=27005b3d-b496-44c3-b492-df5d2995a7ac&projectId=ba640c14-69c5-453e-80b2-29051492c0e0","BDBBB366103E490B9C58A230957AB0D7-2025-05-14-21-29-28","","null","","images/instructions/movie_4.png","null","",""
"","","","","","image-button-response","19","150264","0.0-6.0-1.0-1.3","BDBBB366103E490B9C58A230957AB0D7","BDBBB366103E490B9C58A230957AB0D7","27005b3d-b496-44c3-b492-df5d2995a7ac","ba640c14-69c5-453e-80b2-29051492c0e0","{""num_scrambled_semantic"":""8"",""num_scrambled_causal"":""4"",""num_scrambled_schematic"":""4"",""participantId"":""BDBBB366103E490B9C58A230957AB0D7"",""assignmentId"":""27005b3d-b496-44c3-b492-df5d2995a7ac"",""projectId"":""ba640c14-69c5-453e-80b2-29051492c0e0""}","https://test12345.live/?num_scrambled_semantic=8&num_scrambled_causal=4&num_scrambled_schematic=4&participantId=BDBBB366103E490B9C58A230957AB0D7&assignmentId=27005b3d-b496-44c3-b492-df5d2995a7ac&projectId=ba640c14-69c5-453e-80b2-29051492c0e0","BDBBB366103E490B9C58A230957AB0D7-2025-05-14-21-29-28","","1430","","images/instructions/movie_4.png","0","",""
"","","","","","image-button-response","20","152075","0.0-6.0-1.0-2.3","BDBBB366103E490B9C58A230957AB0D7","BDBBB366103E490B9C58A230957AB0D7","27005b3d-b496-44c3-b492-df5d2995a7ac","ba640c14-69c5-453e-80b2-29051492c0e0","{""num_scrambled_semantic"":""8"",""num_scrambled_causal"":""4"",""num_scrambled_schematic"":""4"",""participantId"":""BDBBB366103E490B9C58A230957AB0D7"",""assignmentId"":""27005b3d-b496-44c3-b492-df5d2995a7ac"",""projectId"":""ba640c14-69c5-453e-80b2-29051492c0e0""}","https://test12345.live/?num_scrambled_semantic=8&num_scrambled_causal=4&num_scrambled_schematic=4&participantId=BDBBB366103E490B9C58A230957AB0D7&assignmentId=27005b3d-b496-44c3-b492-df5d2995a7ac&projectId=ba640c14-69c5-453e-80b2-29051492c0e0","BDBBB366103E490B9C58A230957AB0D7-2025-05-14-21-29-28","","null","","[]","null","",""
"","","","","","instructions","21","158359","0.0-7.0","BDBBB366103E490B9C58A230957AB0D7","BDBBB366103E490B9C58A230957AB0D7","27005b3d-b496-44c3-b492-df5d2995a7ac","ba640c14-69c5-453e-80b2-29051492c0e0","{""num_scrambled_semantic"":""8"",""num_scrambled_causal"":""4"",""num_scrambled_schematic"":""4"",""participantId"":""BDBBB366103E490B9C58A230957AB0D7"",""assignmentId"":""27005b3d-b496-44c3-b492-df5d2995a7ac"",""projectId"":""ba640c14-69c5-453e-80b2-29051492c0e0""}","https://test12345.live/?num_scrambled_semantic=8&num_scrambled_causal=4&num_scrambled_schematic=4&participantId=BDBBB366103E490B9C58A230957AB0D7&assignmentId=27005b3d-b496-44c3-b492-df5d2995a7ac&projectId=ba640c14-69c5-453e-80b2-29051492c0e0","BDBBB366103E490B9C58A230957AB0D7-2025-05-14-21-29-28","[{""page_index"":0,""viewing_time"":5125},{""page_index"":1,""viewing_time"":1159}]","6284","","","","",""
"","","","","","html-audio-response","22","214144","0.0-8.0","BDBBB366103E490B9C58A230957AB0D7","BDBBB366103E490B9C58A230957AB0D7","27005b3d-b496-44c3-b492-df5d2995a7ac","ba640c14-69c5-453e-80b2-29051492c0e0","{""num_scrambled_semantic"":""8"",""num_scrambled_causal"":""4"",""num_scrambled_schematic"":""4"",""participantId"":""BDBBB366103E490B9C58A230957AB0D7"",""assignmentId"":""27005b3d-b496-44c3-b492-df5d2995a7ac"",""projectId"":""ba640c14-69c5-453e-80b2-29051492c0e0""}","https://test12345.live/?num_scrambled_semantic=8&num_scrambled_causal=4&num_scrambled_schematic=4&participantId=BDBBB366103E490B9C58A230957AB0D7&assignmentId=27005b3d-b496-44c3-b492-df5d2995a7ac&projectId=ba640c14-69c5-453e-80b2-29051492c0e0","BDBBB366103E490B9C58A230957AB0D7-2025-05-14-21-29-28","","22702","","[""<span style=\""color: red; font-size: 24px\""> NOW RECORDING</span><p>Please say out loud all the images you saw, as many as you can remember. The images can be said in any order.</p>""]","","2",""
"","","","","","instructions","23","215980","0.0-9.0","BDBBB366103E490B9C58A230957AB0D7","BDBBB366103E490B9C58A230957AB0D7","27005b3d-b496-44c3-b492-df5d2995a7ac","ba640c14-69c5-453e-80b2-29051492c0e0","{""num_scrambled_semantic"":""8"",""num_scrambled_causal"":""4"",""num_scrambled_schematic"":""4"",""participantId"":""BDBBB366103E490B9C58A230957AB0D7"",""assignmentId"":""27005b3d-b496-44c3-b492-df5d2995a7ac"",""projectId"":""ba640c14-69c5-453e-80b2-29051492c0e0""}","https://test12345.live/?num_scrambled_semantic=8&num_scrambled_causal=4&num_scrambled_schematic=4&participantId=BDBBB366103E490B9C58A230957AB0D7&assignmentId=27005b3d-b496-44c3-b492-df5d2995a7ac&projectId=ba640c14-69c5-453e-80b2-29051492c0e0","BDBBB366103E490B9C58A230957AB0D7-2025-05-14-21-29-28","[{""page_index"":0,""viewing_time"":1829}]","1829","","","","",""
"","","","","","image-button-response","24","221986","0.0-10.0-0.0","BDBBB366103E490B9C58A230957AB0D7","BDBBB366103E490B9C58A230957AB0D7","27005b3d-b496-44c3-b492-df5d2995a7ac","ba640c14-69c5-453e-80b2-29051492c0e0","{""num_scrambled_semantic"":""8"",""num_scrambled_causal"":""4"",""num_scrambled_schematic"":""4"",""participantId"":""BDBBB366103E490B9C58A230957AB0D7"",""assignmentId"":""27005b3d-b496-44c3-b492-df5d2995a7ac"",""projectId"":""ba640c14-69c5-453e-80b2-29051492c0e0""}","https://test12345.live/?num_scrambled_semantic=8&num_scrambled_causal=4&num_scrambled_schematic=4&participantId=BDBBB366103E490B9C58A230957AB0D7&assignmentId=27005b3d-b496-44c3-b492-df5d2995a7ac&projectId=ba640c14-69c5-453e-80b2-29051492c0e0","BDBBB366103E490B9C58A230957AB0D7-2025-05-14-21-29-28","","null","","images/schematic_sequence/dinner_party_scheme/dinner_party_scheme_0.png","null","",""
"","","","","","image-button-response","25","226502","0.0-10.0-1.0-0.0","BDBBB366103E490B9C58A230957AB0D7","BDBBB366103E490B9C58A230957AB0D7","27005b3d-b496-44c3-b492-df5d2995a7ac","ba640c14-69c5-453e-80b2-29051492c0e0","{""num_scrambled_semantic"":""8"",""num_scrambled_causal"":""4"",""num_scrambled_schematic"":""4"",""participantId"":""BDBBB366103E490B9C58A230957AB0D7"",""assignmentId"":""27005b3d-b496-44c3-b492-df5d2995a7ac"",""projectId"":""ba640c14-69c5-453e-80b2-29051492c0e0""}","https://test12345.live/?num_scrambled_semantic=8&num_scrambled_causal=4&num_scrambled_schematic=4&participantId=BDBBB366103E490B9C58A230957AB0D7&assignmentId=27005b3d-b496-44c3-b492-df5d2995a7ac&projectId=ba640c14-69c5-453e-80b2-29051492c0e0","BDBBB366103E490B9C58A230957AB0D7-2025-05-14-21-29-28","","null","","images/schematic_sequence/dinner_party_scheme/dinner_party_scheme_5.png","null","",""
"","","","","","image-button-response","26","228958","0.0-10.0-1.0-1.0","BDBBB366103E490B9C58A230957AB0D7","BDBBB366103E490B9C58A230957AB0D7","27005b3d-b496-44c3-b492-df5d2995a7ac","ba640c14-69c5-453e-80b2-29051492c0e0","{""num_scrambled_semantic"":""8"",""num_scrambled_causal"":""4"",""num_scrambled_schematic"":""4"",""participantId"":""BDBBB366103E490B9C58A230957AB0D7"",""assignmentId"":""27005b3d-b496-44c3-b492-df5d2995a7ac"",""projectId"":""ba640c14-69c5-453e-80b2-29051492c0e0""}","https://test12345.live/?num_scrambled_semantic=8&num_scrambled_causal=4&num_scrambled_schematic=4&participantId=BDBBB366103E490B9C58A230957AB0D7&assignmentId=27005b3d-b496-44c3-b492-df5d2995a7ac&projectId=ba640c14-69c5-453e-80b2-29051492c0e0","BDBBB366103E490B9C58A230957AB0D7-2025-05-14-21-29-28","","2454","","images/schematic_sequence/dinner_party_scheme/dinner_party_scheme_5.png","0","",""
"","","","","","image-button-response","27","230774","0.0-10.0-1.0-2.0","BDBBB366103E490B9C58A230957AB0D7","BDBBB366103E490B9C58A230957AB0D7","27005b3d-b496-44c3-b492-df5d2995a7ac","ba640c14-69c5-453e-80b2-29051492c0e0","{""num_scrambled_semantic"":""8"",""num_scrambled_causal"":""4"",""num_scrambled_schematic"":""4"",""participantId"":""BDBBB366103E490B9C58A230957AB0D7"",""assignmentId"":""27005b3d-b496-44c3-b492-df5d2995a7ac"",""projectId"":""ba640c14-69c5-453e-80b2-29051492c0e0""}","https://test12345.live/?num_scrambled_semantic=8&num_scrambled_causal=4&num_scrambled_schematic=4&participantId=BDBBB366103E490B9C58A230957AB0D7&assignmentId=27005b3d-b496-44c3-b492-df5d2995a7ac&projectId=ba640c14-69c5-453e-80b2-29051492c0e0","BDBBB366103E490B9C58A230957AB0D7-2025-05-14-21-29-28","","null","","[]","null","",""
"","","","","","image-button-response","28","235279","0.0-10.0-1.0-0.1","BDBBB366103E490B9C58A230957AB0D7","BDBBB366103E490B9C58A230957AB0D7","27005b3d-b496-44c3-b492-df5d2995a7ac","ba640c14-69c5-453e-80b2-29051492c0e0","{""num_scrambled_semantic"":""8"",""num_scrambled_causal"":""4"",""num_scrambled_schematic"":""4"",""participantId"":""BDBBB366103E490B9C58A230957AB0D7"",""assignmentId"":""27005b3d-b496-44c3-b492-df5d2995a7ac"",""projectId"":""ba640c14-69c5-453e-80b2-29051492c0e0""}","https://test12345.live/?num_scrambled_semantic=8&num_scrambled_causal=4&num_scrambled_schematic=4&participantId=BDBBB366103E490B9C58A230957AB0D7&assignmentId=27005b3d-b496-44c3-b492-df5d2995a7ac&projectId=ba640c14-69c5-453e-80b2-29051492c0e0","BDBBB366103E490B9C58A230957AB0D7-2025-05-14-21-29-28","","null","","images/schematic_sequence/dinner_party_scheme/dinner_party_scheme_6.png","null","",""
"","","","","","image-button-response","29","236902","0.0-10.0-1.0-1.1","BDBBB366103E490B9C58A230957AB0D7","BDBBB366103E490B9C58A230957AB0D7","27005b3d-b496-44c3-b492-df5d2995a7ac","ba640c14-69c5-453e-80b2-29051492c0e0","{""num_scrambled_semantic"":""8"",""num_scrambled_causal"":""4"",""num_scrambled_schematic"":""4"",""participantId"":""BDBBB366103E490B9C58A230957AB0D7"",""assignmentId"":""27005b3d-b496-44c3-b492-df5d2995a7ac"",""projectId"":""ba640c14-69c5-453e-80b2-29051492c0e0""}","https://test12345.live/?num_scrambled_semantic=8&num_scrambled_causal=4&num_scrambled_schematic=4&participantId=BDBBB366103E490B9C58A230957AB0D7&assignmentId=27005b3d-b496-44c3-b492-df5d2995a7ac&projectId=ba640c14-69c5-453e-80b2-29051492c0e0","BDBBB366103E490B9C58A230957AB0D7-2025-05-14-21-29-28","","1621","","images/schematic_sequence/dinner_party_scheme/dinner_party_scheme_6.png","0","",""
"","","","","","image-button-response","30","238712","0.0-10.0-1.0-2.1","BDBBB366103E490B9C58A230957AB0D7","BDBBB366103E490B9C58A230957AB0D7","27005b3d-b496-44c3-b492-df5d2995a7ac","ba640c14-69c5-453e-80b2-29051492c0e0","{""num_scrambled_semantic"":""8"",""num_scrambled_causal"":""4"",""num_scrambled_schematic"":""4"",""participantId"":""BDBBB366103E490B9C58A230957AB0D7"",""assignmentId"":""27005b3d-b496-44c3-b492-df5d2995a7ac"",""projectId"":""ba640c14-69c5-453e-80b2-29051492c0e0""}","https://test12345.live/?num_scrambled_semantic=8&num_scrambled_causal=4&num_scrambled_schematic=4&participantId=BDBBB366103E490B9C58A230957AB0D7&assignmentId=27005b3d-b496-44c3-b492-df5d2995a7ac&projectId=ba640c14-69c5-453e-80b2-29051492c0e0","BDBBB366103E490B9C58A230957AB0D7-2025-05-14-21-29-28","","null","","[]","null","",""
"","","","","","image-button-response","31","243218","0.0-10.0-1.0-0.2","BDBBB366103E490B9C58A230957AB0D7","BDBBB366103E490B9C58A230957AB0D7","27005b3d-b496-44c3-b492-df5d2995a7ac","ba640c14-69c5-453e-80b2-29051492c0e0","{""num_scrambled_semantic"":""8"",""num_scrambled_causal"":""4"",""num_scrambled_schematic"":""4"",""participantId"":""BDBBB366103E490B9C58A230957AB0D7"",""assignmentId"":""27005b3d-b496-44c3-b492-df5d2995a7ac"",""projectId"":""ba640c14-69c5-453e-80b2-29051492c0e0""}","https://test12345.live/?num_scrambled_semantic=8&num_scrambled_causal=4&num_scrambled_schematic=4&participantId=BDBBB366103E490B9C58A230957AB0D7&assignmentId=27005b3d-b496-44c3-b492-df5d2995a7ac&projectId=ba640c14-69c5-453e-80b2-29051492c0e0","BDBBB366103E490B9C58A230957AB0D7-2025-05-14-21-29-28","","null","","images/schematic_sequence/dinner_party_scheme/dinner_party_scheme_7.png","null","",""
"","","","","","image-button-response","32","244761","0.0-10.0-1.0-1.2","BDBBB366103E490B9C58A230957AB0D7","BDBBB366103E490B9C58A230957AB0D7","27005b3d-b496-44c3-b492-df5d2995a7ac","ba640c14-69c5-453e-80b2-29051492c0e0","{""num_scrambled_semantic"":""8"",""num_scrambled_causal"":""4"",""num_scrambled_schematic"":""4"",""participantId"":""BDBBB366103E490B9C58A230957AB0D7"",""assignmentId"":""27005b3d-b496-44c3-b492-df5d2995a7ac"",""projectId"":""ba640c14-69c5-453e-80b2-29051492c0e0""}","https://test12345.live/?num_scrambled_semantic=8&num_scrambled_causal=4&num_scrambled_schematic=4&participantId=BDBBB366103E490B9C58A230957AB0D7&assignmentId=27005b3d-b496-44c3-b492-df5d2995a7ac&projectId=ba640c14-69c5-453e-80b2-29051492c0e0","BDBBB366103E490B9C58A230957AB0D7-2025-05-14-21-29-28","","1542","","images/schematic_sequence/dinner_party_scheme/dinner_party_scheme_7.png","0","",""
"","","","","","image-button-response","33","246570","0.0-10.0-1.0-2.2","BDBBB366103E490B9C58A230957AB0D7","BDBBB366103E490B9C58A230957AB0D7","27005b3d-b496-44c3-b492-df5d2995a7ac","ba640c14-69c5-453e-80b2-29051492c0e0","{""num_scrambled_semantic"":""8"",""num_scrambled_causal"":""4"",""num_scrambled_schematic"":""4"",""participantId"":""BDBBB366103E490B9C58A230957AB0D7"",""assignmentId"":""27005b3d-b496-44c3-b492-df5d2995a7ac"",""projectId"":""ba640c14-69c5-453e-80b2-29051492c0e0""}","https://test12345.live/?num_scrambled_semantic=8&num_scrambled_causal=4&num_scrambled_schematic=4&participantId=BDBBB366103E490B9C58A230957AB0D7&assignmentId=27005b3d-b496-44c3-b492-df5d2995a7ac&projectId=ba640c14-69c5-453e-80b2-29051492c0e0","BDBBB366103E490B9C58A230957AB0D7-2025-05-14-21-29-28","","null","","[]","null","",""
"","","","","","image-button-response","34","251075","0.0-10.0-1.0-0.3","BDBBB366103E490B9C58A230957AB0D7","BDBBB366103E490B9C58A230957AB0D7","27005b3d-b496-44c3-b492-df5d2995a7ac","ba640c14-69c5-453e-80b2-29051492c0e0","{""num_scrambled_semantic"":""8"",""num_scrambled_causal"":""4"",""num_scrambled_schematic"":""4"",""participantId"":""BDBBB366103E490B9C58A230957AB0D7"",""assignmentId"":""27005b3d-b496-44c3-b492-df5d2995a7ac"",""projectId"":""ba640c14-69c5-453e-80b2-29051492c0e0""}","https://test12345.live/?num_scrambled_semantic=8&num_scrambled_causal=4&num_scrambled_schematic=4&participantId=BDBBB366103E490B9C58A230957AB0D7&assignmentId=27005b3d-b496-44c3-b492-df5d2995a7ac&projectId=ba640c14-69c5-453e-80b2-29051492c0e0","BDBBB366103E490B9C58A230957AB0D7-2025-05-14-21-29-28","","null","","images/schematic_sequence/dinner_party_scheme/dinner_party_scheme_9.png","null","",""
"","","","","","image-button-response","35","252965","0.0-10.0-1.0-1.3","BDBBB366103E490B9C58A230957AB0D7","BDBBB366103E490B9C58A230957AB0D7","27005b3d-b496-44c3-b492-df5d2995a7ac","ba640c14-69c5-453e-80b2-29051492c0e0","{""num_scrambled_semantic"":""8"",""num_scrambled_causal"":""4"",""num_scrambled_schematic"":""4"",""participantId"":""BDBBB366103E490B9C58A230957AB0D7"",""assignmentId"":""27005b3d-b496-44c3-b492-df5d2995a7ac"",""projectId"":""ba640c14-69c5-453e-80b2-29051492c0e0""}","https://test12345.live/?num_scrambled_semantic=8&num_scrambled_causal=4&num_scrambled_schematic=4&participantId=BDBBB366103E490B9C58A230957AB0D7&assignmentId=27005b3d-b496-44c3-b492-df5d2995a7ac&projectId=ba640c14-69c5-453e-80b2-29051492c0e0","BDBBB366103E490B9C58A230957AB0D7-2025-05-14-21-29-28","","1889","","images/schematic_sequence/dinner_party_scheme/dinner_party_scheme_9.png","0","",""
"","","","","","image-button-response","36","254775","0.0-10.0-1.0-2.3","BDBBB366103E490B9C58A230957AB0D7","BDBBB366103E490B9C58A230957AB0D7","27005b3d-b496-44c3-b492-df5d2995a7ac","ba640c14-69c5-453e-80b2-29051492c0e0","{""num_scrambled_semantic"":""8"",""num_scrambled_causal"":""4"",""num_scrambled_schematic"":""4"",""participantId"":""BDBBB366103E490B9C58A230957AB0D7"",""assignmentId"":""27005b3d-b496-44c3-b492-df5d2995a7ac"",""projectId"":""ba640c14-69c5-453e-80b2-29051492c0e0""}","https://test12345.live/?num_scrambled_semantic=8&num_scrambled_causal=4&num_scrambled_schematic=4&participantId=BDBBB366103E490B9C58A230957AB0D7&assignmentId=27005b3d-b496-44c3-b492-df5d2995a7ac&projectId=ba640c14-69c5-453e-80b2-29051492c0e0","BDBBB366103E490B9C58A230957AB0D7-2025-05-14-21-29-28","","null","","[]","null","",""
"","","","","","image-button-response","37","259299","0.0-10.0-1.0-0.4","BDBBB366103E490B9C58A230957AB0D7","BDBBB366103E490B9C58A230957AB0D7","27005b3d-b496-44c3-b492-df5d2995a7ac","ba640c14-69c5-453e-80b2-29051492c0e0","{""num_scrambled_semantic"":""8"",""num_scrambled_causal"":""4"",""num_scrambled_schematic"":""4"",""participantId"":""BDBBB366103E490B9C58A230957AB0D7"",""assignmentId"":""27005b3d-b496-44c3-b492-df5d2995a7ac"",""projectId"":""ba640c14-69c5-453e-80b2-29051492c0e0""}","https://test12345.live/?num_scrambled_semantic=8&num_scrambled_causal=4&num_scrambled_schematic=4&participantId=BDBBB366103E490B9C58A230957AB0D7&assignmentId=27005b3d-b496-44c3-b492-df5d2995a7ac&projectId=ba640c14-69c5-453e-80b2-29051492c0e0","BDBBB366103E490B9C58A230957AB0D7-2025-05-14-21-29-28","","null","","images/schematic_sequence/dinner_party_scheme/dinner_party_scheme_8.png","null","",""
"","","","","","image-button-response","38","261415","0.0-10.0-1.0-1.4","BDBBB366103E490B9C58A230957AB0D7","BDBBB366103E490B9C58A230957AB0D7","27005b3d-b496-44c3-b492-df5d2995a7ac","ba640c14-69c5-453e-80b2-29051492c0e0","{""num_scrambled_semantic"":""8"",""num_scrambled_causal"":""4"",""num_scrambled_schematic"":""4"",""participantId"":""BDBBB366103E490B9C58A230957AB0D7"",""assignmentId"":""27005b3d-b496-44c3-b492-df5d2995a7ac"",""projectId"":""ba640c14-69c5-453e-80b2-29051492c0e0""}","https://test12345.live/?num_scrambled_semantic=8&num_scrambled_causal=4&num_scrambled_schematic=4&participantId=BDBBB366103E490B9C58A230957AB0D7&assignmentId=27005b3d-b496-44c3-b492-df5d2995a7ac&projectId=ba640c14-69c5-453e-80b2-29051492c0e0","BDBBB366103E490B9C58A230957AB0D7-2025-05-14-21-29-28","","2115","","images/schematic_sequence/dinner_party_scheme/dinner_party_scheme_8.png","0","",""
"","","","","","image-button-response","39","263216","0.0-10.0-1.0-2.4","BDBBB366103E490B9C58A230957AB0D7","BDBBB366103E490B9C58A230957AB0D7","27005b3d-b496-44c3-b492-df5d2995a7ac","ba640c14-69c5-453e-80b2-29051492c0e0","{""num_scrambled_semantic"":""8"",""num_scrambled_causal"":""4"",""num_scrambled_schematic"":""4"",""participantId"":""BDBBB366103E490B9C58A230957AB0D7"",""assignmentId"":""27005b3d-b496-44c3-b492-df5d2995a7ac"",""projectId"":""ba640c14-69c5-453e-80b2-29051492c0e0""}","https://test12345.live/?num_scrambled_semantic=8&num_scrambled_causal=4&num_scrambled_schematic=4&participantId=BDBBB366103E490B9C58A230957AB0D7&assignmentId=27005b3d-b496-44c3-b492-df5d2995a7ac&projectId=ba640c14-69c5-453e-80b2-29051492c0e0","BDBBB366103E490B9C58A230957AB0D7-2025-05-14-21-29-28","","null","","[]","null","",""
"","","","","","image-button-response","40","267730","0.0-10.0-1.0-0.5","BDBBB366103E490B9C58A230957AB0D7","BDBBB366103E490B9C58A230957AB0D7","27005b3d-b496-44c3-b492-df5d2995a7ac","ba640c14-69c5-453e-80b2-29051492c0e0","{""num_scrambled_semantic"":""8"",""num_scrambled_causal"":""4"",""num_scrambled_schematic"":""4"",""participantId"":""BDBBB366103E490B9C58A230957AB0D7"",""assignmentId"":""27005b3d-b496-44c3-b492-df5d2995a7ac"",""projectId"":""ba640c14-69c5-453e-80b2-29051492c0e0""}","https://test12345.live/?num_scrambled_semantic=8&num_scrambled_causal=4&num_scrambled_schematic=4&participantId=BDBBB366103E490B9C58A230957AB0D7&assignmentId=27005b3d-b496-44c3-b492-df5d2995a7ac&projectId=ba640c14-69c5-453e-80b2-29051492c0e0","BDBBB366103E490B9C58A230957AB0D7-2025-05-14-21-29-28","","null","","images/schematic_sequence/dinner_party_scheme/dinner_party_scheme_1.png","null","",""
"","","","","","image-button-response","41","269966","0.0-10.0-1.0-1.5","BDBBB366103E490B9C58A230957AB0D7","BDBBB366103E490B9C58A230957AB0D7","27005b3d-b496-44c3-b492-df5d2995a7ac","ba640c14-69c5-453e-80b2-29051492c0e0","{""num_scrambled_semantic"":""8"",""num_scrambled_causal"":""4"",""num_scrambled_schematic"":""4"",""participantId"":""BDBBB366103E490B9C58A230957AB0D7"",""assignmentId"":""27005b3d-b496-44c3-b492-df5d2995a7ac"",""projectId"":""ba640c14-69c5-453e-80b2-29051492c0e0""}","https://test12345.live/?num_scrambled_semantic=8&num_scrambled_causal=4&num_scrambled_schematic=4&participantId=BDBBB366103E490B9C58A230957AB0D7&assignmentId=27005b3d-b496-44c3-b492-df5d2995a7ac&projectId=ba640c14-69c5-453e-80b2-29051492c0e0","BDBBB366103E490B9C58A230957AB0D7-2025-05-14-21-29-28","","2234","","images/schematic_sequence/dinner_party_scheme/dinner_party_scheme_1.png","0","",""
"","","","","","image-button-response","42","271771","0.0-10.0-1.0-2.5","BDBBB366103E490B9C58A230957AB0D7","BDBBB366103E490B9C58A230957AB0D7","27005b3d-b496-44c3-b492-df5d2995a7ac","ba640c14-69c5-453e-80b2-29051492c0e0","{""num_scrambled_semantic"":""8"",""num_scrambled_causal"":""4"",""num_scrambled_schematic"":""4"",""participantId"":""BDBBB366103E490B9C58A230957AB0D7"",""assignmentId"":""27005b3d-b496-44c3-b492-df5d2995a7ac"",""projectId"":""ba640c14-69c5-453e-80b2-29051492c0e0""}","https://test12345.live/?num_scrambled_semantic=8&num_scrambled_causal=4&num_scrambled_schematic=4&participantId=BDBBB366103E490B9C58A230957AB0D7&assignmentId=27005b3d-b496-44c3-b492-df5d2995a7ac&projectId=ba640c14-69c5-453e-80b2-29051492c0e0","BDBBB366103E490B9C58A230957AB0D7-2025-05-14-21-29-28","","null","","[]","null","",""
"","","","","","image-button-response","43","276285","0.0-10.0-1.0-0.6","BDBBB366103E490B9C58A230957AB0D7","BDBBB366103E490B9C58A230957AB0D7","27005b3d-b496-44c3-b492-df5d2995a7ac","ba640c14-69c5-453e-80b2-29051492c0e0","{""num_scrambled_semantic"":""8"",""num_scrambled_causal"":""4"",""num_scrambled_schematic"":""4"",""participantId"":""BDBBB366103E490B9C58A230957AB0D7"",""assignmentId"":""27005b3d-b496-44c3-b492-df5d2995a7ac"",""projectId"":""ba640c14-69c5-453e-80b2-29051492c0e0""}","https://test12345.live/?num_scrambled_semantic=8&num_scrambled_causal=4&num_scrambled_schematic=4&participantId=BDBBB366103E490B9C58A230957AB0D7&assignmentId=27005b3d-b496-44c3-b492-df5d2995a7ac&projectId=ba640c14-69c5-453e-80b2-29051492c0e0","BDBBB366103E490B9C58A230957AB0D7-2025-05-14-21-29-28","","null","","images/schematic_sequence/dinner_party_scheme/dinner_party_scheme_ten.png","null","",""
"","","","","","image-button-response","44","277960","0.0-10.0-1.0-1.6","BDBBB366103E490B9C58A230957AB0D7","BDBBB366103E490B9C58A230957AB0D7","27005b3d-b496-44c3-b492-df5d2995a7ac","ba640c14-69c5-453e-80b2-29051492c0e0","{""num_scrambled_semantic"":""8"",""num_scrambled_causal"":""4"",""num_scrambled_schematic"":""4"",""participantId"":""BDBBB366103E490B9C58A230957AB0D7"",""assignmentId"":""27005b3d-b496-44c3-b492-df5d2995a7ac"",""projectId"":""ba640c14-69c5-453e-80b2-29051492c0e0""}","https://test12345.live/?num_scrambled_semantic=8&num_scrambled_causal=4&num_scrambled_schematic=4&participantId=BDBBB366103E490B9C58A230957AB0D7&assignmentId=27005b3d-b496-44c3-b492-df5d2995a7ac&projectId=ba640c14-69c5-453e-80b2-29051492c0e0","BDBBB366103E490B9C58A230957AB0D7-2025-05-14-21-29-28","","1673","","images/schematic_sequence/dinner_party_scheme/dinner_party_scheme_ten.png","0","",""
"","","","","","image-button-response","45","279762","0.0-10.0-1.0-2.6","BDBBB366103E490B9C58A230957AB0D7","BDBBB366103E490B9C58A230957AB0D7","27005b3d-b496-44c3-b492-df5d2995a7ac","ba640c14-69c5-453e-80b2-29051492c0e0","{""num_scrambled_semantic"":""8"",""num_scrambled_causal"":""4"",""num_scrambled_schematic"":""4"",""participantId"":""BDBBB366103E490B9C58A230957AB0D7"",""assignmentId"":""27005b3d-b496-44c3-b492-df5d2995a7ac"",""projectId"":""ba640c14-69c5-453e-80b2-29051492c0e0""}","https://test12345.live/?num_scrambled_semantic=8&num_scrambled_causal=4&num_scrambled_schematic=4&participantId=BDBBB366103E490B9C58A230957AB0D7&assignmentId=27005b3d-b496-44c3-b492-df5d2995a7ac&projectId=ba640c14-69c5-453e-80b2-29051492c0e0","BDBBB366103E490B9C58A230957AB0D7-2025-05-14-21-29-28","","null","","[]","null","",""
"","","","","","image-button-response","46","284266","0.0-10.0-1.0-0.7","BDBBB366103E490B9C58A230957AB0D7","BDBBB366103E490B9C58A230957AB0D7","27005b3d-b496-44c3-b492-df5d2995a7ac","ba640c14-69c5-453e-80b2-29051492c0e0","{""num_scrambled_semantic"":""8"",""num_scrambled_causal"":""4"",""num_scrambled_schematic"":""4"",""participantId"":""BDBBB366103E490B9C58A230957AB0D7"",""assignmentId"":""27005b3d-b496-44c3-b492-df5d2995a7ac"",""projectId"":""ba640c14-69c5-453e-80b2-29051492c0e0""}","https://test12345.live/?num_scrambled_semantic=8&num_scrambled_causal=4&num_scrambled_schematic=4&participantId=BDBBB366103E490B9C58A230957AB0D7&assignmentId=27005b3d-b496-44c3-b492-df5d2995a7ac&projectId=ba640c14-69c5-453e-80b2-29051492c0e0","BDBBB366103E490B9C58A230957AB0D7-2025-05-14-21-29-28","","null","","images/schematic_sequence/dinner_party_scheme/dinner_party_scheme_2.png","null","",""
"","","","","","image-button-response","47","286439","0.0-10.0-1.0-1.7","BDBBB366103E490B9C58A230957AB0D7","BDBBB366103E490B9C58A230957AB0D7","27005b3d-b496-44c3-b492-df5d2995a7ac","ba640c14-69c5-453e-80b2-29051492c0e0","{""num_scrambled_semantic"":""8"",""num_scrambled_causal"":""4"",""num_scrambled_schematic"":""4"",""participantId"":""BDBBB366103E490B9C58A230957AB0D7"",""assignmentId"":""27005b3d-b496-44c3-b492-df5d2995a7ac"",""projectId"":""ba640c14-69c5-453e-80b2-29051492c0e0""}","https://test12345.live/?num_scrambled_semantic=8&num_scrambled_causal=4&num_scrambled_schematic=4&participantId=BDBBB366103E490B9C58A230957AB0D7&assignmentId=27005b3d-b496-44c3-b492-df5d2995a7ac&projectId=ba640c14-69c5-453e-80b2-29051492c0e0","BDBBB366103E490B9C58A230957AB0D7-2025-05-14-21-29-28","","2171","","images/schematic_sequence/dinner_party_scheme/dinner_party_scheme_2.png","0","",""
"","","","","","image-button-response","48","288248","0.0-10.0-1.0-2.7","BDBBB366103E490B9C58A230957AB0D7","BDBBB366103E490B9C58A230957AB0D7","27005b3d-b496-44c3-b492-df5d2995a7ac","ba640c14-69c5-453e-80b2-29051492c0e0","{""num_scrambled_semantic"":""8"",""num_scrambled_causal"":""4"",""num_scrambled_schematic"":""4"",""participantId"":""BDBBB366103E490B9C58A230957AB0D7"",""assignmentId"":""27005b3d-b496-44c3-b492-df5d2995a7ac"",""projectId"":""ba640c14-69c5-453e-80b2-29051492c0e0""}","https://test12345.live/?num_scrambled_semantic=8&num_scrambled_causal=4&num_scrambled_schematic=4&participantId=BDBBB366103E490B9C58A230957AB0D7&assignmentId=27005b3d-b496-44c3-b492-df5d2995a7ac&projectId=ba640c14-69c5-453e-80b2-29051492c0e0","BDBBB366103E490B9C58A230957AB0D7-2025-05-14-21-29-28","","null","","[]","null","",""
"","","","","","image-button-response","49","292763","0.0-10.0-1.0-0.8","BDBBB366103E490B9C58A230957AB0D7","BDBBB366103E490B9C58A230957AB0D7","27005b3d-b496-44c3-b492-df5d2995a7ac","ba640c14-69c5-453e-80b2-29051492c0e0","{""num_scrambled_semantic"":""8"",""num_scrambled_causal"":""4"",""num_scrambled_schematic"":""4"",""participantId"":""BDBBB366103E490B9C58A230957AB0D7"",""assignmentId"":""27005b3d-b496-44c3-b492-df5d2995a7ac"",""projectId"":""ba640c14-69c5-453e-80b2-29051492c0e0""}","https://test12345.live/?num_scrambled_semantic=8&num_scrambled_causal=4&num_scrambled_schematic=4&participantId=BDBBB366103E490B9C58A230957AB0D7&assignmentId=27005b3d-b496-44c3-b492-df5d2995a7ac&projectId=ba640c14-69c5-453e-80b2-29051492c0e0","BDBBB366103E490B9C58A230957AB0D7-2025-05-14-21-29-28","","null","","images/schematic_sequence/dinner_party_scheme/dinner_party_scheme_3.png","null","",""
"","","","","","image-button-response","50","294123","0.0-10.0-1.0-1.8","BDBBB366103E490B9C58A230957AB0D7","BDBBB366103E490B9C58A230957AB0D7","27005b3d-b496-44c3-b492-df5d2995a7ac","ba640c14-69c5-453e-80b2-29051492c0e0","{""num_scrambled_semantic"":""8"",""num_scrambled_causal"":""4"",""num_scrambled_schematic"":""4"",""participantId"":""BDBBB366103E490B9C58A230957AB0D7"",""assignmentId"":""27005b3d-b496-44c3-b492-df5d2995a7ac"",""projectId"":""ba640c14-69c5-453e-80b2-29051492c0e0""}","https://test12345.live/?num_scrambled_semantic=8&num_scrambled_causal=4&num_scrambled_schematic=4&participantId=BDBBB366103E490B9C58A230957AB0D7&assignmentId=27005b3d-b496-44c3-b492-df5d2995a7ac&projectId=ba640c14-69c5-453e-80b2-29051492c0e0","BDBBB366103E490B9C58A230957AB0D7-2025-05-14-21-29-28","","1359","","images/schematic_sequence/dinner_party_scheme/dinner_party_scheme_3.png","0","",""
"","","","","","image-button-response","51","295935","0.0-10.0-1.0-2.8","BDBBB366103E490B9C58A230957AB0D7","BDBBB366103E490B9C58A230957AB0D7","27005b3d-b496-44c3-b492-df5d2995a7ac","ba640c14-69c5-453e-80b2-29051492c0e0","{""num_scrambled_semantic"":""8"",""num_scrambled_causal"":""4"",""num_scrambled_schematic"":""4"",""participantId"":""BDBBB366103E490B9C58A230957AB0D7"",""assignmentId"":""27005b3d-b496-44c3-b492-df5d2995a7ac"",""projectId"":""ba640c14-69c5-453e-80b2-29051492c0e0""}","https://test12345.live/?num_scrambled_semantic=8&num_scrambled_causal=4&num_scrambled_schematic=4&participantId=BDBBB366103E490B9C58A230957AB0D7&assignmentId=27005b3d-b496-44c3-b492-df5d2995a7ac&projectId=ba640c14-69c5-453e-80b2-29051492c0e0","BDBBB366103E490B9C58A230957AB0D7-2025-05-14-21-29-28","","null","","[]","null","",""
"","","","","","image-button-response","52","300437","0.0-10.0-1.0-0.9","BDBBB366103E490B9C58A230957AB0D7","BDBBB366103E490B9C58A230957AB0D7","27005b3d-b496-44c3-b492-df5d2995a7ac","ba640c14-69c5-453e-80b2-29051492c0e0","{""num_scrambled_semantic"":""8"",""num_scrambled_causal"":""4"",""num_scrambled_schematic"":""4"",""participantId"":""BDBBB366103E490B9C58A230957AB0D7"",""assignmentId"":""27005b3d-b496-44c3-b492-df5d2995a7ac"",""projectId"":""ba640c14-69c5-453e-80b2-29051492c0e0""}","https://test12345.live/?num_scrambled_semantic=8&num_scrambled_causal=4&num_scrambled_schematic=4&participantId=BDBBB366103E490B9C58A230957AB0D7&assignmentId=27005b3d-b496-44c3-b492-df5d2995a7ac&projectId=ba640c14-69c5-453e-80b2-29051492c0e0","BDBBB366103E490B9C58A230957AB0D7-2025-05-14-21-29-28","","null","","images/schematic_sequence/dinner_party_scheme/dinner_party_scheme_4.png","null","",""
"","","","","","image-button-response","53","302446","0.0-10.0-1.0-1.9","BDBBB366103E490B9C58A230957AB0D7","BDBBB366103E490B9C58A230957AB0D7","27005b3d-b496-44c3-b492-df5d2995a7ac","ba640c14-69c5-453e-80b2-29051492c0e0","{""num_scrambled_semantic"":""8"",""num_scrambled_causal"":""4"",""num_scrambled_schematic"":""4"",""participantId"":""BDBBB366103E490B9C58A230957AB0D7"",""assignmentId"":""27005b3d-b496-44c3-b492-df5d2995a7ac"",""projectId"":""ba640c14-69c5-453e-80b2-29051492c0e0""}","https://test12345.live/?num_scrambled_semantic=8&num_scrambled_causal=4&num_scrambled_schematic=4&participantId=BDBBB366103E490B9C58A230957AB0D7&assignmentId=27005b3d-b496-44c3-b492-df5d2995a7ac&projectId=ba640c14-69c5-453e-80b2-29051492c0e0","BDBBB366103E490B9C58A230957AB0D7-2025-05-14-21-29-28","","2007","","images/schematic_sequence/dinner_party_scheme/dinner_party_scheme_4.png","0","",""
"","","","","","image-button-response","54","304262","0.0-10.0-1.0-2.9","BDBBB366103E490B9C58A230957AB0D7","BDBBB366103E490B9C58A230957AB0D7","27005b3d-b496-44c3-b492-df5d2995a7ac","ba640c14-69c5-453e-80b2-29051492c0e0","{""num_scrambled_semantic"":""8"",""num_scrambled_causal"":""4"",""num_scrambled_schematic"":""4"",""participantId"":""BDBBB366103E490B9C58A230957AB0D7"",""assignmentId"":""27005b3d-b496-44c3-b492-df5d2995a7ac"",""projectId"":""ba640c14-69c5-453e-80b2-29051492c0e0""}","https://test12345.live/?num_scrambled_semantic=8&num_scrambled_causal=4&num_scrambled_schematic=4&participantId=BDBBB366103E490B9C58A230957AB0D7&assignmentId=27005b3d-b496-44c3-b492-df5d2995a7ac&projectId=ba640c14-69c5-453e-80b2-29051492c0e0","BDBBB366103E490B9C58A230957AB0D7-2025-05-14-21-29-28","","null","","[]","null","",""
"","","","","","html-audio-response","55","392074","0.0-11.0","BDBBB366103E490B9C58A230957AB0D7","BDBBB366103E490B9C58A230957AB0D7","27005b3d-b496-44c3-b492-df5d2995a7ac","ba640c14-69c5-453e-80b2-29051492c0e0","{""num_scrambled_semantic"":""8"",""num_scrambled_causal"":""4"",""num_scrambled_schematic"":""4"",""participantId"":""BDBBB366103E490B9C58A230957AB0D7"",""assignmentId"":""27005b3d-b496-44c3-b492-df5d2995a7ac"",""projectId"":""ba640c14-69c5-453e-80b2-29051492c0e0""}","https://test12345.live/?num_scrambled_semantic=8&num_scrambled_causal=4&num_scrambled_schematic=4&participantId=BDBBB366103E490B9C58A230957AB0D7&assignmentId=27005b3d-b496-44c3-b492-df5d2995a7ac&projectId=ba640c14-69c5-453e-80b2-29051492c0e0","BDBBB366103E490B9C58A230957AB0D7-2025-05-14-21-29-28","","42613","","[""<span style=\""color: red; font-size: 24px\""> NOW RECORDING</span><p>Please say out loud all the images you saw, as many as you can remember. The images can be said in any order.</p>""]","","2","dinner_party_scheme"
"","","","","","image-button-response","56","398090","0.0-12.0-0.0","BDBBB366103E490B9C58A230957AB0D7","BDBBB366103E490B9C58A230957AB0D7","27005b3d-b496-44c3-b492-df5d2995a7ac","ba640c14-69c5-453e-80b2-29051492c0e0","{""num_scrambled_semantic"":""8"",""num_scrambled_causal"":""4"",""num_scrambled_schematic"":""4"",""participantId"":""BDBBB366103E490B9C58A230957AB0D7"",""assignmentId"":""27005b3d-b496-44c3-b492-df5d2995a7ac"",""projectId"":""ba640c14-69c5-453e-80b2-29051492c0e0""}","https://test12345.live/?num_scrambled_semantic=8&num_scrambled_causal=4&num_scrambled_schematic=4&participantId=BDBBB366103E490B9C58A230957AB0D7&assignmentId=27005b3d-b496-44c3-b492-df5d2995a7ac&projectId=ba640c14-69c5-453e-80b2-29051492c0e0","BDBBB366103E490B9C58A230957AB0D7-2025-05-14-21-29-28","","null","","images/causal_sequence/museum_causal/museum_causal_0.png","null","",""
"","","","","","image-button-response","57","402596","0.0-12.0-1.0-0.0","BDBBB366103E490B9C58A230957AB0D7","BDBBB366103E490B9C58A230957AB0D7","27005b3d-b496-44c3-b492-df5d2995a7ac","ba640c14-69c5-453e-80b2-29051492c0e0","{""num_scrambled_semantic"":""8"",""num_scrambled_causal"":""4"",""num_scrambled_schematic"":""4"",""participantId"":""BDBBB366103E490B9C58A230957AB0D7"",""assignmentId"":""27005b3d-b496-44c3-b492-df5d2995a7ac"",""projectId"":""ba640c14-69c5-453e-80b2-29051492c0e0""}","https://test12345.live/?num_scrambled_semantic=8&num_scrambled_causal=4&num_scrambled_schematic=4&participantId=BDBBB366103E490B9C58A230957AB0D7&assignmentId=27005b3d-b496-44c3-b492-df5d2995a7ac&projectId=ba640c14-69c5-453e-80b2-29051492c0e0","BDBBB366103E490B9C58A230957AB0D7-2025-05-14-21-29-28","","null","","images/causal_sequence/museum_causal/museum_causal_1.png","null","",""
"","","","","","image-button-response","58","404881","0.0-12.0-1.0-1.0","BDBBB366103E490B9C58A230957AB0D7","BDBBB366103E490B9C58A230957AB0D7","27005b3d-b496-44c3-b492-df5d2995a7ac","ba640c14-69c5-453e-80b2-29051492c0e0","{""num_scrambled_semantic"":""8"",""num_scrambled_causal"":""4"",""num_scrambled_schematic"":""4"",""participantId"":""BDBBB366103E490B9C58A230957AB0D7"",""assignmentId"":""27005b3d-b496-44c3-b492-df5d2995a7ac"",""projectId"":""ba640c14-69c5-453e-80b2-29051492c0e0""}","https://test12345.live/?num_scrambled_semantic=8&num_scrambled_causal=4&num_scrambled_schematic=4&participantId=BDBBB366103E490B9C58A230957AB0D7&assignmentId=27005b3d-b496-44c3-b492-df5d2995a7ac&projectId=ba640c14-69c5-453e-80b2-29051492c0e0","BDBBB366103E490B9C58A230957AB0D7-2025-05-14-21-29-28","","2284","","images/causal_sequence/museum_causal/museum_causal_1.png","0","",""
"","","","","","image-button-response","59","406685","0.0-12.0-1.0-2.0","BDBBB366103E490B9C58A230957AB0D7","BDBBB366103E490B9C58A230957AB0D7","27005b3d-b496-44c3-b492-df5d2995a7ac","ba640c14-69c5-453e-80b2-29051492c0e0","{""num_scrambled_semantic"":""8"",""num_scrambled_causal"":""4"",""num_scrambled_schematic"":""4"",""participantId"":""BDBBB366103E490B9C58A230957AB0D7"",""assignmentId"":""27005b3d-b496-44c3-b492-df5d2995a7ac"",""projectId"":""ba640c14-69c5-453e-80b2-29051492c0e0""}","https://test12345.live/?num_scrambled_semantic=8&num_scrambled_causal=4&num_scrambled_schematic=4&participantId=BDBBB366103E490B9C58A230957AB0D7&assignmentId=27005b3d-b496-44c3-b492-df5d2995a7ac&projectId=ba640c14-69c5-453e-80b2-29051492c0e0","BDBBB366103E490B9C58A230957AB0D7-2025-05-14-21-29-28","","null","","[]","null","",""
"","","","","","image-button-response","60","411192","0.0-12.0-1.0-0.1","BDBBB366103E490B9C58A230957AB0D7","BDBBB366103E490B9C58A230957AB0D7","27005b3d-b496-44c3-b492-df5d2995a7ac","ba640c14-69c5-453e-80b2-29051492c0e0","{""num_scrambled_semantic"":""8"",""num_scrambled_causal"":""4"",""num_scrambled_schematic"":""4"",""participantId"":""BDBBB366103E490B9C58A230957AB0D7"",""assignmentId"":""27005b3d-b496-44c3-b492-df5d2995a7ac"",""projectId"":""ba640c14-69c5-453e-80b2-29051492c0e0""}","https://test12345.live/?num_scrambled_semantic=8&num_scrambled_causal=4&num_scrambled_schematic=4&participantId=BDBBB366103E490B9C58A230957AB0D7&assignmentId=27005b3d-b496-44c3-b492-df5d2995a7ac&projectId=ba640c14-69c5-453e-80b2-29051492c0e0","BDBBB366103E490B9C58A230957AB0D7-2025-05-14-21-29-28","","null","","images/causal_sequence/museum_causal/museum_causal_2.png","null","",""
"","","","","","image-button-response","61","415201","0.0-12.0-1.0-1.1","BDBBB366103E490B9C58A230957AB0D7","BDBBB366103E490B9C58A230957AB0D7","27005b3d-b496-44c3-b492-df5d2995a7ac","ba640c14-69c5-453e-80b2-29051492c0e0","{""num_scrambled_semantic"":""8"",""num_scrambled_causal"":""4"",""num_scrambled_schematic"":""4"",""participantId"":""BDBBB366103E490B9C58A230957AB0D7"",""assignmentId"":""27005b3d-b496-44c3-b492-df5d2995a7ac"",""projectId"":""ba640c14-69c5-453e-80b2-29051492c0e0""}","https://test12345.live/?num_scrambled_semantic=8&num_scrambled_causal=4&num_scrambled_schematic=4&participantId=BDBBB366103E490B9C58A230957AB0D7&assignmentId=27005b3d-b496-44c3-b492-df5d2995a7ac&projectId=ba640c14-69c5-453e-80b2-29051492c0e0","BDBBB366103E490B9C58A230957AB0D7-2025-05-14-21-29-28","","null","","images/causal_sequence/museum_causal/museum_causal_2.png","null","",""
"","","","","","image-button-response","62","417004","0.0-12.0-1.0-2.1","BDBBB366103E490B9C58A230957AB0D7","BDBBB366103E490B9C58A230957AB0D7","27005b3d-b496-44c3-b492-df5d2995a7ac","ba640c14-69c5-453e-80b2-29051492c0e0","{""num_scrambled_semantic"":""8"",""num_scrambled_causal"":""4"",""num_scrambled_schematic"":""4"",""participantId"":""BDBBB366103E490B9C58A230957AB0D7"",""assignmentId"":""27005b3d-b496-44c3-b492-df5d2995a7ac"",""projectId"":""ba640c14-69c5-453e-80b2-29051492c0e0""}","https://test12345.live/?num_scrambled_semantic=8&num_scrambled_causal=4&num_scrambled_schematic=4&participantId=BDBBB366103E490B9C58A230957AB0D7&assignmentId=27005b3d-b496-44c3-b492-df5d2995a7ac&projectId=ba640c14-69c5-453e-80b2-29051492c0e0","BDBBB366103E490B9C58A230957AB0D7-2025-05-14-21-29-28","","null","","[]","null","",""
"","","","","","image-button-response","63","421519","0.0-12.0-1.0-0.2","BDBBB366103E490B9C58A230957AB0D7","BDBBB366103E490B9C58A230957AB0D7","27005b3d-b496-44c3-b492-df5d2995a7ac","ba640c14-69c5-453e-80b2-29051492c0e0","{""num_scrambled_semantic"":""8"",""num_scrambled_causal"":""4"",""num_scrambled_schematic"":""4"",""participantId"":""BDBBB366103E490B9C58A230957AB0D7"",""assignmentId"":""27005b3d-b496-44c3-b492-df5d2995a7ac"",""projectId"":""ba640c14-69c5-453e-80b2-29051492c0e0""}","https://test12345.live/?num_scrambled_semantic=8&num_scrambled_causal=4&num_scrambled_schematic=4&participantId=BDBBB366103E490B9C58A230957AB0D7&assignmentId=27005b3d-b496-44c3-b492-df5d2995a7ac&projectId=ba640c14-69c5-453e-80b2-29051492c0e0","BDBBB366103E490B9C58A230957AB0D7-2025-05-14-21-29-28","","null","","images/causal_sequence/museum_causal/museum_causal_3.png","null","",""
"","","","","","image-button-response","64","423736","0.0-12.0-1.0-1.2","BDBBB366103E490B9C58A230957AB0D7","BDBBB366103E490B9C58A230957AB0D7","27005b3d-b496-44c3-b492-df5d2995a7ac","ba640c14-69c5-453e-80b2-29051492c0e0","{""num_scrambled_semantic"":""8"",""num_scrambled_causal"":""4"",""num_scrambled_schematic"":""4"",""participantId"":""BDBBB366103E490B9C58A230957AB0D7"",""assignmentId"":""27005b3d-b496-44c3-b492-df5d2995a7ac"",""projectId"":""ba640c14-69c5-453e-80b2-29051492c0e0""}","https://test12345.live/?num_scrambled_semantic=8&num_scrambled_causal=4&num_scrambled_schematic=4&participantId=BDBBB366103E490B9C58A230957AB0D7&assignmentId=27005b3d-b496-44c3-b492-df5d2995a7ac&projectId=ba640c14-69c5-453e-80b2-29051492c0e0","BDBBB366103E490B9C58A230957AB0D7-2025-05-14-21-29-28","","2216","","images/causal_sequence/museum_causal/museum_causal_3.png","0","",""
"","","","","","image-button-response","65","425540","0.0-12.0-1.0-2.2","BDBBB366103E490B9C58A230957AB0D7","BDBBB366103E490B9C58A230957AB0D7","27005b3d-b496-44c3-b492-df5d2995a7ac","ba640c14-69c5-453e-80b2-29051492c0e0","{""num_scrambled_semantic"":""8"",""num_scrambled_causal"":""4"",""num_scrambled_schematic"":""4"",""participantId"":""BDBBB366103E490B9C58A230957AB0D7"",""assignmentId"":""27005b3d-b496-44c3-b492-df5d2995a7ac"",""projectId"":""ba640c14-69c5-453e-80b2-29051492c0e0""}","https://test12345.live/?num_scrambled_semantic=8&num_scrambled_causal=4&num_scrambled_schematic=4&participantId=BDBBB366103E490B9C58A230957AB0D7&assignmentId=27005b3d-b496-44c3-b492-df5d2995a7ac&projectId=ba640c14-69c5-453e-80b2-29051492c0e0","BDBBB366103E490B9C58A230957AB0D7-2025-05-14-21-29-28","","null","","[]","null","",""
"","","","","","image-button-response","66","430050","0.0-12.0-1.0-0.3","BDBBB366103E490B9C58A230957AB0D7","BDBBB366103E490B9C58A230957AB0D7","27005b3d-b496-44c3-b492-df5d2995a7ac","ba640c14-69c5-453e-80b2-29051492c0e0","{""num_scrambled_semantic"":""8"",""num_scrambled_causal"":""4"",""num_scrambled_schematic"":""4"",""participantId"":""BDBBB366103E490B9C58A230957AB0D7"",""assignmentId"":""27005b3d-b496-44c3-b492-df5d2995a7ac"",""projectId"":""ba640c14-69c5-453e-80b2-29051492c0e0""}","https://test12345.live/?num_scrambled_semantic=8&num_scrambled_causal=4&num_scrambled_schematic=4&participantId=BDBBB366103E490B9C58A230957AB0D7&assignmentId=27005b3d-b496-44c3-b492-df5d2995a7ac&projectId=ba640c14-69c5-453e-80b2-29051492c0e0","BDBBB366103E490B9C58A230957AB0D7-2025-05-14-21-29-28","","null","","images/causal_sequence/museum_causal/museum_causal_4.png","null","",""
"","","","","","image-button-response","67","432438","0.0-12.0-1.0-1.3","BDBBB366103E490B9C58A230957AB0D7","BDBBB366103E490B9C58A230957AB0D7","27005b3d-b496-44c3-b492-df5d2995a7ac","ba640c14-69c5-453e-80b2-29051492c0e0","{""num_scrambled_semantic"":""8"",""num_scrambled_causal"":""4"",""num_scrambled_schematic"":""4"",""participantId"":""BDBBB366103E490B9C58A230957AB0D7"",""assignmentId"":""27005b3d-b496-44c3-b492-df5d2995a7ac"",""projectId"":""ba640c14-69c5-453e-80b2-29051492c0e0""}","https://test12345.live/?num_scrambled_semantic=8&num_scrambled_causal=4&num_scrambled_schematic=4&participantId=BDBBB366103E490B9C58A230957AB0D7&assignmentId=27005b3d-b496-44c3-b492-df5d2995a7ac&projectId=ba640c14-69c5-453e-80b2-29051492c0e0","BDBBB366103E490B9C58A230957AB0D7-2025-05-14-21-29-28","","2386","","images/causal_sequence/museum_causal/museum_causal_4.png","1","",""
"","","","","","image-button-response","68","434253","0.0-12.0-1.0-2.3","BDBBB366103E490B9C58A230957AB0D7","BDBBB366103E490B9C58A230957AB0D7","27005b3d-b496-44c3-b492-df5d2995a7ac","ba640c14-69c5-453e-80b2-29051492c0e0","{""num_scrambled_semantic"":""8"",""num_scrambled_causal"":""4"",""num_scrambled_schematic"":""4"",""participantId"":""BDBBB366103E490B9C58A230957AB0D7"",""assignmentId"":""27005b3d-b496-44c3-b492-df5d2995a7ac"",""projectId"":""ba640c14-69c5-453e-80b2-29051492c0e0""}","https://test12345.live/?num_scrambled_semantic=8&num_scrambled_causal=4&num_scrambled_schematic=4&participantId=BDBBB366103E490B9C58A230957AB0D7&assignmentId=27005b3d-b496-44c3-b492-df5d2995a7ac&projectId=ba640c14-69c5-453e-80b2-29051492c0e0","BDBBB366103E490B9C58A230957AB0D7-2025-05-14-21-29-28","","null","","[]","null","",""
"","","","","","image-button-response","69","438758","0.0-12.0-1.0-0.4","BDBBB366103E490B9C58A230957AB0D7","BDBBB366103E490B9C58A230957AB0D7","27005b3d-b496-44c3-b492-df5d2995a7ac","ba640c14-69c5-453e-80b2-29051492c0e0","{""num_scrambled_semantic"":""8"",""num_scrambled_causal"":""4"",""num_scrambled_schematic"":""4"",""participantId"":""BDBBB366103E490B9C58A230957AB0D7"",""assignmentId"":""27005b3d-b496-44c3-b492-df5d2995a7ac"",""projectId"":""ba640c14-69c5-453e-80b2-29051492c0e0""}","https://test12345.live/?num_scrambled_semantic=8&num_scrambled_causal=4&num_scrambled_schematic=4&participantId=BDBBB366103E490B9C58A230957AB0D7&assignmentId=27005b3d-b496-44c3-b492-df5d2995a7ac&projectId=ba640c14-69c5-453e-80b2-29051492c0e0","BDBBB366103E490B9C58A230957AB0D7-2025-05-14-21-29-28","","null","","images/causal_sequence/museum_causal/museum_causal_5.png","null","",""
"","","","","","image-button-response","70","440839","0.0-12.0-1.0-1.4","BDBBB366103E490B9C58A230957AB0D7","BDBBB366103E490B9C58A230957AB0D7","27005b3d-b496-44c3-b492-df5d2995a7ac","ba640c14-69c5-453e-80b2-29051492c0e0","{""num_scrambled_semantic"":""8"",""num_scrambled_causal"":""4"",""num_scrambled_schematic"":""4"",""participantId"":""BDBBB366103E490B9C58A230957AB0D7"",""assignmentId"":""27005b3d-b496-44c3-b492-df5d2995a7ac"",""projectId"":""ba640c14-69c5-453e-80b2-29051492c0e0""}","https://test12345.live/?num_scrambled_semantic=8&num_scrambled_causal=4&num_scrambled_schematic=4&participantId=BDBBB366103E490B9C58A230957AB0D7&assignmentId=27005b3d-b496-44c3-b492-df5d2995a7ac&projectId=ba640c14-69c5-453e-80b2-29051492c0e0","BDBBB366103E490B9C58A230957AB0D7-2025-05-14-21-29-28","","2080","","images/causal_sequence/museum_causal/museum_causal_5.png","0","",""
"","","","","","image-button-response","71","442643","0.0-12.0-1.0-2.4","BDBBB366103E490B9C58A230957AB0D7","BDBBB366103E490B9C58A230957AB0D7","27005b3d-b496-44c3-b492-df5d2995a7ac","ba640c14-69c5-453e-80b2-29051492c0e0","{""num_scrambled_semantic"":""8"",""num_scrambled_causal"":""4"",""num_scrambled_schematic"":""4"",""participantId"":""BDBBB366103E490B9C58A230957AB0D7"",""assignmentId"":""27005b3d-b496-44c3-b492-df5d2995a7ac"",""projectId"":""ba640c14-69c5-453e-80b2-29051492c0e0""}","https://test12345.live/?num_scrambled_semantic=8&num_scrambled_causal=4&num_scrambled_schematic=4&participantId=BDBBB366103E490B9C58A230957AB0D7&assignmentId=27005b3d-b496-44c3-b492-df5d2995a7ac&projectId=ba640c14-69c5-453e-80b2-29051492c0e0","BDBBB366103E490B9C58A230957AB0D7-2025-05-14-21-29-28","","null","","[]","null","",""
"","","","","","image-button-response","72","447157","0.0-12.0-1.0-0.5","BDBBB366103E490B9C58A230957AB0D7","BDBBB366103E490B9C58A230957AB0D7","27005b3d-b496-44c3-b492-df5d2995a7ac","ba640c14-69c5-453e-80b2-29051492c0e0","{""num_scrambled_semantic"":""8"",""num_scrambled_causal"":""4"",""num_scrambled_schematic"":""4"",""participantId"":""BDBBB366103E490B9C58A230957AB0D7"",""assignmentId"":""27005b3d-b496-44c3-b492-df5d2995a7ac"",""projectId"":""ba640c14-69c5-453e-80b2-29051492c0e0""}","https://test12345.live/?num_scrambled_semantic=8&num_scrambled_causal=4&num_scrambled_schematic=4&participantId=BDBBB366103E490B9C58A230957AB0D7&assignmentId=27005b3d-b496-44c3-b492-df5d2995a7ac&projectId=ba640c14-69c5-453e-80b2-29051492c0e0","BDBBB366103E490B9C58A230957AB0D7-2025-05-14-21-29-28","","null","","images/causal_sequence/museum_causal/museum_causal_6.png","null","",""
"","","","","","image-button-response","73","448919","0.0-12.0-1.0-1.5","BDBBB366103E490B9C58A230957AB0D7","BDBBB366103E490B9C58A230957AB0D7","27005b3d-b496-44c3-b492-df5d2995a7ac","ba640c14-69c5-453e-80b2-29051492c0e0","{""num_scrambled_semantic"":""8"",""num_scrambled_causal"":""4"",""num_scrambled_schematic"":""4"",""participantId"":""BDBBB366103E490B9C58A230957AB0D7"",""assignmentId"":""27005b3d-b496-44c3-b492-df5d2995a7ac"",""projectId"":""ba640c14-69c5-453e-80b2-29051492c0e0""}","https://test12345.live/?num_scrambled_semantic=8&num_scrambled_causal=4&num_scrambled_schematic=4&participantId=BDBBB366103E490B9C58A230957AB0D7&assignmentId=27005b3d-b496-44c3-b492-df5d2995a7ac&projectId=ba640c14-69c5-453e-80b2-29051492c0e0","BDBBB366103E490B9C58A230957AB0D7-2025-05-14-21-29-28","","1760","","images/causal_sequence/museum_causal/museum_causal_6.png","0","",""
"","","","","","image-button-response","74","450724","0.0-12.0-1.0-2.5","BDBBB366103E490B9C58A230957AB0D7","BDBBB366103E490B9C58A230957AB0D7","27005b3d-b496-44c3-b492-df5d2995a7ac","ba640c14-69c5-453e-80b2-29051492c0e0","{""num_scrambled_semantic"":""8"",""num_scrambled_causal"":""4"",""num_scrambled_schematic"":""4"",""participantId"":""BDBBB366103E490B9C58A230957AB0D7"",""assignmentId"":""27005b3d-b496-44c3-b492-df5d2995a7ac"",""projectId"":""ba640c14-69c5-453e-80b2-29051492c0e0""}","https://test12345.live/?num_scrambled_semantic=8&num_scrambled_causal=4&num_scrambled_schematic=4&participantId=BDBBB366103E490B9C58A230957AB0D7&assignmentId=27005b3d-b496-44c3-b492-df5d2995a7ac&projectId=ba640c14-69c5-453e-80b2-29051492c0e0","BDBBB366103E490B9C58A230957AB0D7-2025-05-14-21-29-28","","null","","[]","null","",""
"","","","","","image-button-response","75","455232","0.0-12.0-1.0-0.6","BDBBB366103E490B9C58A230957AB0D7","BDBBB366103E490B9C58A230957AB0D7","27005b3d-b496-44c3-b492-df5d2995a7ac","ba640c14-69c5-453e-80b2-29051492c0e0","{""num_scrambled_semantic"":""8"",""num_scrambled_causal"":""4"",""num_scrambled_schematic"":""4"",""participantId"":""BDBBB366103E490B9C58A230957AB0D7"",""assignmentId"":""27005b3d-b496-44c3-b492-df5d2995a7ac"",""projectId"":""ba640c14-69c5-453e-80b2-29051492c0e0""}","https://test12345.live/?num_scrambled_semantic=8&num_scrambled_causal=4&num_scrambled_schematic=4&participantId=BDBBB366103E490B9C58A230957AB0D7&assignmentId=27005b3d-b496-44c3-b492-df5d2995a7ac&projectId=ba640c14-69c5-453e-80b2-29051492c0e0","BDBBB366103E490B9C58A230957AB0D7-2025-05-14-21-29-28","","null","","images/causal_sequence/museum_causal/museum_causal_7.png","null","",""
"","","","","","image-button-response","76","457720","0.0-12.0-1.0-1.6","BDBBB366103E490B9C58A230957AB0D7","BDBBB366103E490B9C58A230957AB0D7","27005b3d-b496-44c3-b492-df5d2995a7ac","ba640c14-69c5-453e-80b2-29051492c0e0","{""num_scrambled_semantic"":""8"",""num_scrambled_causal"":""4"",""num_scrambled_schematic"":""4"",""participantId"":""BDBBB366103E490B9C58A230957AB0D7"",""assignmentId"":""27005b3d-b496-44c3-b492-df5d2995a7ac"",""projectId"":""ba640c14-69c5-453e-80b2-29051492c0e0""}","https://test12345.live/?num_scrambled_semantic=8&num_scrambled_causal=4&num_scrambled_schematic=4&participantId=BDBBB366103E490B9C58A230957AB0D7&assignmentId=27005b3d-b496-44c3-b492-df5d2995a7ac&projectId=ba640c14-69c5-453e-80b2-29051492c0e0","BDBBB366103E490B9C58A230957AB0D7-2025-05-14-21-29-28","","2486","","images/causal_sequence/museum_causal/museum_causal_7.png","1","",""
"","","","","","image-button-response","77","459532","0.0-12.0-1.0-2.6","BDBBB366103E490B9C58A230957AB0D7","BDBBB366103E490B9C58A230957AB0D7","27005b3d-b496-44c3-b492-df5d2995a7ac","ba640c14-69c5-453e-80b2-29051492c0e0","{""num_scrambled_semantic"":""8"",""num_scrambled_causal"":""4"",""num_scrambled_schematic"":""4"",""participantId"":""BDBBB366103E490B9C58A230957AB0D7"",""assignmentId"":""27005b3d-b496-44c3-b492-df5d2995a7ac"",""projectId"":""ba640c14-69c5-453e-80b2-29051492c0e0""}","https://test12345.live/?num_scrambled_semantic=8&num_scrambled_causal=4&num_scrambled_schematic=4&participantId=BDBBB366103E490B9C58A230957AB0D7&assignmentId=27005b3d-b496-44c3-b492-df5d2995a7ac&projectId=ba640c14-69c5-453e-80b2-29051492c0e0","BDBBB366103E490B9C58A230957AB0D7-2025-05-14-21-29-28","","null","","[]","null","",""
"","","","","","image-button-response","78","464049","0.0-12.0-1.0-0.7","BDBBB366103E490B9C58A230957AB0D7","BDBBB366103E490B9C58A230957AB0D7","27005b3d-b496-44c3-b492-df5d2995a7ac","ba640c14-69c5-453e-80b2-29051492c0e0","{""num_scrambled_semantic"":""8"",""num_scrambled_causal"":""4"",""num_scrambled_schematic"":""4"",""participantId"":""BDBBB366103E490B9C58A230957AB0D7"",""assignmentId"":""27005b3d-b496-44c3-b492-df5d2995a7ac"",""projectId"":""ba640c14-69c5-453e-80b2-29051492c0e0""}","https://test12345.live/?num_scrambled_semantic=8&num_scrambled_causal=4&num_scrambled_schematic=4&participantId=BDBBB366103E490B9C58A230957AB0D7&assignmentId=27005b3d-b496-44c3-b492-df5d2995a7ac&projectId=ba640c14-69c5-453e-80b2-29051492c0e0","BDBBB366103E490B9C58A230957AB0D7-2025-05-14-21-29-28","","null","","images/causal_sequence/museum_causal/museum_causal_8.png","null","",""
"","","","","","image-button-response","79","466865","0.0-12.0-1.0-1.7","BDBBB366103E490B9C58A230957AB0D7","BDBBB366103E490B9C58A230957AB0D7","27005b3d-b496-44c3-b492-df5d2995a7ac","ba640c14-69c5-453e-80b2-29051492c0e0","{""num_scrambled_semantic"":""8"",""num_scrambled_causal"":""4"",""num_scrambled_schematic"":""4"",""participantId"":""BDBBB366103E490B9C58A230957AB0D7"",""assignmentId"":""27005b3d-b496-44c3-b492-df5d2995a7ac"",""projectId"":""ba640c14-69c5-453e-80b2-29051492c0e0""}","https://test12345.live/?num_scrambled_semantic=8&num_scrambled_causal=4&num_scrambled_schematic=4&participantId=BDBBB366103E490B9C58A230957AB0D7&assignmentId=27005b3d-b496-44c3-b492-df5d2995a7ac&projectId=ba640c14-69c5-453e-80b2-29051492c0e0","BDBBB366103E490B9C58A230957AB0D7-2025-05-14-21-29-28","","2814","","images/causal_sequence/museum_causal/museum_causal_8.png","0","",""
"","","","","","image-button-response","80","468682","0.0-12.0-1.0-2.7","BDBBB366103E490B9C58A230957AB0D7","BDBBB366103E490B9C58A230957AB0D7","27005b3d-b496-44c3-b492-df5d2995a7ac","ba640c14-69c5-453e-80b2-29051492c0e0","{""num_scrambled_semantic"":""8"",""num_scrambled_causal"":""4"",""num_scrambled_schematic"":""4"",""participantId"":""BDBBB366103E490B9C58A230957AB0D7"",""assignmentId"":""27005b3d-b496-44c3-b492-df5d2995a7ac"",""projectId"":""ba640c14-69c5-453e-80b2-29051492c0e0""}","https://test12345.live/?num_scrambled_semantic=8&num_scrambled_causal=4&num_scrambled_schematic=4&participantId=BDBBB366103E490B9C58A230957AB0D7&assignmentId=27005b3d-b496-44c3-b492-df5d2995a7ac&projectId=ba640c14-69c5-453e-80b2-29051492c0e0","BDBBB366103E490B9C58A230957AB0D7-2025-05-14-21-29-28","","null","","[]","null","",""
"","","","","","image-button-response","81","473192","0.0-12.0-1.0-0.8","BDBBB366103E490B9C58A230957AB0D7","BDBBB366103E490B9C58A230957AB0D7","27005b3d-b496-44c3-b492-df5d2995a7ac","ba640c14-69c5-453e-80b2-29051492c0e0","{""num_scrambled_semantic"":""8"",""num_scrambled_causal"":""4"",""num_scrambled_schematic"":""4"",""participantId"":""BDBBB366103E490B9C58A230957AB0D7"",""assignmentId"":""27005b3d-b496-44c3-b492-df5d2995a7ac"",""projectId"":""ba640c14-69c5-453e-80b2-29051492c0e0""}","https://test12345.live/?num_scrambled_semantic=8&num_scrambled_causal=4&num_scrambled_schematic=4&participantId=BDBBB366103E490B9C58A230957AB0D7&assignmentId=27005b3d-b496-44c3-b492-df5d2995a7ac&projectId=ba640c14-69c5-453e-80b2-29051492c0e0","BDBBB366103E490B9C58A230957AB0D7-2025-05-14-21-29-28","","null","","images/causal_sequence/museum_causal/museum_causal_9.png","null","",""
"","","","","","image-button-response","82","475964","0.0-12.0-1.0-1.8","BDBBB366103E490B9C58A230957AB0D7","BDBBB366103E490B9C58A230957AB0D7","27005b3d-b496-44c3-b492-df5d2995a7ac","ba640c14-69c5-453e-80b2-29051492c0e0","{""num_scrambled_semantic"":""8"",""num_scrambled_causal"":""4"",""num_scrambled_schematic"":""4"",""participantId"":""BDBBB366103E490B9C58A230957AB0D7"",""assignmentId"":""27005b3d-b496-44c3-b492-df5d2995a7ac"",""projectId"":""ba640c14-69c5-453e-80b2-29051492c0e0""}","https://test12345.live/?num_scrambled_semantic=8&num_scrambled_causal=4&num_scrambled_schematic=4&participantId=BDBBB366103E490B9C58A230957AB0D7&assignmentId=27005b3d-b496-44c3-b492-df5d2995a7ac&projectId=ba640c14-69c5-453e-80b2-29051492c0e0","BDBBB366103E490B9C58A230957AB0D7-2025-05-14-21-29-28","","2770","","images/causal_sequence/museum_causal/museum_causal_9.png","1","",""
"","","","","","image-button-response","83","477778","0.0-12.0-1.0-2.8","BDBBB366103E490B9C58A230957AB0D7","BDBBB366103E490B9C58A230957AB0D7","27005b3d-b496-44c3-b492-df5d2995a7ac","ba640c14-69c5-453e-80b2-29051492c0e0","{""num_scrambled_semantic"":""8"",""num_scrambled_causal"":""4"",""num_scrambled_schematic"":""4"",""participantId"":""BDBBB366103E490B9C58A230957AB0D7"",""assignmentId"":""27005b3d-b496-44c3-b492-df5d2995a7ac"",""projectId"":""ba640c14-69c5-453e-80b2-29051492c0e0""}","https://test12345.live/?num_scrambled_semantic=8&num_scrambled_causal=4&num_scrambled_schematic=4&participantId=BDBBB366103E490B9C58A230957AB0D7&assignmentId=27005b3d-b496-44c3-b492-df5d2995a7ac&projectId=ba640c14-69c5-453e-80b2-29051492c0e0","BDBBB366103E490B9C58A230957AB0D7-2025-05-14-21-29-28","","null","","[]","null","",""
"","","","","","image-button-response","84","482293","0.0-12.0-1.0-0.9","BDBBB366103E490B9C58A230957AB0D7","BDBBB366103E490B9C58A230957AB0D7","27005b3d-b496-44c3-b492-df5d2995a7ac","ba640c14-69c5-453e-80b2-29051492c0e0","{""num_scrambled_semantic"":""8"",""num_scrambled_causal"":""4"",""num_scrambled_schematic"":""4"",""participantId"":""BDBBB366103E490B9C58A230957AB0D7"",""assignmentId"":""27005b3d-b496-44c3-b492-df5d2995a7ac"",""projectId"":""ba640c14-69c5-453e-80b2-29051492c0e0""}","https://test12345.live/?num_scrambled_semantic=8&num_scrambled_causal=4&num_scrambled_schematic=4&participantId=BDBBB366103E490B9C58A230957AB0D7&assignmentId=27005b3d-b496-44c3-b492-df5d2995a7ac&projectId=ba640c14-69c5-453e-80b2-29051492c0e0","BDBBB366103E490B9C58A230957AB0D7-2025-05-14-21-29-28","","null","","images/causal_sequence/museum_causal/museum_causal_ten.png","null","",""
"","","","","","image-button-response","85","485025","0.0-12.0-1.0-1.9","BDBBB366103E490B9C58A230957AB0D7","BDBBB366103E490B9C58A230957AB0D7","27005b3d-b496-44c3-b492-df5d2995a7ac","ba640c14-69c5-453e-80b2-29051492c0e0","{""num_scrambled_semantic"":""8"",""num_scrambled_causal"":""4"",""num_scrambled_schematic"":""4"",""participantId"":""BDBBB366103E490B9C58A230957AB0D7"",""assignmentId"":""27005b3d-b496-44c3-b492-df5d2995a7ac"",""projectId"":""ba640c14-69c5-453e-80b2-29051492c0e0""}","https://test12345.live/?num_scrambled_semantic=8&num_scrambled_causal=4&num_scrambled_schematic=4&participantId=BDBBB366103E490B9C58A230957AB0D7&assignmentId=27005b3d-b496-44c3-b492-df5d2995a7ac&projectId=ba640c14-69c5-453e-80b2-29051492c0e0","BDBBB366103E490B9C58A230957AB0D7-2025-05-14-21-29-28","","2730","","images/causal_sequence/museum_causal/museum_causal_ten.png","0","",""
"","","","","","image-button-response","86","486833","0.0-12.0-1.0-2.9","BDBBB366103E490B9C58A230957AB0D7","BDBBB366103E490B9C58A230957AB0D7","27005b3d-b496-44c3-b492-df5d2995a7ac","ba640c14-69c5-453e-80b2-29051492c0e0","{""num_scrambled_semantic"":""8"",""num_scrambled_causal"":""4"",""num_scrambled_schematic"":""4"",""participantId"":""BDBBB366103E490B9C58A230957AB0D7"",""assignmentId"":""27005b3d-b496-44c3-b492-df5d2995a7ac"",""projectId"":""ba640c14-69c5-453e-80b2-29051492c0e0""}","https://test12345.live/?num_scrambled_semantic=8&num_scrambled_causal=4&num_scrambled_schematic=4&participantId=BDBBB366103E490B9C58A230957AB0D7&assignmentId=27005b3d-b496-44c3-b492-df5d2995a7ac&projectId=ba640c14-69c5-453e-80b2-29051492c0e0","BDBBB366103E490B9C58A230957AB0D7-2025-05-14-21-29-28","","null","","[]","null","",""
"","","","","","html-audio-response","87","544879","0.0-13.0","BDBBB366103E490B9C58A230957AB0D7","BDBBB366103E490B9C58A230957AB0D7","27005b3d-b496-44c3-b492-df5d2995a7ac","ba640c14-69c5-453e-80b2-29051492c0e0","{""num_scrambled_semantic"":""8"",""num_scrambled_causal"":""4"",""num_scrambled_schematic"":""4"",""participantId"":""BDBBB366103E490B9C58A230957AB0D7"",""assignmentId"":""27005b3d-b496-44c3-b492-df5d2995a7ac"",""projectId"":""ba640c14-69c5-453e-80b2-29051492c0e0""}","https://test12345.live/?num_scrambled_semantic=8&num_scrambled_causal=4&num_scrambled_schematic=4&participantId=BDBBB366103E490B9C58A230957AB0D7&assignmentId=27005b3d-b496-44c3-b492-df5d2995a7ac&projectId=ba640c14-69c5-453e-80b2-29051492c0e0","BDBBB366103E490B9C58A230957AB0D7-2025-05-14-21-29-28","","27308","","[""<span style=\""color: red; font-size: 24px\""> NOW RECORDING</span><p>Please say out loud all the images you saw, as many as you can remember. The images can be said in any order.</p>""]","","2","museum_causal"
"","","","","","image-button-response","88","550888","0.0-14.0-0.0","BDBBB366103E490B9C58A230957AB0D7","BDBBB366103E490B9C58A230957AB0D7","27005b3d-b496-44c3-b492-df5d2995a7ac","ba640c14-69c5-453e-80b2-29051492c0e0","{""num_scrambled_semantic"":""8"",""num_scrambled_causal"":""4"",""num_scrambled_schematic"":""4"",""participantId"":""BDBBB366103E490B9C58A230957AB0D7"",""assignmentId"":""27005b3d-b496-44c3-b492-df5d2995a7ac"",""projectId"":""ba640c14-69c5-453e-80b2-29051492c0e0""}","https://test12345.live/?num_scrambled_semantic=8&num_scrambled_causal=4&num_scrambled_schematic=4&participantId=BDBBB366103E490B9C58A230957AB0D7&assignmentId=27005b3d-b496-44c3-b492-df5d2995a7ac&projectId=ba640c14-69c5-453e-80b2-29051492c0e0","BDBBB366103E490B9C58A230957AB0D7-2025-05-14-21-29-28","","null","","images/semantic_sequence/maintaining_a_car_semantic/maintaining_a_car_semantic_0.png","null","",""
"","","","","","image-button-response","89","555406","0.0-14.0-1.0-0.0","BDBBB366103E490B9C58A230957AB0D7","BDBBB366103E490B9C58A230957AB0D7","27005b3d-b496-44c3-b492-df5d2995a7ac","ba640c14-69c5-453e-80b2-29051492c0e0","{""num_scrambled_semantic"":""8"",""num_scrambled_causal"":""4"",""num_scrambled_schematic"":""4"",""participantId"":""BDBBB366103E490B9C58A230957AB0D7"",""assignmentId"":""27005b3d-b496-44c3-b492-df5d2995a7ac"",""projectId"":""ba640c14-69c5-453e-80b2-29051492c0e0""}","https://test12345.live/?num_scrambled_semantic=8&num_scrambled_causal=4&num_scrambled_schematic=4&participantId=BDBBB366103E490B9C58A230957AB0D7&assignmentId=27005b3d-b496-44c3-b492-df5d2995a7ac&projectId=ba640c14-69c5-453e-80b2-29051492c0e0","BDBBB366103E490B9C58A230957AB0D7-2025-05-14-21-29-28","","null","","images/semantic_sequence/maintaining_a_car_semantic/maintaining_a_car_semantic_1.png","null","",""
"","","","","","image-button-response","90","557138","0.0-14.0-1.0-1.0","BDBBB366103E490B9C58A230957AB0D7","BDBBB366103E490B9C58A230957AB0D7","27005b3d-b496-44c3-b492-df5d2995a7ac","ba640c14-69c5-453e-80b2-29051492c0e0","{""num_scrambled_semantic"":""8"",""num_scrambled_causal"":""4"",""num_scrambled_schematic"":""4"",""participantId"":""BDBBB366103E490B9C58A230957AB0D7"",""assignmentId"":""27005b3d-b496-44c3-b492-df5d2995a7ac"",""projectId"":""ba640c14-69c5-453e-80b2-29051492c0e0""}","https://test12345.live/?num_scrambled_semantic=8&num_scrambled_causal=4&num_scrambled_schematic=4&participantId=BDBBB366103E490B9C58A230957AB0D7&assignmentId=27005b3d-b496-44c3-b492-df5d2995a7ac&projectId=ba640c14-69c5-453e-80b2-29051492c0e0","BDBBB366103E490B9C58A230957AB0D7-2025-05-14-21-29-28","","1730","","images/semantic_sequence/maintaining_a_car_semantic/maintaining_a_car_semantic_1.png","0","",""
"","","","","","image-button-response","91","558952","0.0-14.0-1.0-2.0","BDBBB366103E490B9C58A230957AB0D7","BDBBB366103E490B9C58A230957AB0D7","27005b3d-b496-44c3-b492-df5d2995a7ac","ba640c14-69c5-453e-80b2-29051492c0e0","{""num_scrambled_semantic"":""8"",""num_scrambled_causal"":""4"",""num_scrambled_schematic"":""4"",""participantId"":""BDBBB366103E490B9C58A230957AB0D7"",""assignmentId"":""27005b3d-b496-44c3-b492-df5d2995a7ac"",""projectId"":""ba640c14-69c5-453e-80b2-29051492c0e0""}","https://test12345.live/?num_scrambled_semantic=8&num_scrambled_causal=4&num_scrambled_schematic=4&participantId=BDBBB366103E490B9C58A230957AB0D7&assignmentId=27005b3d-b496-44c3-b492-df5d2995a7ac&projectId=ba640c14-69c5-453e-80b2-29051492c0e0","BDBBB366103E490B9C58A230957AB0D7-2025-05-14-21-29-28","","null","","[]","null","",""
"","","","","","image-button-response","92","563456","0.0-14.0-1.0-0.1","BDBBB366103E490B9C58A230957AB0D7","BDBBB366103E490B9C58A230957AB0D7","27005b3d-b496-44c3-b492-df5d2995a7ac","ba640c14-69c5-453e-80b2-29051492c0e0","{""num_scrambled_semantic"":""8"",""num_scrambled_causal"":""4"",""num_scrambled_schematic"":""4"",""participantId"":""BDBBB366103E490B9C58A230957AB0D7"",""assignmentId"":""27005b3d-b496-44c3-b492-df5d2995a7ac"",""projectId"":""ba640c14-69c5-453e-80b2-29051492c0e0""}","https://test12345.live/?num_scrambled_semantic=8&num_scrambled_causal=4&num_scrambled_schematic=4&participantId=BDBBB366103E490B9C58A230957AB0D7&assignmentId=27005b3d-b496-44c3-b492-df5d2995a7ac&projectId=ba640c14-69c5-453e-80b2-29051492c0e0","BDBBB366103E490B9C58A230957AB0D7-2025-05-14-21-29-28","","null","","images/semantic_sequence/maintaining_a_car_semantic/maintaining_a_car_semantic_2.png","null","",""
"","","","","","image-button-response","93","566787","0.0-14.0-1.0-1.1","BDBBB366103E490B9C58A230957AB0D7","BDBBB366103E490B9C58A230957AB0D7","27005b3d-b496-44c3-b492-df5d2995a7ac","ba640c14-69c5-453e-80b2-29051492c0e0","{""num_scrambled_semantic"":""8"",""num_scrambled_causal"":""4"",""num_scrambled_schematic"":""4"",""participantId"":""BDBBB366103E490B9C58A230957AB0D7"",""assignmentId"":""27005b3d-b496-44c3-b492-df5d2995a7ac"",""projectId"":""ba640c14-69c5-453e-80b2-29051492c0e0""}","https://test12345.live/?num_scrambled_semantic=8&num_scrambled_causal=4&num_scrambled_schematic=4&participantId=BDBBB366103E490B9C58A230957AB0D7&assignmentId=27005b3d-b496-44c3-b492-df5d2995a7ac&projectId=ba640c14-69c5-453e-80b2-29051492c0e0","BDBBB366103E490B9C58A230957AB0D7-2025-05-14-21-29-28","","3330","","images/semantic_sequence/maintaining_a_car_semantic/maintaining_a_car_semantic_2.png","0","",""
"","","","","","image-button-response","94","568588","0.0-14.0-1.0-2.1","BDBBB366103E490B9C58A230957AB0D7","BDBBB366103E490B9C58A230957AB0D7","27005b3d-b496-44c3-b492-df5d2995a7ac","ba640c14-69c5-453e-80b2-29051492c0e0","{""num_scrambled_semantic"":""8"",""num_scrambled_causal"":""4"",""num_scrambled_schematic"":""4"",""participantId"":""BDBBB366103E490B9C58A230957AB0D7"",""assignmentId"":""27005b3d-b496-44c3-b492-df5d2995a7ac"",""projectId"":""ba640c14-69c5-453e-80b2-29051492c0e0""}","https://test12345.live/?num_scrambled_semantic=8&num_scrambled_causal=4&num_scrambled_schematic=4&participantId=BDBBB366103E490B9C58A230957AB0D7&assignmentId=27005b3d-b496-44c3-b492-df5d2995a7ac&projectId=ba640c14-69c5-453e-80b2-29051492c0e0","BDBBB366103E490B9C58A230957AB0D7-2025-05-14-21-29-28","","null","","[]","null","",""
"","","","","","image-button-response","95","573101","0.0-14.0-1.0-0.2","BDBBB366103E490B9C58A230957AB0D7","BDBBB366103E490B9C58A230957AB0D7","27005b3d-b496-44c3-b492-df5d2995a7ac","ba640c14-69c5-453e-80b2-29051492c0e0","{""num_scrambled_semantic"":""8"",""num_scrambled_causal"":""4"",""num_scrambled_schematic"":""4"",""participantId"":""BDBBB366103E490B9C58A230957AB0D7"",""assignmentId"":""27005b3d-b496-44c3-b492-df5d2995a7ac"",""projectId"":""ba640c14-69c5-453e-80b2-29051492c0e0""}","https://test12345.live/?num_scrambled_semantic=8&num_scrambled_causal=4&num_scrambled_schematic=4&participantId=BDBBB366103E490B9C58A230957AB0D7&assignmentId=27005b3d-b496-44c3-b492-df5d2995a7ac&projectId=ba640c14-69c5-453e-80b2-29051492c0e0","BDBBB366103E490B9C58A230957AB0D7-2025-05-14-21-29-28","","null","","images/semantic_sequence/maintaining_a_car_semantic/maintaining_a_car_semantic_3.png","null","",""
"","","","","","image-button-response","96","577113","0.0-14.0-1.0-1.2","BDBBB366103E490B9C58A230957AB0D7","BDBBB366103E490B9C58A230957AB0D7","27005b3d-b496-44c3-b492-df5d2995a7ac","ba640c14-69c5-453e-80b2-29051492c0e0","{""num_scrambled_semantic"":""8"",""num_scrambled_causal"":""4"",""num_scrambled_schematic"":""4"",""participantId"":""BDBBB366103E490B9C58A230957AB0D7"",""assignmentId"":""27005b3d-b496-44c3-b492-df5d2995a7ac"",""projectId"":""ba640c14-69c5-453e-80b2-29051492c0e0""}","https://test12345.live/?num_scrambled_semantic=8&num_scrambled_causal=4&num_scrambled_schematic=4&participantId=BDBBB366103E490B9C58A230957AB0D7&assignmentId=27005b3d-b496-44c3-b492-df5d2995a7ac&projectId=ba640c14-69c5-453e-80b2-29051492c0e0","BDBBB366103E490B9C58A230957AB0D7-2025-05-14-21-29-28","","null","","images/semantic_sequence/maintaining_a_car_semantic/maintaining_a_car_semantic_3.png","null","",""
"","","","","","image-button-response","97","578921","0.0-14.0-1.0-2.2","BDBBB366103E490B9C58A230957AB0D7","BDBBB366103E490B9C58A230957AB0D7","27005b3d-b496-44c3-b492-df5d2995a7ac","ba640c14-69c5-453e-80b2-29051492c0e0","{""num_scrambled_semantic"":""8"",""num_scrambled_causal"":""4"",""num_scrambled_schematic"":""4"",""participantId"":""BDBBB366103E490B9C58A230957AB0D7"",""assignmentId"":""27005b3d-b496-44c3-b492-df5d2995a7ac"",""projectId"":""ba640c14-69c5-453e-80b2-29051492c0e0""}","https://test12345.live/?num_scrambled_semantic=8&num_scrambled_causal=4&num_scrambled_schematic=4&participantId=BDBBB366103E490B9C58A230957AB0D7&assignmentId=27005b3d-b496-44c3-b492-df5d2995a7ac&projectId=ba640c14-69c5-453e-80b2-29051492c0e0","BDBBB366103E490B9C58A230957AB0D7-2025-05-14-21-29-28","","null","","[]","null","",""
"","","","","","image-button-response","98","583431","0.0-14.0-1.0-0.3","BDBBB366103E490B9C58A230957AB0D7","BDBBB366103E490B9C58A230957AB0D7","27005b3d-b496-44c3-b492-df5d2995a7ac","ba640c14-69c5-453e-80b2-29051492c0e0","{""num_scrambled_semantic"":""8"",""num_scrambled_causal"":""4"",""num_scrambled_schematic"":""4"",""participantId"":""BDBBB366103E490B9C58A230957AB0D7"",""assignmentId"":""27005b3d-b496-44c3-b492-df5d2995a7ac"",""projectId"":""ba640c14-69c5-453e-80b2-29051492c0e0""}","https://test12345.live/?num_scrambled_semantic=8&num_scrambled_causal=4&num_scrambled_schematic=4&participantId=BDBBB366103E490B9C58A230957AB0D7&assignmentId=27005b3d-b496-44c3-b492-df5d2995a7ac&projectId=ba640c14-69c5-453e-80b2-29051492c0e0","BDBBB366103E490B9C58A230957AB0D7-2025-05-14-21-29-28","","null","","images/semantic_sequence/maintaining_a_car_semantic/maintaining_a_car_semantic_4.png","null","",""
"","","","","","image-button-response","99","584642","0.0-14.0-1.0-1.3","BDBBB366103E490B9C58A230957AB0D7","BDBBB366103E490B9C58A230957AB0D7","27005b3d-b496-44c3-b492-df5d2995a7ac","ba640c14-69c5-453e-80b2-29051492c0e0","{""num_scrambled_semantic"":""8"",""num_scrambled_causal"":""4"",""num_scrambled_schematic"":""4"",""participantId"":""BDBBB366103E490B9C58A230957AB0D7"",""assignmentId"":""27005b3d-b496-44c3-b492-df5d2995a7ac"",""projectId"":""ba640c14-69c5-453e-80b2-29051492c0e0""}","https://test12345.live/?num_scrambled_semantic=8&num_scrambled_causal=4&num_scrambled_schematic=4&participantId=BDBBB366103E490B9C58A230957AB0D7&assignmentId=27005b3d-b496-44c3-b492-df5d2995a7ac&projectId=ba640c14-69c5-453e-80b2-29051492c0e0","BDBBB366103E490B9C58A230957AB0D7-2025-05-14-21-29-28","","1209","","images/semantic_sequence/maintaining_a_car_semantic/maintaining_a_car_semantic_4.png","0","",""
"","","","","","image-button-response","100","586449","0.0-14.0-1.0-2.3","BDBBB366103E490B9C58A230957AB0D7","BDBBB366103E490B9C58A230957AB0D7","27005b3d-b496-44c3-b492-df5d2995a7ac","ba640c14-69c5-453e-80b2-29051492c0e0","{""num_scrambled_semantic"":""8"",""num_scrambled_causal"":""4"",""num_scrambled_schematic"":""4"",""participantId"":""BDBBB366103E490B9C58A230957AB0D7"",""assignmentId"":""27005b3d-b496-44c3-b492-df5d2995a7ac"",""projectId"":""ba640c14-69c5-453e-80b2-29051492c0e0""}","https://test12345.live/?num_scrambled_semantic=8&num_scrambled_causal=4&num_scrambled_schematic=4&participantId=BDBBB366103E490B9C58A230957AB0D7&assignmentId=27005b3d-b496-44c3-b492-df5d2995a7ac&projectId=ba640c14-69c5-453e-80b2-29051492c0e0","BDBBB366103E490B9C58A230957AB0D7-2025-05-14-21-29-28","","null","","[]","null","",""
"","","","","","image-button-response","101","590953","0.0-14.0-1.0-0.4","BDBBB366103E490B9C58A230957AB0D7","BDBBB366103E490B9C58A230957AB0D7","27005b3d-b496-44c3-b492-df5d2995a7ac","ba640c14-69c5-453e-80b2-29051492c0e0","{""num_scrambled_semantic"":""8"",""num_scrambled_causal"":""4"",""num_scrambled_schematic"":""4"",""participantId"":""BDBBB366103E490B9C58A230957AB0D7"",""assignmentId"":""27005b3d-b496-44c3-b492-df5d2995a7ac"",""projectId"":""ba640c14-69c5-453e-80b2-29051492c0e0""}","https://test12345.live/?num_scrambled_semantic=8&num_scrambled_causal=4&num_scrambled_schematic=4&participantId=BDBBB366103E490B9C58A230957AB0D7&assignmentId=27005b3d-b496-44c3-b492-df5d2995a7ac&projectId=ba640c14-69c5-453e-80b2-29051492c0e0","BDBBB366103E490B9C58A230957AB0D7-2025-05-14-21-29-28","","null","","images/semantic_sequence/maintaining_a_car_semantic/maintaining_a_car_semantic_5.png","null","",""
"","","","","","image-button-response","102","592656","0.0-14.0-1.0-1.4","BDBBB366103E490B9C58A230957AB0D7","BDBBB366103E490B9C58A230957AB0D7","27005b3d-b496-44c3-b492-df5d2995a7ac","ba640c14-69c5-453e-80b2-29051492c0e0","{""num_scrambled_semantic"":""8"",""num_scrambled_causal"":""4"",""num_scrambled_schematic"":""4"",""participantId"":""BDBBB366103E490B9C58A230957AB0D7"",""assignmentId"":""27005b3d-b496-44c3-b492-df5d2995a7ac"",""projectId"":""ba640c14-69c5-453e-80b2-29051492c0e0""}","https://test12345.live/?num_scrambled_semantic=8&num_scrambled_causal=4&num_scrambled_schematic=4&participantId=BDBBB366103E490B9C58A230957AB0D7&assignmentId=27005b3d-b496-44c3-b492-df5d2995a7ac&projectId=ba640c14-69c5-453e-80b2-29051492c0e0","BDBBB366103E490B9C58A230957AB0D7-2025-05-14-21-29-28","","1702","","images/semantic_sequence/maintaining_a_car_semantic/maintaining_a_car_semantic_5.png","0","",""
"","","","","","image-button-response","103","594466","0.0-14.0-1.0-2.4","BDBBB366103E490B9C58A230957AB0D7","BDBBB366103E490B9C58A230957AB0D7","27005b3d-b496-44c3-b492-df5d2995a7ac","ba640c14-69c5-453e-80b2-29051492c0e0","{""num_scrambled_semantic"":""8"",""num_scrambled_causal"":""4"",""num_scrambled_schematic"":""4"",""participantId"":""BDBBB366103E490B9C58A230957AB0D7"",""assignmentId"":""27005b3d-b496-44c3-b492-df5d2995a7ac"",""projectId"":""ba640c14-69c5-453e-80b2-29051492c0e0""}","https://test12345.live/?num_scrambled_semantic=8&num_scrambled_causal=4&num_scrambled_schematic=4&participantId=BDBBB366103E490B9C58A230957AB0D7&assignmentId=27005b3d-b496-44c3-b492-df5d2995a7ac&projectId=ba640c14-69c5-453e-80b2-29051492c0e0","BDBBB366103E490B9C58A230957AB0D7-2025-05-14-21-29-28","","null","","[]","null","",""
"","","","","","image-button-response","104","598970","0.0-14.0-1.0-0.5","BDBBB366103E490B9C58A230957AB0D7","BDBBB366103E490B9C58A230957AB0D7","27005b3d-b496-44c3-b492-df5d2995a7ac","ba640c14-69c5-453e-80b2-29051492c0e0","{""num_scrambled_semantic"":""8"",""num_scrambled_causal"":""4"",""num_scrambled_schematic"":""4"",""participantId"":""BDBBB366103E490B9C58A230957AB0D7"",""assignmentId"":""27005b3d-b496-44c3-b492-df5d2995a7ac"",""projectId"":""ba640c14-69c5-453e-80b2-29051492c0e0""}","https://test12345.live/?num_scrambled_semantic=8&num_scrambled_causal=4&num_scrambled_schematic=4&participantId=BDBBB366103E490B9C58A230957AB0D7&assignmentId=27005b3d-b496-44c3-b492-df5d2995a7ac&projectId=ba640c14-69c5-453e-80b2-29051492c0e0","BDBBB366103E490B9C58A230957AB0D7-2025-05-14-21-29-28","","null","","images/semantic_sequence/maintaining_a_car_semantic/maintaining_a_car_semantic_6.png","null","",""
"","","","","","image-button-response","105","600370","0.0-14.0-1.0-1.5","BDBBB366103E490B9C58A230957AB0D7","BDBBB366103E490B9C58A230957AB0D7","27005b3d-b496-44c3-b492-df5d2995a7ac","ba640c14-69c5-453e-80b2-29051492c0e0","{""num_scrambled_semantic"":""8"",""num_scrambled_causal"":""4"",""num_scrambled_schematic"":""4"",""participantId"":""BDBBB366103E490B9C58A230957AB0D7"",""assignmentId"":""27005b3d-b496-44c3-b492-df5d2995a7ac"",""projectId"":""ba640c14-69c5-453e-80b2-29051492c0e0""}","https://test12345.live/?num_scrambled_semantic=8&num_scrambled_causal=4&num_scrambled_schematic=4&participantId=BDBBB366103E490B9C58A230957AB0D7&assignmentId=27005b3d-b496-44c3-b492-df5d2995a7ac&projectId=ba640c14-69c5-453e-80b2-29051492c0e0","BDBBB366103E490B9C58A230957AB0D7-2025-05-14-21-29-28","","1398","","images/semantic_sequence/maintaining_a_car_semantic/maintaining_a_car_semantic_6.png","0","",""
"","","","","","image-button-response","106","602177","0.0-14.0-1.0-2.5","BDBBB366103E490B9C58A230957AB0D7","BDBBB366103E490B9C58A230957AB0D7","27005b3d-b496-44c3-b492-df5d2995a7ac","ba640c14-69c5-453e-80b2-29051492c0e0","{""num_scrambled_semantic"":""8"",""num_scrambled_causal"":""4"",""num_scrambled_schematic"":""4"",""participantId"":""BDBBB366103E490B9C58A230957AB0D7"",""assignmentId"":""27005b3d-b496-44c3-b492-df5d2995a7ac"",""projectId"":""ba640c14-69c5-453e-80b2-29051492c0e0""}","https://test12345.live/?num_scrambled_semantic=8&num_scrambled_causal=4&num_scrambled_schematic=4&participantId=BDBBB366103E490B9C58A230957AB0D7&assignmentId=27005b3d-b496-44c3-b492-df5d2995a7ac&projectId=ba640c14-69c5-453e-80b2-29051492c0e0","BDBBB366103E490B9C58A230957AB0D7-2025-05-14-21-29-28","","null","","[]","null","",""
"","","","","","image-button-response","107","606689","0.0-14.0-1.0-0.6","BDBBB366103E490B9C58A230957AB0D7","BDBBB366103E490B9C58A230957AB0D7","27005b3d-b496-44c3-b492-df5d2995a7ac","ba640c14-69c5-453e-80b2-29051492c0e0","{""num_scrambled_semantic"":""8"",""num_scrambled_causal"":""4"",""num_scrambled_schematic"":""4"",""participantId"":""BDBBB366103E490B9C58A230957AB0D7"",""assignmentId"":""27005b3d-b496-44c3-b492-df5d2995a7ac"",""projectId"":""ba640c14-69c5-453e-80b2-29051492c0e0""}","https://test12345.live/?num_scrambled_semantic=8&num_scrambled_causal=4&num_scrambled_schematic=4&participantId=BDBBB366103E490B9C58A230957AB0D7&assignmentId=27005b3d-b496-44c3-b492-df5d2995a7ac&projectId=ba640c14-69c5-453e-80b2-29051492c0e0","BDBBB366103E490B9C58A230957AB0D7-2025-05-14-21-29-28","","null","","images/semantic_sequence/maintaining_a_car_semantic/maintaining_a_car_semantic_7.png","null","",""
"","","","","","image-button-response","108","608831","0.0-14.0-1.0-1.6","BDBBB366103E490B9C58A230957AB0D7","BDBBB366103E490B9C58A230957AB0D7","27005b3d-b496-44c3-b492-df5d2995a7ac","ba640c14-69c5-453e-80b2-29051492c0e0","{""num_scrambled_semantic"":""8"",""num_scrambled_causal"":""4"",""num_scrambled_schematic"":""4"",""participantId"":""BDBBB366103E490B9C58A230957AB0D7"",""assignmentId"":""27005b3d-b496-44c3-b492-df5d2995a7ac"",""projectId"":""ba640c14-69c5-453e-80b2-29051492c0e0""}","https://test12345.live/?num_scrambled_semantic=8&num_scrambled_causal=4&num_scrambled_schematic=4&participantId=BDBBB366103E490B9C58A230957AB0D7&assignmentId=27005b3d-b496-44c3-b492-df5d2995a7ac&projectId=ba640c14-69c5-453e-80b2-29051492c0e0","BDBBB366103E490B9C58A230957AB0D7-2025-05-14-21-29-28","","2140","","images/semantic_sequence/maintaining_a_car_semantic/maintaining_a_car_semantic_7.png","0","",""
"","","","","","image-button-response","109","610646","0.0-14.0-1.0-2.6","BDBBB366103E490B9C58A230957AB0D7","BDBBB366103E490B9C58A230957AB0D7","27005b3d-b496-44c3-b492-df5d2995a7ac","ba640c14-69c5-453e-80b2-29051492c0e0","{""num_scrambled_semantic"":""8"",""num_scrambled_causal"":""4"",""num_scrambled_schematic"":""4"",""participantId"":""BDBBB366103E490B9C58A230957AB0D7"",""assignmentId"":""27005b3d-b496-44c3-b492-df5d2995a7ac"",""projectId"":""ba640c14-69c5-453e-80b2-29051492c0e0""}","https://test12345.live/?num_scrambled_semantic=8&num_scrambled_causal=4&num_scrambled_schematic=4&participantId=BDBBB366103E490B9C58A230957AB0D7&assignmentId=27005b3d-b496-44c3-b492-df5d2995a7ac&projectId=ba640c14-69c5-453e-80b2-29051492c0e0","BDBBB366103E490B9C58A230957AB0D7-2025-05-14-21-29-28","","null","","[]","null","",""
"","","","","","image-button-response","110","615153","0.0-14.0-1.0-0.7","BDBBB366103E490B9C58A230957AB0D7","BDBBB366103E490B9C58A230957AB0D7","27005b3d-b496-44c3-b492-df5d2995a7ac","ba640c14-69c5-453e-80b2-29051492c0e0","{""num_scrambled_semantic"":""8"",""num_scrambled_causal"":""4"",""num_scrambled_schematic"":""4"",""participantId"":""BDBBB366103E490B9C58A230957AB0D7"",""assignmentId"":""27005b3d-b496-44c3-b492-df5d2995a7ac"",""projectId"":""ba640c14-69c5-453e-80b2-29051492c0e0""}","https://test12345.live/?num_scrambled_semantic=8&num_scrambled_causal=4&num_scrambled_schematic=4&participantId=BDBBB366103E490B9C58A230957AB0D7&assignmentId=27005b3d-b496-44c3-b492-df5d2995a7ac&projectId=ba640c14-69c5-453e-80b2-29051492c0e0","BDBBB366103E490B9C58A230957AB0D7-2025-05-14-21-29-28","","null","","images/semantic_sequence/maintaining_a_car_semantic/maintaining_a_car_semantic_8.png","null","",""
"","","","","","image-button-response","111","617204","0.0-14.0-1.0-1.7","BDBBB366103E490B9C58A230957AB0D7","BDBBB366103E490B9C58A230957AB0D7","27005b3d-b496-44c3-b492-df5d2995a7ac","ba640c14-69c5-453e-80b2-29051492c0e0","{""num_scrambled_semantic"":""8"",""num_scrambled_causal"":""4"",""num_scrambled_schematic"":""4"",""participantId"":""BDBBB366103E490B9C58A230957AB0D7"",""assignmentId"":""27005b3d-b496-44c3-b492-df5d2995a7ac"",""projectId"":""ba640c14-69c5-453e-80b2-29051492c0e0""}","https://test12345.live/?num_scrambled_semantic=8&num_scrambled_causal=4&num_scrambled_schematic=4&participantId=BDBBB366103E490B9C58A230957AB0D7&assignmentId=27005b3d-b496-44c3-b492-df5d2995a7ac&projectId=ba640c14-69c5-453e-80b2-29051492c0e0","BDBBB366103E490B9C58A230957AB0D7-2025-05-14-21-29-28","","2049","","images/semantic_sequence/maintaining_a_car_semantic/maintaining_a_car_semantic_8.png","0","",""
"","","","","","image-button-response","112","619011","0.0-14.0-1.0-2.7","BDBBB366103E490B9C58A230957AB0D7","BDBBB366103E490B9C58A230957AB0D7","27005b3d-b496-44c3-b492-df5d2995a7ac","ba640c14-69c5-453e-80b2-29051492c0e0","{""num_scrambled_semantic"":""8"",""num_scrambled_causal"":""4"",""num_scrambled_schematic"":""4"",""participantId"":""BDBBB366103E490B9C58A230957AB0D7"",""assignmentId"":""27005b3d-b496-44c3-b492-df5d2995a7ac"",""projectId"":""ba640c14-69c5-453e-80b2-29051492c0e0""}","https://test12345.live/?num_scrambled_semantic=8&num_scrambled_causal=4&num_scrambled_schematic=4&participantId=BDBBB366103E490B9C58A230957AB0D7&assignmentId=27005b3d-b496-44c3-b492-df5d2995a7ac&projectId=ba640c14-69c5-453e-80b2-29051492c0e0","BDBBB366103E490B9C58A230957AB0D7-2025-05-14-21-29-28","","null","","[]","null","",""
"","","","","","image-button-response","113","623519","0.0-14.0-1.0-0.8","BDBBB366103E490B9C58A230957AB0D7","BDBBB366103E490B9C58A230957AB0D7","27005b3d-b496-44c3-b492-df5d2995a7ac","ba640c14-69c5-453e-80b2-29051492c0e0","{""num_scrambled_semantic"":""8"",""num_scrambled_causal"":""4"",""num_scrambled_schematic"":""4"",""participantId"":""BDBBB366103E490B9C58A230957AB0D7"",""assignmentId"":""27005b3d-b496-44c3-b492-df5d2995a7ac"",""projectId"":""ba640c14-69c5-453e-80b2-29051492c0e0""}","https://test12345.live/?num_scrambled_semantic=8&num_scrambled_causal=4&num_scrambled_schematic=4&participantId=BDBBB366103E490B9C58A230957AB0D7&assignmentId=27005b3d-b496-44c3-b492-df5d2995a7ac&projectId=ba640c14-69c5-453e-80b2-29051492c0e0","BDBBB366103E490B9C58A230957AB0D7-2025-05-14-21-29-28","","null","","images/semantic_sequence/maintaining_a_car_semantic/maintaining_a_car_semantic_9.png","null","",""
"","","","","","image-button-response","114","625083","0.0-14.0-1.0-1.8","BDBBB366103E490B9C58A230957AB0D7","BDBBB366103E490B9C58A230957AB0D7","27005b3d-b496-44c3-b492-df5d2995a7ac","ba640c14-69c5-453e-80b2-29051492c0e0","{""num_scrambled_semantic"":""8"",""num_scrambled_causal"":""4"",""num_scrambled_schematic"":""4"",""participantId"":""BDBBB366103E490B9C58A230957AB0D7"",""assignmentId"":""27005b3d-b496-44c3-b492-df5d2995a7ac"",""projectId"":""ba640c14-69c5-453e-80b2-29051492c0e0""}","https://test12345.live/?num_scrambled_semantic=8&num_scrambled_causal=4&num_scrambled_schematic=4&participantId=BDBBB366103E490B9C58A230957AB0D7&assignmentId=27005b3d-b496-44c3-b492-df5d2995a7ac&projectId=ba640c14-69c5-453e-80b2-29051492c0e0","BDBBB366103E490B9C58A230957AB0D7-2025-05-14-21-29-28","","1562","","images/semantic_sequence/maintaining_a_car_semantic/maintaining_a_car_semantic_9.png","0","",""
