"success","timeout","failed_images","failed_audio","failed_video","trial_type","trial_index","time_elapsed","internal_node_id","subject","subject_id","study_id","session_id","urlvar","current_url","audio_id","view_history","rt","device_id","stimulus","response","estimated_stimulus_onset","seq_name"
"true","false","[]","[]","[]","preload","0","5301","0.0-0.0","BE2747F319524D8EBA46EBA1941F9DF3","BE2747F319524D8EBA46EBA1941F9DF3","0198be8c-3a10-7046-be21-8a66a8ae6a81","0198be8b-78cf-72d2-ba2b-1e62c78022e0","{""num_scrambled_semantic"":""8"",""num_scrambled_causal"":""4"",""num_scrambled_schematic"":""4"",""participantId"":""BE2747F319524D8EBA46EBA1941F9DF3"",""assignmentId"":""0198be8c-3a10-7046-be21-8a66a8ae6a81"",""projectId"":""0198be8b-78cf-72d2-ba2b-1e62c78022e0""}","https://test12345.live/?num_scrambled_semantic=8&num_scrambled_causal=4&num_scrambled_schematic=4&participantId=BE2747F319524D8EBA46EBA1941F9DF3&assignmentId=0198be8c-3a10-7046-be21-8a66a8ae6a81&projectId=0198be8b-78cf-72d2-ba2b-1e62c78022e0","BE2747F319524D8EBA46EBA1941F9DF3-2025-08-18-19-23-32","","","","","","",""
"","","","","","instructions","1","16617","0.0-1.0","BE2747F319524D8EBA46EBA1941F9DF3","BE2747F319524D8EBA46EBA1941F9DF3","0198be8c-3a10-7046-be21-8a66a8ae6a81","0198be8b-78cf-72d2-ba2b-1e62c78022e0","{""num_scrambled_semantic"":""8"",""num_scrambled_causal"":""4"",""num_scrambled_schematic"":""4"",""participantId"":""BE2747F319524D8EBA46EBA1941F9DF3"",""assignmentId"":""0198be8c-3a10-7046-be21-8a66a8ae6a81"",""projectId"":""0198be8b-78cf-72d2-ba2b-1e62c78022e0""}","https://test12345.live/?num_scrambled_semantic=8&num_scrambled_causal=4&num_scrambled_schematic=4&participantId=BE2747F319524D8EBA46EBA1941F9DF3&assignmentId=0198be8c-3a10-7046-be21-8a66a8ae6a81&projectId=0198be8b-78cf-72d2-ba2b-1e62c78022e0","BE2747F319524D8EBA46EBA1941F9DF3-2025-08-18-19-23-32","[{""page_index"":0,""viewing_time"":11315}]","11315","","","","",""
"","","","","","instructions","2","19215","0.0-2.0","BE2747F319524D8EBA46EBA1941F9DF3","BE2747F319524D8EBA46EBA1941F9DF3","0198be8c-3a10-7046-be21-8a66a8ae6a81","0198be8b-78cf-72d2-ba2b-1e62c78022e0","{""num_scrambled_semantic"":""8"",""num_scrambled_causal"":""4"",""num_scrambled_schematic"":""4"",""participantId"":""BE2747F319524D8EBA46EBA1941F9DF3"",""assignmentId"":""0198be8c-3a10-7046-be21-8a66a8ae6a81"",""projectId"":""0198be8b-78cf-72d2-ba2b-1e62c78022e0""}","https://test12345.live/?num_scrambled_semantic=8&num_scrambled_causal=4&num_scrambled_schematic=4&participantId=BE2747F319524D8EBA46EBA1941F9DF3&assignmentId=0198be8c-3a10-7046-be21-8a66a8ae6a81&projectId=0198be8b-78cf-72d2-ba2b-1e62c78022e0","BE2747F319524D8EBA46EBA1941F9DF3-2025-08-18-19-23-32","[{""page_index"":0,""viewing_time"":2597}]","2597","","","","",""
"true","","","","","fullscreen","3","21320","0.0-3.0","BE2747F319524D8EBA46EBA1941F9DF3","BE2747F319524D8EBA46EBA1941F9DF3","0198be8c-3a10-7046-be21-8a66a8ae6a81","0198be8b-78cf-72d2-ba2b-1e62c78022e0","{""num_scrambled_semantic"":""8"",""num_scrambled_causal"":""4"",""num_scrambled_schematic"":""4"",""participantId"":""BE2747F319524D8EBA46EBA1941F9DF3"",""assignmentId"":""0198be8c-3a10-7046-be21-8a66a8ae6a81"",""projectId"":""0198be8b-78cf-72d2-ba2b-1e62c78022e0""}","https://test12345.live/?num_scrambled_semantic=8&num_scrambled_causal=4&num_scrambled_schematic=4&participantId=BE2747F319524D8EBA46EBA1941F9DF3&assignmentId=0198be8c-3a10-7046-be21-8a66a8ae6a81&projectId=0198be8b-78cf-72d2-ba2b-1e62c78022e0","BE2747F319524D8EBA46EBA1941F9DF3-2025-08-18-19-23-32","","1101","","","","",""
"","","","","","initialize-microphone","4","25761","0.0-4.0-0.0","BE2747F319524D8EBA46EBA1941F9DF3","BE2747F319524D8EBA46EBA1941F9DF3","0198be8c-3a10-7046-be21-8a66a8ae6a81","0198be8b-78cf-72d2-ba2b-1e62c78022e0","{""num_scrambled_semantic"":""8"",""num_scrambled_causal"":""4"",""num_scrambled_schematic"":""4"",""participantId"":""BE2747F319524D8EBA46EBA1941F9DF3"",""assignmentId"":""0198be8c-3a10-7046-be21-8a66a8ae6a81"",""projectId"":""0198be8b-78cf-72d2-ba2b-1e62c78022e0""}","https://test12345.live/?num_scrambled_semantic=8&num_scrambled_causal=4&num_scrambled_schematic=4&participantId=BE2747F319524D8EBA46EBA1941F9DF3&assignmentId=0198be8c-3a10-7046-be21-8a66a8ae6a81&projectId=0198be8b-78cf-72d2-ba2b-1e62c78022e0","BE2747F319524D8EBA46EBA1941F9DF3-2025-08-18-19-23-32","","","daaeda7792654b193f87ce99fd963e08a1702634472403d31c7f04a18795cd30","","","",""
"","","","","","html-audio-response","5","34535","0.0-4.0-1.0","BE2747F319524D8EBA46EBA1941F9DF3","BE2747F319524D8EBA46EBA1941F9DF3","0198be8c-3a10-7046-be21-8a66a8ae6a81","0198be8b-78cf-72d2-ba2b-1e62c78022e0","{""num_scrambled_semantic"":""8"",""num_scrambled_causal"":""4"",""num_scrambled_schematic"":""4"",""participantId"":""BE2747F319524D8EBA46EBA1941F9DF3"",""assignmentId"":""0198be8c-3a10-7046-be21-8a66a8ae6a81"",""projectId"":""0198be8b-78cf-72d2-ba2b-1e62c78022e0""}","https://test12345.live/?num_scrambled_semantic=8&num_scrambled_causal=4&num_scrambled_schematic=4&participantId=BE2747F319524D8EBA46EBA1941F9DF3&assignmentId=0198be8c-3a10-7046-be21-8a66a8ae6a81&projectId=0198be8b-78cf-72d2-ba2b-1e62c78022e0","BE2747F319524D8EBA46EBA1941F9DF3-2025-08-18-19-23-32","","3616","","<span style=""color: red; font-size: 24px""> NOW RECORDING</span>
        <p>Please test Microphone</p>","","3",""
"","","","","","html-button-response","6","35609","0.0-4.0-2.0","BE2747F319524D8EBA46EBA1941F9DF3","BE2747F319524D8EBA46EBA1941F9DF3","0198be8c-3a10-7046-be21-8a66a8ae6a81","0198be8b-78cf-72d2-ba2b-1e62c78022e0","{""num_scrambled_semantic"":""8"",""num_scrambled_causal"":""4"",""num_scrambled_schematic"":""4"",""participantId"":""BE2747F319524D8EBA46EBA1941F9DF3"",""assignmentId"":""0198be8c-3a10-7046-be21-8a66a8ae6a81"",""projectId"":""0198be8b-78cf-72d2-ba2b-1e62c78022e0""}","https://test12345.live/?num_scrambled_semantic=8&num_scrambled_causal=4&num_scrambled_schematic=4&participantId=BE2747F319524D8EBA46EBA1941F9DF3&assignmentId=0198be8c-3a10-7046-be21-8a66a8ae6a81&projectId=0198be8b-78cf-72d2-ba2b-1e62c78022e0","BE2747F319524D8EBA46EBA1941F9DF3-2025-08-18-19-23-32","","1073","","<p style=""font-size:48px; color:red;"">Is Microphone OK?</p>","1","",""
"","","","","","instructions","7","42615","0.0-5.0","BE2747F319524D8EBA46EBA1941F9DF3","BE2747F319524D8EBA46EBA1941F9DF3","0198be8c-3a10-7046-be21-8a66a8ae6a81","0198be8b-78cf-72d2-ba2b-1e62c78022e0","{""num_scrambled_semantic"":""8"",""num_scrambled_causal"":""4"",""num_scrambled_schematic"":""4"",""participantId"":""BE2747F319524D8EBA46EBA1941F9DF3"",""assignmentId"":""0198be8c-3a10-7046-be21-8a66a8ae6a81"",""projectId"":""0198be8b-78cf-72d2-ba2b-1e62c78022e0""}","https://test12345.live/?num_scrambled_semantic=8&num_scrambled_causal=4&num_scrambled_schematic=4&participantId=BE2747F319524D8EBA46EBA1941F9DF3&assignmentId=0198be8c-3a10-7046-be21-8a66a8ae6a81&projectId=0198be8b-78cf-72d2-ba2b-1e62c78022e0","BE2747F319524D8EBA46EBA1941F9DF3-2025-08-18-19-23-32","[{""page_index"":0,""viewing_time"":2353},{""page_index"":1,""viewing_time"":4651}]","7005","","","","",""
"","","","","","image-button-response","8","48616","0.0-6.0-0.0","BE2747F319524D8EBA46EBA1941F9DF3","BE2747F319524D8EBA46EBA1941F9DF3","0198be8c-3a10-7046-be21-8a66a8ae6a81","0198be8b-78cf-72d2-ba2b-1e62c78022e0","{""num_scrambled_semantic"":""8"",""num_scrambled_causal"":""4"",""num_scrambled_schematic"":""4"",""participantId"":""BE2747F319524D8EBA46EBA1941F9DF3"",""assignmentId"":""0198be8c-3a10-7046-be21-8a66a8ae6a81"",""projectId"":""0198be8b-78cf-72d2-ba2b-1e62c78022e0""}","https://test12345.live/?num_scrambled_semantic=8&num_scrambled_causal=4&num_scrambled_schematic=4&participantId=BE2747F319524D8EBA46EBA1941F9DF3&assignmentId=0198be8c-3a10-7046-be21-8a66a8ae6a81&projectId=0198be8b-78cf-72d2-ba2b-1e62c78022e0","BE2747F319524D8EBA46EBA1941F9DF3-2025-08-18-19-23-32","","null","","images/instructions/movie_0.png","null","",""
"","","","","","image-button-response","9","53118","0.0-6.0-1.0-0.0","BE2747F319524D8EBA46EBA1941F9DF3","BE2747F319524D8EBA46EBA1941F9DF3","0198be8c-3a10-7046-be21-8a66a8ae6a81","0198be8b-78cf-72d2-ba2b-1e62c78022e0","{""num_scrambled_semantic"":""8"",""num_scrambled_causal"":""4"",""num_scrambled_schematic"":""4"",""participantId"":""BE2747F319524D8EBA46EBA1941F9DF3"",""assignmentId"":""0198be8c-3a10-7046-be21-8a66a8ae6a81"",""projectId"":""0198be8b-78cf-72d2-ba2b-1e62c78022e0""}","https://test12345.live/?num_scrambled_semantic=8&num_scrambled_causal=4&num_scrambled_schematic=4&participantId=BE2747F319524D8EBA46EBA1941F9DF3&assignmentId=0198be8c-3a10-7046-be21-8a66a8ae6a81&projectId=0198be8b-78cf-72d2-ba2b-1e62c78022e0","BE2747F319524D8EBA46EBA1941F9DF3-2025-08-18-19-23-32","","null","","images/instructions/movie_1.png","null","",""
"","","","","","image-button-response","10","55346","0.0-6.0-1.0-1.0","BE2747F319524D8EBA46EBA1941F9DF3","BE2747F319524D8EBA46EBA1941F9DF3","0198be8c-3a10-7046-be21-8a66a8ae6a81","0198be8b-78cf-72d2-ba2b-1e62c78022e0","{""num_scrambled_semantic"":""8"",""num_scrambled_causal"":""4"",""num_scrambled_schematic"":""4"",""participantId"":""BE2747F319524D8EBA46EBA1941F9DF3"",""assignmentId"":""0198be8c-3a10-7046-be21-8a66a8ae6a81"",""projectId"":""0198be8b-78cf-72d2-ba2b-1e62c78022e0""}","https://test12345.live/?num_scrambled_semantic=8&num_scrambled_causal=4&num_scrambled_schematic=4&participantId=BE2747F319524D8EBA46EBA1941F9DF3&assignmentId=0198be8c-3a10-7046-be21-8a66a8ae6a81&projectId=0198be8b-78cf-72d2-ba2b-1e62c78022e0","BE2747F319524D8EBA46EBA1941F9DF3-2025-08-18-19-23-32","","2227","","images/instructions/movie_1.png","0","",""
"","","","","","image-button-response","11","57151","0.0-6.0-1.0-2.0","BE2747F319524D8EBA46EBA1941F9DF3","BE2747F319524D8EBA46EBA1941F9DF3","0198be8c-3a10-7046-be21-8a66a8ae6a81","0198be8b-78cf-72d2-ba2b-1e62c78022e0","{""num_scrambled_semantic"":""8"",""num_scrambled_causal"":""4"",""num_scrambled_schematic"":""4"",""participantId"":""BE2747F319524D8EBA46EBA1941F9DF3"",""assignmentId"":""0198be8c-3a10-7046-be21-8a66a8ae6a81"",""projectId"":""0198be8b-78cf-72d2-ba2b-1e62c78022e0""}","https://test12345.live/?num_scrambled_semantic=8&num_scrambled_causal=4&num_scrambled_schematic=4&participantId=BE2747F319524D8EBA46EBA1941F9DF3&assignmentId=0198be8c-3a10-7046-be21-8a66a8ae6a81&projectId=0198be8b-78cf-72d2-ba2b-1e62c78022e0","BE2747F319524D8EBA46EBA1941F9DF3-2025-08-18-19-23-32","","null","","[]","null","",""
"","","","","","image-button-response","12","61652","0.0-6.0-1.0-0.1","BE2747F319524D8EBA46EBA1941F9DF3","BE2747F319524D8EBA46EBA1941F9DF3","0198be8c-3a10-7046-be21-8a66a8ae6a81","0198be8b-78cf-72d2-ba2b-1e62c78022e0","{""num_scrambled_semantic"":""8"",""num_scrambled_causal"":""4"",""num_scrambled_schematic"":""4"",""participantId"":""BE2747F319524D8EBA46EBA1941F9DF3"",""assignmentId"":""0198be8c-3a10-7046-be21-8a66a8ae6a81"",""projectId"":""0198be8b-78cf-72d2-ba2b-1e62c78022e0""}","https://test12345.live/?num_scrambled_semantic=8&num_scrambled_causal=4&num_scrambled_schematic=4&participantId=BE2747F319524D8EBA46EBA1941F9DF3&assignmentId=0198be8c-3a10-7046-be21-8a66a8ae6a81&projectId=0198be8b-78cf-72d2-ba2b-1e62c78022e0","BE2747F319524D8EBA46EBA1941F9DF3-2025-08-18-19-23-32","","null","","images/instructions/movie_2.png","null","",""
"","","","","","image-button-response","13","63210","0.0-6.0-1.0-1.1","BE2747F319524D8EBA46EBA1941F9DF3","BE2747F319524D8EBA46EBA1941F9DF3","0198be8c-3a10-7046-be21-8a66a8ae6a81","0198be8b-78cf-72d2-ba2b-1e62c78022e0","{""num_scrambled_semantic"":""8"",""num_scrambled_causal"":""4"",""num_scrambled_schematic"":""4"",""participantId"":""BE2747F319524D8EBA46EBA1941F9DF3"",""assignmentId"":""0198be8c-3a10-7046-be21-8a66a8ae6a81"",""projectId"":""0198be8b-78cf-72d2-ba2b-1e62c78022e0""}","https://test12345.live/?num_scrambled_semantic=8&num_scrambled_causal=4&num_scrambled_schematic=4&participantId=BE2747F319524D8EBA46EBA1941F9DF3&assignmentId=0198be8c-3a10-7046-be21-8a66a8ae6a81&projectId=0198be8b-78cf-72d2-ba2b-1e62c78022e0","BE2747F319524D8EBA46EBA1941F9DF3-2025-08-18-19-23-32","","1556","","images/instructions/movie_2.png","1","",""
"","","","","","image-button-response","14","65021","0.0-6.0-1.0-2.1","BE2747F319524D8EBA46EBA1941F9DF3","BE2747F319524D8EBA46EBA1941F9DF3","0198be8c-3a10-7046-be21-8a66a8ae6a81","0198be8b-78cf-72d2-ba2b-1e62c78022e0","{""num_scrambled_semantic"":""8"",""num_scrambled_causal"":""4"",""num_scrambled_schematic"":""4"",""participantId"":""BE2747F319524D8EBA46EBA1941F9DF3"",""assignmentId"":""0198be8c-3a10-7046-be21-8a66a8ae6a81"",""projectId"":""0198be8b-78cf-72d2-ba2b-1e62c78022e0""}","https://test12345.live/?num_scrambled_semantic=8&num_scrambled_causal=4&num_scrambled_schematic=4&participantId=BE2747F319524D8EBA46EBA1941F9DF3&assignmentId=0198be8c-3a10-7046-be21-8a66a8ae6a81&projectId=0198be8b-78cf-72d2-ba2b-1e62c78022e0","BE2747F319524D8EBA46EBA1941F9DF3-2025-08-18-19-23-32","","null","","[]","null","",""
"","","","","","image-button-response","15","69537","0.0-6.0-1.0-0.2","BE2747F319524D8EBA46EBA1941F9DF3","BE2747F319524D8EBA46EBA1941F9DF3","0198be8c-3a10-7046-be21-8a66a8ae6a81","0198be8b-78cf-72d2-ba2b-1e62c78022e0","{""num_scrambled_semantic"":""8"",""num_scrambled_causal"":""4"",""num_scrambled_schematic"":""4"",""participantId"":""BE2747F319524D8EBA46EBA1941F9DF3"",""assignmentId"":""0198be8c-3a10-7046-be21-8a66a8ae6a81"",""projectId"":""0198be8b-78cf-72d2-ba2b-1e62c78022e0""}","https://test12345.live/?num_scrambled_semantic=8&num_scrambled_causal=4&num_scrambled_schematic=4&participantId=BE2747F319524D8EBA46EBA1941F9DF3&assignmentId=0198be8c-3a10-7046-be21-8a66a8ae6a81&projectId=0198be8b-78cf-72d2-ba2b-1e62c78022e0","BE2747F319524D8EBA46EBA1941F9DF3-2025-08-18-19-23-32","","null","","images/instructions/movie_3.png","null","",""
"","","","","","image-button-response","16","70965","0.0-6.0-1.0-1.2","BE2747F319524D8EBA46EBA1941F9DF3","BE2747F319524D8EBA46EBA1941F9DF3","0198be8c-3a10-7046-be21-8a66a8ae6a81","0198be8b-78cf-72d2-ba2b-1e62c78022e0","{""num_scrambled_semantic"":""8"",""num_scrambled_causal"":""4"",""num_scrambled_schematic"":""4"",""participantId"":""BE2747F319524D8EBA46EBA1941F9DF3"",""assignmentId"":""0198be8c-3a10-7046-be21-8a66a8ae6a81"",""projectId"":""0198be8b-78cf-72d2-ba2b-1e62c78022e0""}","https://test12345.live/?num_scrambled_semantic=8&num_scrambled_causal=4&num_scrambled_schematic=4&participantId=BE2747F319524D8EBA46EBA1941F9DF3&assignmentId=0198be8c-3a10-7046-be21-8a66a8ae6a81&projectId=0198be8b-78cf-72d2-ba2b-1e62c78022e0","BE2747F319524D8EBA46EBA1941F9DF3-2025-08-18-19-23-32","","1427","","images/instructions/movie_3.png","0","",""
"","","","","","image-button-response","17","72776","0.0-6.0-1.0-2.2","BE2747F319524D8EBA46EBA1941F9DF3","BE2747F319524D8EBA46EBA1941F9DF3","0198be8c-3a10-7046-be21-8a66a8ae6a81","0198be8b-78cf-72d2-ba2b-1e62c78022e0","{""num_scrambled_semantic"":""8"",""num_scrambled_causal"":""4"",""num_scrambled_schematic"":""4"",""participantId"":""BE2747F319524D8EBA46EBA1941F9DF3"",""assignmentId"":""0198be8c-3a10-7046-be21-8a66a8ae6a81"",""projectId"":""0198be8b-78cf-72d2-ba2b-1e62c78022e0""}","https://test12345.live/?num_scrambled_semantic=8&num_scrambled_causal=4&num_scrambled_schematic=4&participantId=BE2747F319524D8EBA46EBA1941F9DF3&assignmentId=0198be8c-3a10-7046-be21-8a66a8ae6a81&projectId=0198be8b-78cf-72d2-ba2b-1e62c78022e0","BE2747F319524D8EBA46EBA1941F9DF3-2025-08-18-19-23-32","","null","","[]","null","",""
"","","","","","image-button-response","18","77293","0.0-6.0-1.0-0.3","BE2747F319524D8EBA46EBA1941F9DF3","BE2747F319524D8EBA46EBA1941F9DF3","0198be8c-3a10-7046-be21-8a66a8ae6a81","0198be8b-78cf-72d2-ba2b-1e62c78022e0","{""num_scrambled_semantic"":""8"",""num_scrambled_causal"":""4"",""num_scrambled_schematic"":""4"",""participantId"":""BE2747F319524D8EBA46EBA1941F9DF3"",""assignmentId"":""0198be8c-3a10-7046-be21-8a66a8ae6a81"",""projectId"":""0198be8b-78cf-72d2-ba2b-1e62c78022e0""}","https://test12345.live/?num_scrambled_semantic=8&num_scrambled_causal=4&num_scrambled_schematic=4&participantId=BE2747F319524D8EBA46EBA1941F9DF3&assignmentId=0198be8c-3a10-7046-be21-8a66a8ae6a81&projectId=0198be8b-78cf-72d2-ba2b-1e62c78022e0","BE2747F319524D8EBA46EBA1941F9DF3-2025-08-18-19-23-32","","null","","images/instructions/movie_4.png","null","",""
"","","","","","image-button-response","19","78880","0.0-6.0-1.0-1.3","BE2747F319524D8EBA46EBA1941F9DF3","BE2747F319524D8EBA46EBA1941F9DF3","0198be8c-3a10-7046-be21-8a66a8ae6a81","0198be8b-78cf-72d2-ba2b-1e62c78022e0","{""num_scrambled_semantic"":""8"",""num_scrambled_causal"":""4"",""num_scrambled_schematic"":""4"",""participantId"":""BE2747F319524D8EBA46EBA1941F9DF3"",""assignmentId"":""0198be8c-3a10-7046-be21-8a66a8ae6a81"",""projectId"":""0198be8b-78cf-72d2-ba2b-1e62c78022e0""}","https://test12345.live/?num_scrambled_semantic=8&num_scrambled_causal=4&num_scrambled_schematic=4&participantId=BE2747F319524D8EBA46EBA1941F9DF3&assignmentId=0198be8c-3a10-7046-be21-8a66a8ae6a81&projectId=0198be8b-78cf-72d2-ba2b-1e62c78022e0","BE2747F319524D8EBA46EBA1941F9DF3-2025-08-18-19-23-32","","1586","","images/instructions/movie_4.png","0","",""
"","","","","","image-button-response","20","80690","0.0-6.0-1.0-2.3","BE2747F319524D8EBA46EBA1941F9DF3","BE2747F319524D8EBA46EBA1941F9DF3","0198be8c-3a10-7046-be21-8a66a8ae6a81","0198be8b-78cf-72d2-ba2b-1e62c78022e0","{""num_scrambled_semantic"":""8"",""num_scrambled_causal"":""4"",""num_scrambled_schematic"":""4"",""participantId"":""BE2747F319524D8EBA46EBA1941F9DF3"",""assignmentId"":""0198be8c-3a10-7046-be21-8a66a8ae6a81"",""projectId"":""0198be8b-78cf-72d2-ba2b-1e62c78022e0""}","https://test12345.live/?num_scrambled_semantic=8&num_scrambled_causal=4&num_scrambled_schematic=4&participantId=BE2747F319524D8EBA46EBA1941F9DF3&assignmentId=0198be8c-3a10-7046-be21-8a66a8ae6a81&projectId=0198be8b-78cf-72d2-ba2b-1e62c78022e0","BE2747F319524D8EBA46EBA1941F9DF3-2025-08-18-19-23-32","","null","","[]","null","",""
"","","","","","instructions","21","86150","0.0-7.0","BE2747F319524D8EBA46EBA1941F9DF3","BE2747F319524D8EBA46EBA1941F9DF3","0198be8c-3a10-7046-be21-8a66a8ae6a81","0198be8b-78cf-72d2-ba2b-1e62c78022e0","{""num_scrambled_semantic"":""8"",""num_scrambled_causal"":""4"",""num_scrambled_schematic"":""4"",""participantId"":""BE2747F319524D8EBA46EBA1941F9DF3"",""assignmentId"":""0198be8c-3a10-7046-be21-8a66a8ae6a81"",""projectId"":""0198be8b-78cf-72d2-ba2b-1e62c78022e0""}","https://test12345.live/?num_scrambled_semantic=8&num_scrambled_causal=4&num_scrambled_schematic=4&participantId=BE2747F319524D8EBA46EBA1941F9DF3&assignmentId=0198be8c-3a10-7046-be21-8a66a8ae6a81&projectId=0198be8b-78cf-72d2-ba2b-1e62c78022e0","BE2747F319524D8EBA46EBA1941F9DF3-2025-08-18-19-23-32","[{""page_index"":0,""viewing_time"":5459}]","5460","","","","",""
"","","","","","html-audio-response","22","125508","0.0-8.0","BE2747F319524D8EBA46EBA1941F9DF3","BE2747F319524D8EBA46EBA1941F9DF3","0198be8c-3a10-7046-be21-8a66a8ae6a81","0198be8b-78cf-72d2-ba2b-1e62c78022e0","{""num_scrambled_semantic"":""8"",""num_scrambled_causal"":""4"",""num_scrambled_schematic"":""4"",""participantId"":""BE2747F319524D8EBA46EBA1941F9DF3"",""assignmentId"":""0198be8c-3a10-7046-be21-8a66a8ae6a81"",""projectId"":""0198be8b-78cf-72d2-ba2b-1e62c78022e0""}","https://test12345.live/?num_scrambled_semantic=8&num_scrambled_causal=4&num_scrambled_schematic=4&participantId=BE2747F319524D8EBA46EBA1941F9DF3&assignmentId=0198be8c-3a10-7046-be21-8a66a8ae6a81&projectId=0198be8b-78cf-72d2-ba2b-1e62c78022e0","BE2747F319524D8EBA46EBA1941F9DF3-2025-08-18-19-23-32","","28148","","[""<span style=\""color: red; font-size: 24px\""> NOW RECORDING</span><p>Please say out loud all the images you saw, in the order of the story they create. Try to recall the sequence of events as they appeared in the story, not necessarily the order they were presented on the screen.</p>""]","","1",""
"","","","","","instructions","23","126403","0.0-9.0","BE2747F319524D8EBA46EBA1941F9DF3","BE2747F319524D8EBA46EBA1941F9DF3","0198be8c-3a10-7046-be21-8a66a8ae6a81","0198be8b-78cf-72d2-ba2b-1e62c78022e0","{""num_scrambled_semantic"":""8"",""num_scrambled_causal"":""4"",""num_scrambled_schematic"":""4"",""participantId"":""BE2747F319524D8EBA46EBA1941F9DF3"",""assignmentId"":""0198be8c-3a10-7046-be21-8a66a8ae6a81"",""projectId"":""0198be8b-78cf-72d2-ba2b-1e62c78022e0""}","https://test12345.live/?num_scrambled_semantic=8&num_scrambled_causal=4&num_scrambled_schematic=4&participantId=BE2747F319524D8EBA46EBA1941F9DF3&assignmentId=0198be8c-3a10-7046-be21-8a66a8ae6a81&projectId=0198be8b-78cf-72d2-ba2b-1e62c78022e0","BE2747F319524D8EBA46EBA1941F9DF3-2025-08-18-19-23-32","[{""page_index"":0,""viewing_time"":888}]","889","","","","",""
"","","","","","image-button-response","24","132407","0.0-10.0-0.0","BE2747F319524D8EBA46EBA1941F9DF3","BE2747F319524D8EBA46EBA1941F9DF3","0198be8c-3a10-7046-be21-8a66a8ae6a81","0198be8b-78cf-72d2-ba2b-1e62c78022e0","{""num_scrambled_semantic"":""8"",""num_scrambled_causal"":""4"",""num_scrambled_schematic"":""4"",""participantId"":""BE2747F319524D8EBA46EBA1941F9DF3"",""assignmentId"":""0198be8c-3a10-7046-be21-8a66a8ae6a81"",""projectId"":""0198be8b-78cf-72d2-ba2b-1e62c78022e0""}","https://test12345.live/?num_scrambled_semantic=8&num_scrambled_causal=4&num_scrambled_schematic=4&participantId=BE2747F319524D8EBA46EBA1941F9DF3&assignmentId=0198be8c-3a10-7046-be21-8a66a8ae6a81&projectId=0198be8b-78cf-72d2-ba2b-1e62c78022e0","BE2747F319524D8EBA46EBA1941F9DF3-2025-08-18-19-23-32","","null","","images/causal_sequence/the_performance_causal/the_performance_causal_0.png","null","",""
"","","","","","image-button-response","25","136916","0.0-10.0-1.0-0.0","BE2747F319524D8EBA46EBA1941F9DF3","BE2747F319524D8EBA46EBA1941F9DF3","0198be8c-3a10-7046-be21-8a66a8ae6a81","0198be8b-78cf-72d2-ba2b-1e62c78022e0","{""num_scrambled_semantic"":""8"",""num_scrambled_causal"":""4"",""num_scrambled_schematic"":""4"",""participantId"":""BE2747F319524D8EBA46EBA1941F9DF3"",""assignmentId"":""0198be8c-3a10-7046-be21-8a66a8ae6a81"",""projectId"":""0198be8b-78cf-72d2-ba2b-1e62c78022e0""}","https://test12345.live/?num_scrambled_semantic=8&num_scrambled_causal=4&num_scrambled_schematic=4&participantId=BE2747F319524D8EBA46EBA1941F9DF3&assignmentId=0198be8c-3a10-7046-be21-8a66a8ae6a81&projectId=0198be8b-78cf-72d2-ba2b-1e62c78022e0","BE2747F319524D8EBA46EBA1941F9DF3-2025-08-18-19-23-32","","null","","images/causal_sequence/the_performance_causal/the_performance_causal_3.png","null","",""
"","","","","","image-button-response","26","138053","0.0-10.0-1.0-1.0","BE2747F319524D8EBA46EBA1941F9DF3","BE2747F319524D8EBA46EBA1941F9DF3","0198be8c-3a10-7046-be21-8a66a8ae6a81","0198be8b-78cf-72d2-ba2b-1e62c78022e0","{""num_scrambled_semantic"":""8"",""num_scrambled_causal"":""4"",""num_scrambled_schematic"":""4"",""participantId"":""BE2747F319524D8EBA46EBA1941F9DF3"",""assignmentId"":""0198be8c-3a10-7046-be21-8a66a8ae6a81"",""projectId"":""0198be8b-78cf-72d2-ba2b-1e62c78022e0""}","https://test12345.live/?num_scrambled_semantic=8&num_scrambled_causal=4&num_scrambled_schematic=4&participantId=BE2747F319524D8EBA46EBA1941F9DF3&assignmentId=0198be8c-3a10-7046-be21-8a66a8ae6a81&projectId=0198be8b-78cf-72d2-ba2b-1e62c78022e0","BE2747F319524D8EBA46EBA1941F9DF3-2025-08-18-19-23-32","","1136","","images/causal_sequence/the_performance_causal/the_performance_causal_3.png","0","",""
"","","","","","image-button-response","27","139866","0.0-10.0-1.0-2.0","BE2747F319524D8EBA46EBA1941F9DF3","BE2747F319524D8EBA46EBA1941F9DF3","0198be8c-3a10-7046-be21-8a66a8ae6a81","0198be8b-78cf-72d2-ba2b-1e62c78022e0","{""num_scrambled_semantic"":""8"",""num_scrambled_causal"":""4"",""num_scrambled_schematic"":""4"",""participantId"":""BE2747F319524D8EBA46EBA1941F9DF3"",""assignmentId"":""0198be8c-3a10-7046-be21-8a66a8ae6a81"",""projectId"":""0198be8b-78cf-72d2-ba2b-1e62c78022e0""}","https://test12345.live/?num_scrambled_semantic=8&num_scrambled_causal=4&num_scrambled_schematic=4&participantId=BE2747F319524D8EBA46EBA1941F9DF3&assignmentId=0198be8c-3a10-7046-be21-8a66a8ae6a81&projectId=0198be8b-78cf-72d2-ba2b-1e62c78022e0","BE2747F319524D8EBA46EBA1941F9DF3-2025-08-18-19-23-32","","null","","[]","null","",""
"","","","","","image-button-response","28","144375","0.0-10.0-1.0-0.1","BE2747F319524D8EBA46EBA1941F9DF3","BE2747F319524D8EBA46EBA1941F9DF3","0198be8c-3a10-7046-be21-8a66a8ae6a81","0198be8b-78cf-72d2-ba2b-1e62c78022e0","{""num_scrambled_semantic"":""8"",""num_scrambled_causal"":""4"",""num_scrambled_schematic"":""4"",""participantId"":""BE2747F319524D8EBA46EBA1941F9DF3"",""assignmentId"":""0198be8c-3a10-7046-be21-8a66a8ae6a81"",""projectId"":""0198be8b-78cf-72d2-ba2b-1e62c78022e0""}","https://test12345.live/?num_scrambled_semantic=8&num_scrambled_causal=4&num_scrambled_schematic=4&participantId=BE2747F319524D8EBA46EBA1941F9DF3&assignmentId=0198be8c-3a10-7046-be21-8a66a8ae6a81&projectId=0198be8b-78cf-72d2-ba2b-1e62c78022e0","BE2747F319524D8EBA46EBA1941F9DF3-2025-08-18-19-23-32","","null","","images/causal_sequence/the_performance_causal/the_performance_causal_5.png","null","",""
"","","","","","image-button-response","29","146089","0.0-10.0-1.0-1.1","BE2747F319524D8EBA46EBA1941F9DF3","BE2747F319524D8EBA46EBA1941F9DF3","0198be8c-3a10-7046-be21-8a66a8ae6a81","0198be8b-78cf-72d2-ba2b-1e62c78022e0","{""num_scrambled_semantic"":""8"",""num_scrambled_causal"":""4"",""num_scrambled_schematic"":""4"",""participantId"":""BE2747F319524D8EBA46EBA1941F9DF3"",""assignmentId"":""0198be8c-3a10-7046-be21-8a66a8ae6a81"",""projectId"":""0198be8b-78cf-72d2-ba2b-1e62c78022e0""}","https://test12345.live/?num_scrambled_semantic=8&num_scrambled_causal=4&num_scrambled_schematic=4&participantId=BE2747F319524D8EBA46EBA1941F9DF3&assignmentId=0198be8c-3a10-7046-be21-8a66a8ae6a81&projectId=0198be8b-78cf-72d2-ba2b-1e62c78022e0","BE2747F319524D8EBA46EBA1941F9DF3-2025-08-18-19-23-32","","1713","","images/causal_sequence/the_performance_causal/the_performance_causal_5.png","0","",""
"","","","","","image-button-response","30","147898","0.0-10.0-1.0-2.1","BE2747F319524D8EBA46EBA1941F9DF3","BE2747F319524D8EBA46EBA1941F9DF3","0198be8c-3a10-7046-be21-8a66a8ae6a81","0198be8b-78cf-72d2-ba2b-1e62c78022e0","{""num_scrambled_semantic"":""8"",""num_scrambled_causal"":""4"",""num_scrambled_schematic"":""4"",""participantId"":""BE2747F319524D8EBA46EBA1941F9DF3"",""assignmentId"":""0198be8c-3a10-7046-be21-8a66a8ae6a81"",""projectId"":""0198be8b-78cf-72d2-ba2b-1e62c78022e0""}","https://test12345.live/?num_scrambled_semantic=8&num_scrambled_causal=4&num_scrambled_schematic=4&participantId=BE2747F319524D8EBA46EBA1941F9DF3&assignmentId=0198be8c-3a10-7046-be21-8a66a8ae6a81&projectId=0198be8b-78cf-72d2-ba2b-1e62c78022e0","BE2747F319524D8EBA46EBA1941F9DF3-2025-08-18-19-23-32","","null","","[]","null","",""
"","","","","","image-button-response","31","152415","0.0-10.0-1.0-0.2","BE2747F319524D8EBA46EBA1941F9DF3","BE2747F319524D8EBA46EBA1941F9DF3","0198be8c-3a10-7046-be21-8a66a8ae6a81","0198be8b-78cf-72d2-ba2b-1e62c78022e0","{""num_scrambled_semantic"":""8"",""num_scrambled_causal"":""4"",""num_scrambled_schematic"":""4"",""participantId"":""BE2747F319524D8EBA46EBA1941F9DF3"",""assignmentId"":""0198be8c-3a10-7046-be21-8a66a8ae6a81"",""projectId"":""0198be8b-78cf-72d2-ba2b-1e62c78022e0""}","https://test12345.live/?num_scrambled_semantic=8&num_scrambled_causal=4&num_scrambled_schematic=4&participantId=BE2747F319524D8EBA46EBA1941F9DF3&assignmentId=0198be8c-3a10-7046-be21-8a66a8ae6a81&projectId=0198be8b-78cf-72d2-ba2b-1e62c78022e0","BE2747F319524D8EBA46EBA1941F9DF3-2025-08-18-19-23-32","","null","","images/causal_sequence/the_performance_causal/the_performance_causal_1.png","null","",""
"","","","","","image-button-response","32","154297","0.0-10.0-1.0-1.2","BE2747F319524D8EBA46EBA1941F9DF3","BE2747F319524D8EBA46EBA1941F9DF3","0198be8c-3a10-7046-be21-8a66a8ae6a81","0198be8b-78cf-72d2-ba2b-1e62c78022e0","{""num_scrambled_semantic"":""8"",""num_scrambled_causal"":""4"",""num_scrambled_schematic"":""4"",""participantId"":""BE2747F319524D8EBA46EBA1941F9DF3"",""assignmentId"":""0198be8c-3a10-7046-be21-8a66a8ae6a81"",""projectId"":""0198be8b-78cf-72d2-ba2b-1e62c78022e0""}","https://test12345.live/?num_scrambled_semantic=8&num_scrambled_causal=4&num_scrambled_schematic=4&participantId=BE2747F319524D8EBA46EBA1941F9DF3&assignmentId=0198be8c-3a10-7046-be21-8a66a8ae6a81&projectId=0198be8b-78cf-72d2-ba2b-1e62c78022e0","BE2747F319524D8EBA46EBA1941F9DF3-2025-08-18-19-23-32","","1882","","images/causal_sequence/the_performance_causal/the_performance_causal_1.png","0","",""
"","","","","","image-button-response","33","156098","0.0-10.0-1.0-2.2","BE2747F319524D8EBA46EBA1941F9DF3","BE2747F319524D8EBA46EBA1941F9DF3","0198be8c-3a10-7046-be21-8a66a8ae6a81","0198be8b-78cf-72d2-ba2b-1e62c78022e0","{""num_scrambled_semantic"":""8"",""num_scrambled_causal"":""4"",""num_scrambled_schematic"":""4"",""participantId"":""BE2747F319524D8EBA46EBA1941F9DF3"",""assignmentId"":""0198be8c-3a10-7046-be21-8a66a8ae6a81"",""projectId"":""0198be8b-78cf-72d2-ba2b-1e62c78022e0""}","https://test12345.live/?num_scrambled_semantic=8&num_scrambled_causal=4&num_scrambled_schematic=4&participantId=BE2747F319524D8EBA46EBA1941F9DF3&assignmentId=0198be8c-3a10-7046-be21-8a66a8ae6a81&projectId=0198be8b-78cf-72d2-ba2b-1e62c78022e0","BE2747F319524D8EBA46EBA1941F9DF3-2025-08-18-19-23-32","","null","","[]","null","",""
"","","","","","image-button-response","34","160605","0.0-10.0-1.0-0.3","BE2747F319524D8EBA46EBA1941F9DF3","BE2747F319524D8EBA46EBA1941F9DF3","0198be8c-3a10-7046-be21-8a66a8ae6a81","0198be8b-78cf-72d2-ba2b-1e62c78022e0","{""num_scrambled_semantic"":""8"",""num_scrambled_causal"":""4"",""num_scrambled_schematic"":""4"",""participantId"":""BE2747F319524D8EBA46EBA1941F9DF3"",""assignmentId"":""0198be8c-3a10-7046-be21-8a66a8ae6a81"",""projectId"":""0198be8b-78cf-72d2-ba2b-1e62c78022e0""}","https://test12345.live/?num_scrambled_semantic=8&num_scrambled_causal=4&num_scrambled_schematic=4&participantId=BE2747F319524D8EBA46EBA1941F9DF3&assignmentId=0198be8c-3a10-7046-be21-8a66a8ae6a81&projectId=0198be8b-78cf-72d2-ba2b-1e62c78022e0","BE2747F319524D8EBA46EBA1941F9DF3-2025-08-18-19-23-32","","null","","images/causal_sequence/the_performance_causal/the_performance_causal_2.png","null","",""
"","","","","","image-button-response","35","161188","0.0-10.0-1.0-1.3","BE2747F319524D8EBA46EBA1941F9DF3","BE2747F319524D8EBA46EBA1941F9DF3","0198be8c-3a10-7046-be21-8a66a8ae6a81","0198be8b-78cf-72d2-ba2b-1e62c78022e0","{""num_scrambled_semantic"":""8"",""num_scrambled_causal"":""4"",""num_scrambled_schematic"":""4"",""participantId"":""BE2747F319524D8EBA46EBA1941F9DF3"",""assignmentId"":""0198be8c-3a10-7046-be21-8a66a8ae6a81"",""projectId"":""0198be8b-78cf-72d2-ba2b-1e62c78022e0""}","https://test12345.live/?num_scrambled_semantic=8&num_scrambled_causal=4&num_scrambled_schematic=4&participantId=BE2747F319524D8EBA46EBA1941F9DF3&assignmentId=0198be8c-3a10-7046-be21-8a66a8ae6a81&projectId=0198be8b-78cf-72d2-ba2b-1e62c78022e0","BE2747F319524D8EBA46EBA1941F9DF3-2025-08-18-19-23-32","","581","","images/causal_sequence/the_performance_causal/the_performance_causal_2.png","0","",""
"","","","","","image-button-response","36","162994","0.0-10.0-1.0-2.3","BE2747F319524D8EBA46EBA1941F9DF3","BE2747F319524D8EBA46EBA1941F9DF3","0198be8c-3a10-7046-be21-8a66a8ae6a81","0198be8b-78cf-72d2-ba2b-1e62c78022e0","{""num_scrambled_semantic"":""8"",""num_scrambled_causal"":""4"",""num_scrambled_schematic"":""4"",""participantId"":""BE2747F319524D8EBA46EBA1941F9DF3"",""assignmentId"":""0198be8c-3a10-7046-be21-8a66a8ae6a81"",""projectId"":""0198be8b-78cf-72d2-ba2b-1e62c78022e0""}","https://test12345.live/?num_scrambled_semantic=8&num_scrambled_causal=4&num_scrambled_schematic=4&participantId=BE2747F319524D8EBA46EBA1941F9DF3&assignmentId=0198be8c-3a10-7046-be21-8a66a8ae6a81&projectId=0198be8b-78cf-72d2-ba2b-1e62c78022e0","BE2747F319524D8EBA46EBA1941F9DF3-2025-08-18-19-23-32","","null","","[]","null","",""
"","","","","","image-button-response","37","167500","0.0-10.0-1.0-0.4","BE2747F319524D8EBA46EBA1941F9DF3","BE2747F319524D8EBA46EBA1941F9DF3","0198be8c-3a10-7046-be21-8a66a8ae6a81","0198be8b-78cf-72d2-ba2b-1e62c78022e0","{""num_scrambled_semantic"":""8"",""num_scrambled_causal"":""4"",""num_scrambled_schematic"":""4"",""participantId"":""BE2747F319524D8EBA46EBA1941F9DF3"",""assignmentId"":""0198be8c-3a10-7046-be21-8a66a8ae6a81"",""projectId"":""0198be8b-78cf-72d2-ba2b-1e62c78022e0""}","https://test12345.live/?num_scrambled_semantic=8&num_scrambled_causal=4&num_scrambled_schematic=4&participantId=BE2747F319524D8EBA46EBA1941F9DF3&assignmentId=0198be8c-3a10-7046-be21-8a66a8ae6a81&projectId=0198be8b-78cf-72d2-ba2b-1e62c78022e0","BE2747F319524D8EBA46EBA1941F9DF3-2025-08-18-19-23-32","","null","","images/causal_sequence/the_performance_causal/the_performance_causal_4.png","null","",""
"","","","","","image-button-response","38","168030","0.0-10.0-1.0-1.4","BE2747F319524D8EBA46EBA1941F9DF3","BE2747F319524D8EBA46EBA1941F9DF3","0198be8c-3a10-7046-be21-8a66a8ae6a81","0198be8b-78cf-72d2-ba2b-1e62c78022e0","{""num_scrambled_semantic"":""8"",""num_scrambled_causal"":""4"",""num_scrambled_schematic"":""4"",""participantId"":""BE2747F319524D8EBA46EBA1941F9DF3"",""assignmentId"":""0198be8c-3a10-7046-be21-8a66a8ae6a81"",""projectId"":""0198be8b-78cf-72d2-ba2b-1e62c78022e0""}","https://test12345.live/?num_scrambled_semantic=8&num_scrambled_causal=4&num_scrambled_schematic=4&participantId=BE2747F319524D8EBA46EBA1941F9DF3&assignmentId=0198be8c-3a10-7046-be21-8a66a8ae6a81&projectId=0198be8b-78cf-72d2-ba2b-1e62c78022e0","BE2747F319524D8EBA46EBA1941F9DF3-2025-08-18-19-23-32","","529","","images/causal_sequence/the_performance_causal/the_performance_causal_4.png","0","",""
"","","","","","image-button-response","39","169837","0.0-10.0-1.0-2.4","BE2747F319524D8EBA46EBA1941F9DF3","BE2747F319524D8EBA46EBA1941F9DF3","0198be8c-3a10-7046-be21-8a66a8ae6a81","0198be8b-78cf-72d2-ba2b-1e62c78022e0","{""num_scrambled_semantic"":""8"",""num_scrambled_causal"":""4"",""num_scrambled_schematic"":""4"",""participantId"":""BE2747F319524D8EBA46EBA1941F9DF3"",""assignmentId"":""0198be8c-3a10-7046-be21-8a66a8ae6a81"",""projectId"":""0198be8b-78cf-72d2-ba2b-1e62c78022e0""}","https://test12345.live/?num_scrambled_semantic=8&num_scrambled_causal=4&num_scrambled_schematic=4&participantId=BE2747F319524D8EBA46EBA1941F9DF3&assignmentId=0198be8c-3a10-7046-be21-8a66a8ae6a81&projectId=0198be8b-78cf-72d2-ba2b-1e62c78022e0","BE2747F319524D8EBA46EBA1941F9DF3-2025-08-18-19-23-32","","null","","[]","null","",""
"","","","","","image-button-response","40","174340","0.0-10.0-1.0-0.5","BE2747F319524D8EBA46EBA1941F9DF3","BE2747F319524D8EBA46EBA1941F9DF3","0198be8c-3a10-7046-be21-8a66a8ae6a81","0198be8b-78cf-72d2-ba2b-1e62c78022e0","{""num_scrambled_semantic"":""8"",""num_scrambled_causal"":""4"",""num_scrambled_schematic"":""4"",""participantId"":""BE2747F319524D8EBA46EBA1941F9DF3"",""assignmentId"":""0198be8c-3a10-7046-be21-8a66a8ae6a81"",""projectId"":""0198be8b-78cf-72d2-ba2b-1e62c78022e0""}","https://test12345.live/?num_scrambled_semantic=8&num_scrambled_causal=4&num_scrambled_schematic=4&participantId=BE2747F319524D8EBA46EBA1941F9DF3&assignmentId=0198be8c-3a10-7046-be21-8a66a8ae6a81&projectId=0198be8b-78cf-72d2-ba2b-1e62c78022e0","BE2747F319524D8EBA46EBA1941F9DF3-2025-08-18-19-23-32","","null","","images/causal_sequence/the_performance_causal/the_performance_causal_6.png","null","",""
"","","","","","image-button-response","41","175014","0.0-10.0-1.0-1.5","BE2747F319524D8EBA46EBA1941F9DF3","BE2747F319524D8EBA46EBA1941F9DF3","0198be8c-3a10-7046-be21-8a66a8ae6a81","0198be8b-78cf-72d2-ba2b-1e62c78022e0","{""num_scrambled_semantic"":""8"",""num_scrambled_causal"":""4"",""num_scrambled_schematic"":""4"",""participantId"":""BE2747F319524D8EBA46EBA1941F9DF3"",""assignmentId"":""0198be8c-3a10-7046-be21-8a66a8ae6a81"",""projectId"":""0198be8b-78cf-72d2-ba2b-1e62c78022e0""}","https://test12345.live/?num_scrambled_semantic=8&num_scrambled_causal=4&num_scrambled_schematic=4&participantId=BE2747F319524D8EBA46EBA1941F9DF3&assignmentId=0198be8c-3a10-7046-be21-8a66a8ae6a81&projectId=0198be8b-78cf-72d2-ba2b-1e62c78022e0","BE2747F319524D8EBA46EBA1941F9DF3-2025-08-18-19-23-32","","673","","images/causal_sequence/the_performance_causal/the_performance_causal_6.png","0","",""
"","","","","","image-button-response","42","176821","0.0-10.0-1.0-2.5","BE2747F319524D8EBA46EBA1941F9DF3","BE2747F319524D8EBA46EBA1941F9DF3","0198be8c-3a10-7046-be21-8a66a8ae6a81","0198be8b-78cf-72d2-ba2b-1e62c78022e0","{""num_scrambled_semantic"":""8"",""num_scrambled_causal"":""4"",""num_scrambled_schematic"":""4"",""participantId"":""BE2747F319524D8EBA46EBA1941F9DF3"",""assignmentId"":""0198be8c-3a10-7046-be21-8a66a8ae6a81"",""projectId"":""0198be8b-78cf-72d2-ba2b-1e62c78022e0""}","https://test12345.live/?num_scrambled_semantic=8&num_scrambled_causal=4&num_scrambled_schematic=4&participantId=BE2747F319524D8EBA46EBA1941F9DF3&assignmentId=0198be8c-3a10-7046-be21-8a66a8ae6a81&projectId=0198be8b-78cf-72d2-ba2b-1e62c78022e0","BE2747F319524D8EBA46EBA1941F9DF3-2025-08-18-19-23-32","","null","","[]","null","",""
"","","","","","image-button-response","43","181322","0.0-10.0-1.0-0.6","BE2747F319524D8EBA46EBA1941F9DF3","BE2747F319524D8EBA46EBA1941F9DF3","0198be8c-3a10-7046-be21-8a66a8ae6a81","0198be8b-78cf-72d2-ba2b-1e62c78022e0","{""num_scrambled_semantic"":""8"",""num_scrambled_causal"":""4"",""num_scrambled_schematic"":""4"",""participantId"":""BE2747F319524D8EBA46EBA1941F9DF3"",""assignmentId"":""0198be8c-3a10-7046-be21-8a66a8ae6a81"",""projectId"":""0198be8b-78cf-72d2-ba2b-1e62c78022e0""}","https://test12345.live/?num_scrambled_semantic=8&num_scrambled_causal=4&num_scrambled_schematic=4&participantId=BE2747F319524D8EBA46EBA1941F9DF3&assignmentId=0198be8c-3a10-7046-be21-8a66a8ae6a81&projectId=0198be8b-78cf-72d2-ba2b-1e62c78022e0","BE2747F319524D8EBA46EBA1941F9DF3-2025-08-18-19-23-32","","null","","images/causal_sequence/the_performance_causal/the_performance_causal_9.png","null","",""
"","","","","","image-button-response","44","181904","0.0-10.0-1.0-1.6","BE2747F319524D8EBA46EBA1941F9DF3","BE2747F319524D8EBA46EBA1941F9DF3","0198be8c-3a10-7046-be21-8a66a8ae6a81","0198be8b-78cf-72d2-ba2b-1e62c78022e0","{""num_scrambled_semantic"":""8"",""num_scrambled_causal"":""4"",""num_scrambled_schematic"":""4"",""participantId"":""BE2747F319524D8EBA46EBA1941F9DF3"",""assignmentId"":""0198be8c-3a10-7046-be21-8a66a8ae6a81"",""projectId"":""0198be8b-78cf-72d2-ba2b-1e62c78022e0""}","https://test12345.live/?num_scrambled_semantic=8&num_scrambled_causal=4&num_scrambled_schematic=4&participantId=BE2747F319524D8EBA46EBA1941F9DF3&assignmentId=0198be8c-3a10-7046-be21-8a66a8ae6a81&projectId=0198be8b-78cf-72d2-ba2b-1e62c78022e0","BE2747F319524D8EBA46EBA1941F9DF3-2025-08-18-19-23-32","","581","","images/causal_sequence/the_performance_causal/the_performance_causal_9.png","0","",""
"","","","","","image-button-response","45","183706","0.0-10.0-1.0-2.6","BE2747F319524D8EBA46EBA1941F9DF3","BE2747F319524D8EBA46EBA1941F9DF3","0198be8c-3a10-7046-be21-8a66a8ae6a81","0198be8b-78cf-72d2-ba2b-1e62c78022e0","{""num_scrambled_semantic"":""8"",""num_scrambled_causal"":""4"",""num_scrambled_schematic"":""4"",""participantId"":""BE2747F319524D8EBA46EBA1941F9DF3"",""assignmentId"":""0198be8c-3a10-7046-be21-8a66a8ae6a81"",""projectId"":""0198be8b-78cf-72d2-ba2b-1e62c78022e0""}","https://test12345.live/?num_scrambled_semantic=8&num_scrambled_causal=4&num_scrambled_schematic=4&participantId=BE2747F319524D8EBA46EBA1941F9DF3&assignmentId=0198be8c-3a10-7046-be21-8a66a8ae6a81&projectId=0198be8b-78cf-72d2-ba2b-1e62c78022e0","BE2747F319524D8EBA46EBA1941F9DF3-2025-08-18-19-23-32","","null","","[]","null","",""
"","","","","","image-button-response","46","188208","0.0-10.0-1.0-0.7","BE2747F319524D8EBA46EBA1941F9DF3","BE2747F319524D8EBA46EBA1941F9DF3","0198be8c-3a10-7046-be21-8a66a8ae6a81","0198be8b-78cf-72d2-ba2b-1e62c78022e0","{""num_scrambled_semantic"":""8"",""num_scrambled_causal"":""4"",""num_scrambled_schematic"":""4"",""participantId"":""BE2747F319524D8EBA46EBA1941F9DF3"",""assignmentId"":""0198be8c-3a10-7046-be21-8a66a8ae6a81"",""projectId"":""0198be8b-78cf-72d2-ba2b-1e62c78022e0""}","https://test12345.live/?num_scrambled_semantic=8&num_scrambled_causal=4&num_scrambled_schematic=4&participantId=BE2747F319524D8EBA46EBA1941F9DF3&assignmentId=0198be8c-3a10-7046-be21-8a66a8ae6a81&projectId=0198be8b-78cf-72d2-ba2b-1e62c78022e0","BE2747F319524D8EBA46EBA1941F9DF3-2025-08-18-19-23-32","","null","","images/causal_sequence/the_performance_causal/the_performance_causal_8.png","null","",""
"","","","","","image-button-response","47","188702","0.0-10.0-1.0-1.7","BE2747F319524D8EBA46EBA1941F9DF3","BE2747F319524D8EBA46EBA1941F9DF3","0198be8c-3a10-7046-be21-8a66a8ae6a81","0198be8b-78cf-72d2-ba2b-1e62c78022e0","{""num_scrambled_semantic"":""8"",""num_scrambled_causal"":""4"",""num_scrambled_schematic"":""4"",""participantId"":""BE2747F319524D8EBA46EBA1941F9DF3"",""assignmentId"":""0198be8c-3a10-7046-be21-8a66a8ae6a81"",""projectId"":""0198be8b-78cf-72d2-ba2b-1e62c78022e0""}","https://test12345.live/?num_scrambled_semantic=8&num_scrambled_causal=4&num_scrambled_schematic=4&participantId=BE2747F319524D8EBA46EBA1941F9DF3&assignmentId=0198be8c-3a10-7046-be21-8a66a8ae6a81&projectId=0198be8b-78cf-72d2-ba2b-1e62c78022e0","BE2747F319524D8EBA46EBA1941F9DF3-2025-08-18-19-23-32","","493","","images/causal_sequence/the_performance_causal/the_performance_causal_8.png","0","",""
"","","","","","image-button-response","48","190509","0.0-10.0-1.0-2.7","BE2747F319524D8EBA46EBA1941F9DF3","BE2747F319524D8EBA46EBA1941F9DF3","0198be8c-3a10-7046-be21-8a66a8ae6a81","0198be8b-78cf-72d2-ba2b-1e62c78022e0","{""num_scrambled_semantic"":""8"",""num_scrambled_causal"":""4"",""num_scrambled_schematic"":""4"",""participantId"":""BE2747F319524D8EBA46EBA1941F9DF3"",""assignmentId"":""0198be8c-3a10-7046-be21-8a66a8ae6a81"",""projectId"":""0198be8b-78cf-72d2-ba2b-1e62c78022e0""}","https://test12345.live/?num_scrambled_semantic=8&num_scrambled_causal=4&num_scrambled_schematic=4&participantId=BE2747F319524D8EBA46EBA1941F9DF3&assignmentId=0198be8c-3a10-7046-be21-8a66a8ae6a81&projectId=0198be8b-78cf-72d2-ba2b-1e62c78022e0","BE2747F319524D8EBA46EBA1941F9DF3-2025-08-18-19-23-32","","null","","[]","null","",""
"","","","","","image-button-response","49","195024","0.0-10.0-1.0-0.8","BE2747F319524D8EBA46EBA1941F9DF3","BE2747F319524D8EBA46EBA1941F9DF3","0198be8c-3a10-7046-be21-8a66a8ae6a81","0198be8b-78cf-72d2-ba2b-1e62c78022e0","{""num_scrambled_semantic"":""8"",""num_scrambled_causal"":""4"",""num_scrambled_schematic"":""4"",""participantId"":""BE2747F319524D8EBA46EBA1941F9DF3"",""assignmentId"":""0198be8c-3a10-7046-be21-8a66a8ae6a81"",""projectId"":""0198be8b-78cf-72d2-ba2b-1e62c78022e0""}","https://test12345.live/?num_scrambled_semantic=8&num_scrambled_causal=4&num_scrambled_schematic=4&participantId=BE2747F319524D8EBA46EBA1941F9DF3&assignmentId=0198be8c-3a10-7046-be21-8a66a8ae6a81&projectId=0198be8b-78cf-72d2-ba2b-1e62c78022e0","BE2747F319524D8EBA46EBA1941F9DF3-2025-08-18-19-23-32","","null","","images/causal_sequence/the_performance_causal/the_performance_causal_7.png","null","",""
"","","","","","image-button-response","50","196567","0.0-10.0-1.0-1.8","BE2747F319524D8EBA46EBA1941F9DF3","BE2747F319524D8EBA46EBA1941F9DF3","0198be8c-3a10-7046-be21-8a66a8ae6a81","0198be8b-78cf-72d2-ba2b-1e62c78022e0","{""num_scrambled_semantic"":""8"",""num_scrambled_causal"":""4"",""num_scrambled_schematic"":""4"",""participantId"":""BE2747F319524D8EBA46EBA1941F9DF3"",""assignmentId"":""0198be8c-3a10-7046-be21-8a66a8ae6a81"",""projectId"":""0198be8b-78cf-72d2-ba2b-1e62c78022e0""}","https://test12345.live/?num_scrambled_semantic=8&num_scrambled_causal=4&num_scrambled_schematic=4&participantId=BE2747F319524D8EBA46EBA1941F9DF3&assignmentId=0198be8c-3a10-7046-be21-8a66a8ae6a81&projectId=0198be8b-78cf-72d2-ba2b-1e62c78022e0","BE2747F319524D8EBA46EBA1941F9DF3-2025-08-18-19-23-32","","1542","","images/causal_sequence/the_performance_causal/the_performance_causal_7.png","0","",""
"","","","","","image-button-response","51","198368","0.0-10.0-1.0-2.8","BE2747F319524D8EBA46EBA1941F9DF3","BE2747F319524D8EBA46EBA1941F9DF3","0198be8c-3a10-7046-be21-8a66a8ae6a81","0198be8b-78cf-72d2-ba2b-1e62c78022e0","{""num_scrambled_semantic"":""8"",""num_scrambled_causal"":""4"",""num_scrambled_schematic"":""4"",""participantId"":""BE2747F319524D8EBA46EBA1941F9DF3"",""assignmentId"":""0198be8c-3a10-7046-be21-8a66a8ae6a81"",""projectId"":""0198be8b-78cf-72d2-ba2b-1e62c78022e0""}","https://test12345.live/?num_scrambled_semantic=8&num_scrambled_causal=4&num_scrambled_schematic=4&participantId=BE2747F319524D8EBA46EBA1941F9DF3&assignmentId=0198be8c-3a10-7046-be21-8a66a8ae6a81&projectId=0198be8b-78cf-72d2-ba2b-1e62c78022e0","BE2747F319524D8EBA46EBA1941F9DF3-2025-08-18-19-23-32","","null","","[]","null","",""
"","","","","","image-button-response","52","202871","0.0-10.0-1.0-0.9","BE2747F319524D8EBA46EBA1941F9DF3","BE2747F319524D8EBA46EBA1941F9DF3","0198be8c-3a10-7046-be21-8a66a8ae6a81","0198be8b-78cf-72d2-ba2b-1e62c78022e0","{""num_scrambled_semantic"":""8"",""num_scrambled_causal"":""4"",""num_scrambled_schematic"":""4"",""participantId"":""BE2747F319524D8EBA46EBA1941F9DF3"",""assignmentId"":""0198be8c-3a10-7046-be21-8a66a8ae6a81"",""projectId"":""0198be8b-78cf-72d2-ba2b-1e62c78022e0""}","https://test12345.live/?num_scrambled_semantic=8&num_scrambled_causal=4&num_scrambled_schematic=4&participantId=BE2747F319524D8EBA46EBA1941F9DF3&assignmentId=0198be8c-3a10-7046-be21-8a66a8ae6a81&projectId=0198be8b-78cf-72d2-ba2b-1e62c78022e0","BE2747F319524D8EBA46EBA1941F9DF3-2025-08-18-19-23-32","","null","","images/causal_sequence/the_performance_causal/the_performance_causal_ten.png","null","",""
"","","","","","image-button-response","53","203302","0.0-10.0-1.0-1.9","BE2747F319524D8EBA46EBA1941F9DF3","BE2747F319524D8EBA46EBA1941F9DF3","0198be8c-3a10-7046-be21-8a66a8ae6a81","0198be8b-78cf-72d2-ba2b-1e62c78022e0","{""num_scrambled_semantic"":""8"",""num_scrambled_causal"":""4"",""num_scrambled_schematic"":""4"",""participantId"":""BE2747F319524D8EBA46EBA1941F9DF3"",""assignmentId"":""0198be8c-3a10-7046-be21-8a66a8ae6a81"",""projectId"":""0198be8b-78cf-72d2-ba2b-1e62c78022e0""}","https://test12345.live/?num_scrambled_semantic=8&num_scrambled_causal=4&num_scrambled_schematic=4&participantId=BE2747F319524D8EBA46EBA1941F9DF3&assignmentId=0198be8c-3a10-7046-be21-8a66a8ae6a81&projectId=0198be8b-78cf-72d2-ba2b-1e62c78022e0","BE2747F319524D8EBA46EBA1941F9DF3-2025-08-18-19-23-32","","430","","images/causal_sequence/the_performance_causal/the_performance_causal_ten.png","0","",""
"","","","","","image-button-response","54","205104","0.0-10.0-1.0-2.9","BE2747F319524D8EBA46EBA1941F9DF3","BE2747F319524D8EBA46EBA1941F9DF3","0198be8c-3a10-7046-be21-8a66a8ae6a81","0198be8b-78cf-72d2-ba2b-1e62c78022e0","{""num_scrambled_semantic"":""8"",""num_scrambled_causal"":""4"",""num_scrambled_schematic"":""4"",""participantId"":""BE2747F319524D8EBA46EBA1941F9DF3"",""assignmentId"":""0198be8c-3a10-7046-be21-8a66a8ae6a81"",""projectId"":""0198be8b-78cf-72d2-ba2b-1e62c78022e0""}","https://test12345.live/?num_scrambled_semantic=8&num_scrambled_causal=4&num_scrambled_schematic=4&participantId=BE2747F319524D8EBA46EBA1941F9DF3&assignmentId=0198be8c-3a10-7046-be21-8a66a8ae6a81&projectId=0198be8b-78cf-72d2-ba2b-1e62c78022e0","BE2747F319524D8EBA46EBA1941F9DF3-2025-08-18-19-23-32","","null","","[]","null","",""
"","","","","","html-audio-response","55","268296","0.0-11.0","BE2747F319524D8EBA46EBA1941F9DF3","BE2747F319524D8EBA46EBA1941F9DF3","0198be8c-3a10-7046-be21-8a66a8ae6a81","0198be8b-78cf-72d2-ba2b-1e62c78022e0","{""num_scrambled_semantic"":""8"",""num_scrambled_causal"":""4"",""num_scrambled_schematic"":""4"",""participantId"":""BE2747F319524D8EBA46EBA1941F9DF3"",""assignmentId"":""0198be8c-3a10-7046-be21-8a66a8ae6a81"",""projectId"":""0198be8b-78cf-72d2-ba2b-1e62c78022e0""}","https://test12345.live/?num_scrambled_semantic=8&num_scrambled_causal=4&num_scrambled_schematic=4&participantId=BE2747F319524D8EBA46EBA1941F9DF3&assignmentId=0198be8c-3a10-7046-be21-8a66a8ae6a81&projectId=0198be8b-78cf-72d2-ba2b-1e62c78022e0","BE2747F319524D8EBA46EBA1941F9DF3-2025-08-18-19-23-32","","null","","[""<span style=\""color: red; font-size: 24px\""> NOW RECORDING</span><p>Please say out loud all the images you saw, in the order of the story they create. Try to recall the sequence of events as they appeared in the story, not necessarily the order they were presented on the screen.</p>""]","","2","the_performance_causal"
"","","","","","image-button-response","56","274311","0.0-12.0-0.0","BE2747F319524D8EBA46EBA1941F9DF3","BE2747F319524D8EBA46EBA1941F9DF3","0198be8c-3a10-7046-be21-8a66a8ae6a81","0198be8b-78cf-72d2-ba2b-1e62c78022e0","{""num_scrambled_semantic"":""8"",""num_scrambled_causal"":""4"",""num_scrambled_schematic"":""4"",""participantId"":""BE2747F319524D8EBA46EBA1941F9DF3"",""assignmentId"":""0198be8c-3a10-7046-be21-8a66a8ae6a81"",""projectId"":""0198be8b-78cf-72d2-ba2b-1e62c78022e0""}","https://test12345.live/?num_scrambled_semantic=8&num_scrambled_causal=4&num_scrambled_schematic=4&participantId=BE2747F319524D8EBA46EBA1941F9DF3&assignmentId=0198be8c-3a10-7046-be21-8a66a8ae6a81&projectId=0198be8b-78cf-72d2-ba2b-1e62c78022e0","BE2747F319524D8EBA46EBA1941F9DF3-2025-08-18-19-23-32","","null","","images/causal_sequence/dog_causal/dog_causal_0.png","null","",""
"","","","","","image-button-response","57","278816","0.0-12.0-1.0-0.0","BE2747F319524D8EBA46EBA1941F9DF3","BE2747F319524D8EBA46EBA1941F9DF3","0198be8c-3a10-7046-be21-8a66a8ae6a81","0198be8b-78cf-72d2-ba2b-1e62c78022e0","{""num_scrambled_semantic"":""8"",""num_scrambled_causal"":""4"",""num_scrambled_schematic"":""4"",""participantId"":""BE2747F319524D8EBA46EBA1941F9DF3"",""assignmentId"":""0198be8c-3a10-7046-be21-8a66a8ae6a81"",""projectId"":""0198be8b-78cf-72d2-ba2b-1e62c78022e0""}","https://test12345.live/?num_scrambled_semantic=8&num_scrambled_causal=4&num_scrambled_schematic=4&participantId=BE2747F319524D8EBA46EBA1941F9DF3&assignmentId=0198be8c-3a10-7046-be21-8a66a8ae6a81&projectId=0198be8b-78cf-72d2-ba2b-1e62c78022e0","BE2747F319524D8EBA46EBA1941F9DF3-2025-08-18-19-23-32","","null","","images/causal_sequence/dog_causal/dog_causal_1.png","null","",""
"","","","","","image-button-response","58","281352","0.0-12.0-1.0-1.0","BE2747F319524D8EBA46EBA1941F9DF3","BE2747F319524D8EBA46EBA1941F9DF3","0198be8c-3a10-7046-be21-8a66a8ae6a81","0198be8b-78cf-72d2-ba2b-1e62c78022e0","{""num_scrambled_semantic"":""8"",""num_scrambled_causal"":""4"",""num_scrambled_schematic"":""4"",""participantId"":""BE2747F319524D8EBA46EBA1941F9DF3"",""assignmentId"":""0198be8c-3a10-7046-be21-8a66a8ae6a81"",""projectId"":""0198be8b-78cf-72d2-ba2b-1e62c78022e0""}","https://test12345.live/?num_scrambled_semantic=8&num_scrambled_causal=4&num_scrambled_schematic=4&participantId=BE2747F319524D8EBA46EBA1941F9DF3&assignmentId=0198be8c-3a10-7046-be21-8a66a8ae6a81&projectId=0198be8b-78cf-72d2-ba2b-1e62c78022e0","BE2747F319524D8EBA46EBA1941F9DF3-2025-08-18-19-23-32","","2535","","images/causal_sequence/dog_causal/dog_causal_1.png","0","",""
"","","","","","image-button-response","59","283152","0.0-12.0-1.0-2.0","BE2747F319524D8EBA46EBA1941F9DF3","BE2747F319524D8EBA46EBA1941F9DF3","0198be8c-3a10-7046-be21-8a66a8ae6a81","0198be8b-78cf-72d2-ba2b-1e62c78022e0","{""num_scrambled_semantic"":""8"",""num_scrambled_causal"":""4"",""num_scrambled_schematic"":""4"",""participantId"":""BE2747F319524D8EBA46EBA1941F9DF3"",""assignmentId"":""0198be8c-3a10-7046-be21-8a66a8ae6a81"",""projectId"":""0198be8b-78cf-72d2-ba2b-1e62c78022e0""}","https://test12345.live/?num_scrambled_semantic=8&num_scrambled_causal=4&num_scrambled_schematic=4&participantId=BE2747F319524D8EBA46EBA1941F9DF3&assignmentId=0198be8c-3a10-7046-be21-8a66a8ae6a81&projectId=0198be8b-78cf-72d2-ba2b-1e62c78022e0","BE2747F319524D8EBA46EBA1941F9DF3-2025-08-18-19-23-32","","null","","[]","null","",""
"","","","","","image-button-response","60","287654","0.0-12.0-1.0-0.1","BE2747F319524D8EBA46EBA1941F9DF3","BE2747F319524D8EBA46EBA1941F9DF3","0198be8c-3a10-7046-be21-8a66a8ae6a81","0198be8b-78cf-72d2-ba2b-1e62c78022e0","{""num_scrambled_semantic"":""8"",""num_scrambled_causal"":""4"",""num_scrambled_schematic"":""4"",""participantId"":""BE2747F319524D8EBA46EBA1941F9DF3"",""assignmentId"":""0198be8c-3a10-7046-be21-8a66a8ae6a81"",""projectId"":""0198be8b-78cf-72d2-ba2b-1e62c78022e0""}","https://test12345.live/?num_scrambled_semantic=8&num_scrambled_causal=4&num_scrambled_schematic=4&participantId=BE2747F319524D8EBA46EBA1941F9DF3&assignmentId=0198be8c-3a10-7046-be21-8a66a8ae6a81&projectId=0198be8b-78cf-72d2-ba2b-1e62c78022e0","BE2747F319524D8EBA46EBA1941F9DF3-2025-08-18-19-23-32","","null","","images/causal_sequence/dog_causal/dog_causal_2.png","null","",""
"","","","","","image-button-response","61","288372","0.0-12.0-1.0-1.1","BE2747F319524D8EBA46EBA1941F9DF3","BE2747F319524D8EBA46EBA1941F9DF3","0198be8c-3a10-7046-be21-8a66a8ae6a81","0198be8b-78cf-72d2-ba2b-1e62c78022e0","{""num_scrambled_semantic"":""8"",""num_scrambled_causal"":""4"",""num_scrambled_schematic"":""4"",""participantId"":""BE2747F319524D8EBA46EBA1941F9DF3"",""assignmentId"":""0198be8c-3a10-7046-be21-8a66a8ae6a81"",""projectId"":""0198be8b-78cf-72d2-ba2b-1e62c78022e0""}","https://test12345.live/?num_scrambled_semantic=8&num_scrambled_causal=4&num_scrambled_schematic=4&participantId=BE2747F319524D8EBA46EBA1941F9DF3&assignmentId=0198be8c-3a10-7046-be21-8a66a8ae6a81&projectId=0198be8b-78cf-72d2-ba2b-1e62c78022e0","BE2747F319524D8EBA46EBA1941F9DF3-2025-08-18-19-23-32","","717","","images/causal_sequence/dog_causal/dog_causal_2.png","0","",""
"","","","","","image-button-response","62","290178","0.0-12.0-1.0-2.1","BE2747F319524D8EBA46EBA1941F9DF3","BE2747F319524D8EBA46EBA1941F9DF3","0198be8c-3a10-7046-be21-8a66a8ae6a81","0198be8b-78cf-72d2-ba2b-1e62c78022e0","{""num_scrambled_semantic"":""8"",""num_scrambled_causal"":""4"",""num_scrambled_schematic"":""4"",""participantId"":""BE2747F319524D8EBA46EBA1941F9DF3"",""assignmentId"":""0198be8c-3a10-7046-be21-8a66a8ae6a81"",""projectId"":""0198be8b-78cf-72d2-ba2b-1e62c78022e0""}","https://test12345.live/?num_scrambled_semantic=8&num_scrambled_causal=4&num_scrambled_schematic=4&participantId=BE2747F319524D8EBA46EBA1941F9DF3&assignmentId=0198be8c-3a10-7046-be21-8a66a8ae6a81&projectId=0198be8b-78cf-72d2-ba2b-1e62c78022e0","BE2747F319524D8EBA46EBA1941F9DF3-2025-08-18-19-23-32","","null","","[]","null","",""
"","","","","","image-button-response","63","294694","0.0-12.0-1.0-0.2","BE2747F319524D8EBA46EBA1941F9DF3","BE2747F319524D8EBA46EBA1941F9DF3","0198be8c-3a10-7046-be21-8a66a8ae6a81","0198be8b-78cf-72d2-ba2b-1e62c78022e0","{""num_scrambled_semantic"":""8"",""num_scrambled_causal"":""4"",""num_scrambled_schematic"":""4"",""participantId"":""BE2747F319524D8EBA46EBA1941F9DF3"",""assignmentId"":""0198be8c-3a10-7046-be21-8a66a8ae6a81"",""projectId"":""0198be8b-78cf-72d2-ba2b-1e62c78022e0""}","https://test12345.live/?num_scrambled_semantic=8&num_scrambled_causal=4&num_scrambled_schematic=4&participantId=BE2747F319524D8EBA46EBA1941F9DF3&assignmentId=0198be8c-3a10-7046-be21-8a66a8ae6a81&projectId=0198be8b-78cf-72d2-ba2b-1e62c78022e0","BE2747F319524D8EBA46EBA1941F9DF3-2025-08-18-19-23-32","","null","","images/causal_sequence/dog_causal/dog_causal_3.png","null","",""
"","","","","","image-button-response","64","295283","0.0-12.0-1.0-1.2","BE2747F319524D8EBA46EBA1941F9DF3","BE2747F319524D8EBA46EBA1941F9DF3","0198be8c-3a10-7046-be21-8a66a8ae6a81","0198be8b-78cf-72d2-ba2b-1e62c78022e0","{""num_scrambled_semantic"":""8"",""num_scrambled_causal"":""4"",""num_scrambled_schematic"":""4"",""participantId"":""BE2747F319524D8EBA46EBA1941F9DF3"",""assignmentId"":""0198be8c-3a10-7046-be21-8a66a8ae6a81"",""projectId"":""0198be8b-78cf-72d2-ba2b-1e62c78022e0""}","https://test12345.live/?num_scrambled_semantic=8&num_scrambled_causal=4&num_scrambled_schematic=4&participantId=BE2747F319524D8EBA46EBA1941F9DF3&assignmentId=0198be8c-3a10-7046-be21-8a66a8ae6a81&projectId=0198be8b-78cf-72d2-ba2b-1e62c78022e0","BE2747F319524D8EBA46EBA1941F9DF3-2025-08-18-19-23-32","","588","","images/causal_sequence/dog_causal/dog_causal_3.png","0","",""
"","","","","","image-button-response","65","297098","0.0-12.0-1.0-2.2","BE2747F319524D8EBA46EBA1941F9DF3","BE2747F319524D8EBA46EBA1941F9DF3","0198be8c-3a10-7046-be21-8a66a8ae6a81","0198be8b-78cf-72d2-ba2b-1e62c78022e0","{""num_scrambled_semantic"":""8"",""num_scrambled_causal"":""4"",""num_scrambled_schematic"":""4"",""participantId"":""BE2747F319524D8EBA46EBA1941F9DF3"",""assignmentId"":""0198be8c-3a10-7046-be21-8a66a8ae6a81"",""projectId"":""0198be8b-78cf-72d2-ba2b-1e62c78022e0""}","https://test12345.live/?num_scrambled_semantic=8&num_scrambled_causal=4&num_scrambled_schematic=4&participantId=BE2747F319524D8EBA46EBA1941F9DF3&assignmentId=0198be8c-3a10-7046-be21-8a66a8ae6a81&projectId=0198be8b-78cf-72d2-ba2b-1e62c78022e0","BE2747F319524D8EBA46EBA1941F9DF3-2025-08-18-19-23-32","","null","","[]","null","",""
"","","","","","image-button-response","66","301608","0.0-12.0-1.0-0.3","BE2747F319524D8EBA46EBA1941F9DF3","BE2747F319524D8EBA46EBA1941F9DF3","0198be8c-3a10-7046-be21-8a66a8ae6a81","0198be8b-78cf-72d2-ba2b-1e62c78022e0","{""num_scrambled_semantic"":""8"",""num_scrambled_causal"":""4"",""num_scrambled_schematic"":""4"",""participantId"":""BE2747F319524D8EBA46EBA1941F9DF3"",""assignmentId"":""0198be8c-3a10-7046-be21-8a66a8ae6a81"",""projectId"":""0198be8b-78cf-72d2-ba2b-1e62c78022e0""}","https://test12345.live/?num_scrambled_semantic=8&num_scrambled_causal=4&num_scrambled_schematic=4&participantId=BE2747F319524D8EBA46EBA1941F9DF3&assignmentId=0198be8c-3a10-7046-be21-8a66a8ae6a81&projectId=0198be8b-78cf-72d2-ba2b-1e62c78022e0","BE2747F319524D8EBA46EBA1941F9DF3-2025-08-18-19-23-32","","null","","images/causal_sequence/dog_causal/dog_causal_4.png","null","",""
"","","","","","image-button-response","67","302297","0.0-12.0-1.0-1.3","BE2747F319524D8EBA46EBA1941F9DF3","BE2747F319524D8EBA46EBA1941F9DF3","0198be8c-3a10-7046-be21-8a66a8ae6a81","0198be8b-78cf-72d2-ba2b-1e62c78022e0","{""num_scrambled_semantic"":""8"",""num_scrambled_causal"":""4"",""num_scrambled_schematic"":""4"",""participantId"":""BE2747F319524D8EBA46EBA1941F9DF3"",""assignmentId"":""0198be8c-3a10-7046-be21-8a66a8ae6a81"",""projectId"":""0198be8b-78cf-72d2-ba2b-1e62c78022e0""}","https://test12345.live/?num_scrambled_semantic=8&num_scrambled_causal=4&num_scrambled_schematic=4&participantId=BE2747F319524D8EBA46EBA1941F9DF3&assignmentId=0198be8c-3a10-7046-be21-8a66a8ae6a81&projectId=0198be8b-78cf-72d2-ba2b-1e62c78022e0","BE2747F319524D8EBA46EBA1941F9DF3-2025-08-18-19-23-32","","688","","images/causal_sequence/dog_causal/dog_causal_4.png","0","",""
"","","","","","image-button-response","68","304107","0.0-12.0-1.0-2.3","BE2747F319524D8EBA46EBA1941F9DF3","BE2747F319524D8EBA46EBA1941F9DF3","0198be8c-3a10-7046-be21-8a66a8ae6a81","0198be8b-78cf-72d2-ba2b-1e62c78022e0","{""num_scrambled_semantic"":""8"",""num_scrambled_causal"":""4"",""num_scrambled_schematic"":""4"",""participantId"":""BE2747F319524D8EBA46EBA1941F9DF3"",""assignmentId"":""0198be8c-3a10-7046-be21-8a66a8ae6a81"",""projectId"":""0198be8b-78cf-72d2-ba2b-1e62c78022e0""}","https://test12345.live/?num_scrambled_semantic=8&num_scrambled_causal=4&num_scrambled_schematic=4&participantId=BE2747F319524D8EBA46EBA1941F9DF3&assignmentId=0198be8c-3a10-7046-be21-8a66a8ae6a81&projectId=0198be8b-78cf-72d2-ba2b-1e62c78022e0","BE2747F319524D8EBA46EBA1941F9DF3-2025-08-18-19-23-32","","null","","[]","null","",""
"","","","","","image-button-response","69","308609","0.0-12.0-1.0-0.4","BE2747F319524D8EBA46EBA1941F9DF3","BE2747F319524D8EBA46EBA1941F9DF3","0198be8c-3a10-7046-be21-8a66a8ae6a81","0198be8b-78cf-72d2-ba2b-1e62c78022e0","{""num_scrambled_semantic"":""8"",""num_scrambled_causal"":""4"",""num_scrambled_schematic"":""4"",""participantId"":""BE2747F319524D8EBA46EBA1941F9DF3"",""assignmentId"":""0198be8c-3a10-7046-be21-8a66a8ae6a81"",""projectId"":""0198be8b-78cf-72d2-ba2b-1e62c78022e0""}","https://test12345.live/?num_scrambled_semantic=8&num_scrambled_causal=4&num_scrambled_schematic=4&participantId=BE2747F319524D8EBA46EBA1941F9DF3&assignmentId=0198be8c-3a10-7046-be21-8a66a8ae6a81&projectId=0198be8b-78cf-72d2-ba2b-1e62c78022e0","BE2747F319524D8EBA46EBA1941F9DF3-2025-08-18-19-23-32","","null","","images/causal_sequence/dog_causal/dog_causal_5.png","null","",""
"","","","","","image-button-response","70","309267","0.0-12.0-1.0-1.4","BE2747F319524D8EBA46EBA1941F9DF3","BE2747F319524D8EBA46EBA1941F9DF3","0198be8c-3a10-7046-be21-8a66a8ae6a81","0198be8b-78cf-72d2-ba2b-1e62c78022e0","{""num_scrambled_semantic"":""8"",""num_scrambled_causal"":""4"",""num_scrambled_schematic"":""4"",""participantId"":""BE2747F319524D8EBA46EBA1941F9DF3"",""assignmentId"":""0198be8c-3a10-7046-be21-8a66a8ae6a81"",""projectId"":""0198be8b-78cf-72d2-ba2b-1e62c78022e0""}","https://test12345.live/?num_scrambled_semantic=8&num_scrambled_causal=4&num_scrambled_schematic=4&participantId=BE2747F319524D8EBA46EBA1941F9DF3&assignmentId=0198be8c-3a10-7046-be21-8a66a8ae6a81&projectId=0198be8b-78cf-72d2-ba2b-1e62c78022e0","BE2747F319524D8EBA46EBA1941F9DF3-2025-08-18-19-23-32","","657","","images/causal_sequence/dog_causal/dog_causal_5.png","0","",""
"","","","","","image-button-response","71","311076","0.0-12.0-1.0-2.4","BE2747F319524D8EBA46EBA1941F9DF3","BE2747F319524D8EBA46EBA1941F9DF3","0198be8c-3a10-7046-be21-8a66a8ae6a81","0198be8b-78cf-72d2-ba2b-1e62c78022e0","{""num_scrambled_semantic"":""8"",""num_scrambled_causal"":""4"",""num_scrambled_schematic"":""4"",""participantId"":""BE2747F319524D8EBA46EBA1941F9DF3"",""assignmentId"":""0198be8c-3a10-7046-be21-8a66a8ae6a81"",""projectId"":""0198be8b-78cf-72d2-ba2b-1e62c78022e0""}","https://test12345.live/?num_scrambled_semantic=8&num_scrambled_causal=4&num_scrambled_schematic=4&participantId=BE2747F319524D8EBA46EBA1941F9DF3&assignmentId=0198be8c-3a10-7046-be21-8a66a8ae6a81&projectId=0198be8b-78cf-72d2-ba2b-1e62c78022e0","BE2747F319524D8EBA46EBA1941F9DF3-2025-08-18-19-23-32","","null","","[]","null","",""
"","","","","","image-button-response","72","315578","0.0-12.0-1.0-0.5","BE2747F319524D8EBA46EBA1941F9DF3","BE2747F319524D8EBA46EBA1941F9DF3","0198be8c-3a10-7046-be21-8a66a8ae6a81","0198be8b-78cf-72d2-ba2b-1e62c78022e0","{""num_scrambled_semantic"":""8"",""num_scrambled_causal"":""4"",""num_scrambled_schematic"":""4"",""participantId"":""BE2747F319524D8EBA46EBA1941F9DF3"",""assignmentId"":""0198be8c-3a10-7046-be21-8a66a8ae6a81"",""projectId"":""0198be8b-78cf-72d2-ba2b-1e62c78022e0""}","https://test12345.live/?num_scrambled_semantic=8&num_scrambled_causal=4&num_scrambled_schematic=4&participantId=BE2747F319524D8EBA46EBA1941F9DF3&assignmentId=0198be8c-3a10-7046-be21-8a66a8ae6a81&projectId=0198be8b-78cf-72d2-ba2b-1e62c78022e0","BE2747F319524D8EBA46EBA1941F9DF3-2025-08-18-19-23-32","","null","","images/causal_sequence/dog_causal/dog_causal_6.png","null","",""
"","","","","","image-button-response","73","315951","0.0-12.0-1.0-1.5","BE2747F319524D8EBA46EBA1941F9DF3","BE2747F319524D8EBA46EBA1941F9DF3","0198be8c-3a10-7046-be21-8a66a8ae6a81","0198be8b-78cf-72d2-ba2b-1e62c78022e0","{""num_scrambled_semantic"":""8"",""num_scrambled_causal"":""4"",""num_scrambled_schematic"":""4"",""participantId"":""BE2747F319524D8EBA46EBA1941F9DF3"",""assignmentId"":""0198be8c-3a10-7046-be21-8a66a8ae6a81"",""projectId"":""0198be8b-78cf-72d2-ba2b-1e62c78022e0""}","https://test12345.live/?num_scrambled_semantic=8&num_scrambled_causal=4&num_scrambled_schematic=4&participantId=BE2747F319524D8EBA46EBA1941F9DF3&assignmentId=0198be8c-3a10-7046-be21-8a66a8ae6a81&projectId=0198be8b-78cf-72d2-ba2b-1e62c78022e0","BE2747F319524D8EBA46EBA1941F9DF3-2025-08-18-19-23-32","","372","","images/causal_sequence/dog_causal/dog_causal_6.png","0","",""
"","","","","","image-button-response","74","317753","0.0-12.0-1.0-2.5","BE2747F319524D8EBA46EBA1941F9DF3","BE2747F319524D8EBA46EBA1941F9DF3","0198be8c-3a10-7046-be21-8a66a8ae6a81","0198be8b-78cf-72d2-ba2b-1e62c78022e0","{""num_scrambled_semantic"":""8"",""num_scrambled_causal"":""4"",""num_scrambled_schematic"":""4"",""participantId"":""BE2747F319524D8EBA46EBA1941F9DF3"",""assignmentId"":""0198be8c-3a10-7046-be21-8a66a8ae6a81"",""projectId"":""0198be8b-78cf-72d2-ba2b-1e62c78022e0""}","https://test12345.live/?num_scrambled_semantic=8&num_scrambled_causal=4&num_scrambled_schematic=4&participantId=BE2747F319524D8EBA46EBA1941F9DF3&assignmentId=0198be8c-3a10-7046-be21-8a66a8ae6a81&projectId=0198be8b-78cf-72d2-ba2b-1e62c78022e0","BE2747F319524D8EBA46EBA1941F9DF3-2025-08-18-19-23-32","","null","","[]","null","",""
"","","","","","image-button-response","75","322263","0.0-12.0-1.0-0.6","BE2747F319524D8EBA46EBA1941F9DF3","BE2747F319524D8EBA46EBA1941F9DF3","0198be8c-3a10-7046-be21-8a66a8ae6a81","0198be8b-78cf-72d2-ba2b-1e62c78022e0","{""num_scrambled_semantic"":""8"",""num_scrambled_causal"":""4"",""num_scrambled_schematic"":""4"",""participantId"":""BE2747F319524D8EBA46EBA1941F9DF3"",""assignmentId"":""0198be8c-3a10-7046-be21-8a66a8ae6a81"",""projectId"":""0198be8b-78cf-72d2-ba2b-1e62c78022e0""}","https://test12345.live/?num_scrambled_semantic=8&num_scrambled_causal=4&num_scrambled_schematic=4&participantId=BE2747F319524D8EBA46EBA1941F9DF3&assignmentId=0198be8c-3a10-7046-be21-8a66a8ae6a81&projectId=0198be8b-78cf-72d2-ba2b-1e62c78022e0","BE2747F319524D8EBA46EBA1941F9DF3-2025-08-18-19-23-32","","null","","images/causal_sequence/dog_causal/dog_causal_7.png","null","",""
"","","","","","image-button-response","76","323472","0.0-12.0-1.0-1.6","BE2747F319524D8EBA46EBA1941F9DF3","BE2747F319524D8EBA46EBA1941F9DF3","0198be8c-3a10-7046-be21-8a66a8ae6a81","0198be8b-78cf-72d2-ba2b-1e62c78022e0","{""num_scrambled_semantic"":""8"",""num_scrambled_causal"":""4"",""num_scrambled_schematic"":""4"",""participantId"":""BE2747F319524D8EBA46EBA1941F9DF3"",""assignmentId"":""0198be8c-3a10-7046-be21-8a66a8ae6a81"",""projectId"":""0198be8b-78cf-72d2-ba2b-1e62c78022e0""}","https://test12345.live/?num_scrambled_semantic=8&num_scrambled_causal=4&num_scrambled_schematic=4&participantId=BE2747F319524D8EBA46EBA1941F9DF3&assignmentId=0198be8c-3a10-7046-be21-8a66a8ae6a81&projectId=0198be8b-78cf-72d2-ba2b-1e62c78022e0","BE2747F319524D8EBA46EBA1941F9DF3-2025-08-18-19-23-32","","1208","","images/causal_sequence/dog_causal/dog_causal_7.png","0","",""
"","","","","","image-button-response","77","325275","0.0-12.0-1.0-2.6","BE2747F319524D8EBA46EBA1941F9DF3","BE2747F319524D8EBA46EBA1941F9DF3","0198be8c-3a10-7046-be21-8a66a8ae6a81","0198be8b-78cf-72d2-ba2b-1e62c78022e0","{""num_scrambled_semantic"":""8"",""num_scrambled_causal"":""4"",""num_scrambled_schematic"":""4"",""participantId"":""BE2747F319524D8EBA46EBA1941F9DF3"",""assignmentId"":""0198be8c-3a10-7046-be21-8a66a8ae6a81"",""projectId"":""0198be8b-78cf-72d2-ba2b-1e62c78022e0""}","https://test12345.live/?num_scrambled_semantic=8&num_scrambled_causal=4&num_scrambled_schematic=4&participantId=BE2747F319524D8EBA46EBA1941F9DF3&assignmentId=0198be8c-3a10-7046-be21-8a66a8ae6a81&projectId=0198be8b-78cf-72d2-ba2b-1e62c78022e0","BE2747F319524D8EBA46EBA1941F9DF3-2025-08-18-19-23-32","","null","","[]","null","",""
"","","","","","image-button-response","78","329777","0.0-12.0-1.0-0.7","BE2747F319524D8EBA46EBA1941F9DF3","BE2747F319524D8EBA46EBA1941F9DF3","0198be8c-3a10-7046-be21-8a66a8ae6a81","0198be8b-78cf-72d2-ba2b-1e62c78022e0","{""num_scrambled_semantic"":""8"",""num_scrambled_causal"":""4"",""num_scrambled_schematic"":""4"",""participantId"":""BE2747F319524D8EBA46EBA1941F9DF3"",""assignmentId"":""0198be8c-3a10-7046-be21-8a66a8ae6a81"",""projectId"":""0198be8b-78cf-72d2-ba2b-1e62c78022e0""}","https://test12345.live/?num_scrambled_semantic=8&num_scrambled_causal=4&num_scrambled_schematic=4&participantId=BE2747F319524D8EBA46EBA1941F9DF3&assignmentId=0198be8c-3a10-7046-be21-8a66a8ae6a81&projectId=0198be8b-78cf-72d2-ba2b-1e62c78022e0","BE2747F319524D8EBA46EBA1941F9DF3-2025-08-18-19-23-32","","null","","images/causal_sequence/dog_causal/dog_causal_8.png","null","",""
"","","","","","image-button-response","79","330406","0.0-12.0-1.0-1.7","BE2747F319524D8EBA46EBA1941F9DF3","BE2747F319524D8EBA46EBA1941F9DF3","0198be8c-3a10-7046-be21-8a66a8ae6a81","0198be8b-78cf-72d2-ba2b-1e62c78022e0","{""num_scrambled_semantic"":""8"",""num_scrambled_causal"":""4"",""num_scrambled_schematic"":""4"",""participantId"":""BE2747F319524D8EBA46EBA1941F9DF3"",""assignmentId"":""0198be8c-3a10-7046-be21-8a66a8ae6a81"",""projectId"":""0198be8b-78cf-72d2-ba2b-1e62c78022e0""}","https://test12345.live/?num_scrambled_semantic=8&num_scrambled_causal=4&num_scrambled_schematic=4&participantId=BE2747F319524D8EBA46EBA1941F9DF3&assignmentId=0198be8c-3a10-7046-be21-8a66a8ae6a81&projectId=0198be8b-78cf-72d2-ba2b-1e62c78022e0","BE2747F319524D8EBA46EBA1941F9DF3-2025-08-18-19-23-32","","628","","images/causal_sequence/dog_causal/dog_causal_8.png","0","",""
"","","","","","image-button-response","80","332216","0.0-12.0-1.0-2.7","BE2747F319524D8EBA46EBA1941F9DF3","BE2747F319524D8EBA46EBA1941F9DF3","0198be8c-3a10-7046-be21-8a66a8ae6a81","0198be8b-78cf-72d2-ba2b-1e62c78022e0","{""num_scrambled_semantic"":""8"",""num_scrambled_causal"":""4"",""num_scrambled_schematic"":""4"",""participantId"":""BE2747F319524D8EBA46EBA1941F9DF3"",""assignmentId"":""0198be8c-3a10-7046-be21-8a66a8ae6a81"",""projectId"":""0198be8b-78cf-72d2-ba2b-1e62c78022e0""}","https://test12345.live/?num_scrambled_semantic=8&num_scrambled_causal=4&num_scrambled_schematic=4&participantId=BE2747F319524D8EBA46EBA1941F9DF3&assignmentId=0198be8c-3a10-7046-be21-8a66a8ae6a81&projectId=0198be8b-78cf-72d2-ba2b-1e62c78022e0","BE2747F319524D8EBA46EBA1941F9DF3-2025-08-18-19-23-32","","null","","[]","null","",""
"","","","","","image-button-response","81","336717","0.0-12.0-1.0-0.8","BE2747F319524D8EBA46EBA1941F9DF3","BE2747F319524D8EBA46EBA1941F9DF3","0198be8c-3a10-7046-be21-8a66a8ae6a81","0198be8b-78cf-72d2-ba2b-1e62c78022e0","{""num_scrambled_semantic"":""8"",""num_scrambled_causal"":""4"",""num_scrambled_schematic"":""4"",""participantId"":""BE2747F319524D8EBA46EBA1941F9DF3"",""assignmentId"":""0198be8c-3a10-7046-be21-8a66a8ae6a81"",""projectId"":""0198be8b-78cf-72d2-ba2b-1e62c78022e0""}","https://test12345.live/?num_scrambled_semantic=8&num_scrambled_causal=4&num_scrambled_schematic=4&participantId=BE2747F319524D8EBA46EBA1941F9DF3&assignmentId=0198be8c-3a10-7046-be21-8a66a8ae6a81&projectId=0198be8b-78cf-72d2-ba2b-1e62c78022e0","BE2747F319524D8EBA46EBA1941F9DF3-2025-08-18-19-23-32","","null","","images/causal_sequence/dog_causal/dog_causal_9.png","null","",""
"","","","","","image-button-response","82","337304","0.0-12.0-1.0-1.8","BE2747F319524D8EBA46EBA1941F9DF3","BE2747F319524D8EBA46EBA1941F9DF3","0198be8c-3a10-7046-be21-8a66a8ae6a81","0198be8b-78cf-72d2-ba2b-1e62c78022e0","{""num_scrambled_semantic"":""8"",""num_scrambled_causal"":""4"",""num_scrambled_schematic"":""4"",""participantId"":""BE2747F319524D8EBA46EBA1941F9DF3"",""assignmentId"":""0198be8c-3a10-7046-be21-8a66a8ae6a81"",""projectId"":""0198be8b-78cf-72d2-ba2b-1e62c78022e0""}","https://test12345.live/?num_scrambled_semantic=8&num_scrambled_causal=4&num_scrambled_schematic=4&participantId=BE2747F319524D8EBA46EBA1941F9DF3&assignmentId=0198be8c-3a10-7046-be21-8a66a8ae6a81&projectId=0198be8b-78cf-72d2-ba2b-1e62c78022e0","BE2747F319524D8EBA46EBA1941F9DF3-2025-08-18-19-23-32","","586","","images/causal_sequence/dog_causal/dog_causal_9.png","0","",""
"","","","","","image-button-response","83","339107","0.0-12.0-1.0-2.8","BE2747F319524D8EBA46EBA1941F9DF3","BE2747F319524D8EBA46EBA1941F9DF3","0198be8c-3a10-7046-be21-8a66a8ae6a81","0198be8b-78cf-72d2-ba2b-1e62c78022e0","{""num_scrambled_semantic"":""8"",""num_scrambled_causal"":""4"",""num_scrambled_schematic"":""4"",""participantId"":""BE2747F319524D8EBA46EBA1941F9DF3"",""assignmentId"":""0198be8c-3a10-7046-be21-8a66a8ae6a81"",""projectId"":""0198be8b-78cf-72d2-ba2b-1e62c78022e0""}","https://test12345.live/?num_scrambled_semantic=8&num_scrambled_causal=4&num_scrambled_schematic=4&participantId=BE2747F319524D8EBA46EBA1941F9DF3&assignmentId=0198be8c-3a10-7046-be21-8a66a8ae6a81&projectId=0198be8b-78cf-72d2-ba2b-1e62c78022e0","BE2747F319524D8EBA46EBA1941F9DF3-2025-08-18-19-23-32","","null","","[]","null","",""
"","","","","","image-button-response","84","343617","0.0-12.0-1.0-0.9","BE2747F319524D8EBA46EBA1941F9DF3","BE2747F319524D8EBA46EBA1941F9DF3","0198be8c-3a10-7046-be21-8a66a8ae6a81","0198be8b-78cf-72d2-ba2b-1e62c78022e0","{""num_scrambled_semantic"":""8"",""num_scrambled_causal"":""4"",""num_scrambled_schematic"":""4"",""participantId"":""BE2747F319524D8EBA46EBA1941F9DF3"",""assignmentId"":""0198be8c-3a10-7046-be21-8a66a8ae6a81"",""projectId"":""0198be8b-78cf-72d2-ba2b-1e62c78022e0""}","https://test12345.live/?num_scrambled_semantic=8&num_scrambled_causal=4&num_scrambled_schematic=4&participantId=BE2747F319524D8EBA46EBA1941F9DF3&assignmentId=0198be8c-3a10-7046-be21-8a66a8ae6a81&projectId=0198be8b-78cf-72d2-ba2b-1e62c78022e0","BE2747F319524D8EBA46EBA1941F9DF3-2025-08-18-19-23-32","","null","","images/causal_sequence/dog_causal/dog_causal_ten.png","null","",""
"","","","","","image-button-response","85","344009","0.0-12.0-1.0-1.9","BE2747F319524D8EBA46EBA1941F9DF3","BE2747F319524D8EBA46EBA1941F9DF3","0198be8c-3a10-7046-be21-8a66a8ae6a81","0198be8b-78cf-72d2-ba2b-1e62c78022e0","{""num_scrambled_semantic"":""8"",""num_scrambled_causal"":""4"",""num_scrambled_schematic"":""4"",""participantId"":""BE2747F319524D8EBA46EBA1941F9DF3"",""assignmentId"":""0198be8c-3a10-7046-be21-8a66a8ae6a81"",""projectId"":""0198be8b-78cf-72d2-ba2b-1e62c78022e0""}","https://test12345.live/?num_scrambled_semantic=8&num_scrambled_causal=4&num_scrambled_schematic=4&participantId=BE2747F319524D8EBA46EBA1941F9DF3&assignmentId=0198be8c-3a10-7046-be21-8a66a8ae6a81&projectId=0198be8b-78cf-72d2-ba2b-1e62c78022e0","BE2747F319524D8EBA46EBA1941F9DF3-2025-08-18-19-23-32","","391","","images/causal_sequence/dog_causal/dog_causal_ten.png","0","",""
"","","","","","image-button-response","86","345816","0.0-12.0-1.0-2.9","BE2747F319524D8EBA46EBA1941F9DF3","BE2747F319524D8EBA46EBA1941F9DF3","0198be8c-3a10-7046-be21-8a66a8ae6a81","0198be8b-78cf-72d2-ba2b-1e62c78022e0","{""num_scrambled_semantic"":""8"",""num_scrambled_causal"":""4"",""num_scrambled_schematic"":""4"",""participantId"":""BE2747F319524D8EBA46EBA1941F9DF3"",""assignmentId"":""0198be8c-3a10-7046-be21-8a66a8ae6a81"",""projectId"":""0198be8b-78cf-72d2-ba2b-1e62c78022e0""}","https://test12345.live/?num_scrambled_semantic=8&num_scrambled_causal=4&num_scrambled_schematic=4&participantId=BE2747F319524D8EBA46EBA1941F9DF3&assignmentId=0198be8c-3a10-7046-be21-8a66a8ae6a81&projectId=0198be8b-78cf-72d2-ba2b-1e62c78022e0","BE2747F319524D8EBA46EBA1941F9DF3-2025-08-18-19-23-32","","null","","[]","null","",""
"","","","","","html-audio-response","87","370023","0.0-13.0","BE2747F319524D8EBA46EBA1941F9DF3","BE2747F319524D8EBA46EBA1941F9DF3","0198be8c-3a10-7046-be21-8a66a8ae6a81","0198be8b-78cf-72d2-ba2b-1e62c78022e0","{""num_scrambled_semantic"":""8"",""num_scrambled_causal"":""4"",""num_scrambled_schematic"":""4"",""participantId"":""BE2747F319524D8EBA46EBA1941F9DF3"",""assignmentId"":""0198be8c-3a10-7046-be21-8a66a8ae6a81"",""projectId"":""0198be8b-78cf-72d2-ba2b-1e62c78022e0""}","https://test12345.live/?num_scrambled_semantic=8&num_scrambled_causal=4&num_scrambled_schematic=4&participantId=BE2747F319524D8EBA46EBA1941F9DF3&assignmentId=0198be8c-3a10-7046-be21-8a66a8ae6a81&projectId=0198be8b-78cf-72d2-ba2b-1e62c78022e0","BE2747F319524D8EBA46EBA1941F9DF3-2025-08-18-19-23-32","","23267","","[""<span style=\""color: red; font-size: 24px\""> NOW RECORDING</span><p>Please say out loud all the images you saw, in the order of the story they create. Try to recall the sequence of events as they appeared in the story, not necessarily the order they were presented on the screen.</p>""]","","2","dog_causal"
"","","","","","image-button-response","88","376043","0.0-14.0-0.0","BE2747F319524D8EBA46EBA1941F9DF3","BE2747F319524D8EBA46EBA1941F9DF3","0198be8c-3a10-7046-be21-8a66a8ae6a81","0198be8b-78cf-72d2-ba2b-1e62c78022e0","{""num_scrambled_semantic"":""8"",""num_scrambled_causal"":""4"",""num_scrambled_schematic"":""4"",""participantId"":""BE2747F319524D8EBA46EBA1941F9DF3"",""assignmentId"":""0198be8c-3a10-7046-be21-8a66a8ae6a81"",""projectId"":""0198be8b-78cf-72d2-ba2b-1e62c78022e0""}","https://test12345.live/?num_scrambled_semantic=8&num_scrambled_causal=4&num_scrambled_schematic=4&participantId=BE2747F319524D8EBA46EBA1941F9DF3&assignmentId=0198be8c-3a10-7046-be21-8a66a8ae6a81&projectId=0198be8b-78cf-72d2-ba2b-1e62c78022e0","BE2747F319524D8EBA46EBA1941F9DF3-2025-08-18-19-23-32","","null","","images/semantic_sequence/housework_semantic/housework_semantic_0.png","null","",""
"","","","","","image-button-response","89","380548","0.0-14.0-1.0-0.0","BE2747F319524D8EBA46EBA1941F9DF3","BE2747F319524D8EBA46EBA1941F9DF3","0198be8c-3a10-7046-be21-8a66a8ae6a81","0198be8b-78cf-72d2-ba2b-1e62c78022e0","{""num_scrambled_semantic"":""8"",""num_scrambled_causal"":""4"",""num_scrambled_schematic"":""4"",""participantId"":""BE2747F319524D8EBA46EBA1941F9DF3"",""assignmentId"":""0198be8c-3a10-7046-be21-8a66a8ae6a81"",""projectId"":""0198be8b-78cf-72d2-ba2b-1e62c78022e0""}","https://test12345.live/?num_scrambled_semantic=8&num_scrambled_causal=4&num_scrambled_schematic=4&participantId=BE2747F319524D8EBA46EBA1941F9DF3&assignmentId=0198be8c-3a10-7046-be21-8a66a8ae6a81&projectId=0198be8b-78cf-72d2-ba2b-1e62c78022e0","BE2747F319524D8EBA46EBA1941F9DF3-2025-08-18-19-23-32","","null","","images/semantic_sequence/housework_semantic/housework_semantic_8.png","null","",""
"","","","","","image-button-response","90","383515","0.0-14.0-1.0-1.0","BE2747F319524D8EBA46EBA1941F9DF3","BE2747F319524D8EBA46EBA1941F9DF3","0198be8c-3a10-7046-be21-8a66a8ae6a81","0198be8b-78cf-72d2-ba2b-1e62c78022e0","{""num_scrambled_semantic"":""8"",""num_scrambled_causal"":""4"",""num_scrambled_schematic"":""4"",""participantId"":""BE2747F319524D8EBA46EBA1941F9DF3"",""assignmentId"":""0198be8c-3a10-7046-be21-8a66a8ae6a81"",""projectId"":""0198be8b-78cf-72d2-ba2b-1e62c78022e0""}","https://test12345.live/?num_scrambled_semantic=8&num_scrambled_causal=4&num_scrambled_schematic=4&participantId=BE2747F319524D8EBA46EBA1941F9DF3&assignmentId=0198be8c-3a10-7046-be21-8a66a8ae6a81&projectId=0198be8b-78cf-72d2-ba2b-1e62c78022e0","BE2747F319524D8EBA46EBA1941F9DF3-2025-08-18-19-23-32","","2966","","images/semantic_sequence/housework_semantic/housework_semantic_8.png","0","",""
"","","","","","image-button-response","91","385320","0.0-14.0-1.0-2.0","BE2747F319524D8EBA46EBA1941F9DF3","BE2747F319524D8EBA46EBA1941F9DF3","0198be8c-3a10-7046-be21-8a66a8ae6a81","0198be8b-78cf-72d2-ba2b-1e62c78022e0","{""num_scrambled_semantic"":""8"",""num_scrambled_causal"":""4"",""num_scrambled_schematic"":""4"",""participantId"":""BE2747F319524D8EBA46EBA1941F9DF3"",""assignmentId"":""0198be8c-3a10-7046-be21-8a66a8ae6a81"",""projectId"":""0198be8b-78cf-72d2-ba2b-1e62c78022e0""}","https://test12345.live/?num_scrambled_semantic=8&num_scrambled_causal=4&num_scrambled_schematic=4&participantId=BE2747F319524D8EBA46EBA1941F9DF3&assignmentId=0198be8c-3a10-7046-be21-8a66a8ae6a81&projectId=0198be8b-78cf-72d2-ba2b-1e62c78022e0","BE2747F319524D8EBA46EBA1941F9DF3-2025-08-18-19-23-32","","null","","[]","null","",""
"","","","","","image-button-response","92","389834","0.0-14.0-1.0-0.1","BE2747F319524D8EBA46EBA1941F9DF3","BE2747F319524D8EBA46EBA1941F9DF3","0198be8c-3a10-7046-be21-8a66a8ae6a81","0198be8b-78cf-72d2-ba2b-1e62c78022e0","{""num_scrambled_semantic"":""8"",""num_scrambled_causal"":""4"",""num_scrambled_schematic"":""4"",""participantId"":""BE2747F319524D8EBA46EBA1941F9DF3"",""assignmentId"":""0198be8c-3a10-7046-be21-8a66a8ae6a81"",""projectId"":""0198be8b-78cf-72d2-ba2b-1e62c78022e0""}","https://test12345.live/?num_scrambled_semantic=8&num_scrambled_causal=4&num_scrambled_schematic=4&participantId=BE2747F319524D8EBA46EBA1941F9DF3&assignmentId=0198be8c-3a10-7046-be21-8a66a8ae6a81&projectId=0198be8b-78cf-72d2-ba2b-1e62c78022e0","BE2747F319524D8EBA46EBA1941F9DF3-2025-08-18-19-23-32","","null","","images/semantic_sequence/housework_semantic/housework_semantic_2.png","null","",""
"","","","","","image-button-response","93","391029","0.0-14.0-1.0-1.1","BE2747F319524D8EBA46EBA1941F9DF3","BE2747F319524D8EBA46EBA1941F9DF3","0198be8c-3a10-7046-be21-8a66a8ae6a81","0198be8b-78cf-72d2-ba2b-1e62c78022e0","{""num_scrambled_semantic"":""8"",""num_scrambled_causal"":""4"",""num_scrambled_schematic"":""4"",""participantId"":""BE2747F319524D8EBA46EBA1941F9DF3"",""assignmentId"":""0198be8c-3a10-7046-be21-8a66a8ae6a81"",""projectId"":""0198be8b-78cf-72d2-ba2b-1e62c78022e0""}","https://test12345.live/?num_scrambled_semantic=8&num_scrambled_causal=4&num_scrambled_schematic=4&participantId=BE2747F319524D8EBA46EBA1941F9DF3&assignmentId=0198be8c-3a10-7046-be21-8a66a8ae6a81&projectId=0198be8b-78cf-72d2-ba2b-1e62c78022e0","BE2747F319524D8EBA46EBA1941F9DF3-2025-08-18-19-23-32","","1195","","images/semantic_sequence/housework_semantic/housework_semantic_2.png","0","",""
"","","","","","image-button-response","94","392845","0.0-14.0-1.0-2.1","BE2747F319524D8EBA46EBA1941F9DF3","BE2747F319524D8EBA46EBA1941F9DF3","0198be8c-3a10-7046-be21-8a66a8ae6a81","0198be8b-78cf-72d2-ba2b-1e62c78022e0","{""num_scrambled_semantic"":""8"",""num_scrambled_causal"":""4"",""num_scrambled_schematic"":""4"",""participantId"":""BE2747F319524D8EBA46EBA1941F9DF3"",""assignmentId"":""0198be8c-3a10-7046-be21-8a66a8ae6a81"",""projectId"":""0198be8b-78cf-72d2-ba2b-1e62c78022e0""}","https://test12345.live/?num_scrambled_semantic=8&num_scrambled_causal=4&num_scrambled_schematic=4&participantId=BE2747F319524D8EBA46EBA1941F9DF3&assignmentId=0198be8c-3a10-7046-be21-8a66a8ae6a81&projectId=0198be8b-78cf-72d2-ba2b-1e62c78022e0","BE2747F319524D8EBA46EBA1941F9DF3-2025-08-18-19-23-32","","null","","[]","null","",""
"","","","","","image-button-response","95","397355","0.0-14.0-1.0-0.2","BE2747F319524D8EBA46EBA1941F9DF3","BE2747F319524D8EBA46EBA1941F9DF3","0198be8c-3a10-7046-be21-8a66a8ae6a81","0198be8b-78cf-72d2-ba2b-1e62c78022e0","{""num_scrambled_semantic"":""8"",""num_scrambled_causal"":""4"",""num_scrambled_schematic"":""4"",""participantId"":""BE2747F319524D8EBA46EBA1941F9DF3"",""assignmentId"":""0198be8c-3a10-7046-be21-8a66a8ae6a81"",""projectId"":""0198be8b-78cf-72d2-ba2b-1e62c78022e0""}","https://test12345.live/?num_scrambled_semantic=8&num_scrambled_causal=4&num_scrambled_schematic=4&participantId=BE2747F319524D8EBA46EBA1941F9DF3&assignmentId=0198be8c-3a10-7046-be21-8a66a8ae6a81&projectId=0198be8b-78cf-72d2-ba2b-1e62c78022e0","BE2747F319524D8EBA46EBA1941F9DF3-2025-08-18-19-23-32","","null","","images/semantic_sequence/housework_semantic/housework_semantic_3.png","null","",""
"","","","","","image-button-response","96","398062","0.0-14.0-1.0-1.2","BE2747F319524D8EBA46EBA1941F9DF3","BE2747F319524D8EBA46EBA1941F9DF3","0198be8c-3a10-7046-be21-8a66a8ae6a81","0198be8b-78cf-72d2-ba2b-1e62c78022e0","{""num_scrambled_semantic"":""8"",""num_scrambled_causal"":""4"",""num_scrambled_schematic"":""4"",""participantId"":""BE2747F319524D8EBA46EBA1941F9DF3"",""assignmentId"":""0198be8c-3a10-7046-be21-8a66a8ae6a81"",""projectId"":""0198be8b-78cf-72d2-ba2b-1e62c78022e0""}","https://test12345.live/?num_scrambled_semantic=8&num_scrambled_causal=4&num_scrambled_schematic=4&participantId=BE2747F319524D8EBA46EBA1941F9DF3&assignmentId=0198be8c-3a10-7046-be21-8a66a8ae6a81&projectId=0198be8b-78cf-72d2-ba2b-1e62c78022e0","BE2747F319524D8EBA46EBA1941F9DF3-2025-08-18-19-23-32","","706","","images/semantic_sequence/housework_semantic/housework_semantic_3.png","0","",""
"","","","","","image-button-response","97","399870","0.0-14.0-1.0-2.2","BE2747F319524D8EBA46EBA1941F9DF3","BE2747F319524D8EBA46EBA1941F9DF3","0198be8c-3a10-7046-be21-8a66a8ae6a81","0198be8b-78cf-72d2-ba2b-1e62c78022e0","{""num_scrambled_semantic"":""8"",""num_scrambled_causal"":""4"",""num_scrambled_schematic"":""4"",""participantId"":""BE2747F319524D8EBA46EBA1941F9DF3"",""assignmentId"":""0198be8c-3a10-7046-be21-8a66a8ae6a81"",""projectId"":""0198be8b-78cf-72d2-ba2b-1e62c78022e0""}","https://test12345.live/?num_scrambled_semantic=8&num_scrambled_causal=4&num_scrambled_schematic=4&participantId=BE2747F319524D8EBA46EBA1941F9DF3&assignmentId=0198be8c-3a10-7046-be21-8a66a8ae6a81&projectId=0198be8b-78cf-72d2-ba2b-1e62c78022e0","BE2747F319524D8EBA46EBA1941F9DF3-2025-08-18-19-23-32","","null","","[]","null","",""
"","","","","","image-button-response","98","404374","0.0-14.0-1.0-0.3","BE2747F319524D8EBA46EBA1941F9DF3","BE2747F319524D8EBA46EBA1941F9DF3","0198be8c-3a10-7046-be21-8a66a8ae6a81","0198be8b-78cf-72d2-ba2b-1e62c78022e0","{""num_scrambled_semantic"":""8"",""num_scrambled_causal"":""4"",""num_scrambled_schematic"":""4"",""participantId"":""BE2747F319524D8EBA46EBA1941F9DF3"",""assignmentId"":""0198be8c-3a10-7046-be21-8a66a8ae6a81"",""projectId"":""0198be8b-78cf-72d2-ba2b-1e62c78022e0""}","https://test12345.live/?num_scrambled_semantic=8&num_scrambled_causal=4&num_scrambled_schematic=4&participantId=BE2747F319524D8EBA46EBA1941F9DF3&assignmentId=0198be8c-3a10-7046-be21-8a66a8ae6a81&projectId=0198be8b-78cf-72d2-ba2b-1e62c78022e0","BE2747F319524D8EBA46EBA1941F9DF3-2025-08-18-19-23-32","","null","","images/semantic_sequence/housework_semantic/housework_semantic_5.png","null","",""
"","","","","","image-button-response","99","405498","0.0-14.0-1.0-1.3","BE2747F319524D8EBA46EBA1941F9DF3","BE2747F319524D8EBA46EBA1941F9DF3","0198be8c-3a10-7046-be21-8a66a8ae6a81","0198be8b-78cf-72d2-ba2b-1e62c78022e0","{""num_scrambled_semantic"":""8"",""num_scrambled_causal"":""4"",""num_scrambled_schematic"":""4"",""participantId"":""BE2747F319524D8EBA46EBA1941F9DF3"",""assignmentId"":""0198be8c-3a10-7046-be21-8a66a8ae6a81"",""projectId"":""0198be8b-78cf-72d2-ba2b-1e62c78022e0""}","https://test12345.live/?num_scrambled_semantic=8&num_scrambled_causal=4&num_scrambled_schematic=4&participantId=BE2747F319524D8EBA46EBA1941F9DF3&assignmentId=0198be8c-3a10-7046-be21-8a66a8ae6a81&projectId=0198be8b-78cf-72d2-ba2b-1e62c78022e0","BE2747F319524D8EBA46EBA1941F9DF3-2025-08-18-19-23-32","","1123","","images/semantic_sequence/housework_semantic/housework_semantic_5.png","0","",""
"","","","","","image-button-response","100","407310","0.0-14.0-1.0-2.3","BE2747F319524D8EBA46EBA1941F9DF3","BE2747F319524D8EBA46EBA1941F9DF3","0198be8c-3a10-7046-be21-8a66a8ae6a81","0198be8b-78cf-72d2-ba2b-1e62c78022e0","{""num_scrambled_semantic"":""8"",""num_scrambled_causal"":""4"",""num_scrambled_schematic"":""4"",""participantId"":""BE2747F319524D8EBA46EBA1941F9DF3"",""assignmentId"":""0198be8c-3a10-7046-be21-8a66a8ae6a81"",""projectId"":""0198be8b-78cf-72d2-ba2b-1e62c78022e0""}","https://test12345.live/?num_scrambled_semantic=8&num_scrambled_causal=4&num_scrambled_schematic=4&participantId=BE2747F319524D8EBA46EBA1941F9DF3&assignmentId=0198be8c-3a10-7046-be21-8a66a8ae6a81&projectId=0198be8b-78cf-72d2-ba2b-1e62c78022e0","BE2747F319524D8EBA46EBA1941F9DF3-2025-08-18-19-23-32","","null","","[]","null","",""
"","","","","","image-button-response","101","411811","0.0-14.0-1.0-0.4","BE2747F319524D8EBA46EBA1941F9DF3","BE2747F319524D8EBA46EBA1941F9DF3","0198be8c-3a10-7046-be21-8a66a8ae6a81","0198be8b-78cf-72d2-ba2b-1e62c78022e0","{""num_scrambled_semantic"":""8"",""num_scrambled_causal"":""4"",""num_scrambled_schematic"":""4"",""participantId"":""BE2747F319524D8EBA46EBA1941F9DF3"",""assignmentId"":""0198be8c-3a10-7046-be21-8a66a8ae6a81"",""projectId"":""0198be8b-78cf-72d2-ba2b-1e62c78022e0""}","https://test12345.live/?num_scrambled_semantic=8&num_scrambled_causal=4&num_scrambled_schematic=4&participantId=BE2747F319524D8EBA46EBA1941F9DF3&assignmentId=0198be8c-3a10-7046-be21-8a66a8ae6a81&projectId=0198be8b-78cf-72d2-ba2b-1e62c78022e0","BE2747F319524D8EBA46EBA1941F9DF3-2025-08-18-19-23-32","","null","","images/semantic_sequence/housework_semantic/housework_semantic_6.png","null","",""
"","","","","","image-button-response","102","415825","0.0-14.0-1.0-1.4","BE2747F319524D8EBA46EBA1941F9DF3","BE2747F319524D8EBA46EBA1941F9DF3","0198be8c-3a10-7046-be21-8a66a8ae6a81","0198be8b-78cf-72d2-ba2b-1e62c78022e0","{""num_scrambled_semantic"":""8"",""num_scrambled_causal"":""4"",""num_scrambled_schematic"":""4"",""participantId"":""BE2747F319524D8EBA46EBA1941F9DF3"",""assignmentId"":""0198be8c-3a10-7046-be21-8a66a8ae6a81"",""projectId"":""0198be8b-78cf-72d2-ba2b-1e62c78022e0""}","https://test12345.live/?num_scrambled_semantic=8&num_scrambled_causal=4&num_scrambled_schematic=4&participantId=BE2747F319524D8EBA46EBA1941F9DF3&assignmentId=0198be8c-3a10-7046-be21-8a66a8ae6a81&projectId=0198be8b-78cf-72d2-ba2b-1e62c78022e0","BE2747F319524D8EBA46EBA1941F9DF3-2025-08-18-19-23-32","","null","","images/semantic_sequence/housework_semantic/housework_semantic_6.png","null","",""
"","","","","","image-button-response","103","417634","0.0-14.0-1.0-2.4","BE2747F319524D8EBA46EBA1941F9DF3","BE2747F319524D8EBA46EBA1941F9DF3","0198be8c-3a10-7046-be21-8a66a8ae6a81","0198be8b-78cf-72d2-ba2b-1e62c78022e0","{""num_scrambled_semantic"":""8"",""num_scrambled_causal"":""4"",""num_scrambled_schematic"":""4"",""participantId"":""BE2747F319524D8EBA46EBA1941F9DF3"",""assignmentId"":""0198be8c-3a10-7046-be21-8a66a8ae6a81"",""projectId"":""0198be8b-78cf-72d2-ba2b-1e62c78022e0""}","https://test12345.live/?num_scrambled_semantic=8&num_scrambled_causal=4&num_scrambled_schematic=4&participantId=BE2747F319524D8EBA46EBA1941F9DF3&assignmentId=0198be8c-3a10-7046-be21-8a66a8ae6a81&projectId=0198be8b-78cf-72d2-ba2b-1e62c78022e0","BE2747F319524D8EBA46EBA1941F9DF3-2025-08-18-19-23-32","","null","","[]","null","",""
"","","","","","image-button-response","104","422141","0.0-14.0-1.0-0.5","BE2747F319524D8EBA46EBA1941F9DF3","BE2747F319524D8EBA46EBA1941F9DF3","0198be8c-3a10-7046-be21-8a66a8ae6a81","0198be8b-78cf-72d2-ba2b-1e62c78022e0","{""num_scrambled_semantic"":""8"",""num_scrambled_causal"":""4"",""num_scrambled_schematic"":""4"",""participantId"":""BE2747F319524D8EBA46EBA1941F9DF3"",""assignmentId"":""0198be8c-3a10-7046-be21-8a66a8ae6a81"",""projectId"":""0198be8b-78cf-72d2-ba2b-1e62c78022e0""}","https://test12345.live/?num_scrambled_semantic=8&num_scrambled_causal=4&num_scrambled_schematic=4&participantId=BE2747F319524D8EBA46EBA1941F9DF3&assignmentId=0198be8c-3a10-7046-be21-8a66a8ae6a81&projectId=0198be8b-78cf-72d2-ba2b-1e62c78022e0","BE2747F319524D8EBA46EBA1941F9DF3-2025-08-18-19-23-32","","null","","images/semantic_sequence/housework_semantic/housework_semantic_4.png","null","",""
"","","","","","image-button-response","105","423730","0.0-14.0-1.0-1.5","BE2747F319524D8EBA46EBA1941F9DF3","BE2747F319524D8EBA46EBA1941F9DF3","0198be8c-3a10-7046-be21-8a66a8ae6a81","0198be8b-78cf-72d2-ba2b-1e62c78022e0","{""num_scrambled_semantic"":""8"",""num_scrambled_causal"":""4"",""num_scrambled_schematic"":""4"",""participantId"":""BE2747F319524D8EBA46EBA1941F9DF3"",""assignmentId"":""0198be8c-3a10-7046-be21-8a66a8ae6a81"",""projectId"":""0198be8b-78cf-72d2-ba2b-1e62c78022e0""}","https://test12345.live/?num_scrambled_semantic=8&num_scrambled_causal=4&num_scrambled_schematic=4&participantId=BE2747F319524D8EBA46EBA1941F9DF3&assignmentId=0198be8c-3a10-7046-be21-8a66a8ae6a81&projectId=0198be8b-78cf-72d2-ba2b-1e62c78022e0","BE2747F319524D8EBA46EBA1941F9DF3-2025-08-18-19-23-32","","1588","","images/semantic_sequence/housework_semantic/housework_semantic_4.png","0","",""
"","","","","","image-button-response","106","425535","0.0-14.0-1.0-2.5","BE2747F319524D8EBA46EBA1941F9DF3","BE2747F319524D8EBA46EBA1941F9DF3","0198be8c-3a10-7046-be21-8a66a8ae6a81","0198be8b-78cf-72d2-ba2b-1e62c78022e0","{""num_scrambled_semantic"":""8"",""num_scrambled_causal"":""4"",""num_scrambled_schematic"":""4"",""participantId"":""BE2747F319524D8EBA46EBA1941F9DF3"",""assignmentId"":""0198be8c-3a10-7046-be21-8a66a8ae6a81"",""projectId"":""0198be8b-78cf-72d2-ba2b-1e62c78022e0""}","https://test12345.live/?num_scrambled_semantic=8&num_scrambled_causal=4&num_scrambled_schematic=4&participantId=BE2747F319524D8EBA46EBA1941F9DF3&assignmentId=0198be8c-3a10-7046-be21-8a66a8ae6a81&projectId=0198be8b-78cf-72d2-ba2b-1e62c78022e0","BE2747F319524D8EBA46EBA1941F9DF3-2025-08-18-19-23-32","","null","","[]","null","",""
"","","","","","image-button-response","107","430049","0.0-14.0-1.0-0.6","BE2747F319524D8EBA46EBA1941F9DF3","BE2747F319524D8EBA46EBA1941F9DF3","0198be8c-3a10-7046-be21-8a66a8ae6a81","0198be8b-78cf-72d2-ba2b-1e62c78022e0","{""num_scrambled_semantic"":""8"",""num_scrambled_causal"":""4"",""num_scrambled_schematic"":""4"",""participantId"":""BE2747F319524D8EBA46EBA1941F9DF3"",""assignmentId"":""0198be8c-3a10-7046-be21-8a66a8ae6a81"",""projectId"":""0198be8b-78cf-72d2-ba2b-1e62c78022e0""}","https://test12345.live/?num_scrambled_semantic=8&num_scrambled_causal=4&num_scrambled_schematic=4&participantId=BE2747F319524D8EBA46EBA1941F9DF3&assignmentId=0198be8c-3a10-7046-be21-8a66a8ae6a81&projectId=0198be8b-78cf-72d2-ba2b-1e62c78022e0","BE2747F319524D8EBA46EBA1941F9DF3-2025-08-18-19-23-32","","null","","images/semantic_sequence/housework_semantic/housework_semantic_7.png","null","",""
"","","","","","image-button-response","108","430579","0.0-14.0-1.0-1.6","BE2747F319524D8EBA46EBA1941F9DF3","BE2747F319524D8EBA46EBA1941F9DF3","0198be8c-3a10-7046-be21-8a66a8ae6a81","0198be8b-78cf-72d2-ba2b-1e62c78022e0","{""num_scrambled_semantic"":""8"",""num_scrambled_causal"":""4"",""num_scrambled_schematic"":""4"",""participantId"":""BE2747F319524D8EBA46EBA1941F9DF3"",""assignmentId"":""0198be8c-3a10-7046-be21-8a66a8ae6a81"",""projectId"":""0198be8b-78cf-72d2-ba2b-1e62c78022e0""}","https://test12345.live/?num_scrambled_semantic=8&num_scrambled_causal=4&num_scrambled_schematic=4&participantId=BE2747F319524D8EBA46EBA1941F9DF3&assignmentId=0198be8c-3a10-7046-be21-8a66a8ae6a81&projectId=0198be8b-78cf-72d2-ba2b-1e62c78022e0","BE2747F319524D8EBA46EBA1941F9DF3-2025-08-18-19-23-32","","529","","images/semantic_sequence/housework_semantic/housework_semantic_7.png","0","",""
"","","","","","image-button-response","109","432388","0.0-14.0-1.0-2.6","BE2747F319524D8EBA46EBA1941F9DF3","BE2747F319524D8EBA46EBA1941F9DF3","0198be8c-3a10-7046-be21-8a66a8ae6a81","0198be8b-78cf-72d2-ba2b-1e62c78022e0","{""num_scrambled_semantic"":""8"",""num_scrambled_causal"":""4"",""num_scrambled_schematic"":""4"",""participantId"":""BE2747F319524D8EBA46EBA1941F9DF3"",""assignmentId"":""0198be8c-3a10-7046-be21-8a66a8ae6a81"",""projectId"":""0198be8b-78cf-72d2-ba2b-1e62c78022e0""}","https://test12345.live/?num_scrambled_semantic=8&num_scrambled_causal=4&num_scrambled_schematic=4&participantId=BE2747F319524D8EBA46EBA1941F9DF3&assignmentId=0198be8c-3a10-7046-be21-8a66a8ae6a81&projectId=0198be8b-78cf-72d2-ba2b-1e62c78022e0","BE2747F319524D8EBA46EBA1941F9DF3-2025-08-18-19-23-32","","null","","[]","null","",""
"","","","","","image-button-response","110","436900","0.0-14.0-1.0-0.7","BE2747F319524D8EBA46EBA1941F9DF3","BE2747F319524D8EBA46EBA1941F9DF3","0198be8c-3a10-7046-be21-8a66a8ae6a81","0198be8b-78cf-72d2-ba2b-1e62c78022e0","{""num_scrambled_semantic"":""8"",""num_scrambled_causal"":""4"",""num_scrambled_schematic"":""4"",""participantId"":""BE2747F319524D8EBA46EBA1941F9DF3"",""assignmentId"":""0198be8c-3a10-7046-be21-8a66a8ae6a81"",""projectId"":""0198be8b-78cf-72d2-ba2b-1e62c78022e0""}","https://test12345.live/?num_scrambled_semantic=8&num_scrambled_causal=4&num_scrambled_schematic=4&participantId=BE2747F319524D8EBA46EBA1941F9DF3&assignmentId=0198be8c-3a10-7046-be21-8a66a8ae6a81&projectId=0198be8b-78cf-72d2-ba2b-1e62c78022e0","BE2747F319524D8EBA46EBA1941F9DF3-2025-08-18-19-23-32","","null","","images/semantic_sequence/housework_semantic/housework_semantic_1.png","null","",""
"","","","","","image-button-response","111","437520","0.0-14.0-1.0-1.7","BE2747F319524D8EBA46EBA1941F9DF3","BE2747F319524D8EBA46EBA1941F9DF3","0198be8c-3a10-7046-be21-8a66a8ae6a81","0198be8b-78cf-72d2-ba2b-1e62c78022e0","{""num_scrambled_semantic"":""8"",""num_scrambled_causal"":""4"",""num_scrambled_schematic"":""4"",""participantId"":""BE2747F319524D8EBA46EBA1941F9DF3"",""assignmentId"":""0198be8c-3a10-7046-be21-8a66a8ae6a81"",""projectId"":""0198be8b-78cf-72d2-ba2b-1e62c78022e0""}","https://test12345.live/?num_scrambled_semantic=8&num_scrambled_causal=4&num_scrambled_schematic=4&participantId=BE2747F319524D8EBA46EBA1941F9DF3&assignmentId=0198be8c-3a10-7046-be21-8a66a8ae6a81&projectId=0198be8b-78cf-72d2-ba2b-1e62c78022e0","BE2747F319524D8EBA46EBA1941F9DF3-2025-08-18-19-23-32","","619","","images/semantic_sequence/housework_semantic/housework_semantic_1.png","0","",""
"","","","","","image-button-response","112","439329","0.0-14.0-1.0-2.7","BE2747F319524D8EBA46EBA1941F9DF3","BE2747F319524D8EBA46EBA1941F9DF3","0198be8c-3a10-7046-be21-8a66a8ae6a81","0198be8b-78cf-72d2-ba2b-1e62c78022e0","{""num_scrambled_semantic"":""8"",""num_scrambled_causal"":""4"",""num_scrambled_schematic"":""4"",""participantId"":""BE2747F319524D8EBA46EBA1941F9DF3"",""assignmentId"":""0198be8c-3a10-7046-be21-8a66a8ae6a81"",""projectId"":""0198be8b-78cf-72d2-ba2b-1e62c78022e0""}","https://test12345.live/?num_scrambled_semantic=8&num_scrambled_causal=4&num_scrambled_schematic=4&participantId=BE2747F319524D8EBA46EBA1941F9DF3&assignmentId=0198be8c-3a10-7046-be21-8a66a8ae6a81&projectId=0198be8b-78cf-72d2-ba2b-1e62c78022e0","BE2747F319524D8EBA46EBA1941F9DF3-2025-08-18-19-23-32","","null","","[]","null","",""
"","","","","","image-button-response","113","443836","0.0-14.0-1.0-0.8","BE2747F319524D8EBA46EBA1941F9DF3","BE2747F319524D8EBA46EBA1941F9DF3","0198be8c-3a10-7046-be21-8a66a8ae6a81","0198be8b-78cf-72d2-ba2b-1e62c78022e0","{""num_scrambled_semantic"":""8"",""num_scrambled_causal"":""4"",""num_scrambled_schematic"":""4"",""participantId"":""BE2747F319524D8EBA46EBA1941F9DF3"",""assignmentId"":""0198be8c-3a10-7046-be21-8a66a8ae6a81"",""projectId"":""0198be8b-78cf-72d2-ba2b-1e62c78022e0""}","https://test12345.live/?num_scrambled_semantic=8&num_scrambled_causal=4&num_scrambled_schematic=4&participantId=BE2747F319524D8EBA46EBA1941F9DF3&assignmentId=0198be8c-3a10-7046-be21-8a66a8ae6a81&projectId=0198be8b-78cf-72d2-ba2b-1e62c78022e0","BE2747F319524D8EBA46EBA1941F9DF3-2025-08-18-19-23-32","","null","","images/semantic_sequence/housework_semantic/housework_semantic_ten.png","null","",""
"","","","","","image-button-response","114","444346","0.0-14.0-1.0-1.8","BE2747F319524D8EBA46EBA1941F9DF3","BE2747F319524D8EBA46EBA1941F9DF3","0198be8c-3a10-7046-be21-8a66a8ae6a81","0198be8b-78cf-72d2-ba2b-1e62c78022e0","{""num_scrambled_semantic"":""8"",""num_scrambled_causal"":""4"",""num_scrambled_schematic"":""4"",""participantId"":""BE2747F319524D8EBA46EBA1941F9DF3"",""assignmentId"":""0198be8c-3a10-7046-be21-8a66a8ae6a81"",""projectId"":""0198be8b-78cf-72d2-ba2b-1e62c78022e0""}","https://test12345.live/?num_scrambled_semantic=8&num_scrambled_causal=4&num_scrambled_schematic=4&participantId=BE2747F319524D8EBA46EBA1941F9DF3&assignmentId=0198be8c-3a10-7046-be21-8a66a8ae6a81&projectId=0198be8b-78cf-72d2-ba2b-1e62c78022e0","BE2747F319524D8EBA46EBA1941F9DF3-2025-08-18-19-23-32","","509","","images/semantic_sequence/housework_semantic/housework_semantic_ten.png","0","",""
