"success","timeout","failed_images","failed_audio","failed_video","trial_type","trial_index","time_elapsed","internal_node_id","subject","subject_id","study_id","session_id","urlvar","current_url","audio_id","view_history","rt","device_id","stimulus","response","estimated_stimulus_onset","seq_name"
"true","false","[]","[]","[]","preload","0","343","0.0-0.0","BF86E060063C408BAB269D8F8AEF9F8A","BF86E060063C408BAB269D8F8AEF9F8A","0198ee78-d97d-7d60-91c5-7683333a91cb","0198ee3c-27ac-7803-a9ea-f3b4ad4ad678","{""num_scrambled_semantic"":""8"",""num_scrambled_causal"":""4"",""num_scrambled_schematic"":""4"",""participantId"":""BF86E060063C408BAB269D8F8AEF9F8A"",""assignmentId"":""0198ee78-d97d-7d60-91c5-7683333a91cb"",""projectId"":""0198ee3c-27ac-7803-a9ea-f3b4ad4ad678""}","https://test12345.live/?num_scrambled_semantic=8&num_scrambled_causal=4&num_scrambled_schematic=4&participantId=BF86E060063C408BAB269D8F8AEF9F8A&assignmentId=0198ee78-d97d-7d60-91c5-7683333a91cb&projectId=0198ee3c-27ac-7803-a9ea-f3b4ad4ad678","BF86E060063C408BAB269D8F8AEF9F8A-2025-08-28-03-09-48","","","","","","",""
"","","","","","instructions","1","13420","0.0-1.0","BF86E060063C408BAB269D8F8AEF9F8A","BF86E060063C408BAB269D8F8AEF9F8A","0198ee78-d97d-7d60-91c5-7683333a91cb","0198ee3c-27ac-7803-a9ea-f3b4ad4ad678","{""num_scrambled_semantic"":""8"",""num_scrambled_causal"":""4"",""num_scrambled_schematic"":""4"",""participantId"":""BF86E060063C408BAB269D8F8AEF9F8A"",""assignmentId"":""0198ee78-d97d-7d60-91c5-7683333a91cb"",""projectId"":""0198ee3c-27ac-7803-a9ea-f3b4ad4ad678""}","https://test12345.live/?num_scrambled_semantic=8&num_scrambled_causal=4&num_scrambled_schematic=4&participantId=BF86E060063C408BAB269D8F8AEF9F8A&assignmentId=0198ee78-d97d-7d60-91c5-7683333a91cb&projectId=0198ee3c-27ac-7803-a9ea-f3b4ad4ad678","BF86E060063C408BAB269D8F8AEF9F8A-2025-08-28-03-09-48","[{""page_index"":0,""viewing_time"":13077}]","13077","","","","",""
"","","","","","instructions","2","15353","0.0-2.0","BF86E060063C408BAB269D8F8AEF9F8A","BF86E060063C408BAB269D8F8AEF9F8A","0198ee78-d97d-7d60-91c5-7683333a91cb","0198ee3c-27ac-7803-a9ea-f3b4ad4ad678","{""num_scrambled_semantic"":""8"",""num_scrambled_causal"":""4"",""num_scrambled_schematic"":""4"",""participantId"":""BF86E060063C408BAB269D8F8AEF9F8A"",""assignmentId"":""0198ee78-d97d-7d60-91c5-7683333a91cb"",""projectId"":""0198ee3c-27ac-7803-a9ea-f3b4ad4ad678""}","https://test12345.live/?num_scrambled_semantic=8&num_scrambled_causal=4&num_scrambled_schematic=4&participantId=BF86E060063C408BAB269D8F8AEF9F8A&assignmentId=0198ee78-d97d-7d60-91c5-7683333a91cb&projectId=0198ee3c-27ac-7803-a9ea-f3b4ad4ad678","BF86E060063C408BAB269D8F8AEF9F8A-2025-08-28-03-09-48","[{""page_index"":0,""viewing_time"":1933}]","1933","","","","",""
"true","","","","","fullscreen","3","17221","0.0-3.0","BF86E060063C408BAB269D8F8AEF9F8A","BF86E060063C408BAB269D8F8AEF9F8A","0198ee78-d97d-7d60-91c5-7683333a91cb","0198ee3c-27ac-7803-a9ea-f3b4ad4ad678","{""num_scrambled_semantic"":""8"",""num_scrambled_causal"":""4"",""num_scrambled_schematic"":""4"",""participantId"":""BF86E060063C408BAB269D8F8AEF9F8A"",""assignmentId"":""0198ee78-d97d-7d60-91c5-7683333a91cb"",""projectId"":""0198ee3c-27ac-7803-a9ea-f3b4ad4ad678""}","https://test12345.live/?num_scrambled_semantic=8&num_scrambled_causal=4&num_scrambled_schematic=4&participantId=BF86E060063C408BAB269D8F8AEF9F8A&assignmentId=0198ee78-d97d-7d60-91c5-7683333a91cb&projectId=0198ee3c-27ac-7803-a9ea-f3b4ad4ad678","BF86E060063C408BAB269D8F8AEF9F8A-2025-08-28-03-09-48","","866","","","","",""
"","","","","","initialize-microphone","4","20215","0.0-4.0-0.0","BF86E060063C408BAB269D8F8AEF9F8A","BF86E060063C408BAB269D8F8AEF9F8A","0198ee78-d97d-7d60-91c5-7683333a91cb","0198ee3c-27ac-7803-a9ea-f3b4ad4ad678","{""num_scrambled_semantic"":""8"",""num_scrambled_causal"":""4"",""num_scrambled_schematic"":""4"",""participantId"":""BF86E060063C408BAB269D8F8AEF9F8A"",""assignmentId"":""0198ee78-d97d-7d60-91c5-7683333a91cb"",""projectId"":""0198ee3c-27ac-7803-a9ea-f3b4ad4ad678""}","https://test12345.live/?num_scrambled_semantic=8&num_scrambled_causal=4&num_scrambled_schematic=4&participantId=BF86E060063C408BAB269D8F8AEF9F8A&assignmentId=0198ee78-d97d-7d60-91c5-7683333a91cb&projectId=0198ee3c-27ac-7803-a9ea-f3b4ad4ad678","BF86E060063C408BAB269D8F8AEF9F8A-2025-08-28-03-09-48","","","9e94b882d3b583c0f3b64f8b75b28eab0a3aead77af6ffaed0702bbf805ef5f7","","","",""
"","","","","","html-audio-response","5","31655","0.0-4.0-1.0","BF86E060063C408BAB269D8F8AEF9F8A","BF86E060063C408BAB269D8F8AEF9F8A","0198ee78-d97d-7d60-91c5-7683333a91cb","0198ee3c-27ac-7803-a9ea-f3b4ad4ad678","{""num_scrambled_semantic"":""8"",""num_scrambled_causal"":""4"",""num_scrambled_schematic"":""4"",""participantId"":""BF86E060063C408BAB269D8F8AEF9F8A"",""assignmentId"":""0198ee78-d97d-7d60-91c5-7683333a91cb"",""projectId"":""0198ee3c-27ac-7803-a9ea-f3b4ad4ad678""}","https://test12345.live/?num_scrambled_semantic=8&num_scrambled_causal=4&num_scrambled_schematic=4&participantId=BF86E060063C408BAB269D8F8AEF9F8A&assignmentId=0198ee78-d97d-7d60-91c5-7683333a91cb&projectId=0198ee3c-27ac-7803-a9ea-f3b4ad4ad678","BF86E060063C408BAB269D8F8AEF9F8A-2025-08-28-03-09-48","","3367","","<span style=""color: red; font-size: 24px""> NOW RECORDING</span>
        <p>Please test Microphone</p>","","2",""
"","","","","","html-button-response","6","34035","0.0-4.0-2.0","BF86E060063C408BAB269D8F8AEF9F8A","BF86E060063C408BAB269D8F8AEF9F8A","0198ee78-d97d-7d60-91c5-7683333a91cb","0198ee3c-27ac-7803-a9ea-f3b4ad4ad678","{""num_scrambled_semantic"":""8"",""num_scrambled_causal"":""4"",""num_scrambled_schematic"":""4"",""participantId"":""BF86E060063C408BAB269D8F8AEF9F8A"",""assignmentId"":""0198ee78-d97d-7d60-91c5-7683333a91cb"",""projectId"":""0198ee3c-27ac-7803-a9ea-f3b4ad4ad678""}","https://test12345.live/?num_scrambled_semantic=8&num_scrambled_causal=4&num_scrambled_schematic=4&participantId=BF86E060063C408BAB269D8F8AEF9F8A&assignmentId=0198ee78-d97d-7d60-91c5-7683333a91cb&projectId=0198ee3c-27ac-7803-a9ea-f3b4ad4ad678","BF86E060063C408BAB269D8F8AEF9F8A-2025-08-28-03-09-48","","2380","","<p style=""font-size:48px; color:red;"">Is Microphone OK?</p>","1","",""
"","","","","","instructions","7","44850","0.0-5.0","BF86E060063C408BAB269D8F8AEF9F8A","BF86E060063C408BAB269D8F8AEF9F8A","0198ee78-d97d-7d60-91c5-7683333a91cb","0198ee3c-27ac-7803-a9ea-f3b4ad4ad678","{""num_scrambled_semantic"":""8"",""num_scrambled_causal"":""4"",""num_scrambled_schematic"":""4"",""participantId"":""BF86E060063C408BAB269D8F8AEF9F8A"",""assignmentId"":""0198ee78-d97d-7d60-91c5-7683333a91cb"",""projectId"":""0198ee3c-27ac-7803-a9ea-f3b4ad4ad678""}","https://test12345.live/?num_scrambled_semantic=8&num_scrambled_causal=4&num_scrambled_schematic=4&participantId=BF86E060063C408BAB269D8F8AEF9F8A&assignmentId=0198ee78-d97d-7d60-91c5-7683333a91cb&projectId=0198ee3c-27ac-7803-a9ea-f3b4ad4ad678","BF86E060063C408BAB269D8F8AEF9F8A-2025-08-28-03-09-48","[{""page_index"":0,""viewing_time"":4256},{""page_index"":1,""viewing_time"":6558}]","10814","","","","",""
"","","","","","image-button-response","8","50855","0.0-6.0-0.0","BF86E060063C408BAB269D8F8AEF9F8A","BF86E060063C408BAB269D8F8AEF9F8A","0198ee78-d97d-7d60-91c5-7683333a91cb","0198ee3c-27ac-7803-a9ea-f3b4ad4ad678","{""num_scrambled_semantic"":""8"",""num_scrambled_causal"":""4"",""num_scrambled_schematic"":""4"",""participantId"":""BF86E060063C408BAB269D8F8AEF9F8A"",""assignmentId"":""0198ee78-d97d-7d60-91c5-7683333a91cb"",""projectId"":""0198ee3c-27ac-7803-a9ea-f3b4ad4ad678""}","https://test12345.live/?num_scrambled_semantic=8&num_scrambled_causal=4&num_scrambled_schematic=4&participantId=BF86E060063C408BAB269D8F8AEF9F8A&assignmentId=0198ee78-d97d-7d60-91c5-7683333a91cb&projectId=0198ee3c-27ac-7803-a9ea-f3b4ad4ad678","BF86E060063C408BAB269D8F8AEF9F8A-2025-08-28-03-09-48","","null","","images/instructions/movie_0.png","null","",""
"","","","","","image-button-response","9","55363","0.0-6.0-1.0-0.0","BF86E060063C408BAB269D8F8AEF9F8A","BF86E060063C408BAB269D8F8AEF9F8A","0198ee78-d97d-7d60-91c5-7683333a91cb","0198ee3c-27ac-7803-a9ea-f3b4ad4ad678","{""num_scrambled_semantic"":""8"",""num_scrambled_causal"":""4"",""num_scrambled_schematic"":""4"",""participantId"":""BF86E060063C408BAB269D8F8AEF9F8A"",""assignmentId"":""0198ee78-d97d-7d60-91c5-7683333a91cb"",""projectId"":""0198ee3c-27ac-7803-a9ea-f3b4ad4ad678""}","https://test12345.live/?num_scrambled_semantic=8&num_scrambled_causal=4&num_scrambled_schematic=4&participantId=BF86E060063C408BAB269D8F8AEF9F8A&assignmentId=0198ee78-d97d-7d60-91c5-7683333a91cb&projectId=0198ee3c-27ac-7803-a9ea-f3b4ad4ad678","BF86E060063C408BAB269D8F8AEF9F8A-2025-08-28-03-09-48","","null","","images/instructions/movie_1.png","null","",""
"","","","","","image-button-response","10","58201","0.0-6.0-1.0-1.0","BF86E060063C408BAB269D8F8AEF9F8A","BF86E060063C408BAB269D8F8AEF9F8A","0198ee78-d97d-7d60-91c5-7683333a91cb","0198ee3c-27ac-7803-a9ea-f3b4ad4ad678","{""num_scrambled_semantic"":""8"",""num_scrambled_causal"":""4"",""num_scrambled_schematic"":""4"",""participantId"":""BF86E060063C408BAB269D8F8AEF9F8A"",""assignmentId"":""0198ee78-d97d-7d60-91c5-7683333a91cb"",""projectId"":""0198ee3c-27ac-7803-a9ea-f3b4ad4ad678""}","https://test12345.live/?num_scrambled_semantic=8&num_scrambled_causal=4&num_scrambled_schematic=4&participantId=BF86E060063C408BAB269D8F8AEF9F8A&assignmentId=0198ee78-d97d-7d60-91c5-7683333a91cb&projectId=0198ee3c-27ac-7803-a9ea-f3b4ad4ad678","BF86E060063C408BAB269D8F8AEF9F8A-2025-08-28-03-09-48","","2838","","images/instructions/movie_1.png","0","",""
"","","","","","image-button-response","11","60006","0.0-6.0-1.0-2.0","BF86E060063C408BAB269D8F8AEF9F8A","BF86E060063C408BAB269D8F8AEF9F8A","0198ee78-d97d-7d60-91c5-7683333a91cb","0198ee3c-27ac-7803-a9ea-f3b4ad4ad678","{""num_scrambled_semantic"":""8"",""num_scrambled_causal"":""4"",""num_scrambled_schematic"":""4"",""participantId"":""BF86E060063C408BAB269D8F8AEF9F8A"",""assignmentId"":""0198ee78-d97d-7d60-91c5-7683333a91cb"",""projectId"":""0198ee3c-27ac-7803-a9ea-f3b4ad4ad678""}","https://test12345.live/?num_scrambled_semantic=8&num_scrambled_causal=4&num_scrambled_schematic=4&participantId=BF86E060063C408BAB269D8F8AEF9F8A&assignmentId=0198ee78-d97d-7d60-91c5-7683333a91cb&projectId=0198ee3c-27ac-7803-a9ea-f3b4ad4ad678","BF86E060063C408BAB269D8F8AEF9F8A-2025-08-28-03-09-48","","null","","[]","null","",""
"","","","","","image-button-response","12","64514","0.0-6.0-1.0-0.1","BF86E060063C408BAB269D8F8AEF9F8A","BF86E060063C408BAB269D8F8AEF9F8A","0198ee78-d97d-7d60-91c5-7683333a91cb","0198ee3c-27ac-7803-a9ea-f3b4ad4ad678","{""num_scrambled_semantic"":""8"",""num_scrambled_causal"":""4"",""num_scrambled_schematic"":""4"",""participantId"":""BF86E060063C408BAB269D8F8AEF9F8A"",""assignmentId"":""0198ee78-d97d-7d60-91c5-7683333a91cb"",""projectId"":""0198ee3c-27ac-7803-a9ea-f3b4ad4ad678""}","https://test12345.live/?num_scrambled_semantic=8&num_scrambled_causal=4&num_scrambled_schematic=4&participantId=BF86E060063C408BAB269D8F8AEF9F8A&assignmentId=0198ee78-d97d-7d60-91c5-7683333a91cb&projectId=0198ee3c-27ac-7803-a9ea-f3b4ad4ad678","BF86E060063C408BAB269D8F8AEF9F8A-2025-08-28-03-09-48","","null","","images/instructions/movie_2.png","null","",""
"","","","","","image-button-response","13","65362","0.0-6.0-1.0-1.1","BF86E060063C408BAB269D8F8AEF9F8A","BF86E060063C408BAB269D8F8AEF9F8A","0198ee78-d97d-7d60-91c5-7683333a91cb","0198ee3c-27ac-7803-a9ea-f3b4ad4ad678","{""num_scrambled_semantic"":""8"",""num_scrambled_causal"":""4"",""num_scrambled_schematic"":""4"",""participantId"":""BF86E060063C408BAB269D8F8AEF9F8A"",""assignmentId"":""0198ee78-d97d-7d60-91c5-7683333a91cb"",""projectId"":""0198ee3c-27ac-7803-a9ea-f3b4ad4ad678""}","https://test12345.live/?num_scrambled_semantic=8&num_scrambled_causal=4&num_scrambled_schematic=4&participantId=BF86E060063C408BAB269D8F8AEF9F8A&assignmentId=0198ee78-d97d-7d60-91c5-7683333a91cb&projectId=0198ee3c-27ac-7803-a9ea-f3b4ad4ad678","BF86E060063C408BAB269D8F8AEF9F8A-2025-08-28-03-09-48","","847","","images/instructions/movie_2.png","0","",""
"","","","","","image-button-response","14","67168","0.0-6.0-1.0-2.1","BF86E060063C408BAB269D8F8AEF9F8A","BF86E060063C408BAB269D8F8AEF9F8A","0198ee78-d97d-7d60-91c5-7683333a91cb","0198ee3c-27ac-7803-a9ea-f3b4ad4ad678","{""num_scrambled_semantic"":""8"",""num_scrambled_causal"":""4"",""num_scrambled_schematic"":""4"",""participantId"":""BF86E060063C408BAB269D8F8AEF9F8A"",""assignmentId"":""0198ee78-d97d-7d60-91c5-7683333a91cb"",""projectId"":""0198ee3c-27ac-7803-a9ea-f3b4ad4ad678""}","https://test12345.live/?num_scrambled_semantic=8&num_scrambled_causal=4&num_scrambled_schematic=4&participantId=BF86E060063C408BAB269D8F8AEF9F8A&assignmentId=0198ee78-d97d-7d60-91c5-7683333a91cb&projectId=0198ee3c-27ac-7803-a9ea-f3b4ad4ad678","BF86E060063C408BAB269D8F8AEF9F8A-2025-08-28-03-09-48","","null","","[]","null","",""
"","","","","","image-button-response","15","71675","0.0-6.0-1.0-0.2","BF86E060063C408BAB269D8F8AEF9F8A","BF86E060063C408BAB269D8F8AEF9F8A","0198ee78-d97d-7d60-91c5-7683333a91cb","0198ee3c-27ac-7803-a9ea-f3b4ad4ad678","{""num_scrambled_semantic"":""8"",""num_scrambled_causal"":""4"",""num_scrambled_schematic"":""4"",""participantId"":""BF86E060063C408BAB269D8F8AEF9F8A"",""assignmentId"":""0198ee78-d97d-7d60-91c5-7683333a91cb"",""projectId"":""0198ee3c-27ac-7803-a9ea-f3b4ad4ad678""}","https://test12345.live/?num_scrambled_semantic=8&num_scrambled_causal=4&num_scrambled_schematic=4&participantId=BF86E060063C408BAB269D8F8AEF9F8A&assignmentId=0198ee78-d97d-7d60-91c5-7683333a91cb&projectId=0198ee3c-27ac-7803-a9ea-f3b4ad4ad678","BF86E060063C408BAB269D8F8AEF9F8A-2025-08-28-03-09-48","","null","","images/instructions/movie_3.png","null","",""
"","","","","","image-button-response","16","72235","0.0-6.0-1.0-1.2","BF86E060063C408BAB269D8F8AEF9F8A","BF86E060063C408BAB269D8F8AEF9F8A","0198ee78-d97d-7d60-91c5-7683333a91cb","0198ee3c-27ac-7803-a9ea-f3b4ad4ad678","{""num_scrambled_semantic"":""8"",""num_scrambled_causal"":""4"",""num_scrambled_schematic"":""4"",""participantId"":""BF86E060063C408BAB269D8F8AEF9F8A"",""assignmentId"":""0198ee78-d97d-7d60-91c5-7683333a91cb"",""projectId"":""0198ee3c-27ac-7803-a9ea-f3b4ad4ad678""}","https://test12345.live/?num_scrambled_semantic=8&num_scrambled_causal=4&num_scrambled_schematic=4&participantId=BF86E060063C408BAB269D8F8AEF9F8A&assignmentId=0198ee78-d97d-7d60-91c5-7683333a91cb&projectId=0198ee3c-27ac-7803-a9ea-f3b4ad4ad678","BF86E060063C408BAB269D8F8AEF9F8A-2025-08-28-03-09-48","","559","","images/instructions/movie_3.png","0","",""
"","","","","","image-button-response","17","74042","0.0-6.0-1.0-2.2","BF86E060063C408BAB269D8F8AEF9F8A","BF86E060063C408BAB269D8F8AEF9F8A","0198ee78-d97d-7d60-91c5-7683333a91cb","0198ee3c-27ac-7803-a9ea-f3b4ad4ad678","{""num_scrambled_semantic"":""8"",""num_scrambled_causal"":""4"",""num_scrambled_schematic"":""4"",""participantId"":""BF86E060063C408BAB269D8F8AEF9F8A"",""assignmentId"":""0198ee78-d97d-7d60-91c5-7683333a91cb"",""projectId"":""0198ee3c-27ac-7803-a9ea-f3b4ad4ad678""}","https://test12345.live/?num_scrambled_semantic=8&num_scrambled_causal=4&num_scrambled_schematic=4&participantId=BF86E060063C408BAB269D8F8AEF9F8A&assignmentId=0198ee78-d97d-7d60-91c5-7683333a91cb&projectId=0198ee3c-27ac-7803-a9ea-f3b4ad4ad678","BF86E060063C408BAB269D8F8AEF9F8A-2025-08-28-03-09-48","","null","","[]","null","",""
"","","","","","image-button-response","18","78551","0.0-6.0-1.0-0.3","BF86E060063C408BAB269D8F8AEF9F8A","BF86E060063C408BAB269D8F8AEF9F8A","0198ee78-d97d-7d60-91c5-7683333a91cb","0198ee3c-27ac-7803-a9ea-f3b4ad4ad678","{""num_scrambled_semantic"":""8"",""num_scrambled_causal"":""4"",""num_scrambled_schematic"":""4"",""participantId"":""BF86E060063C408BAB269D8F8AEF9F8A"",""assignmentId"":""0198ee78-d97d-7d60-91c5-7683333a91cb"",""projectId"":""0198ee3c-27ac-7803-a9ea-f3b4ad4ad678""}","https://test12345.live/?num_scrambled_semantic=8&num_scrambled_causal=4&num_scrambled_schematic=4&participantId=BF86E060063C408BAB269D8F8AEF9F8A&assignmentId=0198ee78-d97d-7d60-91c5-7683333a91cb&projectId=0198ee3c-27ac-7803-a9ea-f3b4ad4ad678","BF86E060063C408BAB269D8F8AEF9F8A-2025-08-28-03-09-48","","null","","images/instructions/movie_4.png","null","",""
"","","","","","image-button-response","19","78966","0.0-6.0-1.0-1.3","BF86E060063C408BAB269D8F8AEF9F8A","BF86E060063C408BAB269D8F8AEF9F8A","0198ee78-d97d-7d60-91c5-7683333a91cb","0198ee3c-27ac-7803-a9ea-f3b4ad4ad678","{""num_scrambled_semantic"":""8"",""num_scrambled_causal"":""4"",""num_scrambled_schematic"":""4"",""participantId"":""BF86E060063C408BAB269D8F8AEF9F8A"",""assignmentId"":""0198ee78-d97d-7d60-91c5-7683333a91cb"",""projectId"":""0198ee3c-27ac-7803-a9ea-f3b4ad4ad678""}","https://test12345.live/?num_scrambled_semantic=8&num_scrambled_causal=4&num_scrambled_schematic=4&participantId=BF86E060063C408BAB269D8F8AEF9F8A&assignmentId=0198ee78-d97d-7d60-91c5-7683333a91cb&projectId=0198ee3c-27ac-7803-a9ea-f3b4ad4ad678","BF86E060063C408BAB269D8F8AEF9F8A-2025-08-28-03-09-48","","412","","images/instructions/movie_4.png","0","",""
"","","","","","image-button-response","20","80772","0.0-6.0-1.0-2.3","BF86E060063C408BAB269D8F8AEF9F8A","BF86E060063C408BAB269D8F8AEF9F8A","0198ee78-d97d-7d60-91c5-7683333a91cb","0198ee3c-27ac-7803-a9ea-f3b4ad4ad678","{""num_scrambled_semantic"":""8"",""num_scrambled_causal"":""4"",""num_scrambled_schematic"":""4"",""participantId"":""BF86E060063C408BAB269D8F8AEF9F8A"",""assignmentId"":""0198ee78-d97d-7d60-91c5-7683333a91cb"",""projectId"":""0198ee3c-27ac-7803-a9ea-f3b4ad4ad678""}","https://test12345.live/?num_scrambled_semantic=8&num_scrambled_causal=4&num_scrambled_schematic=4&participantId=BF86E060063C408BAB269D8F8AEF9F8A&assignmentId=0198ee78-d97d-7d60-91c5-7683333a91cb&projectId=0198ee3c-27ac-7803-a9ea-f3b4ad4ad678","BF86E060063C408BAB269D8F8AEF9F8A-2025-08-28-03-09-48","","null","","[]","null","",""
"","","","","","instructions","21","99325","0.0-7.0","BF86E060063C408BAB269D8F8AEF9F8A","BF86E060063C408BAB269D8F8AEF9F8A","0198ee78-d97d-7d60-91c5-7683333a91cb","0198ee3c-27ac-7803-a9ea-f3b4ad4ad678","{""num_scrambled_semantic"":""8"",""num_scrambled_causal"":""4"",""num_scrambled_schematic"":""4"",""participantId"":""BF86E060063C408BAB269D8F8AEF9F8A"",""assignmentId"":""0198ee78-d97d-7d60-91c5-7683333a91cb"",""projectId"":""0198ee3c-27ac-7803-a9ea-f3b4ad4ad678""}","https://test12345.live/?num_scrambled_semantic=8&num_scrambled_causal=4&num_scrambled_schematic=4&participantId=BF86E060063C408BAB269D8F8AEF9F8A&assignmentId=0198ee78-d97d-7d60-91c5-7683333a91cb&projectId=0198ee3c-27ac-7803-a9ea-f3b4ad4ad678","BF86E060063C408BAB269D8F8AEF9F8A-2025-08-28-03-09-48","[{""page_index"":0,""viewing_time"":18552}]","18552","","","","",""
"","","","","","html-audio-response","22","149901","0.0-8.0","BF86E060063C408BAB269D8F8AEF9F8A","BF86E060063C408BAB269D8F8AEF9F8A","0198ee78-d97d-7d60-91c5-7683333a91cb","0198ee3c-27ac-7803-a9ea-f3b4ad4ad678","{""num_scrambled_semantic"":""8"",""num_scrambled_causal"":""4"",""num_scrambled_schematic"":""4"",""participantId"":""BF86E060063C408BAB269D8F8AEF9F8A"",""assignmentId"":""0198ee78-d97d-7d60-91c5-7683333a91cb"",""projectId"":""0198ee3c-27ac-7803-a9ea-f3b4ad4ad678""}","https://test12345.live/?num_scrambled_semantic=8&num_scrambled_causal=4&num_scrambled_schematic=4&participantId=BF86E060063C408BAB269D8F8AEF9F8A&assignmentId=0198ee78-d97d-7d60-91c5-7683333a91cb&projectId=0198ee3c-27ac-7803-a9ea-f3b4ad4ad678","BF86E060063C408BAB269D8F8AEF9F8A-2025-08-28-03-09-48","","9583","","[""<span style=\""color: red; font-size: 24px\""> NOW RECORDING</span><p>Please say out loud all the images you saw, in the order of the story they create. Try to recall the sequence of events as they appeared in the story, not necessarily the order they were presented on the screen.</p>""]","","23",""
"","","","","","instructions","23","151994","0.0-9.0","BF86E060063C408BAB269D8F8AEF9F8A","BF86E060063C408BAB269D8F8AEF9F8A","0198ee78-d97d-7d60-91c5-7683333a91cb","0198ee3c-27ac-7803-a9ea-f3b4ad4ad678","{""num_scrambled_semantic"":""8"",""num_scrambled_causal"":""4"",""num_scrambled_schematic"":""4"",""participantId"":""BF86E060063C408BAB269D8F8AEF9F8A"",""assignmentId"":""0198ee78-d97d-7d60-91c5-7683333a91cb"",""projectId"":""0198ee3c-27ac-7803-a9ea-f3b4ad4ad678""}","https://test12345.live/?num_scrambled_semantic=8&num_scrambled_causal=4&num_scrambled_schematic=4&participantId=BF86E060063C408BAB269D8F8AEF9F8A&assignmentId=0198ee78-d97d-7d60-91c5-7683333a91cb&projectId=0198ee3c-27ac-7803-a9ea-f3b4ad4ad678","BF86E060063C408BAB269D8F8AEF9F8A-2025-08-28-03-09-48","[{""page_index"":0,""viewing_time"":2091}]","2091","","","","",""
"","","","","","image-button-response","24","157998","0.0-10.0-0.0","BF86E060063C408BAB269D8F8AEF9F8A","BF86E060063C408BAB269D8F8AEF9F8A","0198ee78-d97d-7d60-91c5-7683333a91cb","0198ee3c-27ac-7803-a9ea-f3b4ad4ad678","{""num_scrambled_semantic"":""8"",""num_scrambled_causal"":""4"",""num_scrambled_schematic"":""4"",""participantId"":""BF86E060063C408BAB269D8F8AEF9F8A"",""assignmentId"":""0198ee78-d97d-7d60-91c5-7683333a91cb"",""projectId"":""0198ee3c-27ac-7803-a9ea-f3b4ad4ad678""}","https://test12345.live/?num_scrambled_semantic=8&num_scrambled_causal=4&num_scrambled_schematic=4&participantId=BF86E060063C408BAB269D8F8AEF9F8A&assignmentId=0198ee78-d97d-7d60-91c5-7683333a91cb&projectId=0198ee3c-27ac-7803-a9ea-f3b4ad4ad678","BF86E060063C408BAB269D8F8AEF9F8A-2025-08-28-03-09-48","","null","","images/causal_sequence/coin_causal/coin_causal_0.png","null","",""
"","","","","","image-button-response","25","162500","0.0-10.0-1.0-0.0","BF86E060063C408BAB269D8F8AEF9F8A","BF86E060063C408BAB269D8F8AEF9F8A","0198ee78-d97d-7d60-91c5-7683333a91cb","0198ee3c-27ac-7803-a9ea-f3b4ad4ad678","{""num_scrambled_semantic"":""8"",""num_scrambled_causal"":""4"",""num_scrambled_schematic"":""4"",""participantId"":""BF86E060063C408BAB269D8F8AEF9F8A"",""assignmentId"":""0198ee78-d97d-7d60-91c5-7683333a91cb"",""projectId"":""0198ee3c-27ac-7803-a9ea-f3b4ad4ad678""}","https://test12345.live/?num_scrambled_semantic=8&num_scrambled_causal=4&num_scrambled_schematic=4&participantId=BF86E060063C408BAB269D8F8AEF9F8A&assignmentId=0198ee78-d97d-7d60-91c5-7683333a91cb&projectId=0198ee3c-27ac-7803-a9ea-f3b4ad4ad678","BF86E060063C408BAB269D8F8AEF9F8A-2025-08-28-03-09-48","","null","","images/causal_sequence/coin_causal/coin_causal_ten.png","null","",""
"","","","","","image-button-response","26","163284","0.0-10.0-1.0-1.0","BF86E060063C408BAB269D8F8AEF9F8A","BF86E060063C408BAB269D8F8AEF9F8A","0198ee78-d97d-7d60-91c5-7683333a91cb","0198ee3c-27ac-7803-a9ea-f3b4ad4ad678","{""num_scrambled_semantic"":""8"",""num_scrambled_causal"":""4"",""num_scrambled_schematic"":""4"",""participantId"":""BF86E060063C408BAB269D8F8AEF9F8A"",""assignmentId"":""0198ee78-d97d-7d60-91c5-7683333a91cb"",""projectId"":""0198ee3c-27ac-7803-a9ea-f3b4ad4ad678""}","https://test12345.live/?num_scrambled_semantic=8&num_scrambled_causal=4&num_scrambled_schematic=4&participantId=BF86E060063C408BAB269D8F8AEF9F8A&assignmentId=0198ee78-d97d-7d60-91c5-7683333a91cb&projectId=0198ee3c-27ac-7803-a9ea-f3b4ad4ad678","BF86E060063C408BAB269D8F8AEF9F8A-2025-08-28-03-09-48","","783","","images/causal_sequence/coin_causal/coin_causal_ten.png","0","",""
"","","","","","image-button-response","27","165090","0.0-10.0-1.0-2.0","BF86E060063C408BAB269D8F8AEF9F8A","BF86E060063C408BAB269D8F8AEF9F8A","0198ee78-d97d-7d60-91c5-7683333a91cb","0198ee3c-27ac-7803-a9ea-f3b4ad4ad678","{""num_scrambled_semantic"":""8"",""num_scrambled_causal"":""4"",""num_scrambled_schematic"":""4"",""participantId"":""BF86E060063C408BAB269D8F8AEF9F8A"",""assignmentId"":""0198ee78-d97d-7d60-91c5-7683333a91cb"",""projectId"":""0198ee3c-27ac-7803-a9ea-f3b4ad4ad678""}","https://test12345.live/?num_scrambled_semantic=8&num_scrambled_causal=4&num_scrambled_schematic=4&participantId=BF86E060063C408BAB269D8F8AEF9F8A&assignmentId=0198ee78-d97d-7d60-91c5-7683333a91cb&projectId=0198ee3c-27ac-7803-a9ea-f3b4ad4ad678","BF86E060063C408BAB269D8F8AEF9F8A-2025-08-28-03-09-48","","null","","[]","null","",""
"","","","","","image-button-response","28","169599","0.0-10.0-1.0-0.1","BF86E060063C408BAB269D8F8AEF9F8A","BF86E060063C408BAB269D8F8AEF9F8A","0198ee78-d97d-7d60-91c5-7683333a91cb","0198ee3c-27ac-7803-a9ea-f3b4ad4ad678","{""num_scrambled_semantic"":""8"",""num_scrambled_causal"":""4"",""num_scrambled_schematic"":""4"",""participantId"":""BF86E060063C408BAB269D8F8AEF9F8A"",""assignmentId"":""0198ee78-d97d-7d60-91c5-7683333a91cb"",""projectId"":""0198ee3c-27ac-7803-a9ea-f3b4ad4ad678""}","https://test12345.live/?num_scrambled_semantic=8&num_scrambled_causal=4&num_scrambled_schematic=4&participantId=BF86E060063C408BAB269D8F8AEF9F8A&assignmentId=0198ee78-d97d-7d60-91c5-7683333a91cb&projectId=0198ee3c-27ac-7803-a9ea-f3b4ad4ad678","BF86E060063C408BAB269D8F8AEF9F8A-2025-08-28-03-09-48","","null","","images/causal_sequence/coin_causal/coin_causal_5.png","null","",""
"","","","","","image-button-response","29","170065","0.0-10.0-1.0-1.1","BF86E060063C408BAB269D8F8AEF9F8A","BF86E060063C408BAB269D8F8AEF9F8A","0198ee78-d97d-7d60-91c5-7683333a91cb","0198ee3c-27ac-7803-a9ea-f3b4ad4ad678","{""num_scrambled_semantic"":""8"",""num_scrambled_causal"":""4"",""num_scrambled_schematic"":""4"",""participantId"":""BF86E060063C408BAB269D8F8AEF9F8A"",""assignmentId"":""0198ee78-d97d-7d60-91c5-7683333a91cb"",""projectId"":""0198ee3c-27ac-7803-a9ea-f3b4ad4ad678""}","https://test12345.live/?num_scrambled_semantic=8&num_scrambled_causal=4&num_scrambled_schematic=4&participantId=BF86E060063C408BAB269D8F8AEF9F8A&assignmentId=0198ee78-d97d-7d60-91c5-7683333a91cb&projectId=0198ee3c-27ac-7803-a9ea-f3b4ad4ad678","BF86E060063C408BAB269D8F8AEF9F8A-2025-08-28-03-09-48","","466","","images/causal_sequence/coin_causal/coin_causal_5.png","0","",""
"","","","","","image-button-response","30","171866","0.0-10.0-1.0-2.1","BF86E060063C408BAB269D8F8AEF9F8A","BF86E060063C408BAB269D8F8AEF9F8A","0198ee78-d97d-7d60-91c5-7683333a91cb","0198ee3c-27ac-7803-a9ea-f3b4ad4ad678","{""num_scrambled_semantic"":""8"",""num_scrambled_causal"":""4"",""num_scrambled_schematic"":""4"",""participantId"":""BF86E060063C408BAB269D8F8AEF9F8A"",""assignmentId"":""0198ee78-d97d-7d60-91c5-7683333a91cb"",""projectId"":""0198ee3c-27ac-7803-a9ea-f3b4ad4ad678""}","https://test12345.live/?num_scrambled_semantic=8&num_scrambled_causal=4&num_scrambled_schematic=4&participantId=BF86E060063C408BAB269D8F8AEF9F8A&assignmentId=0198ee78-d97d-7d60-91c5-7683333a91cb&projectId=0198ee3c-27ac-7803-a9ea-f3b4ad4ad678","BF86E060063C408BAB269D8F8AEF9F8A-2025-08-28-03-09-48","","null","","[]","null","",""
"","","","","","image-button-response","31","176370","0.0-10.0-1.0-0.2","BF86E060063C408BAB269D8F8AEF9F8A","BF86E060063C408BAB269D8F8AEF9F8A","0198ee78-d97d-7d60-91c5-7683333a91cb","0198ee3c-27ac-7803-a9ea-f3b4ad4ad678","{""num_scrambled_semantic"":""8"",""num_scrambled_causal"":""4"",""num_scrambled_schematic"":""4"",""participantId"":""BF86E060063C408BAB269D8F8AEF9F8A"",""assignmentId"":""0198ee78-d97d-7d60-91c5-7683333a91cb"",""projectId"":""0198ee3c-27ac-7803-a9ea-f3b4ad4ad678""}","https://test12345.live/?num_scrambled_semantic=8&num_scrambled_causal=4&num_scrambled_schematic=4&participantId=BF86E060063C408BAB269D8F8AEF9F8A&assignmentId=0198ee78-d97d-7d60-91c5-7683333a91cb&projectId=0198ee3c-27ac-7803-a9ea-f3b4ad4ad678","BF86E060063C408BAB269D8F8AEF9F8A-2025-08-28-03-09-48","","null","","images/causal_sequence/coin_causal/coin_causal_9.png","null","",""
"","","","","","image-button-response","32","176795","0.0-10.0-1.0-1.2","BF86E060063C408BAB269D8F8AEF9F8A","BF86E060063C408BAB269D8F8AEF9F8A","0198ee78-d97d-7d60-91c5-7683333a91cb","0198ee3c-27ac-7803-a9ea-f3b4ad4ad678","{""num_scrambled_semantic"":""8"",""num_scrambled_causal"":""4"",""num_scrambled_schematic"":""4"",""participantId"":""BF86E060063C408BAB269D8F8AEF9F8A"",""assignmentId"":""0198ee78-d97d-7d60-91c5-7683333a91cb"",""projectId"":""0198ee3c-27ac-7803-a9ea-f3b4ad4ad678""}","https://test12345.live/?num_scrambled_semantic=8&num_scrambled_causal=4&num_scrambled_schematic=4&participantId=BF86E060063C408BAB269D8F8AEF9F8A&assignmentId=0198ee78-d97d-7d60-91c5-7683333a91cb&projectId=0198ee3c-27ac-7803-a9ea-f3b4ad4ad678","BF86E060063C408BAB269D8F8AEF9F8A-2025-08-28-03-09-48","","422","","images/causal_sequence/coin_causal/coin_causal_9.png","0","",""
"","","","","","image-button-response","33","178602","0.0-10.0-1.0-2.2","BF86E060063C408BAB269D8F8AEF9F8A","BF86E060063C408BAB269D8F8AEF9F8A","0198ee78-d97d-7d60-91c5-7683333a91cb","0198ee3c-27ac-7803-a9ea-f3b4ad4ad678","{""num_scrambled_semantic"":""8"",""num_scrambled_causal"":""4"",""num_scrambled_schematic"":""4"",""participantId"":""BF86E060063C408BAB269D8F8AEF9F8A"",""assignmentId"":""0198ee78-d97d-7d60-91c5-7683333a91cb"",""projectId"":""0198ee3c-27ac-7803-a9ea-f3b4ad4ad678""}","https://test12345.live/?num_scrambled_semantic=8&num_scrambled_causal=4&num_scrambled_schematic=4&participantId=BF86E060063C408BAB269D8F8AEF9F8A&assignmentId=0198ee78-d97d-7d60-91c5-7683333a91cb&projectId=0198ee3c-27ac-7803-a9ea-f3b4ad4ad678","BF86E060063C408BAB269D8F8AEF9F8A-2025-08-28-03-09-48","","null","","[]","null","",""
"","","","","","image-button-response","34","183108","0.0-10.0-1.0-0.3","BF86E060063C408BAB269D8F8AEF9F8A","BF86E060063C408BAB269D8F8AEF9F8A","0198ee78-d97d-7d60-91c5-7683333a91cb","0198ee3c-27ac-7803-a9ea-f3b4ad4ad678","{""num_scrambled_semantic"":""8"",""num_scrambled_causal"":""4"",""num_scrambled_schematic"":""4"",""participantId"":""BF86E060063C408BAB269D8F8AEF9F8A"",""assignmentId"":""0198ee78-d97d-7d60-91c5-7683333a91cb"",""projectId"":""0198ee3c-27ac-7803-a9ea-f3b4ad4ad678""}","https://test12345.live/?num_scrambled_semantic=8&num_scrambled_causal=4&num_scrambled_schematic=4&participantId=BF86E060063C408BAB269D8F8AEF9F8A&assignmentId=0198ee78-d97d-7d60-91c5-7683333a91cb&projectId=0198ee3c-27ac-7803-a9ea-f3b4ad4ad678","BF86E060063C408BAB269D8F8AEF9F8A-2025-08-28-03-09-48","","null","","images/causal_sequence/coin_causal/coin_causal_2.png","null","",""
"","","","","","image-button-response","35","183471","0.0-10.0-1.0-1.3","BF86E060063C408BAB269D8F8AEF9F8A","BF86E060063C408BAB269D8F8AEF9F8A","0198ee78-d97d-7d60-91c5-7683333a91cb","0198ee3c-27ac-7803-a9ea-f3b4ad4ad678","{""num_scrambled_semantic"":""8"",""num_scrambled_causal"":""4"",""num_scrambled_schematic"":""4"",""participantId"":""BF86E060063C408BAB269D8F8AEF9F8A"",""assignmentId"":""0198ee78-d97d-7d60-91c5-7683333a91cb"",""projectId"":""0198ee3c-27ac-7803-a9ea-f3b4ad4ad678""}","https://test12345.live/?num_scrambled_semantic=8&num_scrambled_causal=4&num_scrambled_schematic=4&participantId=BF86E060063C408BAB269D8F8AEF9F8A&assignmentId=0198ee78-d97d-7d60-91c5-7683333a91cb&projectId=0198ee3c-27ac-7803-a9ea-f3b4ad4ad678","BF86E060063C408BAB269D8F8AEF9F8A-2025-08-28-03-09-48","","363","","images/causal_sequence/coin_causal/coin_causal_2.png","0","",""
"","","","","","image-button-response","36","185275","0.0-10.0-1.0-2.3","BF86E060063C408BAB269D8F8AEF9F8A","BF86E060063C408BAB269D8F8AEF9F8A","0198ee78-d97d-7d60-91c5-7683333a91cb","0198ee3c-27ac-7803-a9ea-f3b4ad4ad678","{""num_scrambled_semantic"":""8"",""num_scrambled_causal"":""4"",""num_scrambled_schematic"":""4"",""participantId"":""BF86E060063C408BAB269D8F8AEF9F8A"",""assignmentId"":""0198ee78-d97d-7d60-91c5-7683333a91cb"",""projectId"":""0198ee3c-27ac-7803-a9ea-f3b4ad4ad678""}","https://test12345.live/?num_scrambled_semantic=8&num_scrambled_causal=4&num_scrambled_schematic=4&participantId=BF86E060063C408BAB269D8F8AEF9F8A&assignmentId=0198ee78-d97d-7d60-91c5-7683333a91cb&projectId=0198ee3c-27ac-7803-a9ea-f3b4ad4ad678","BF86E060063C408BAB269D8F8AEF9F8A-2025-08-28-03-09-48","","null","","[]","null","",""
"","","","","","image-button-response","37","189779","0.0-10.0-1.0-0.4","BF86E060063C408BAB269D8F8AEF9F8A","BF86E060063C408BAB269D8F8AEF9F8A","0198ee78-d97d-7d60-91c5-7683333a91cb","0198ee3c-27ac-7803-a9ea-f3b4ad4ad678","{""num_scrambled_semantic"":""8"",""num_scrambled_causal"":""4"",""num_scrambled_schematic"":""4"",""participantId"":""BF86E060063C408BAB269D8F8AEF9F8A"",""assignmentId"":""0198ee78-d97d-7d60-91c5-7683333a91cb"",""projectId"":""0198ee3c-27ac-7803-a9ea-f3b4ad4ad678""}","https://test12345.live/?num_scrambled_semantic=8&num_scrambled_causal=4&num_scrambled_schematic=4&participantId=BF86E060063C408BAB269D8F8AEF9F8A&assignmentId=0198ee78-d97d-7d60-91c5-7683333a91cb&projectId=0198ee3c-27ac-7803-a9ea-f3b4ad4ad678","BF86E060063C408BAB269D8F8AEF9F8A-2025-08-28-03-09-48","","null","","images/causal_sequence/coin_causal/coin_causal_4.png","null","",""
"","","","","","image-button-response","38","190144","0.0-10.0-1.0-1.4","BF86E060063C408BAB269D8F8AEF9F8A","BF86E060063C408BAB269D8F8AEF9F8A","0198ee78-d97d-7d60-91c5-7683333a91cb","0198ee3c-27ac-7803-a9ea-f3b4ad4ad678","{""num_scrambled_semantic"":""8"",""num_scrambled_causal"":""4"",""num_scrambled_schematic"":""4"",""participantId"":""BF86E060063C408BAB269D8F8AEF9F8A"",""assignmentId"":""0198ee78-d97d-7d60-91c5-7683333a91cb"",""projectId"":""0198ee3c-27ac-7803-a9ea-f3b4ad4ad678""}","https://test12345.live/?num_scrambled_semantic=8&num_scrambled_causal=4&num_scrambled_schematic=4&participantId=BF86E060063C408BAB269D8F8AEF9F8A&assignmentId=0198ee78-d97d-7d60-91c5-7683333a91cb&projectId=0198ee3c-27ac-7803-a9ea-f3b4ad4ad678","BF86E060063C408BAB269D8F8AEF9F8A-2025-08-28-03-09-48","","363","","images/causal_sequence/coin_causal/coin_causal_4.png","0","",""
"","","","","","image-button-response","39","191950","0.0-10.0-1.0-2.4","BF86E060063C408BAB269D8F8AEF9F8A","BF86E060063C408BAB269D8F8AEF9F8A","0198ee78-d97d-7d60-91c5-7683333a91cb","0198ee3c-27ac-7803-a9ea-f3b4ad4ad678","{""num_scrambled_semantic"":""8"",""num_scrambled_causal"":""4"",""num_scrambled_schematic"":""4"",""participantId"":""BF86E060063C408BAB269D8F8AEF9F8A"",""assignmentId"":""0198ee78-d97d-7d60-91c5-7683333a91cb"",""projectId"":""0198ee3c-27ac-7803-a9ea-f3b4ad4ad678""}","https://test12345.live/?num_scrambled_semantic=8&num_scrambled_causal=4&num_scrambled_schematic=4&participantId=BF86E060063C408BAB269D8F8AEF9F8A&assignmentId=0198ee78-d97d-7d60-91c5-7683333a91cb&projectId=0198ee3c-27ac-7803-a9ea-f3b4ad4ad678","BF86E060063C408BAB269D8F8AEF9F8A-2025-08-28-03-09-48","","null","","[]","null","",""
"","","","","","image-button-response","40","196455","0.0-10.0-1.0-0.5","BF86E060063C408BAB269D8F8AEF9F8A","BF86E060063C408BAB269D8F8AEF9F8A","0198ee78-d97d-7d60-91c5-7683333a91cb","0198ee3c-27ac-7803-a9ea-f3b4ad4ad678","{""num_scrambled_semantic"":""8"",""num_scrambled_causal"":""4"",""num_scrambled_schematic"":""4"",""participantId"":""BF86E060063C408BAB269D8F8AEF9F8A"",""assignmentId"":""0198ee78-d97d-7d60-91c5-7683333a91cb"",""projectId"":""0198ee3c-27ac-7803-a9ea-f3b4ad4ad678""}","https://test12345.live/?num_scrambled_semantic=8&num_scrambled_causal=4&num_scrambled_schematic=4&participantId=BF86E060063C408BAB269D8F8AEF9F8A&assignmentId=0198ee78-d97d-7d60-91c5-7683333a91cb&projectId=0198ee3c-27ac-7803-a9ea-f3b4ad4ad678","BF86E060063C408BAB269D8F8AEF9F8A-2025-08-28-03-09-48","","null","","images/causal_sequence/coin_causal/coin_causal_6.png","null","",""
"","","","","","image-button-response","41","196805","0.0-10.0-1.0-1.5","BF86E060063C408BAB269D8F8AEF9F8A","BF86E060063C408BAB269D8F8AEF9F8A","0198ee78-d97d-7d60-91c5-7683333a91cb","0198ee3c-27ac-7803-a9ea-f3b4ad4ad678","{""num_scrambled_semantic"":""8"",""num_scrambled_causal"":""4"",""num_scrambled_schematic"":""4"",""participantId"":""BF86E060063C408BAB269D8F8AEF9F8A"",""assignmentId"":""0198ee78-d97d-7d60-91c5-7683333a91cb"",""projectId"":""0198ee3c-27ac-7803-a9ea-f3b4ad4ad678""}","https://test12345.live/?num_scrambled_semantic=8&num_scrambled_causal=4&num_scrambled_schematic=4&participantId=BF86E060063C408BAB269D8F8AEF9F8A&assignmentId=0198ee78-d97d-7d60-91c5-7683333a91cb&projectId=0198ee3c-27ac-7803-a9ea-f3b4ad4ad678","BF86E060063C408BAB269D8F8AEF9F8A-2025-08-28-03-09-48","","347","","images/causal_sequence/coin_causal/coin_causal_6.png","0","",""
"","","","","","image-button-response","42","198611","0.0-10.0-1.0-2.5","BF86E060063C408BAB269D8F8AEF9F8A","BF86E060063C408BAB269D8F8AEF9F8A","0198ee78-d97d-7d60-91c5-7683333a91cb","0198ee3c-27ac-7803-a9ea-f3b4ad4ad678","{""num_scrambled_semantic"":""8"",""num_scrambled_causal"":""4"",""num_scrambled_schematic"":""4"",""participantId"":""BF86E060063C408BAB269D8F8AEF9F8A"",""assignmentId"":""0198ee78-d97d-7d60-91c5-7683333a91cb"",""projectId"":""0198ee3c-27ac-7803-a9ea-f3b4ad4ad678""}","https://test12345.live/?num_scrambled_semantic=8&num_scrambled_causal=4&num_scrambled_schematic=4&participantId=BF86E060063C408BAB269D8F8AEF9F8A&assignmentId=0198ee78-d97d-7d60-91c5-7683333a91cb&projectId=0198ee3c-27ac-7803-a9ea-f3b4ad4ad678","BF86E060063C408BAB269D8F8AEF9F8A-2025-08-28-03-09-48","","null","","[]","null","",""
"","","","","","image-button-response","43","203117","0.0-10.0-1.0-0.6","BF86E060063C408BAB269D8F8AEF9F8A","BF86E060063C408BAB269D8F8AEF9F8A","0198ee78-d97d-7d60-91c5-7683333a91cb","0198ee3c-27ac-7803-a9ea-f3b4ad4ad678","{""num_scrambled_semantic"":""8"",""num_scrambled_causal"":""4"",""num_scrambled_schematic"":""4"",""participantId"":""BF86E060063C408BAB269D8F8AEF9F8A"",""assignmentId"":""0198ee78-d97d-7d60-91c5-7683333a91cb"",""projectId"":""0198ee3c-27ac-7803-a9ea-f3b4ad4ad678""}","https://test12345.live/?num_scrambled_semantic=8&num_scrambled_causal=4&num_scrambled_schematic=4&participantId=BF86E060063C408BAB269D8F8AEF9F8A&assignmentId=0198ee78-d97d-7d60-91c5-7683333a91cb&projectId=0198ee3c-27ac-7803-a9ea-f3b4ad4ad678","BF86E060063C408BAB269D8F8AEF9F8A-2025-08-28-03-09-48","","null","","images/causal_sequence/coin_causal/coin_causal_8.png","null","",""
"","","","","","image-button-response","44","203609","0.0-10.0-1.0-1.6","BF86E060063C408BAB269D8F8AEF9F8A","BF86E060063C408BAB269D8F8AEF9F8A","0198ee78-d97d-7d60-91c5-7683333a91cb","0198ee3c-27ac-7803-a9ea-f3b4ad4ad678","{""num_scrambled_semantic"":""8"",""num_scrambled_causal"":""4"",""num_scrambled_schematic"":""4"",""participantId"":""BF86E060063C408BAB269D8F8AEF9F8A"",""assignmentId"":""0198ee78-d97d-7d60-91c5-7683333a91cb"",""projectId"":""0198ee3c-27ac-7803-a9ea-f3b4ad4ad678""}","https://test12345.live/?num_scrambled_semantic=8&num_scrambled_causal=4&num_scrambled_schematic=4&participantId=BF86E060063C408BAB269D8F8AEF9F8A&assignmentId=0198ee78-d97d-7d60-91c5-7683333a91cb&projectId=0198ee3c-27ac-7803-a9ea-f3b4ad4ad678","BF86E060063C408BAB269D8F8AEF9F8A-2025-08-28-03-09-48","","490","","images/causal_sequence/coin_causal/coin_causal_8.png","0","",""
"","","","","","image-button-response","45","205415","0.0-10.0-1.0-2.6","BF86E060063C408BAB269D8F8AEF9F8A","BF86E060063C408BAB269D8F8AEF9F8A","0198ee78-d97d-7d60-91c5-7683333a91cb","0198ee3c-27ac-7803-a9ea-f3b4ad4ad678","{""num_scrambled_semantic"":""8"",""num_scrambled_causal"":""4"",""num_scrambled_schematic"":""4"",""participantId"":""BF86E060063C408BAB269D8F8AEF9F8A"",""assignmentId"":""0198ee78-d97d-7d60-91c5-7683333a91cb"",""projectId"":""0198ee3c-27ac-7803-a9ea-f3b4ad4ad678""}","https://test12345.live/?num_scrambled_semantic=8&num_scrambled_causal=4&num_scrambled_schematic=4&participantId=BF86E060063C408BAB269D8F8AEF9F8A&assignmentId=0198ee78-d97d-7d60-91c5-7683333a91cb&projectId=0198ee3c-27ac-7803-a9ea-f3b4ad4ad678","BF86E060063C408BAB269D8F8AEF9F8A-2025-08-28-03-09-48","","null","","[]","null","",""
"","","","","","image-button-response","46","209920","0.0-10.0-1.0-0.7","BF86E060063C408BAB269D8F8AEF9F8A","BF86E060063C408BAB269D8F8AEF9F8A","0198ee78-d97d-7d60-91c5-7683333a91cb","0198ee3c-27ac-7803-a9ea-f3b4ad4ad678","{""num_scrambled_semantic"":""8"",""num_scrambled_causal"":""4"",""num_scrambled_schematic"":""4"",""participantId"":""BF86E060063C408BAB269D8F8AEF9F8A"",""assignmentId"":""0198ee78-d97d-7d60-91c5-7683333a91cb"",""projectId"":""0198ee3c-27ac-7803-a9ea-f3b4ad4ad678""}","https://test12345.live/?num_scrambled_semantic=8&num_scrambled_causal=4&num_scrambled_schematic=4&participantId=BF86E060063C408BAB269D8F8AEF9F8A&assignmentId=0198ee78-d97d-7d60-91c5-7683333a91cb&projectId=0198ee3c-27ac-7803-a9ea-f3b4ad4ad678","BF86E060063C408BAB269D8F8AEF9F8A-2025-08-28-03-09-48","","null","","images/causal_sequence/coin_causal/coin_causal_7.png","null","",""
"","","","","","image-button-response","47","210363","0.0-10.0-1.0-1.7","BF86E060063C408BAB269D8F8AEF9F8A","BF86E060063C408BAB269D8F8AEF9F8A","0198ee78-d97d-7d60-91c5-7683333a91cb","0198ee3c-27ac-7803-a9ea-f3b4ad4ad678","{""num_scrambled_semantic"":""8"",""num_scrambled_causal"":""4"",""num_scrambled_schematic"":""4"",""participantId"":""BF86E060063C408BAB269D8F8AEF9F8A"",""assignmentId"":""0198ee78-d97d-7d60-91c5-7683333a91cb"",""projectId"":""0198ee3c-27ac-7803-a9ea-f3b4ad4ad678""}","https://test12345.live/?num_scrambled_semantic=8&num_scrambled_causal=4&num_scrambled_schematic=4&participantId=BF86E060063C408BAB269D8F8AEF9F8A&assignmentId=0198ee78-d97d-7d60-91c5-7683333a91cb&projectId=0198ee3c-27ac-7803-a9ea-f3b4ad4ad678","BF86E060063C408BAB269D8F8AEF9F8A-2025-08-28-03-09-48","","442","","images/causal_sequence/coin_causal/coin_causal_7.png","0","",""
"","","","","","image-button-response","48","212168","0.0-10.0-1.0-2.7","BF86E060063C408BAB269D8F8AEF9F8A","BF86E060063C408BAB269D8F8AEF9F8A","0198ee78-d97d-7d60-91c5-7683333a91cb","0198ee3c-27ac-7803-a9ea-f3b4ad4ad678","{""num_scrambled_semantic"":""8"",""num_scrambled_causal"":""4"",""num_scrambled_schematic"":""4"",""participantId"":""BF86E060063C408BAB269D8F8AEF9F8A"",""assignmentId"":""0198ee78-d97d-7d60-91c5-7683333a91cb"",""projectId"":""0198ee3c-27ac-7803-a9ea-f3b4ad4ad678""}","https://test12345.live/?num_scrambled_semantic=8&num_scrambled_causal=4&num_scrambled_schematic=4&participantId=BF86E060063C408BAB269D8F8AEF9F8A&assignmentId=0198ee78-d97d-7d60-91c5-7683333a91cb&projectId=0198ee3c-27ac-7803-a9ea-f3b4ad4ad678","BF86E060063C408BAB269D8F8AEF9F8A-2025-08-28-03-09-48","","null","","[]","null","",""
"","","","","","image-button-response","49","216675","0.0-10.0-1.0-0.8","BF86E060063C408BAB269D8F8AEF9F8A","BF86E060063C408BAB269D8F8AEF9F8A","0198ee78-d97d-7d60-91c5-7683333a91cb","0198ee3c-27ac-7803-a9ea-f3b4ad4ad678","{""num_scrambled_semantic"":""8"",""num_scrambled_causal"":""4"",""num_scrambled_schematic"":""4"",""participantId"":""BF86E060063C408BAB269D8F8AEF9F8A"",""assignmentId"":""0198ee78-d97d-7d60-91c5-7683333a91cb"",""projectId"":""0198ee3c-27ac-7803-a9ea-f3b4ad4ad678""}","https://test12345.live/?num_scrambled_semantic=8&num_scrambled_causal=4&num_scrambled_schematic=4&participantId=BF86E060063C408BAB269D8F8AEF9F8A&assignmentId=0198ee78-d97d-7d60-91c5-7683333a91cb&projectId=0198ee3c-27ac-7803-a9ea-f3b4ad4ad678","BF86E060063C408BAB269D8F8AEF9F8A-2025-08-28-03-09-48","","null","","images/causal_sequence/coin_causal/coin_causal_1.png","null","",""
"","","","","","image-button-response","50","217152","0.0-10.0-1.0-1.8","BF86E060063C408BAB269D8F8AEF9F8A","BF86E060063C408BAB269D8F8AEF9F8A","0198ee78-d97d-7d60-91c5-7683333a91cb","0198ee3c-27ac-7803-a9ea-f3b4ad4ad678","{""num_scrambled_semantic"":""8"",""num_scrambled_causal"":""4"",""num_scrambled_schematic"":""4"",""participantId"":""BF86E060063C408BAB269D8F8AEF9F8A"",""assignmentId"":""0198ee78-d97d-7d60-91c5-7683333a91cb"",""projectId"":""0198ee3c-27ac-7803-a9ea-f3b4ad4ad678""}","https://test12345.live/?num_scrambled_semantic=8&num_scrambled_causal=4&num_scrambled_schematic=4&participantId=BF86E060063C408BAB269D8F8AEF9F8A&assignmentId=0198ee78-d97d-7d60-91c5-7683333a91cb&projectId=0198ee3c-27ac-7803-a9ea-f3b4ad4ad678","BF86E060063C408BAB269D8F8AEF9F8A-2025-08-28-03-09-48","","476","","images/causal_sequence/coin_causal/coin_causal_1.png","0","",""
"","","","","","image-button-response","51","218957","0.0-10.0-1.0-2.8","BF86E060063C408BAB269D8F8AEF9F8A","BF86E060063C408BAB269D8F8AEF9F8A","0198ee78-d97d-7d60-91c5-7683333a91cb","0198ee3c-27ac-7803-a9ea-f3b4ad4ad678","{""num_scrambled_semantic"":""8"",""num_scrambled_causal"":""4"",""num_scrambled_schematic"":""4"",""participantId"":""BF86E060063C408BAB269D8F8AEF9F8A"",""assignmentId"":""0198ee78-d97d-7d60-91c5-7683333a91cb"",""projectId"":""0198ee3c-27ac-7803-a9ea-f3b4ad4ad678""}","https://test12345.live/?num_scrambled_semantic=8&num_scrambled_causal=4&num_scrambled_schematic=4&participantId=BF86E060063C408BAB269D8F8AEF9F8A&assignmentId=0198ee78-d97d-7d60-91c5-7683333a91cb&projectId=0198ee3c-27ac-7803-a9ea-f3b4ad4ad678","BF86E060063C408BAB269D8F8AEF9F8A-2025-08-28-03-09-48","","null","","[]","null","",""
"","","","","","image-button-response","52","223462","0.0-10.0-1.0-0.9","BF86E060063C408BAB269D8F8AEF9F8A","BF86E060063C408BAB269D8F8AEF9F8A","0198ee78-d97d-7d60-91c5-7683333a91cb","0198ee3c-27ac-7803-a9ea-f3b4ad4ad678","{""num_scrambled_semantic"":""8"",""num_scrambled_causal"":""4"",""num_scrambled_schematic"":""4"",""participantId"":""BF86E060063C408BAB269D8F8AEF9F8A"",""assignmentId"":""0198ee78-d97d-7d60-91c5-7683333a91cb"",""projectId"":""0198ee3c-27ac-7803-a9ea-f3b4ad4ad678""}","https://test12345.live/?num_scrambled_semantic=8&num_scrambled_causal=4&num_scrambled_schematic=4&participantId=BF86E060063C408BAB269D8F8AEF9F8A&assignmentId=0198ee78-d97d-7d60-91c5-7683333a91cb&projectId=0198ee3c-27ac-7803-a9ea-f3b4ad4ad678","BF86E060063C408BAB269D8F8AEF9F8A-2025-08-28-03-09-48","","null","","images/causal_sequence/coin_causal/coin_causal_3.png","null","",""
"","","","","","image-button-response","53","223678","0.0-10.0-1.0-1.9","BF86E060063C408BAB269D8F8AEF9F8A","BF86E060063C408BAB269D8F8AEF9F8A","0198ee78-d97d-7d60-91c5-7683333a91cb","0198ee3c-27ac-7803-a9ea-f3b4ad4ad678","{""num_scrambled_semantic"":""8"",""num_scrambled_causal"":""4"",""num_scrambled_schematic"":""4"",""participantId"":""BF86E060063C408BAB269D8F8AEF9F8A"",""assignmentId"":""0198ee78-d97d-7d60-91c5-7683333a91cb"",""projectId"":""0198ee3c-27ac-7803-a9ea-f3b4ad4ad678""}","https://test12345.live/?num_scrambled_semantic=8&num_scrambled_causal=4&num_scrambled_schematic=4&participantId=BF86E060063C408BAB269D8F8AEF9F8A&assignmentId=0198ee78-d97d-7d60-91c5-7683333a91cb&projectId=0198ee3c-27ac-7803-a9ea-f3b4ad4ad678","BF86E060063C408BAB269D8F8AEF9F8A-2025-08-28-03-09-48","","216","","images/causal_sequence/coin_causal/coin_causal_3.png","0","",""
"","","","","","image-button-response","54","225482","0.0-10.0-1.0-2.9","BF86E060063C408BAB269D8F8AEF9F8A","BF86E060063C408BAB269D8F8AEF9F8A","0198ee78-d97d-7d60-91c5-7683333a91cb","0198ee3c-27ac-7803-a9ea-f3b4ad4ad678","{""num_scrambled_semantic"":""8"",""num_scrambled_causal"":""4"",""num_scrambled_schematic"":""4"",""participantId"":""BF86E060063C408BAB269D8F8AEF9F8A"",""assignmentId"":""0198ee78-d97d-7d60-91c5-7683333a91cb"",""projectId"":""0198ee3c-27ac-7803-a9ea-f3b4ad4ad678""}","https://test12345.live/?num_scrambled_semantic=8&num_scrambled_causal=4&num_scrambled_schematic=4&participantId=BF86E060063C408BAB269D8F8AEF9F8A&assignmentId=0198ee78-d97d-7d60-91c5-7683333a91cb&projectId=0198ee3c-27ac-7803-a9ea-f3b4ad4ad678","BF86E060063C408BAB269D8F8AEF9F8A-2025-08-28-03-09-48","","null","","[]","null","",""
"","","","","","html-audio-response","55","262020","0.0-11.0","BF86E060063C408BAB269D8F8AEF9F8A","BF86E060063C408BAB269D8F8AEF9F8A","0198ee78-d97d-7d60-91c5-7683333a91cb","0198ee3c-27ac-7803-a9ea-f3b4ad4ad678","{""num_scrambled_semantic"":""8"",""num_scrambled_causal"":""4"",""num_scrambled_schematic"":""4"",""participantId"":""BF86E060063C408BAB269D8F8AEF9F8A"",""assignmentId"":""0198ee78-d97d-7d60-91c5-7683333a91cb"",""projectId"":""0198ee3c-27ac-7803-a9ea-f3b4ad4ad678""}","https://test12345.live/?num_scrambled_semantic=8&num_scrambled_causal=4&num_scrambled_schematic=4&participantId=BF86E060063C408BAB269D8F8AEF9F8A&assignmentId=0198ee78-d97d-7d60-91c5-7683333a91cb&projectId=0198ee3c-27ac-7803-a9ea-f3b4ad4ad678","BF86E060063C408BAB269D8F8AEF9F8A-2025-08-28-03-09-48","","11030","","[""<span style=\""color: red; font-size: 24px\""> NOW RECORDING</span><p>Please say out loud all the images you saw, in the order of the story they create. Try to recall the sequence of events as they appeared in the story, not necessarily the order they were presented on the screen.</p>""]","","6","coin_causal"
"","","","","","image-button-response","56","268025","0.0-12.0-0.0","BF86E060063C408BAB269D8F8AEF9F8A","BF86E060063C408BAB269D8F8AEF9F8A","0198ee78-d97d-7d60-91c5-7683333a91cb","0198ee3c-27ac-7803-a9ea-f3b4ad4ad678","{""num_scrambled_semantic"":""8"",""num_scrambled_causal"":""4"",""num_scrambled_schematic"":""4"",""participantId"":""BF86E060063C408BAB269D8F8AEF9F8A"",""assignmentId"":""0198ee78-d97d-7d60-91c5-7683333a91cb"",""projectId"":""0198ee3c-27ac-7803-a9ea-f3b4ad4ad678""}","https://test12345.live/?num_scrambled_semantic=8&num_scrambled_causal=4&num_scrambled_schematic=4&participantId=BF86E060063C408BAB269D8F8AEF9F8A&assignmentId=0198ee78-d97d-7d60-91c5-7683333a91cb&projectId=0198ee3c-27ac-7803-a9ea-f3b4ad4ad678","BF86E060063C408BAB269D8F8AEF9F8A-2025-08-28-03-09-48","","null","","images/causal_sequence/saving_a_cat_causal/saving_a_cat_causal_0.png","null","",""
"","","","","","image-button-response","57","272533","0.0-12.0-1.0-0.0","BF86E060063C408BAB269D8F8AEF9F8A","BF86E060063C408BAB269D8F8AEF9F8A","0198ee78-d97d-7d60-91c5-7683333a91cb","0198ee3c-27ac-7803-a9ea-f3b4ad4ad678","{""num_scrambled_semantic"":""8"",""num_scrambled_causal"":""4"",""num_scrambled_schematic"":""4"",""participantId"":""BF86E060063C408BAB269D8F8AEF9F8A"",""assignmentId"":""0198ee78-d97d-7d60-91c5-7683333a91cb"",""projectId"":""0198ee3c-27ac-7803-a9ea-f3b4ad4ad678""}","https://test12345.live/?num_scrambled_semantic=8&num_scrambled_causal=4&num_scrambled_schematic=4&participantId=BF86E060063C408BAB269D8F8AEF9F8A&assignmentId=0198ee78-d97d-7d60-91c5-7683333a91cb&projectId=0198ee3c-27ac-7803-a9ea-f3b4ad4ad678","BF86E060063C408BAB269D8F8AEF9F8A-2025-08-28-03-09-48","","null","","images/causal_sequence/saving_a_cat_causal/saving_a_cat_causal_1.png","null","",""
"","","","","","image-button-response","58","273244","0.0-12.0-1.0-1.0","BF86E060063C408BAB269D8F8AEF9F8A","BF86E060063C408BAB269D8F8AEF9F8A","0198ee78-d97d-7d60-91c5-7683333a91cb","0198ee3c-27ac-7803-a9ea-f3b4ad4ad678","{""num_scrambled_semantic"":""8"",""num_scrambled_causal"":""4"",""num_scrambled_schematic"":""4"",""participantId"":""BF86E060063C408BAB269D8F8AEF9F8A"",""assignmentId"":""0198ee78-d97d-7d60-91c5-7683333a91cb"",""projectId"":""0198ee3c-27ac-7803-a9ea-f3b4ad4ad678""}","https://test12345.live/?num_scrambled_semantic=8&num_scrambled_causal=4&num_scrambled_schematic=4&participantId=BF86E060063C408BAB269D8F8AEF9F8A&assignmentId=0198ee78-d97d-7d60-91c5-7683333a91cb&projectId=0198ee3c-27ac-7803-a9ea-f3b4ad4ad678","BF86E060063C408BAB269D8F8AEF9F8A-2025-08-28-03-09-48","","709","","images/causal_sequence/saving_a_cat_causal/saving_a_cat_causal_1.png","0","",""
"","","","","","image-button-response","59","275050","0.0-12.0-1.0-2.0","BF86E060063C408BAB269D8F8AEF9F8A","BF86E060063C408BAB269D8F8AEF9F8A","0198ee78-d97d-7d60-91c5-7683333a91cb","0198ee3c-27ac-7803-a9ea-f3b4ad4ad678","{""num_scrambled_semantic"":""8"",""num_scrambled_causal"":""4"",""num_scrambled_schematic"":""4"",""participantId"":""BF86E060063C408BAB269D8F8AEF9F8A"",""assignmentId"":""0198ee78-d97d-7d60-91c5-7683333a91cb"",""projectId"":""0198ee3c-27ac-7803-a9ea-f3b4ad4ad678""}","https://test12345.live/?num_scrambled_semantic=8&num_scrambled_causal=4&num_scrambled_schematic=4&participantId=BF86E060063C408BAB269D8F8AEF9F8A&assignmentId=0198ee78-d97d-7d60-91c5-7683333a91cb&projectId=0198ee3c-27ac-7803-a9ea-f3b4ad4ad678","BF86E060063C408BAB269D8F8AEF9F8A-2025-08-28-03-09-48","","null","","[]","null","",""
"","","","","","image-button-response","60","279559","0.0-12.0-1.0-0.1","BF86E060063C408BAB269D8F8AEF9F8A","BF86E060063C408BAB269D8F8AEF9F8A","0198ee78-d97d-7d60-91c5-7683333a91cb","0198ee3c-27ac-7803-a9ea-f3b4ad4ad678","{""num_scrambled_semantic"":""8"",""num_scrambled_causal"":""4"",""num_scrambled_schematic"":""4"",""participantId"":""BF86E060063C408BAB269D8F8AEF9F8A"",""assignmentId"":""0198ee78-d97d-7d60-91c5-7683333a91cb"",""projectId"":""0198ee3c-27ac-7803-a9ea-f3b4ad4ad678""}","https://test12345.live/?num_scrambled_semantic=8&num_scrambled_causal=4&num_scrambled_schematic=4&participantId=BF86E060063C408BAB269D8F8AEF9F8A&assignmentId=0198ee78-d97d-7d60-91c5-7683333a91cb&projectId=0198ee3c-27ac-7803-a9ea-f3b4ad4ad678","BF86E060063C408BAB269D8F8AEF9F8A-2025-08-28-03-09-48","","null","","images/causal_sequence/saving_a_cat_causal/saving_a_cat_causal_2.png","null","",""
"","","","","","image-button-response","61","280331","0.0-12.0-1.0-1.1","BF86E060063C408BAB269D8F8AEF9F8A","BF86E060063C408BAB269D8F8AEF9F8A","0198ee78-d97d-7d60-91c5-7683333a91cb","0198ee3c-27ac-7803-a9ea-f3b4ad4ad678","{""num_scrambled_semantic"":""8"",""num_scrambled_causal"":""4"",""num_scrambled_schematic"":""4"",""participantId"":""BF86E060063C408BAB269D8F8AEF9F8A"",""assignmentId"":""0198ee78-d97d-7d60-91c5-7683333a91cb"",""projectId"":""0198ee3c-27ac-7803-a9ea-f3b4ad4ad678""}","https://test12345.live/?num_scrambled_semantic=8&num_scrambled_causal=4&num_scrambled_schematic=4&participantId=BF86E060063C408BAB269D8F8AEF9F8A&assignmentId=0198ee78-d97d-7d60-91c5-7683333a91cb&projectId=0198ee3c-27ac-7803-a9ea-f3b4ad4ad678","BF86E060063C408BAB269D8F8AEF9F8A-2025-08-28-03-09-48","","771","","images/causal_sequence/saving_a_cat_causal/saving_a_cat_causal_2.png","0","",""
"","","","","","image-button-response","62","282137","0.0-12.0-1.0-2.1","BF86E060063C408BAB269D8F8AEF9F8A","BF86E060063C408BAB269D8F8AEF9F8A","0198ee78-d97d-7d60-91c5-7683333a91cb","0198ee3c-27ac-7803-a9ea-f3b4ad4ad678","{""num_scrambled_semantic"":""8"",""num_scrambled_causal"":""4"",""num_scrambled_schematic"":""4"",""participantId"":""BF86E060063C408BAB269D8F8AEF9F8A"",""assignmentId"":""0198ee78-d97d-7d60-91c5-7683333a91cb"",""projectId"":""0198ee3c-27ac-7803-a9ea-f3b4ad4ad678""}","https://test12345.live/?num_scrambled_semantic=8&num_scrambled_causal=4&num_scrambled_schematic=4&participantId=BF86E060063C408BAB269D8F8AEF9F8A&assignmentId=0198ee78-d97d-7d60-91c5-7683333a91cb&projectId=0198ee3c-27ac-7803-a9ea-f3b4ad4ad678","BF86E060063C408BAB269D8F8AEF9F8A-2025-08-28-03-09-48","","null","","[]","null","",""
"","","","","","image-button-response","63","286639","0.0-12.0-1.0-0.2","BF86E060063C408BAB269D8F8AEF9F8A","BF86E060063C408BAB269D8F8AEF9F8A","0198ee78-d97d-7d60-91c5-7683333a91cb","0198ee3c-27ac-7803-a9ea-f3b4ad4ad678","{""num_scrambled_semantic"":""8"",""num_scrambled_causal"":""4"",""num_scrambled_schematic"":""4"",""participantId"":""BF86E060063C408BAB269D8F8AEF9F8A"",""assignmentId"":""0198ee78-d97d-7d60-91c5-7683333a91cb"",""projectId"":""0198ee3c-27ac-7803-a9ea-f3b4ad4ad678""}","https://test12345.live/?num_scrambled_semantic=8&num_scrambled_causal=4&num_scrambled_schematic=4&participantId=BF86E060063C408BAB269D8F8AEF9F8A&assignmentId=0198ee78-d97d-7d60-91c5-7683333a91cb&projectId=0198ee3c-27ac-7803-a9ea-f3b4ad4ad678","BF86E060063C408BAB269D8F8AEF9F8A-2025-08-28-03-09-48","","null","","images/causal_sequence/saving_a_cat_causal/saving_a_cat_causal_3.png","null","",""
"","","","","","image-button-response","64","287299","0.0-12.0-1.0-1.2","BF86E060063C408BAB269D8F8AEF9F8A","BF86E060063C408BAB269D8F8AEF9F8A","0198ee78-d97d-7d60-91c5-7683333a91cb","0198ee3c-27ac-7803-a9ea-f3b4ad4ad678","{""num_scrambled_semantic"":""8"",""num_scrambled_causal"":""4"",""num_scrambled_schematic"":""4"",""participantId"":""BF86E060063C408BAB269D8F8AEF9F8A"",""assignmentId"":""0198ee78-d97d-7d60-91c5-7683333a91cb"",""projectId"":""0198ee3c-27ac-7803-a9ea-f3b4ad4ad678""}","https://test12345.live/?num_scrambled_semantic=8&num_scrambled_causal=4&num_scrambled_schematic=4&participantId=BF86E060063C408BAB269D8F8AEF9F8A&assignmentId=0198ee78-d97d-7d60-91c5-7683333a91cb&projectId=0198ee3c-27ac-7803-a9ea-f3b4ad4ad678","BF86E060063C408BAB269D8F8AEF9F8A-2025-08-28-03-09-48","","659","","images/causal_sequence/saving_a_cat_causal/saving_a_cat_causal_3.png","1","",""
"","","","","","image-button-response","65","289102","0.0-12.0-1.0-2.2","BF86E060063C408BAB269D8F8AEF9F8A","BF86E060063C408BAB269D8F8AEF9F8A","0198ee78-d97d-7d60-91c5-7683333a91cb","0198ee3c-27ac-7803-a9ea-f3b4ad4ad678","{""num_scrambled_semantic"":""8"",""num_scrambled_causal"":""4"",""num_scrambled_schematic"":""4"",""participantId"":""BF86E060063C408BAB269D8F8AEF9F8A"",""assignmentId"":""0198ee78-d97d-7d60-91c5-7683333a91cb"",""projectId"":""0198ee3c-27ac-7803-a9ea-f3b4ad4ad678""}","https://test12345.live/?num_scrambled_semantic=8&num_scrambled_causal=4&num_scrambled_schematic=4&participantId=BF86E060063C408BAB269D8F8AEF9F8A&assignmentId=0198ee78-d97d-7d60-91c5-7683333a91cb&projectId=0198ee3c-27ac-7803-a9ea-f3b4ad4ad678","BF86E060063C408BAB269D8F8AEF9F8A-2025-08-28-03-09-48","","null","","[]","null","",""
"","","","","","image-button-response","66","293606","0.0-12.0-1.0-0.3","BF86E060063C408BAB269D8F8AEF9F8A","BF86E060063C408BAB269D8F8AEF9F8A","0198ee78-d97d-7d60-91c5-7683333a91cb","0198ee3c-27ac-7803-a9ea-f3b4ad4ad678","{""num_scrambled_semantic"":""8"",""num_scrambled_causal"":""4"",""num_scrambled_schematic"":""4"",""participantId"":""BF86E060063C408BAB269D8F8AEF9F8A"",""assignmentId"":""0198ee78-d97d-7d60-91c5-7683333a91cb"",""projectId"":""0198ee3c-27ac-7803-a9ea-f3b4ad4ad678""}","https://test12345.live/?num_scrambled_semantic=8&num_scrambled_causal=4&num_scrambled_schematic=4&participantId=BF86E060063C408BAB269D8F8AEF9F8A&assignmentId=0198ee78-d97d-7d60-91c5-7683333a91cb&projectId=0198ee3c-27ac-7803-a9ea-f3b4ad4ad678","BF86E060063C408BAB269D8F8AEF9F8A-2025-08-28-03-09-48","","null","","images/causal_sequence/saving_a_cat_causal/saving_a_cat_causal_4.png","null","",""
"","","","","","image-button-response","67","294399","0.0-12.0-1.0-1.3","BF86E060063C408BAB269D8F8AEF9F8A","BF86E060063C408BAB269D8F8AEF9F8A","0198ee78-d97d-7d60-91c5-7683333a91cb","0198ee3c-27ac-7803-a9ea-f3b4ad4ad678","{""num_scrambled_semantic"":""8"",""num_scrambled_causal"":""4"",""num_scrambled_schematic"":""4"",""participantId"":""BF86E060063C408BAB269D8F8AEF9F8A"",""assignmentId"":""0198ee78-d97d-7d60-91c5-7683333a91cb"",""projectId"":""0198ee3c-27ac-7803-a9ea-f3b4ad4ad678""}","https://test12345.live/?num_scrambled_semantic=8&num_scrambled_causal=4&num_scrambled_schematic=4&participantId=BF86E060063C408BAB269D8F8AEF9F8A&assignmentId=0198ee78-d97d-7d60-91c5-7683333a91cb&projectId=0198ee3c-27ac-7803-a9ea-f3b4ad4ad678","BF86E060063C408BAB269D8F8AEF9F8A-2025-08-28-03-09-48","","793","","images/causal_sequence/saving_a_cat_causal/saving_a_cat_causal_4.png","0","",""
"","","","","","image-button-response","68","296204","0.0-12.0-1.0-2.3","BF86E060063C408BAB269D8F8AEF9F8A","BF86E060063C408BAB269D8F8AEF9F8A","0198ee78-d97d-7d60-91c5-7683333a91cb","0198ee3c-27ac-7803-a9ea-f3b4ad4ad678","{""num_scrambled_semantic"":""8"",""num_scrambled_causal"":""4"",""num_scrambled_schematic"":""4"",""participantId"":""BF86E060063C408BAB269D8F8AEF9F8A"",""assignmentId"":""0198ee78-d97d-7d60-91c5-7683333a91cb"",""projectId"":""0198ee3c-27ac-7803-a9ea-f3b4ad4ad678""}","https://test12345.live/?num_scrambled_semantic=8&num_scrambled_causal=4&num_scrambled_schematic=4&participantId=BF86E060063C408BAB269D8F8AEF9F8A&assignmentId=0198ee78-d97d-7d60-91c5-7683333a91cb&projectId=0198ee3c-27ac-7803-a9ea-f3b4ad4ad678","BF86E060063C408BAB269D8F8AEF9F8A-2025-08-28-03-09-48","","null","","[]","null","",""
"","","","","","image-button-response","69","300709","0.0-12.0-1.0-0.4","BF86E060063C408BAB269D8F8AEF9F8A","BF86E060063C408BAB269D8F8AEF9F8A","0198ee78-d97d-7d60-91c5-7683333a91cb","0198ee3c-27ac-7803-a9ea-f3b4ad4ad678","{""num_scrambled_semantic"":""8"",""num_scrambled_causal"":""4"",""num_scrambled_schematic"":""4"",""participantId"":""BF86E060063C408BAB269D8F8AEF9F8A"",""assignmentId"":""0198ee78-d97d-7d60-91c5-7683333a91cb"",""projectId"":""0198ee3c-27ac-7803-a9ea-f3b4ad4ad678""}","https://test12345.live/?num_scrambled_semantic=8&num_scrambled_causal=4&num_scrambled_schematic=4&participantId=BF86E060063C408BAB269D8F8AEF9F8A&assignmentId=0198ee78-d97d-7d60-91c5-7683333a91cb&projectId=0198ee3c-27ac-7803-a9ea-f3b4ad4ad678","BF86E060063C408BAB269D8F8AEF9F8A-2025-08-28-03-09-48","","null","","images/causal_sequence/saving_a_cat_causal/saving_a_cat_causal_5.png","null","",""
"","","","","","image-button-response","70","301218","0.0-12.0-1.0-1.4","BF86E060063C408BAB269D8F8AEF9F8A","BF86E060063C408BAB269D8F8AEF9F8A","0198ee78-d97d-7d60-91c5-7683333a91cb","0198ee3c-27ac-7803-a9ea-f3b4ad4ad678","{""num_scrambled_semantic"":""8"",""num_scrambled_causal"":""4"",""num_scrambled_schematic"":""4"",""participantId"":""BF86E060063C408BAB269D8F8AEF9F8A"",""assignmentId"":""0198ee78-d97d-7d60-91c5-7683333a91cb"",""projectId"":""0198ee3c-27ac-7803-a9ea-f3b4ad4ad678""}","https://test12345.live/?num_scrambled_semantic=8&num_scrambled_causal=4&num_scrambled_schematic=4&participantId=BF86E060063C408BAB269D8F8AEF9F8A&assignmentId=0198ee78-d97d-7d60-91c5-7683333a91cb&projectId=0198ee3c-27ac-7803-a9ea-f3b4ad4ad678","BF86E060063C408BAB269D8F8AEF9F8A-2025-08-28-03-09-48","","506","","images/causal_sequence/saving_a_cat_causal/saving_a_cat_causal_5.png","0","",""
"","","","","","image-button-response","71","303025","0.0-12.0-1.0-2.4","BF86E060063C408BAB269D8F8AEF9F8A","BF86E060063C408BAB269D8F8AEF9F8A","0198ee78-d97d-7d60-91c5-7683333a91cb","0198ee3c-27ac-7803-a9ea-f3b4ad4ad678","{""num_scrambled_semantic"":""8"",""num_scrambled_causal"":""4"",""num_scrambled_schematic"":""4"",""participantId"":""BF86E060063C408BAB269D8F8AEF9F8A"",""assignmentId"":""0198ee78-d97d-7d60-91c5-7683333a91cb"",""projectId"":""0198ee3c-27ac-7803-a9ea-f3b4ad4ad678""}","https://test12345.live/?num_scrambled_semantic=8&num_scrambled_causal=4&num_scrambled_schematic=4&participantId=BF86E060063C408BAB269D8F8AEF9F8A&assignmentId=0198ee78-d97d-7d60-91c5-7683333a91cb&projectId=0198ee3c-27ac-7803-a9ea-f3b4ad4ad678","BF86E060063C408BAB269D8F8AEF9F8A-2025-08-28-03-09-48","","null","","[]","null","",""
"","","","","","image-button-response","72","307532","0.0-12.0-1.0-0.5","BF86E060063C408BAB269D8F8AEF9F8A","BF86E060063C408BAB269D8F8AEF9F8A","0198ee78-d97d-7d60-91c5-7683333a91cb","0198ee3c-27ac-7803-a9ea-f3b4ad4ad678","{""num_scrambled_semantic"":""8"",""num_scrambled_causal"":""4"",""num_scrambled_schematic"":""4"",""participantId"":""BF86E060063C408BAB269D8F8AEF9F8A"",""assignmentId"":""0198ee78-d97d-7d60-91c5-7683333a91cb"",""projectId"":""0198ee3c-27ac-7803-a9ea-f3b4ad4ad678""}","https://test12345.live/?num_scrambled_semantic=8&num_scrambled_causal=4&num_scrambled_schematic=4&participantId=BF86E060063C408BAB269D8F8AEF9F8A&assignmentId=0198ee78-d97d-7d60-91c5-7683333a91cb&projectId=0198ee3c-27ac-7803-a9ea-f3b4ad4ad678","BF86E060063C408BAB269D8F8AEF9F8A-2025-08-28-03-09-48","","null","","images/causal_sequence/saving_a_cat_causal/saving_a_cat_causal_6.png","null","",""
"","","","","","image-button-response","73","307994","0.0-12.0-1.0-1.5","BF86E060063C408BAB269D8F8AEF9F8A","BF86E060063C408BAB269D8F8AEF9F8A","0198ee78-d97d-7d60-91c5-7683333a91cb","0198ee3c-27ac-7803-a9ea-f3b4ad4ad678","{""num_scrambled_semantic"":""8"",""num_scrambled_causal"":""4"",""num_scrambled_schematic"":""4"",""participantId"":""BF86E060063C408BAB269D8F8AEF9F8A"",""assignmentId"":""0198ee78-d97d-7d60-91c5-7683333a91cb"",""projectId"":""0198ee3c-27ac-7803-a9ea-f3b4ad4ad678""}","https://test12345.live/?num_scrambled_semantic=8&num_scrambled_causal=4&num_scrambled_schematic=4&participantId=BF86E060063C408BAB269D8F8AEF9F8A&assignmentId=0198ee78-d97d-7d60-91c5-7683333a91cb&projectId=0198ee3c-27ac-7803-a9ea-f3b4ad4ad678","BF86E060063C408BAB269D8F8AEF9F8A-2025-08-28-03-09-48","","459","","images/causal_sequence/saving_a_cat_causal/saving_a_cat_causal_6.png","0","",""
"","","","","","image-button-response","74","309798","0.0-12.0-1.0-2.5","BF86E060063C408BAB269D8F8AEF9F8A","BF86E060063C408BAB269D8F8AEF9F8A","0198ee78-d97d-7d60-91c5-7683333a91cb","0198ee3c-27ac-7803-a9ea-f3b4ad4ad678","{""num_scrambled_semantic"":""8"",""num_scrambled_causal"":""4"",""num_scrambled_schematic"":""4"",""participantId"":""BF86E060063C408BAB269D8F8AEF9F8A"",""assignmentId"":""0198ee78-d97d-7d60-91c5-7683333a91cb"",""projectId"":""0198ee3c-27ac-7803-a9ea-f3b4ad4ad678""}","https://test12345.live/?num_scrambled_semantic=8&num_scrambled_causal=4&num_scrambled_schematic=4&participantId=BF86E060063C408BAB269D8F8AEF9F8A&assignmentId=0198ee78-d97d-7d60-91c5-7683333a91cb&projectId=0198ee3c-27ac-7803-a9ea-f3b4ad4ad678","BF86E060063C408BAB269D8F8AEF9F8A-2025-08-28-03-09-48","","null","","[]","null","",""
"","","","","","image-button-response","75","314305","0.0-12.0-1.0-0.6","BF86E060063C408BAB269D8F8AEF9F8A","BF86E060063C408BAB269D8F8AEF9F8A","0198ee78-d97d-7d60-91c5-7683333a91cb","0198ee3c-27ac-7803-a9ea-f3b4ad4ad678","{""num_scrambled_semantic"":""8"",""num_scrambled_causal"":""4"",""num_scrambled_schematic"":""4"",""participantId"":""BF86E060063C408BAB269D8F8AEF9F8A"",""assignmentId"":""0198ee78-d97d-7d60-91c5-7683333a91cb"",""projectId"":""0198ee3c-27ac-7803-a9ea-f3b4ad4ad678""}","https://test12345.live/?num_scrambled_semantic=8&num_scrambled_causal=4&num_scrambled_schematic=4&participantId=BF86E060063C408BAB269D8F8AEF9F8A&assignmentId=0198ee78-d97d-7d60-91c5-7683333a91cb&projectId=0198ee3c-27ac-7803-a9ea-f3b4ad4ad678","BF86E060063C408BAB269D8F8AEF9F8A-2025-08-28-03-09-48","","null","","images/causal_sequence/saving_a_cat_causal/saving_a_cat_causal_7.png","null","",""
"","","","","","image-button-response","76","315062","0.0-12.0-1.0-1.6","BF86E060063C408BAB269D8F8AEF9F8A","BF86E060063C408BAB269D8F8AEF9F8A","0198ee78-d97d-7d60-91c5-7683333a91cb","0198ee3c-27ac-7803-a9ea-f3b4ad4ad678","{""num_scrambled_semantic"":""8"",""num_scrambled_causal"":""4"",""num_scrambled_schematic"":""4"",""participantId"":""BF86E060063C408BAB269D8F8AEF9F8A"",""assignmentId"":""0198ee78-d97d-7d60-91c5-7683333a91cb"",""projectId"":""0198ee3c-27ac-7803-a9ea-f3b4ad4ad678""}","https://test12345.live/?num_scrambled_semantic=8&num_scrambled_causal=4&num_scrambled_schematic=4&participantId=BF86E060063C408BAB269D8F8AEF9F8A&assignmentId=0198ee78-d97d-7d60-91c5-7683333a91cb&projectId=0198ee3c-27ac-7803-a9ea-f3b4ad4ad678","BF86E060063C408BAB269D8F8AEF9F8A-2025-08-28-03-09-48","","754","","images/causal_sequence/saving_a_cat_causal/saving_a_cat_causal_7.png","0","",""
"","","","","","image-button-response","77","316865","0.0-12.0-1.0-2.6","BF86E060063C408BAB269D8F8AEF9F8A","BF86E060063C408BAB269D8F8AEF9F8A","0198ee78-d97d-7d60-91c5-7683333a91cb","0198ee3c-27ac-7803-a9ea-f3b4ad4ad678","{""num_scrambled_semantic"":""8"",""num_scrambled_causal"":""4"",""num_scrambled_schematic"":""4"",""participantId"":""BF86E060063C408BAB269D8F8AEF9F8A"",""assignmentId"":""0198ee78-d97d-7d60-91c5-7683333a91cb"",""projectId"":""0198ee3c-27ac-7803-a9ea-f3b4ad4ad678""}","https://test12345.live/?num_scrambled_semantic=8&num_scrambled_causal=4&num_scrambled_schematic=4&participantId=BF86E060063C408BAB269D8F8AEF9F8A&assignmentId=0198ee78-d97d-7d60-91c5-7683333a91cb&projectId=0198ee3c-27ac-7803-a9ea-f3b4ad4ad678","BF86E060063C408BAB269D8F8AEF9F8A-2025-08-28-03-09-48","","null","","[]","null","",""
"","","","","","image-button-response","78","321369","0.0-12.0-1.0-0.7","BF86E060063C408BAB269D8F8AEF9F8A","BF86E060063C408BAB269D8F8AEF9F8A","0198ee78-d97d-7d60-91c5-7683333a91cb","0198ee3c-27ac-7803-a9ea-f3b4ad4ad678","{""num_scrambled_semantic"":""8"",""num_scrambled_causal"":""4"",""num_scrambled_schematic"":""4"",""participantId"":""BF86E060063C408BAB269D8F8AEF9F8A"",""assignmentId"":""0198ee78-d97d-7d60-91c5-7683333a91cb"",""projectId"":""0198ee3c-27ac-7803-a9ea-f3b4ad4ad678""}","https://test12345.live/?num_scrambled_semantic=8&num_scrambled_causal=4&num_scrambled_schematic=4&participantId=BF86E060063C408BAB269D8F8AEF9F8A&assignmentId=0198ee78-d97d-7d60-91c5-7683333a91cb&projectId=0198ee3c-27ac-7803-a9ea-f3b4ad4ad678","BF86E060063C408BAB269D8F8AEF9F8A-2025-08-28-03-09-48","","null","","images/causal_sequence/saving_a_cat_causal/saving_a_cat_causal_8.png","null","",""
"","","","","","image-button-response","79","321769","0.0-12.0-1.0-1.7","BF86E060063C408BAB269D8F8AEF9F8A","BF86E060063C408BAB269D8F8AEF9F8A","0198ee78-d97d-7d60-91c5-7683333a91cb","0198ee3c-27ac-7803-a9ea-f3b4ad4ad678","{""num_scrambled_semantic"":""8"",""num_scrambled_causal"":""4"",""num_scrambled_schematic"":""4"",""participantId"":""BF86E060063C408BAB269D8F8AEF9F8A"",""assignmentId"":""0198ee78-d97d-7d60-91c5-7683333a91cb"",""projectId"":""0198ee3c-27ac-7803-a9ea-f3b4ad4ad678""}","https://test12345.live/?num_scrambled_semantic=8&num_scrambled_causal=4&num_scrambled_schematic=4&participantId=BF86E060063C408BAB269D8F8AEF9F8A&assignmentId=0198ee78-d97d-7d60-91c5-7683333a91cb&projectId=0198ee3c-27ac-7803-a9ea-f3b4ad4ad678","BF86E060063C408BAB269D8F8AEF9F8A-2025-08-28-03-09-48","","397","","images/causal_sequence/saving_a_cat_causal/saving_a_cat_causal_8.png","0","",""
"","","","","","image-button-response","80","323576","0.0-12.0-1.0-2.7","BF86E060063C408BAB269D8F8AEF9F8A","BF86E060063C408BAB269D8F8AEF9F8A","0198ee78-d97d-7d60-91c5-7683333a91cb","0198ee3c-27ac-7803-a9ea-f3b4ad4ad678","{""num_scrambled_semantic"":""8"",""num_scrambled_causal"":""4"",""num_scrambled_schematic"":""4"",""participantId"":""BF86E060063C408BAB269D8F8AEF9F8A"",""assignmentId"":""0198ee78-d97d-7d60-91c5-7683333a91cb"",""projectId"":""0198ee3c-27ac-7803-a9ea-f3b4ad4ad678""}","https://test12345.live/?num_scrambled_semantic=8&num_scrambled_causal=4&num_scrambled_schematic=4&participantId=BF86E060063C408BAB269D8F8AEF9F8A&assignmentId=0198ee78-d97d-7d60-91c5-7683333a91cb&projectId=0198ee3c-27ac-7803-a9ea-f3b4ad4ad678","BF86E060063C408BAB269D8F8AEF9F8A-2025-08-28-03-09-48","","null","","[]","null","",""
"","","","","","image-button-response","81","328078","0.0-12.0-1.0-0.8","BF86E060063C408BAB269D8F8AEF9F8A","BF86E060063C408BAB269D8F8AEF9F8A","0198ee78-d97d-7d60-91c5-7683333a91cb","0198ee3c-27ac-7803-a9ea-f3b4ad4ad678","{""num_scrambled_semantic"":""8"",""num_scrambled_causal"":""4"",""num_scrambled_schematic"":""4"",""participantId"":""BF86E060063C408BAB269D8F8AEF9F8A"",""assignmentId"":""0198ee78-d97d-7d60-91c5-7683333a91cb"",""projectId"":""0198ee3c-27ac-7803-a9ea-f3b4ad4ad678""}","https://test12345.live/?num_scrambled_semantic=8&num_scrambled_causal=4&num_scrambled_schematic=4&participantId=BF86E060063C408BAB269D8F8AEF9F8A&assignmentId=0198ee78-d97d-7d60-91c5-7683333a91cb&projectId=0198ee3c-27ac-7803-a9ea-f3b4ad4ad678","BF86E060063C408BAB269D8F8AEF9F8A-2025-08-28-03-09-48","","null","","images/causal_sequence/saving_a_cat_causal/saving_a_cat_causal_9.png","null","",""
"","","","","","image-button-response","82","328696","0.0-12.0-1.0-1.8","BF86E060063C408BAB269D8F8AEF9F8A","BF86E060063C408BAB269D8F8AEF9F8A","0198ee78-d97d-7d60-91c5-7683333a91cb","0198ee3c-27ac-7803-a9ea-f3b4ad4ad678","{""num_scrambled_semantic"":""8"",""num_scrambled_causal"":""4"",""num_scrambled_schematic"":""4"",""participantId"":""BF86E060063C408BAB269D8F8AEF9F8A"",""assignmentId"":""0198ee78-d97d-7d60-91c5-7683333a91cb"",""projectId"":""0198ee3c-27ac-7803-a9ea-f3b4ad4ad678""}","https://test12345.live/?num_scrambled_semantic=8&num_scrambled_causal=4&num_scrambled_schematic=4&participantId=BF86E060063C408BAB269D8F8AEF9F8A&assignmentId=0198ee78-d97d-7d60-91c5-7683333a91cb&projectId=0198ee3c-27ac-7803-a9ea-f3b4ad4ad678","BF86E060063C408BAB269D8F8AEF9F8A-2025-08-28-03-09-48","","617","","images/causal_sequence/saving_a_cat_causal/saving_a_cat_causal_9.png","0","",""
"","","","","","image-button-response","83","330503","0.0-12.0-1.0-2.8","BF86E060063C408BAB269D8F8AEF9F8A","BF86E060063C408BAB269D8F8AEF9F8A","0198ee78-d97d-7d60-91c5-7683333a91cb","0198ee3c-27ac-7803-a9ea-f3b4ad4ad678","{""num_scrambled_semantic"":""8"",""num_scrambled_causal"":""4"",""num_scrambled_schematic"":""4"",""participantId"":""BF86E060063C408BAB269D8F8AEF9F8A"",""assignmentId"":""0198ee78-d97d-7d60-91c5-7683333a91cb"",""projectId"":""0198ee3c-27ac-7803-a9ea-f3b4ad4ad678""}","https://test12345.live/?num_scrambled_semantic=8&num_scrambled_causal=4&num_scrambled_schematic=4&participantId=BF86E060063C408BAB269D8F8AEF9F8A&assignmentId=0198ee78-d97d-7d60-91c5-7683333a91cb&projectId=0198ee3c-27ac-7803-a9ea-f3b4ad4ad678","BF86E060063C408BAB269D8F8AEF9F8A-2025-08-28-03-09-48","","null","","[]","null","",""
"","","","","","image-button-response","84","335006","0.0-12.0-1.0-0.9","BF86E060063C408BAB269D8F8AEF9F8A","BF86E060063C408BAB269D8F8AEF9F8A","0198ee78-d97d-7d60-91c5-7683333a91cb","0198ee3c-27ac-7803-a9ea-f3b4ad4ad678","{""num_scrambled_semantic"":""8"",""num_scrambled_causal"":""4"",""num_scrambled_schematic"":""4"",""participantId"":""BF86E060063C408BAB269D8F8AEF9F8A"",""assignmentId"":""0198ee78-d97d-7d60-91c5-7683333a91cb"",""projectId"":""0198ee3c-27ac-7803-a9ea-f3b4ad4ad678""}","https://test12345.live/?num_scrambled_semantic=8&num_scrambled_causal=4&num_scrambled_schematic=4&participantId=BF86E060063C408BAB269D8F8AEF9F8A&assignmentId=0198ee78-d97d-7d60-91c5-7683333a91cb&projectId=0198ee3c-27ac-7803-a9ea-f3b4ad4ad678","BF86E060063C408BAB269D8F8AEF9F8A-2025-08-28-03-09-48","","null","","images/causal_sequence/saving_a_cat_causal/saving_a_cat_causal_ten.png","null","",""
"","","","","","image-button-response","85","335082","0.0-12.0-1.0-1.9","BF86E060063C408BAB269D8F8AEF9F8A","BF86E060063C408BAB269D8F8AEF9F8A","0198ee78-d97d-7d60-91c5-7683333a91cb","0198ee3c-27ac-7803-a9ea-f3b4ad4ad678","{""num_scrambled_semantic"":""8"",""num_scrambled_causal"":""4"",""num_scrambled_schematic"":""4"",""participantId"":""BF86E060063C408BAB269D8F8AEF9F8A"",""assignmentId"":""0198ee78-d97d-7d60-91c5-7683333a91cb"",""projectId"":""0198ee3c-27ac-7803-a9ea-f3b4ad4ad678""}","https://test12345.live/?num_scrambled_semantic=8&num_scrambled_causal=4&num_scrambled_schematic=4&participantId=BF86E060063C408BAB269D8F8AEF9F8A&assignmentId=0198ee78-d97d-7d60-91c5-7683333a91cb&projectId=0198ee3c-27ac-7803-a9ea-f3b4ad4ad678","BF86E060063C408BAB269D8F8AEF9F8A-2025-08-28-03-09-48","","75","","images/causal_sequence/saving_a_cat_causal/saving_a_cat_causal_ten.png","0","",""
"","","","","","image-button-response","86","336884","0.0-12.0-1.0-2.9","BF86E060063C408BAB269D8F8AEF9F8A","BF86E060063C408BAB269D8F8AEF9F8A","0198ee78-d97d-7d60-91c5-7683333a91cb","0198ee3c-27ac-7803-a9ea-f3b4ad4ad678","{""num_scrambled_semantic"":""8"",""num_scrambled_causal"":""4"",""num_scrambled_schematic"":""4"",""participantId"":""BF86E060063C408BAB269D8F8AEF9F8A"",""assignmentId"":""0198ee78-d97d-7d60-91c5-7683333a91cb"",""projectId"":""0198ee3c-27ac-7803-a9ea-f3b4ad4ad678""}","https://test12345.live/?num_scrambled_semantic=8&num_scrambled_causal=4&num_scrambled_schematic=4&participantId=BF86E060063C408BAB269D8F8AEF9F8A&assignmentId=0198ee78-d97d-7d60-91c5-7683333a91cb&projectId=0198ee3c-27ac-7803-a9ea-f3b4ad4ad678","BF86E060063C408BAB269D8F8AEF9F8A-2025-08-28-03-09-48","","null","","[]","null","",""
"","","","","","html-audio-response","87","360290","0.0-13.0","BF86E060063C408BAB269D8F8AEF9F8A","BF86E060063C408BAB269D8F8AEF9F8A","0198ee78-d97d-7d60-91c5-7683333a91cb","0198ee3c-27ac-7803-a9ea-f3b4ad4ad678","{""num_scrambled_semantic"":""8"",""num_scrambled_causal"":""4"",""num_scrambled_schematic"":""4"",""participantId"":""BF86E060063C408BAB269D8F8AEF9F8A"",""assignmentId"":""0198ee78-d97d-7d60-91c5-7683333a91cb"",""projectId"":""0198ee3c-27ac-7803-a9ea-f3b4ad4ad678""}","https://test12345.live/?num_scrambled_semantic=8&num_scrambled_causal=4&num_scrambled_schematic=4&participantId=BF86E060063C408BAB269D8F8AEF9F8A&assignmentId=0198ee78-d97d-7d60-91c5-7683333a91cb&projectId=0198ee3c-27ac-7803-a9ea-f3b4ad4ad678","BF86E060063C408BAB269D8F8AEF9F8A-2025-08-28-03-09-48","","16780","","[""<span style=\""color: red; font-size: 24px\""> NOW RECORDING</span><p>Please say out loud all the images you saw, in the order of the story they create. Try to recall the sequence of events as they appeared in the story, not necessarily the order they were presented on the screen.</p>""]","","12","saving_a_cat_causal"
"","","","","","image-button-response","88","366299","0.0-14.0-0.0","BF86E060063C408BAB269D8F8AEF9F8A","BF86E060063C408BAB269D8F8AEF9F8A","0198ee78-d97d-7d60-91c5-7683333a91cb","0198ee3c-27ac-7803-a9ea-f3b4ad4ad678","{""num_scrambled_semantic"":""8"",""num_scrambled_causal"":""4"",""num_scrambled_schematic"":""4"",""participantId"":""BF86E060063C408BAB269D8F8AEF9F8A"",""assignmentId"":""0198ee78-d97d-7d60-91c5-7683333a91cb"",""projectId"":""0198ee3c-27ac-7803-a9ea-f3b4ad4ad678""}","https://test12345.live/?num_scrambled_semantic=8&num_scrambled_causal=4&num_scrambled_schematic=4&participantId=BF86E060063C408BAB269D8F8AEF9F8A&assignmentId=0198ee78-d97d-7d60-91c5-7683333a91cb&projectId=0198ee3c-27ac-7803-a9ea-f3b4ad4ad678","BF86E060063C408BAB269D8F8AEF9F8A-2025-08-28-03-09-48","","null","","images/semantic_sequence/exploring_nature_semantic/exploring_nature_semantic_0.png","null","",""
"","","","","","image-button-response","89","370807","0.0-14.0-1.0-0.0","BF86E060063C408BAB269D8F8AEF9F8A","BF86E060063C408BAB269D8F8AEF9F8A","0198ee78-d97d-7d60-91c5-7683333a91cb","0198ee3c-27ac-7803-a9ea-f3b4ad4ad678","{""num_scrambled_semantic"":""8"",""num_scrambled_causal"":""4"",""num_scrambled_schematic"":""4"",""participantId"":""BF86E060063C408BAB269D8F8AEF9F8A"",""assignmentId"":""0198ee78-d97d-7d60-91c5-7683333a91cb"",""projectId"":""0198ee3c-27ac-7803-a9ea-f3b4ad4ad678""}","https://test12345.live/?num_scrambled_semantic=8&num_scrambled_causal=4&num_scrambled_schematic=4&participantId=BF86E060063C408BAB269D8F8AEF9F8A&assignmentId=0198ee78-d97d-7d60-91c5-7683333a91cb&projectId=0198ee3c-27ac-7803-a9ea-f3b4ad4ad678","BF86E060063C408BAB269D8F8AEF9F8A-2025-08-28-03-09-48","","null","","images/semantic_sequence/exploring_nature_semantic/exploring_nature_semantic_1.png","null","",""
"","","","","","image-button-response","90","372365","0.0-14.0-1.0-1.0","BF86E060063C408BAB269D8F8AEF9F8A","BF86E060063C408BAB269D8F8AEF9F8A","0198ee78-d97d-7d60-91c5-7683333a91cb","0198ee3c-27ac-7803-a9ea-f3b4ad4ad678","{""num_scrambled_semantic"":""8"",""num_scrambled_causal"":""4"",""num_scrambled_schematic"":""4"",""participantId"":""BF86E060063C408BAB269D8F8AEF9F8A"",""assignmentId"":""0198ee78-d97d-7d60-91c5-7683333a91cb"",""projectId"":""0198ee3c-27ac-7803-a9ea-f3b4ad4ad678""}","https://test12345.live/?num_scrambled_semantic=8&num_scrambled_causal=4&num_scrambled_schematic=4&participantId=BF86E060063C408BAB269D8F8AEF9F8A&assignmentId=0198ee78-d97d-7d60-91c5-7683333a91cb&projectId=0198ee3c-27ac-7803-a9ea-f3b4ad4ad678","BF86E060063C408BAB269D8F8AEF9F8A-2025-08-28-03-09-48","","1555","","images/semantic_sequence/exploring_nature_semantic/exploring_nature_semantic_1.png","0","",""
"","","","","","image-button-response","91","374170","0.0-14.0-1.0-2.0","BF86E060063C408BAB269D8F8AEF9F8A","BF86E060063C408BAB269D8F8AEF9F8A","0198ee78-d97d-7d60-91c5-7683333a91cb","0198ee3c-27ac-7803-a9ea-f3b4ad4ad678","{""num_scrambled_semantic"":""8"",""num_scrambled_causal"":""4"",""num_scrambled_schematic"":""4"",""participantId"":""BF86E060063C408BAB269D8F8AEF9F8A"",""assignmentId"":""0198ee78-d97d-7d60-91c5-7683333a91cb"",""projectId"":""0198ee3c-27ac-7803-a9ea-f3b4ad4ad678""}","https://test12345.live/?num_scrambled_semantic=8&num_scrambled_causal=4&num_scrambled_schematic=4&participantId=BF86E060063C408BAB269D8F8AEF9F8A&assignmentId=0198ee78-d97d-7d60-91c5-7683333a91cb&projectId=0198ee3c-27ac-7803-a9ea-f3b4ad4ad678","BF86E060063C408BAB269D8F8AEF9F8A-2025-08-28-03-09-48","","null","","[]","null","",""
"","","","","","image-button-response","92","378678","0.0-14.0-1.0-0.1","BF86E060063C408BAB269D8F8AEF9F8A","BF86E060063C408BAB269D8F8AEF9F8A","0198ee78-d97d-7d60-91c5-7683333a91cb","0198ee3c-27ac-7803-a9ea-f3b4ad4ad678","{""num_scrambled_semantic"":""8"",""num_scrambled_causal"":""4"",""num_scrambled_schematic"":""4"",""participantId"":""BF86E060063C408BAB269D8F8AEF9F8A"",""assignmentId"":""0198ee78-d97d-7d60-91c5-7683333a91cb"",""projectId"":""0198ee3c-27ac-7803-a9ea-f3b4ad4ad678""}","https://test12345.live/?num_scrambled_semantic=8&num_scrambled_causal=4&num_scrambled_schematic=4&participantId=BF86E060063C408BAB269D8F8AEF9F8A&assignmentId=0198ee78-d97d-7d60-91c5-7683333a91cb&projectId=0198ee3c-27ac-7803-a9ea-f3b4ad4ad678","BF86E060063C408BAB269D8F8AEF9F8A-2025-08-28-03-09-48","","null","","images/semantic_sequence/exploring_nature_semantic/exploring_nature_semantic_2.png","null","",""
"","","","","","image-button-response","93","379076","0.0-14.0-1.0-1.1","BF86E060063C408BAB269D8F8AEF9F8A","BF86E060063C408BAB269D8F8AEF9F8A","0198ee78-d97d-7d60-91c5-7683333a91cb","0198ee3c-27ac-7803-a9ea-f3b4ad4ad678","{""num_scrambled_semantic"":""8"",""num_scrambled_causal"":""4"",""num_scrambled_schematic"":""4"",""participantId"":""BF86E060063C408BAB269D8F8AEF9F8A"",""assignmentId"":""0198ee78-d97d-7d60-91c5-7683333a91cb"",""projectId"":""0198ee3c-27ac-7803-a9ea-f3b4ad4ad678""}","https://test12345.live/?num_scrambled_semantic=8&num_scrambled_causal=4&num_scrambled_schematic=4&participantId=BF86E060063C408BAB269D8F8AEF9F8A&assignmentId=0198ee78-d97d-7d60-91c5-7683333a91cb&projectId=0198ee3c-27ac-7803-a9ea-f3b4ad4ad678","BF86E060063C408BAB269D8F8AEF9F8A-2025-08-28-03-09-48","","396","","images/semantic_sequence/exploring_nature_semantic/exploring_nature_semantic_2.png","0","",""
"","","","","","image-button-response","94","380882","0.0-14.0-1.0-2.1","BF86E060063C408BAB269D8F8AEF9F8A","BF86E060063C408BAB269D8F8AEF9F8A","0198ee78-d97d-7d60-91c5-7683333a91cb","0198ee3c-27ac-7803-a9ea-f3b4ad4ad678","{""num_scrambled_semantic"":""8"",""num_scrambled_causal"":""4"",""num_scrambled_schematic"":""4"",""participantId"":""BF86E060063C408BAB269D8F8AEF9F8A"",""assignmentId"":""0198ee78-d97d-7d60-91c5-7683333a91cb"",""projectId"":""0198ee3c-27ac-7803-a9ea-f3b4ad4ad678""}","https://test12345.live/?num_scrambled_semantic=8&num_scrambled_causal=4&num_scrambled_schematic=4&participantId=BF86E060063C408BAB269D8F8AEF9F8A&assignmentId=0198ee78-d97d-7d60-91c5-7683333a91cb&projectId=0198ee3c-27ac-7803-a9ea-f3b4ad4ad678","BF86E060063C408BAB269D8F8AEF9F8A-2025-08-28-03-09-48","","null","","[]","null","",""
"","","","","","image-button-response","95","385390","0.0-14.0-1.0-0.2","BF86E060063C408BAB269D8F8AEF9F8A","BF86E060063C408BAB269D8F8AEF9F8A","0198ee78-d97d-7d60-91c5-7683333a91cb","0198ee3c-27ac-7803-a9ea-f3b4ad4ad678","{""num_scrambled_semantic"":""8"",""num_scrambled_causal"":""4"",""num_scrambled_schematic"":""4"",""participantId"":""BF86E060063C408BAB269D8F8AEF9F8A"",""assignmentId"":""0198ee78-d97d-7d60-91c5-7683333a91cb"",""projectId"":""0198ee3c-27ac-7803-a9ea-f3b4ad4ad678""}","https://test12345.live/?num_scrambled_semantic=8&num_scrambled_causal=4&num_scrambled_schematic=4&participantId=BF86E060063C408BAB269D8F8AEF9F8A&assignmentId=0198ee78-d97d-7d60-91c5-7683333a91cb&projectId=0198ee3c-27ac-7803-a9ea-f3b4ad4ad678","BF86E060063C408BAB269D8F8AEF9F8A-2025-08-28-03-09-48","","null","","images/semantic_sequence/exploring_nature_semantic/exploring_nature_semantic_3.png","null","",""
"","","","","","image-button-response","96","387609","0.0-14.0-1.0-1.2","BF86E060063C408BAB269D8F8AEF9F8A","BF86E060063C408BAB269D8F8AEF9F8A","0198ee78-d97d-7d60-91c5-7683333a91cb","0198ee3c-27ac-7803-a9ea-f3b4ad4ad678","{""num_scrambled_semantic"":""8"",""num_scrambled_causal"":""4"",""num_scrambled_schematic"":""4"",""participantId"":""BF86E060063C408BAB269D8F8AEF9F8A"",""assignmentId"":""0198ee78-d97d-7d60-91c5-7683333a91cb"",""projectId"":""0198ee3c-27ac-7803-a9ea-f3b4ad4ad678""}","https://test12345.live/?num_scrambled_semantic=8&num_scrambled_causal=4&num_scrambled_schematic=4&participantId=BF86E060063C408BAB269D8F8AEF9F8A&assignmentId=0198ee78-d97d-7d60-91c5-7683333a91cb&projectId=0198ee3c-27ac-7803-a9ea-f3b4ad4ad678","BF86E060063C408BAB269D8F8AEF9F8A-2025-08-28-03-09-48","","2215","","images/semantic_sequence/exploring_nature_semantic/exploring_nature_semantic_3.png","0","",""
"","","","","","image-button-response","97","389415","0.0-14.0-1.0-2.2","BF86E060063C408BAB269D8F8AEF9F8A","BF86E060063C408BAB269D8F8AEF9F8A","0198ee78-d97d-7d60-91c5-7683333a91cb","0198ee3c-27ac-7803-a9ea-f3b4ad4ad678","{""num_scrambled_semantic"":""8"",""num_scrambled_causal"":""4"",""num_scrambled_schematic"":""4"",""participantId"":""BF86E060063C408BAB269D8F8AEF9F8A"",""assignmentId"":""0198ee78-d97d-7d60-91c5-7683333a91cb"",""projectId"":""0198ee3c-27ac-7803-a9ea-f3b4ad4ad678""}","https://test12345.live/?num_scrambled_semantic=8&num_scrambled_causal=4&num_scrambled_schematic=4&participantId=BF86E060063C408BAB269D8F8AEF9F8A&assignmentId=0198ee78-d97d-7d60-91c5-7683333a91cb&projectId=0198ee3c-27ac-7803-a9ea-f3b4ad4ad678","BF86E060063C408BAB269D8F8AEF9F8A-2025-08-28-03-09-48","","null","","[]","null","",""
"","","","","","image-button-response","98","393917","0.0-14.0-1.0-0.3","BF86E060063C408BAB269D8F8AEF9F8A","BF86E060063C408BAB269D8F8AEF9F8A","0198ee78-d97d-7d60-91c5-7683333a91cb","0198ee3c-27ac-7803-a9ea-f3b4ad4ad678","{""num_scrambled_semantic"":""8"",""num_scrambled_causal"":""4"",""num_scrambled_schematic"":""4"",""participantId"":""BF86E060063C408BAB269D8F8AEF9F8A"",""assignmentId"":""0198ee78-d97d-7d60-91c5-7683333a91cb"",""projectId"":""0198ee3c-27ac-7803-a9ea-f3b4ad4ad678""}","https://test12345.live/?num_scrambled_semantic=8&num_scrambled_causal=4&num_scrambled_schematic=4&participantId=BF86E060063C408BAB269D8F8AEF9F8A&assignmentId=0198ee78-d97d-7d60-91c5-7683333a91cb&projectId=0198ee3c-27ac-7803-a9ea-f3b4ad4ad678","BF86E060063C408BAB269D8F8AEF9F8A-2025-08-28-03-09-48","","null","","images/semantic_sequence/exploring_nature_semantic/exploring_nature_semantic_4.png","null","",""
"","","","","","image-button-response","99","394066","0.0-14.0-1.0-1.3","BF86E060063C408BAB269D8F8AEF9F8A","BF86E060063C408BAB269D8F8AEF9F8A","0198ee78-d97d-7d60-91c5-7683333a91cb","0198ee3c-27ac-7803-a9ea-f3b4ad4ad678","{""num_scrambled_semantic"":""8"",""num_scrambled_causal"":""4"",""num_scrambled_schematic"":""4"",""participantId"":""BF86E060063C408BAB269D8F8AEF9F8A"",""assignmentId"":""0198ee78-d97d-7d60-91c5-7683333a91cb"",""projectId"":""0198ee3c-27ac-7803-a9ea-f3b4ad4ad678""}","https://test12345.live/?num_scrambled_semantic=8&num_scrambled_causal=4&num_scrambled_schematic=4&participantId=BF86E060063C408BAB269D8F8AEF9F8A&assignmentId=0198ee78-d97d-7d60-91c5-7683333a91cb&projectId=0198ee3c-27ac-7803-a9ea-f3b4ad4ad678","BF86E060063C408BAB269D8F8AEF9F8A-2025-08-28-03-09-48","","148","","images/semantic_sequence/exploring_nature_semantic/exploring_nature_semantic_4.png","0","",""
"","","","","","image-button-response","100","395871","0.0-14.0-1.0-2.3","BF86E060063C408BAB269D8F8AEF9F8A","BF86E060063C408BAB269D8F8AEF9F8A","0198ee78-d97d-7d60-91c5-7683333a91cb","0198ee3c-27ac-7803-a9ea-f3b4ad4ad678","{""num_scrambled_semantic"":""8"",""num_scrambled_causal"":""4"",""num_scrambled_schematic"":""4"",""participantId"":""BF86E060063C408BAB269D8F8AEF9F8A"",""assignmentId"":""0198ee78-d97d-7d60-91c5-7683333a91cb"",""projectId"":""0198ee3c-27ac-7803-a9ea-f3b4ad4ad678""}","https://test12345.live/?num_scrambled_semantic=8&num_scrambled_causal=4&num_scrambled_schematic=4&participantId=BF86E060063C408BAB269D8F8AEF9F8A&assignmentId=0198ee78-d97d-7d60-91c5-7683333a91cb&projectId=0198ee3c-27ac-7803-a9ea-f3b4ad4ad678","BF86E060063C408BAB269D8F8AEF9F8A-2025-08-28-03-09-48","","null","","[]","null","",""
"","","","","","image-button-response","101","400375","0.0-14.0-1.0-0.4","BF86E060063C408BAB269D8F8AEF9F8A","BF86E060063C408BAB269D8F8AEF9F8A","0198ee78-d97d-7d60-91c5-7683333a91cb","0198ee3c-27ac-7803-a9ea-f3b4ad4ad678","{""num_scrambled_semantic"":""8"",""num_scrambled_causal"":""4"",""num_scrambled_schematic"":""4"",""participantId"":""BF86E060063C408BAB269D8F8AEF9F8A"",""assignmentId"":""0198ee78-d97d-7d60-91c5-7683333a91cb"",""projectId"":""0198ee3c-27ac-7803-a9ea-f3b4ad4ad678""}","https://test12345.live/?num_scrambled_semantic=8&num_scrambled_causal=4&num_scrambled_schematic=4&participantId=BF86E060063C408BAB269D8F8AEF9F8A&assignmentId=0198ee78-d97d-7d60-91c5-7683333a91cb&projectId=0198ee3c-27ac-7803-a9ea-f3b4ad4ad678","BF86E060063C408BAB269D8F8AEF9F8A-2025-08-28-03-09-48","","null","","images/semantic_sequence/exploring_nature_semantic/exploring_nature_semantic_5.png","null","",""
"","","","","","image-button-response","102","400778","0.0-14.0-1.0-1.4","BF86E060063C408BAB269D8F8AEF9F8A","BF86E060063C408BAB269D8F8AEF9F8A","0198ee78-d97d-7d60-91c5-7683333a91cb","0198ee3c-27ac-7803-a9ea-f3b4ad4ad678","{""num_scrambled_semantic"":""8"",""num_scrambled_causal"":""4"",""num_scrambled_schematic"":""4"",""participantId"":""BF86E060063C408BAB269D8F8AEF9F8A"",""assignmentId"":""0198ee78-d97d-7d60-91c5-7683333a91cb"",""projectId"":""0198ee3c-27ac-7803-a9ea-f3b4ad4ad678""}","https://test12345.live/?num_scrambled_semantic=8&num_scrambled_causal=4&num_scrambled_schematic=4&participantId=BF86E060063C408BAB269D8F8AEF9F8A&assignmentId=0198ee78-d97d-7d60-91c5-7683333a91cb&projectId=0198ee3c-27ac-7803-a9ea-f3b4ad4ad678","BF86E060063C408BAB269D8F8AEF9F8A-2025-08-28-03-09-48","","402","","images/semantic_sequence/exploring_nature_semantic/exploring_nature_semantic_5.png","0","",""
"","","","","","image-button-response","103","402582","0.0-14.0-1.0-2.4","BF86E060063C408BAB269D8F8AEF9F8A","BF86E060063C408BAB269D8F8AEF9F8A","0198ee78-d97d-7d60-91c5-7683333a91cb","0198ee3c-27ac-7803-a9ea-f3b4ad4ad678","{""num_scrambled_semantic"":""8"",""num_scrambled_causal"":""4"",""num_scrambled_schematic"":""4"",""participantId"":""BF86E060063C408BAB269D8F8AEF9F8A"",""assignmentId"":""0198ee78-d97d-7d60-91c5-7683333a91cb"",""projectId"":""0198ee3c-27ac-7803-a9ea-f3b4ad4ad678""}","https://test12345.live/?num_scrambled_semantic=8&num_scrambled_causal=4&num_scrambled_schematic=4&participantId=BF86E060063C408BAB269D8F8AEF9F8A&assignmentId=0198ee78-d97d-7d60-91c5-7683333a91cb&projectId=0198ee3c-27ac-7803-a9ea-f3b4ad4ad678","BF86E060063C408BAB269D8F8AEF9F8A-2025-08-28-03-09-48","","null","","[]","null","",""
"","","","","","image-button-response","104","407085","0.0-14.0-1.0-0.5","BF86E060063C408BAB269D8F8AEF9F8A","BF86E060063C408BAB269D8F8AEF9F8A","0198ee78-d97d-7d60-91c5-7683333a91cb","0198ee3c-27ac-7803-a9ea-f3b4ad4ad678","{""num_scrambled_semantic"":""8"",""num_scrambled_causal"":""4"",""num_scrambled_schematic"":""4"",""participantId"":""BF86E060063C408BAB269D8F8AEF9F8A"",""assignmentId"":""0198ee78-d97d-7d60-91c5-7683333a91cb"",""projectId"":""0198ee3c-27ac-7803-a9ea-f3b4ad4ad678""}","https://test12345.live/?num_scrambled_semantic=8&num_scrambled_causal=4&num_scrambled_schematic=4&participantId=BF86E060063C408BAB269D8F8AEF9F8A&assignmentId=0198ee78-d97d-7d60-91c5-7683333a91cb&projectId=0198ee3c-27ac-7803-a9ea-f3b4ad4ad678","BF86E060063C408BAB269D8F8AEF9F8A-2025-08-28-03-09-48","","null","","images/semantic_sequence/exploring_nature_semantic/exploring_nature_semantic_6.png","null","",""
"","","","","","image-button-response","105","407481","0.0-14.0-1.0-1.5","BF86E060063C408BAB269D8F8AEF9F8A","BF86E060063C408BAB269D8F8AEF9F8A","0198ee78-d97d-7d60-91c5-7683333a91cb","0198ee3c-27ac-7803-a9ea-f3b4ad4ad678","{""num_scrambled_semantic"":""8"",""num_scrambled_causal"":""4"",""num_scrambled_schematic"":""4"",""participantId"":""BF86E060063C408BAB269D8F8AEF9F8A"",""assignmentId"":""0198ee78-d97d-7d60-91c5-7683333a91cb"",""projectId"":""0198ee3c-27ac-7803-a9ea-f3b4ad4ad678""}","https://test12345.live/?num_scrambled_semantic=8&num_scrambled_causal=4&num_scrambled_schematic=4&participantId=BF86E060063C408BAB269D8F8AEF9F8A&assignmentId=0198ee78-d97d-7d60-91c5-7683333a91cb&projectId=0198ee3c-27ac-7803-a9ea-f3b4ad4ad678","BF86E060063C408BAB269D8F8AEF9F8A-2025-08-28-03-09-48","","395","","images/semantic_sequence/exploring_nature_semantic/exploring_nature_semantic_6.png","0","",""
"","","","","","image-button-response","106","409289","0.0-14.0-1.0-2.5","BF86E060063C408BAB269D8F8AEF9F8A","BF86E060063C408BAB269D8F8AEF9F8A","0198ee78-d97d-7d60-91c5-7683333a91cb","0198ee3c-27ac-7803-a9ea-f3b4ad4ad678","{""num_scrambled_semantic"":""8"",""num_scrambled_causal"":""4"",""num_scrambled_schematic"":""4"",""participantId"":""BF86E060063C408BAB269D8F8AEF9F8A"",""assignmentId"":""0198ee78-d97d-7d60-91c5-7683333a91cb"",""projectId"":""0198ee3c-27ac-7803-a9ea-f3b4ad4ad678""}","https://test12345.live/?num_scrambled_semantic=8&num_scrambled_causal=4&num_scrambled_schematic=4&participantId=BF86E060063C408BAB269D8F8AEF9F8A&assignmentId=0198ee78-d97d-7d60-91c5-7683333a91cb&projectId=0198ee3c-27ac-7803-a9ea-f3b4ad4ad678","BF86E060063C408BAB269D8F8AEF9F8A-2025-08-28-03-09-48","","null","","[]","null","",""
"","","","","","image-button-response","107","413794","0.0-14.0-1.0-0.6","BF86E060063C408BAB269D8F8AEF9F8A","BF86E060063C408BAB269D8F8AEF9F8A","0198ee78-d97d-7d60-91c5-7683333a91cb","0198ee3c-27ac-7803-a9ea-f3b4ad4ad678","{""num_scrambled_semantic"":""8"",""num_scrambled_causal"":""4"",""num_scrambled_schematic"":""4"",""participantId"":""BF86E060063C408BAB269D8F8AEF9F8A"",""assignmentId"":""0198ee78-d97d-7d60-91c5-7683333a91cb"",""projectId"":""0198ee3c-27ac-7803-a9ea-f3b4ad4ad678""}","https://test12345.live/?num_scrambled_semantic=8&num_scrambled_causal=4&num_scrambled_schematic=4&participantId=BF86E060063C408BAB269D8F8AEF9F8A&assignmentId=0198ee78-d97d-7d60-91c5-7683333a91cb&projectId=0198ee3c-27ac-7803-a9ea-f3b4ad4ad678","BF86E060063C408BAB269D8F8AEF9F8A-2025-08-28-03-09-48","","null","","images/semantic_sequence/exploring_nature_semantic/exploring_nature_semantic_7.png","null","",""
"","","","","","image-button-response","108","413871","0.0-14.0-1.0-1.6","BF86E060063C408BAB269D8F8AEF9F8A","BF86E060063C408BAB269D8F8AEF9F8A","0198ee78-d97d-7d60-91c5-7683333a91cb","0198ee3c-27ac-7803-a9ea-f3b4ad4ad678","{""num_scrambled_semantic"":""8"",""num_scrambled_causal"":""4"",""num_scrambled_schematic"":""4"",""participantId"":""BF86E060063C408BAB269D8F8AEF9F8A"",""assignmentId"":""0198ee78-d97d-7d60-91c5-7683333a91cb"",""projectId"":""0198ee3c-27ac-7803-a9ea-f3b4ad4ad678""}","https://test12345.live/?num_scrambled_semantic=8&num_scrambled_causal=4&num_scrambled_schematic=4&participantId=BF86E060063C408BAB269D8F8AEF9F8A&assignmentId=0198ee78-d97d-7d60-91c5-7683333a91cb&projectId=0198ee3c-27ac-7803-a9ea-f3b4ad4ad678","BF86E060063C408BAB269D8F8AEF9F8A-2025-08-28-03-09-48","","76","","images/semantic_sequence/exploring_nature_semantic/exploring_nature_semantic_7.png","0","",""
"","","","","","image-button-response","109","415679","0.0-14.0-1.0-2.6","BF86E060063C408BAB269D8F8AEF9F8A","BF86E060063C408BAB269D8F8AEF9F8A","0198ee78-d97d-7d60-91c5-7683333a91cb","0198ee3c-27ac-7803-a9ea-f3b4ad4ad678","{""num_scrambled_semantic"":""8"",""num_scrambled_causal"":""4"",""num_scrambled_schematic"":""4"",""participantId"":""BF86E060063C408BAB269D8F8AEF9F8A"",""assignmentId"":""0198ee78-d97d-7d60-91c5-7683333a91cb"",""projectId"":""0198ee3c-27ac-7803-a9ea-f3b4ad4ad678""}","https://test12345.live/?num_scrambled_semantic=8&num_scrambled_causal=4&num_scrambled_schematic=4&participantId=BF86E060063C408BAB269D8F8AEF9F8A&assignmentId=0198ee78-d97d-7d60-91c5-7683333a91cb&projectId=0198ee3c-27ac-7803-a9ea-f3b4ad4ad678","BF86E060063C408BAB269D8F8AEF9F8A-2025-08-28-03-09-48","","null","","[]","null","",""
"","","","","","image-button-response","110","420184","0.0-14.0-1.0-0.7","BF86E060063C408BAB269D8F8AEF9F8A","BF86E060063C408BAB269D8F8AEF9F8A","0198ee78-d97d-7d60-91c5-7683333a91cb","0198ee3c-27ac-7803-a9ea-f3b4ad4ad678","{""num_scrambled_semantic"":""8"",""num_scrambled_causal"":""4"",""num_scrambled_schematic"":""4"",""participantId"":""BF86E060063C408BAB269D8F8AEF9F8A"",""assignmentId"":""0198ee78-d97d-7d60-91c5-7683333a91cb"",""projectId"":""0198ee3c-27ac-7803-a9ea-f3b4ad4ad678""}","https://test12345.live/?num_scrambled_semantic=8&num_scrambled_causal=4&num_scrambled_schematic=4&participantId=BF86E060063C408BAB269D8F8AEF9F8A&assignmentId=0198ee78-d97d-7d60-91c5-7683333a91cb&projectId=0198ee3c-27ac-7803-a9ea-f3b4ad4ad678","BF86E060063C408BAB269D8F8AEF9F8A-2025-08-28-03-09-48","","null","","images/semantic_sequence/exploring_nature_semantic/exploring_nature_semantic_8.png","null","",""
"","","","","","image-button-response","111","420675","0.0-14.0-1.0-1.7","BF86E060063C408BAB269D8F8AEF9F8A","BF86E060063C408BAB269D8F8AEF9F8A","0198ee78-d97d-7d60-91c5-7683333a91cb","0198ee3c-27ac-7803-a9ea-f3b4ad4ad678","{""num_scrambled_semantic"":""8"",""num_scrambled_causal"":""4"",""num_scrambled_schematic"":""4"",""participantId"":""BF86E060063C408BAB269D8F8AEF9F8A"",""assignmentId"":""0198ee78-d97d-7d60-91c5-7683333a91cb"",""projectId"":""0198ee3c-27ac-7803-a9ea-f3b4ad4ad678""}","https://test12345.live/?num_scrambled_semantic=8&num_scrambled_causal=4&num_scrambled_schematic=4&participantId=BF86E060063C408BAB269D8F8AEF9F8A&assignmentId=0198ee78-d97d-7d60-91c5-7683333a91cb&projectId=0198ee3c-27ac-7803-a9ea-f3b4ad4ad678","BF86E060063C408BAB269D8F8AEF9F8A-2025-08-28-03-09-48","","488","","images/semantic_sequence/exploring_nature_semantic/exploring_nature_semantic_8.png","0","",""
"","","","","","image-button-response","112","422481","0.0-14.0-1.0-2.7","BF86E060063C408BAB269D8F8AEF9F8A","BF86E060063C408BAB269D8F8AEF9F8A","0198ee78-d97d-7d60-91c5-7683333a91cb","0198ee3c-27ac-7803-a9ea-f3b4ad4ad678","{""num_scrambled_semantic"":""8"",""num_scrambled_causal"":""4"",""num_scrambled_schematic"":""4"",""participantId"":""BF86E060063C408BAB269D8F8AEF9F8A"",""assignmentId"":""0198ee78-d97d-7d60-91c5-7683333a91cb"",""projectId"":""0198ee3c-27ac-7803-a9ea-f3b4ad4ad678""}","https://test12345.live/?num_scrambled_semantic=8&num_scrambled_causal=4&num_scrambled_schematic=4&participantId=BF86E060063C408BAB269D8F8AEF9F8A&assignmentId=0198ee78-d97d-7d60-91c5-7683333a91cb&projectId=0198ee3c-27ac-7803-a9ea-f3b4ad4ad678","BF86E060063C408BAB269D8F8AEF9F8A-2025-08-28-03-09-48","","null","","[]","null","",""
"","","","","","image-button-response","113","426983","0.0-14.0-1.0-0.8","BF86E060063C408BAB269D8F8AEF9F8A","BF86E060063C408BAB269D8F8AEF9F8A","0198ee78-d97d-7d60-91c5-7683333a91cb","0198ee3c-27ac-7803-a9ea-f3b4ad4ad678","{""num_scrambled_semantic"":""8"",""num_scrambled_causal"":""4"",""num_scrambled_schematic"":""4"",""participantId"":""BF86E060063C408BAB269D8F8AEF9F8A"",""assignmentId"":""0198ee78-d97d-7d60-91c5-7683333a91cb"",""projectId"":""0198ee3c-27ac-7803-a9ea-f3b4ad4ad678""}","https://test12345.live/?num_scrambled_semantic=8&num_scrambled_causal=4&num_scrambled_schematic=4&participantId=BF86E060063C408BAB269D8F8AEF9F8A&assignmentId=0198ee78-d97d-7d60-91c5-7683333a91cb&projectId=0198ee3c-27ac-7803-a9ea-f3b4ad4ad678","BF86E060063C408BAB269D8F8AEF9F8A-2025-08-28-03-09-48","","null","","images/semantic_sequence/exploring_nature_semantic/exploring_nature_semantic_9.png","null","",""
"","","","","","image-button-response","114","427594","0.0-14.0-1.0-1.8","BF86E060063C408BAB269D8F8AEF9F8A","BF86E060063C408BAB269D8F8AEF9F8A","0198ee78-d97d-7d60-91c5-7683333a91cb","0198ee3c-27ac-7803-a9ea-f3b4ad4ad678","{""num_scrambled_semantic"":""8"",""num_scrambled_causal"":""4"",""num_scrambled_schematic"":""4"",""participantId"":""BF86E060063C408BAB269D8F8AEF9F8A"",""assignmentId"":""0198ee78-d97d-7d60-91c5-7683333a91cb"",""projectId"":""0198ee3c-27ac-7803-a9ea-f3b4ad4ad678""}","https://test12345.live/?num_scrambled_semantic=8&num_scrambled_causal=4&num_scrambled_schematic=4&participantId=BF86E060063C408BAB269D8F8AEF9F8A&assignmentId=0198ee78-d97d-7d60-91c5-7683333a91cb&projectId=0198ee3c-27ac-7803-a9ea-f3b4ad4ad678","BF86E060063C408BAB269D8F8AEF9F8A-2025-08-28-03-09-48","","608","","images/semantic_sequence/exploring_nature_semantic/exploring_nature_semantic_9.png","0","",""
