"success","timeout","failed_images","failed_audio","failed_video","trial_type","trial_index","time_elapsed","internal_node_id","subject","subject_id","study_id","session_id","urlvar","current_url","audio_id","view_history","rt","device_id","stimulus","response","estimated_stimulus_onset","seq_name"
"true","false","[]","[]","[]","preload","0","2855","0.0-0.0","BFAFB5FB18564AEF8D00B606A1DD8989","BFAFB5FB18564AEF8D00B606A1DD8989","d0550f07-c9a5-42d6-b1e5-69de0a46469c","051c06f1-75cc-4548-856d-4923ddaba0dc","{""num_scrambled_semantic"":""8"",""num_scrambled_causal"":""4"",""num_scrambled_schematic"":""4"",""participantId"":""BFAFB5FB18564AEF8D00B606A1DD8989"",""assignmentId"":""d0550f07-c9a5-42d6-b1e5-69de0a46469c"",""projectId"":""051c06f1-75cc-4548-856d-4923ddaba0dc""}","https://test12345.live/?num_scrambled_semantic=8&num_scrambled_causal=4&num_scrambled_schematic=4&participantId=BFAFB5FB18564AEF8D00B606A1DD8989&assignmentId=d0550f07-c9a5-42d6-b1e5-69de0a46469c&projectId=051c06f1-75cc-4548-856d-4923ddaba0dc","BFAFB5FB18564AEF8D00B606A1DD8989-2025-05-15-19-05-22","","","","","","",""
"","","","","","instructions","1","19605","0.0-1.0","BFAFB5FB18564AEF8D00B606A1DD8989","BFAFB5FB18564AEF8D00B606A1DD8989","d0550f07-c9a5-42d6-b1e5-69de0a46469c","051c06f1-75cc-4548-856d-4923ddaba0dc","{""num_scrambled_semantic"":""8"",""num_scrambled_causal"":""4"",""num_scrambled_schematic"":""4"",""participantId"":""BFAFB5FB18564AEF8D00B606A1DD8989"",""assignmentId"":""d0550f07-c9a5-42d6-b1e5-69de0a46469c"",""projectId"":""051c06f1-75cc-4548-856d-4923ddaba0dc""}","https://test12345.live/?num_scrambled_semantic=8&num_scrambled_causal=4&num_scrambled_schematic=4&participantId=BFAFB5FB18564AEF8D00B606A1DD8989&assignmentId=d0550f07-c9a5-42d6-b1e5-69de0a46469c&projectId=051c06f1-75cc-4548-856d-4923ddaba0dc","BFAFB5FB18564AEF8D00B606A1DD8989-2025-05-15-19-05-22","[{""page_index"":0,""viewing_time"":16749}]","16749","","","","",""
"","","","","","instructions","2","23916","0.0-2.0","BFAFB5FB18564AEF8D00B606A1DD8989","BFAFB5FB18564AEF8D00B606A1DD8989","d0550f07-c9a5-42d6-b1e5-69de0a46469c","051c06f1-75cc-4548-856d-4923ddaba0dc","{""num_scrambled_semantic"":""8"",""num_scrambled_causal"":""4"",""num_scrambled_schematic"":""4"",""participantId"":""BFAFB5FB18564AEF8D00B606A1DD8989"",""assignmentId"":""d0550f07-c9a5-42d6-b1e5-69de0a46469c"",""projectId"":""051c06f1-75cc-4548-856d-4923ddaba0dc""}","https://test12345.live/?num_scrambled_semantic=8&num_scrambled_causal=4&num_scrambled_schematic=4&participantId=BFAFB5FB18564AEF8D00B606A1DD8989&assignmentId=d0550f07-c9a5-42d6-b1e5-69de0a46469c&projectId=051c06f1-75cc-4548-856d-4923ddaba0dc","BFAFB5FB18564AEF8D00B606A1DD8989-2025-05-15-19-05-22","[{""page_index"":0,""viewing_time"":4311}]","4311","","","","",""
"true","","","","","fullscreen","3","26307","0.0-3.0","BFAFB5FB18564AEF8D00B606A1DD8989","BFAFB5FB18564AEF8D00B606A1DD8989","d0550f07-c9a5-42d6-b1e5-69de0a46469c","051c06f1-75cc-4548-856d-4923ddaba0dc","{""num_scrambled_semantic"":""8"",""num_scrambled_causal"":""4"",""num_scrambled_schematic"":""4"",""participantId"":""BFAFB5FB18564AEF8D00B606A1DD8989"",""assignmentId"":""d0550f07-c9a5-42d6-b1e5-69de0a46469c"",""projectId"":""051c06f1-75cc-4548-856d-4923ddaba0dc""}","https://test12345.live/?num_scrambled_semantic=8&num_scrambled_causal=4&num_scrambled_schematic=4&participantId=BFAFB5FB18564AEF8D00B606A1DD8989&assignmentId=d0550f07-c9a5-42d6-b1e5-69de0a46469c&projectId=051c06f1-75cc-4548-856d-4923ddaba0dc","BFAFB5FB18564AEF8D00B606A1DD8989-2025-05-15-19-05-22","","1376","","","","",""
"","","","","","initialize-microphone","4","36904","0.0-4.0-0.0","BFAFB5FB18564AEF8D00B606A1DD8989","BFAFB5FB18564AEF8D00B606A1DD8989","d0550f07-c9a5-42d6-b1e5-69de0a46469c","051c06f1-75cc-4548-856d-4923ddaba0dc","{""num_scrambled_semantic"":""8"",""num_scrambled_causal"":""4"",""num_scrambled_schematic"":""4"",""participantId"":""BFAFB5FB18564AEF8D00B606A1DD8989"",""assignmentId"":""d0550f07-c9a5-42d6-b1e5-69de0a46469c"",""projectId"":""051c06f1-75cc-4548-856d-4923ddaba0dc""}","https://test12345.live/?num_scrambled_semantic=8&num_scrambled_causal=4&num_scrambled_schematic=4&participantId=BFAFB5FB18564AEF8D00B606A1DD8989&assignmentId=d0550f07-c9a5-42d6-b1e5-69de0a46469c&projectId=051c06f1-75cc-4548-856d-4923ddaba0dc","BFAFB5FB18564AEF8D00B606A1DD8989-2025-05-15-19-05-22","","","0373415823df6f59de88f658684773245f2cfd306e4469c90697e388c26364d8","","","",""
"","","","","","html-audio-response","5","51709","0.0-4.0-1.0","BFAFB5FB18564AEF8D00B606A1DD8989","BFAFB5FB18564AEF8D00B606A1DD8989","d0550f07-c9a5-42d6-b1e5-69de0a46469c","051c06f1-75cc-4548-856d-4923ddaba0dc","{""num_scrambled_semantic"":""8"",""num_scrambled_causal"":""4"",""num_scrambled_schematic"":""4"",""participantId"":""BFAFB5FB18564AEF8D00B606A1DD8989"",""assignmentId"":""d0550f07-c9a5-42d6-b1e5-69de0a46469c"",""projectId"":""051c06f1-75cc-4548-856d-4923ddaba0dc""}","https://test12345.live/?num_scrambled_semantic=8&num_scrambled_causal=4&num_scrambled_schematic=4&participantId=BFAFB5FB18564AEF8D00B606A1DD8989&assignmentId=d0550f07-c9a5-42d6-b1e5-69de0a46469c&projectId=051c06f1-75cc-4548-856d-4923ddaba0dc","BFAFB5FB18564AEF8D00B606A1DD8989-2025-05-15-19-05-22","","6461","","<span style=""color: red; font-size: 24px""> NOW RECORDING</span>
        <p>Please test Microphone</p>","","2",""
"","","","","","html-button-response","6","52797","0.0-4.0-2.0","BFAFB5FB18564AEF8D00B606A1DD8989","BFAFB5FB18564AEF8D00B606A1DD8989","d0550f07-c9a5-42d6-b1e5-69de0a46469c","051c06f1-75cc-4548-856d-4923ddaba0dc","{""num_scrambled_semantic"":""8"",""num_scrambled_causal"":""4"",""num_scrambled_schematic"":""4"",""participantId"":""BFAFB5FB18564AEF8D00B606A1DD8989"",""assignmentId"":""d0550f07-c9a5-42d6-b1e5-69de0a46469c"",""projectId"":""051c06f1-75cc-4548-856d-4923ddaba0dc""}","https://test12345.live/?num_scrambled_semantic=8&num_scrambled_causal=4&num_scrambled_schematic=4&participantId=BFAFB5FB18564AEF8D00B606A1DD8989&assignmentId=d0550f07-c9a5-42d6-b1e5-69de0a46469c&projectId=051c06f1-75cc-4548-856d-4923ddaba0dc","BFAFB5FB18564AEF8D00B606A1DD8989-2025-05-15-19-05-22","","1087","","<p style=""font-size:48px; color:red;"">Is Microphone OK?</p>","1","",""
"","","","","","instructions","7","69220","0.0-5.0","BFAFB5FB18564AEF8D00B606A1DD8989","BFAFB5FB18564AEF8D00B606A1DD8989","d0550f07-c9a5-42d6-b1e5-69de0a46469c","051c06f1-75cc-4548-856d-4923ddaba0dc","{""num_scrambled_semantic"":""8"",""num_scrambled_causal"":""4"",""num_scrambled_schematic"":""4"",""participantId"":""BFAFB5FB18564AEF8D00B606A1DD8989"",""assignmentId"":""d0550f07-c9a5-42d6-b1e5-69de0a46469c"",""projectId"":""051c06f1-75cc-4548-856d-4923ddaba0dc""}","https://test12345.live/?num_scrambled_semantic=8&num_scrambled_causal=4&num_scrambled_schematic=4&participantId=BFAFB5FB18564AEF8D00B606A1DD8989&assignmentId=d0550f07-c9a5-42d6-b1e5-69de0a46469c&projectId=051c06f1-75cc-4548-856d-4923ddaba0dc","BFAFB5FB18564AEF8D00B606A1DD8989-2025-05-15-19-05-22","[{""page_index"":0,""viewing_time"":9319},{""page_index"":1,""viewing_time"":7104}]","16423","","","","",""
"","","","","","image-button-response","8","75223","0.0-6.0-0.0","BFAFB5FB18564AEF8D00B606A1DD8989","BFAFB5FB18564AEF8D00B606A1DD8989","d0550f07-c9a5-42d6-b1e5-69de0a46469c","051c06f1-75cc-4548-856d-4923ddaba0dc","{""num_scrambled_semantic"":""8"",""num_scrambled_causal"":""4"",""num_scrambled_schematic"":""4"",""participantId"":""BFAFB5FB18564AEF8D00B606A1DD8989"",""assignmentId"":""d0550f07-c9a5-42d6-b1e5-69de0a46469c"",""projectId"":""051c06f1-75cc-4548-856d-4923ddaba0dc""}","https://test12345.live/?num_scrambled_semantic=8&num_scrambled_causal=4&num_scrambled_schematic=4&participantId=BFAFB5FB18564AEF8D00B606A1DD8989&assignmentId=d0550f07-c9a5-42d6-b1e5-69de0a46469c&projectId=051c06f1-75cc-4548-856d-4923ddaba0dc","BFAFB5FB18564AEF8D00B606A1DD8989-2025-05-15-19-05-22","","null","","images/instructions/movie_0.png","null","",""
"","","","","","image-button-response","9","79725","0.0-6.0-1.0-0.0","BFAFB5FB18564AEF8D00B606A1DD8989","BFAFB5FB18564AEF8D00B606A1DD8989","d0550f07-c9a5-42d6-b1e5-69de0a46469c","051c06f1-75cc-4548-856d-4923ddaba0dc","{""num_scrambled_semantic"":""8"",""num_scrambled_causal"":""4"",""num_scrambled_schematic"":""4"",""participantId"":""BFAFB5FB18564AEF8D00B606A1DD8989"",""assignmentId"":""d0550f07-c9a5-42d6-b1e5-69de0a46469c"",""projectId"":""051c06f1-75cc-4548-856d-4923ddaba0dc""}","https://test12345.live/?num_scrambled_semantic=8&num_scrambled_causal=4&num_scrambled_schematic=4&participantId=BFAFB5FB18564AEF8D00B606A1DD8989&assignmentId=d0550f07-c9a5-42d6-b1e5-69de0a46469c&projectId=051c06f1-75cc-4548-856d-4923ddaba0dc","BFAFB5FB18564AEF8D00B606A1DD8989-2025-05-15-19-05-22","","null","","images/instructions/movie_1.png","null","",""
"","","","","","image-button-response","10","82044","0.0-6.0-1.0-1.0","BFAFB5FB18564AEF8D00B606A1DD8989","BFAFB5FB18564AEF8D00B606A1DD8989","d0550f07-c9a5-42d6-b1e5-69de0a46469c","051c06f1-75cc-4548-856d-4923ddaba0dc","{""num_scrambled_semantic"":""8"",""num_scrambled_causal"":""4"",""num_scrambled_schematic"":""4"",""participantId"":""BFAFB5FB18564AEF8D00B606A1DD8989"",""assignmentId"":""d0550f07-c9a5-42d6-b1e5-69de0a46469c"",""projectId"":""051c06f1-75cc-4548-856d-4923ddaba0dc""}","https://test12345.live/?num_scrambled_semantic=8&num_scrambled_causal=4&num_scrambled_schematic=4&participantId=BFAFB5FB18564AEF8D00B606A1DD8989&assignmentId=d0550f07-c9a5-42d6-b1e5-69de0a46469c&projectId=051c06f1-75cc-4548-856d-4923ddaba0dc","BFAFB5FB18564AEF8D00B606A1DD8989-2025-05-15-19-05-22","","2319","","images/instructions/movie_1.png","0","",""
"","","","","","image-button-response","11","83845","0.0-6.0-1.0-2.0","BFAFB5FB18564AEF8D00B606A1DD8989","BFAFB5FB18564AEF8D00B606A1DD8989","d0550f07-c9a5-42d6-b1e5-69de0a46469c","051c06f1-75cc-4548-856d-4923ddaba0dc","{""num_scrambled_semantic"":""8"",""num_scrambled_causal"":""4"",""num_scrambled_schematic"":""4"",""participantId"":""BFAFB5FB18564AEF8D00B606A1DD8989"",""assignmentId"":""d0550f07-c9a5-42d6-b1e5-69de0a46469c"",""projectId"":""051c06f1-75cc-4548-856d-4923ddaba0dc""}","https://test12345.live/?num_scrambled_semantic=8&num_scrambled_causal=4&num_scrambled_schematic=4&participantId=BFAFB5FB18564AEF8D00B606A1DD8989&assignmentId=d0550f07-c9a5-42d6-b1e5-69de0a46469c&projectId=051c06f1-75cc-4548-856d-4923ddaba0dc","BFAFB5FB18564AEF8D00B606A1DD8989-2025-05-15-19-05-22","","null","","[]","null","",""
"","","","","","image-button-response","12","88348","0.0-6.0-1.0-0.1","BFAFB5FB18564AEF8D00B606A1DD8989","BFAFB5FB18564AEF8D00B606A1DD8989","d0550f07-c9a5-42d6-b1e5-69de0a46469c","051c06f1-75cc-4548-856d-4923ddaba0dc","{""num_scrambled_semantic"":""8"",""num_scrambled_causal"":""4"",""num_scrambled_schematic"":""4"",""participantId"":""BFAFB5FB18564AEF8D00B606A1DD8989"",""assignmentId"":""d0550f07-c9a5-42d6-b1e5-69de0a46469c"",""projectId"":""051c06f1-75cc-4548-856d-4923ddaba0dc""}","https://test12345.live/?num_scrambled_semantic=8&num_scrambled_causal=4&num_scrambled_schematic=4&participantId=BFAFB5FB18564AEF8D00B606A1DD8989&assignmentId=d0550f07-c9a5-42d6-b1e5-69de0a46469c&projectId=051c06f1-75cc-4548-856d-4923ddaba0dc","BFAFB5FB18564AEF8D00B606A1DD8989-2025-05-15-19-05-22","","null","","images/instructions/movie_2.png","null","",""
"","","","","","image-button-response","13","89804","0.0-6.0-1.0-1.1","BFAFB5FB18564AEF8D00B606A1DD8989","BFAFB5FB18564AEF8D00B606A1DD8989","d0550f07-c9a5-42d6-b1e5-69de0a46469c","051c06f1-75cc-4548-856d-4923ddaba0dc","{""num_scrambled_semantic"":""8"",""num_scrambled_causal"":""4"",""num_scrambled_schematic"":""4"",""participantId"":""BFAFB5FB18564AEF8D00B606A1DD8989"",""assignmentId"":""d0550f07-c9a5-42d6-b1e5-69de0a46469c"",""projectId"":""051c06f1-75cc-4548-856d-4923ddaba0dc""}","https://test12345.live/?num_scrambled_semantic=8&num_scrambled_causal=4&num_scrambled_schematic=4&participantId=BFAFB5FB18564AEF8D00B606A1DD8989&assignmentId=d0550f07-c9a5-42d6-b1e5-69de0a46469c&projectId=051c06f1-75cc-4548-856d-4923ddaba0dc","BFAFB5FB18564AEF8D00B606A1DD8989-2025-05-15-19-05-22","","1456","","images/instructions/movie_2.png","0","",""
"","","","","","image-button-response","14","91606","0.0-6.0-1.0-2.1","BFAFB5FB18564AEF8D00B606A1DD8989","BFAFB5FB18564AEF8D00B606A1DD8989","d0550f07-c9a5-42d6-b1e5-69de0a46469c","051c06f1-75cc-4548-856d-4923ddaba0dc","{""num_scrambled_semantic"":""8"",""num_scrambled_causal"":""4"",""num_scrambled_schematic"":""4"",""participantId"":""BFAFB5FB18564AEF8D00B606A1DD8989"",""assignmentId"":""d0550f07-c9a5-42d6-b1e5-69de0a46469c"",""projectId"":""051c06f1-75cc-4548-856d-4923ddaba0dc""}","https://test12345.live/?num_scrambled_semantic=8&num_scrambled_causal=4&num_scrambled_schematic=4&participantId=BFAFB5FB18564AEF8D00B606A1DD8989&assignmentId=d0550f07-c9a5-42d6-b1e5-69de0a46469c&projectId=051c06f1-75cc-4548-856d-4923ddaba0dc","BFAFB5FB18564AEF8D00B606A1DD8989-2025-05-15-19-05-22","","null","","[]","null","",""
"","","","","","image-button-response","15","96107","0.0-6.0-1.0-0.2","BFAFB5FB18564AEF8D00B606A1DD8989","BFAFB5FB18564AEF8D00B606A1DD8989","d0550f07-c9a5-42d6-b1e5-69de0a46469c","051c06f1-75cc-4548-856d-4923ddaba0dc","{""num_scrambled_semantic"":""8"",""num_scrambled_causal"":""4"",""num_scrambled_schematic"":""4"",""participantId"":""BFAFB5FB18564AEF8D00B606A1DD8989"",""assignmentId"":""d0550f07-c9a5-42d6-b1e5-69de0a46469c"",""projectId"":""051c06f1-75cc-4548-856d-4923ddaba0dc""}","https://test12345.live/?num_scrambled_semantic=8&num_scrambled_causal=4&num_scrambled_schematic=4&participantId=BFAFB5FB18564AEF8D00B606A1DD8989&assignmentId=d0550f07-c9a5-42d6-b1e5-69de0a46469c&projectId=051c06f1-75cc-4548-856d-4923ddaba0dc","BFAFB5FB18564AEF8D00B606A1DD8989-2025-05-15-19-05-22","","null","","images/instructions/movie_3.png","null","",""
"","","","","","image-button-response","16","97300","0.0-6.0-1.0-1.2","BFAFB5FB18564AEF8D00B606A1DD8989","BFAFB5FB18564AEF8D00B606A1DD8989","d0550f07-c9a5-42d6-b1e5-69de0a46469c","051c06f1-75cc-4548-856d-4923ddaba0dc","{""num_scrambled_semantic"":""8"",""num_scrambled_causal"":""4"",""num_scrambled_schematic"":""4"",""participantId"":""BFAFB5FB18564AEF8D00B606A1DD8989"",""assignmentId"":""d0550f07-c9a5-42d6-b1e5-69de0a46469c"",""projectId"":""051c06f1-75cc-4548-856d-4923ddaba0dc""}","https://test12345.live/?num_scrambled_semantic=8&num_scrambled_causal=4&num_scrambled_schematic=4&participantId=BFAFB5FB18564AEF8D00B606A1DD8989&assignmentId=d0550f07-c9a5-42d6-b1e5-69de0a46469c&projectId=051c06f1-75cc-4548-856d-4923ddaba0dc","BFAFB5FB18564AEF8D00B606A1DD8989-2025-05-15-19-05-22","","1192","","images/instructions/movie_3.png","0","",""
"","","","","","image-button-response","17","99101","0.0-6.0-1.0-2.2","BFAFB5FB18564AEF8D00B606A1DD8989","BFAFB5FB18564AEF8D00B606A1DD8989","d0550f07-c9a5-42d6-b1e5-69de0a46469c","051c06f1-75cc-4548-856d-4923ddaba0dc","{""num_scrambled_semantic"":""8"",""num_scrambled_causal"":""4"",""num_scrambled_schematic"":""4"",""participantId"":""BFAFB5FB18564AEF8D00B606A1DD8989"",""assignmentId"":""d0550f07-c9a5-42d6-b1e5-69de0a46469c"",""projectId"":""051c06f1-75cc-4548-856d-4923ddaba0dc""}","https://test12345.live/?num_scrambled_semantic=8&num_scrambled_causal=4&num_scrambled_schematic=4&participantId=BFAFB5FB18564AEF8D00B606A1DD8989&assignmentId=d0550f07-c9a5-42d6-b1e5-69de0a46469c&projectId=051c06f1-75cc-4548-856d-4923ddaba0dc","BFAFB5FB18564AEF8D00B606A1DD8989-2025-05-15-19-05-22","","null","","[]","null","",""
"","","","","","image-button-response","18","103602","0.0-6.0-1.0-0.3","BFAFB5FB18564AEF8D00B606A1DD8989","BFAFB5FB18564AEF8D00B606A1DD8989","d0550f07-c9a5-42d6-b1e5-69de0a46469c","051c06f1-75cc-4548-856d-4923ddaba0dc","{""num_scrambled_semantic"":""8"",""num_scrambled_causal"":""4"",""num_scrambled_schematic"":""4"",""participantId"":""BFAFB5FB18564AEF8D00B606A1DD8989"",""assignmentId"":""d0550f07-c9a5-42d6-b1e5-69de0a46469c"",""projectId"":""051c06f1-75cc-4548-856d-4923ddaba0dc""}","https://test12345.live/?num_scrambled_semantic=8&num_scrambled_causal=4&num_scrambled_schematic=4&participantId=BFAFB5FB18564AEF8D00B606A1DD8989&assignmentId=d0550f07-c9a5-42d6-b1e5-69de0a46469c&projectId=051c06f1-75cc-4548-856d-4923ddaba0dc","BFAFB5FB18564AEF8D00B606A1DD8989-2025-05-15-19-05-22","","null","","images/instructions/movie_4.png","null","",""
"","","","","","image-button-response","19","104988","0.0-6.0-1.0-1.3","BFAFB5FB18564AEF8D00B606A1DD8989","BFAFB5FB18564AEF8D00B606A1DD8989","d0550f07-c9a5-42d6-b1e5-69de0a46469c","051c06f1-75cc-4548-856d-4923ddaba0dc","{""num_scrambled_semantic"":""8"",""num_scrambled_causal"":""4"",""num_scrambled_schematic"":""4"",""participantId"":""BFAFB5FB18564AEF8D00B606A1DD8989"",""assignmentId"":""d0550f07-c9a5-42d6-b1e5-69de0a46469c"",""projectId"":""051c06f1-75cc-4548-856d-4923ddaba0dc""}","https://test12345.live/?num_scrambled_semantic=8&num_scrambled_causal=4&num_scrambled_schematic=4&participantId=BFAFB5FB18564AEF8D00B606A1DD8989&assignmentId=d0550f07-c9a5-42d6-b1e5-69de0a46469c&projectId=051c06f1-75cc-4548-856d-4923ddaba0dc","BFAFB5FB18564AEF8D00B606A1DD8989-2025-05-15-19-05-22","","1385","","images/instructions/movie_4.png","0","",""
"","","","","","image-button-response","20","106789","0.0-6.0-1.0-2.3","BFAFB5FB18564AEF8D00B606A1DD8989","BFAFB5FB18564AEF8D00B606A1DD8989","d0550f07-c9a5-42d6-b1e5-69de0a46469c","051c06f1-75cc-4548-856d-4923ddaba0dc","{""num_scrambled_semantic"":""8"",""num_scrambled_causal"":""4"",""num_scrambled_schematic"":""4"",""participantId"":""BFAFB5FB18564AEF8D00B606A1DD8989"",""assignmentId"":""d0550f07-c9a5-42d6-b1e5-69de0a46469c"",""projectId"":""051c06f1-75cc-4548-856d-4923ddaba0dc""}","https://test12345.live/?num_scrambled_semantic=8&num_scrambled_causal=4&num_scrambled_schematic=4&participantId=BFAFB5FB18564AEF8D00B606A1DD8989&assignmentId=d0550f07-c9a5-42d6-b1e5-69de0a46469c&projectId=051c06f1-75cc-4548-856d-4923ddaba0dc","BFAFB5FB18564AEF8D00B606A1DD8989-2025-05-15-19-05-22","","null","","[]","null","",""
"","","","","","instructions","21","114620","0.0-7.0","BFAFB5FB18564AEF8D00B606A1DD8989","BFAFB5FB18564AEF8D00B606A1DD8989","d0550f07-c9a5-42d6-b1e5-69de0a46469c","051c06f1-75cc-4548-856d-4923ddaba0dc","{""num_scrambled_semantic"":""8"",""num_scrambled_causal"":""4"",""num_scrambled_schematic"":""4"",""participantId"":""BFAFB5FB18564AEF8D00B606A1DD8989"",""assignmentId"":""d0550f07-c9a5-42d6-b1e5-69de0a46469c"",""projectId"":""051c06f1-75cc-4548-856d-4923ddaba0dc""}","https://test12345.live/?num_scrambled_semantic=8&num_scrambled_causal=4&num_scrambled_schematic=4&participantId=BFAFB5FB18564AEF8D00B606A1DD8989&assignmentId=d0550f07-c9a5-42d6-b1e5-69de0a46469c&projectId=051c06f1-75cc-4548-856d-4923ddaba0dc","BFAFB5FB18564AEF8D00B606A1DD8989-2025-05-15-19-05-22","[{""page_index"":0,""viewing_time"":6855},{""page_index"":1,""viewing_time"":976}]","7831","","","","",""
"","","","","","html-audio-response","22","193836","0.0-8.0","BFAFB5FB18564AEF8D00B606A1DD8989","BFAFB5FB18564AEF8D00B606A1DD8989","d0550f07-c9a5-42d6-b1e5-69de0a46469c","051c06f1-75cc-4548-856d-4923ddaba0dc","{""num_scrambled_semantic"":""8"",""num_scrambled_causal"":""4"",""num_scrambled_schematic"":""4"",""participantId"":""BFAFB5FB18564AEF8D00B606A1DD8989"",""assignmentId"":""d0550f07-c9a5-42d6-b1e5-69de0a46469c"",""projectId"":""051c06f1-75cc-4548-856d-4923ddaba0dc""}","https://test12345.live/?num_scrambled_semantic=8&num_scrambled_causal=4&num_scrambled_schematic=4&participantId=BFAFB5FB18564AEF8D00B606A1DD8989&assignmentId=d0550f07-c9a5-42d6-b1e5-69de0a46469c&projectId=051c06f1-75cc-4548-856d-4923ddaba0dc","BFAFB5FB18564AEF8D00B606A1DD8989-2025-05-15-19-05-22","","53795","","[""<span style=\""color: red; font-size: 24px\""> NOW RECORDING</span><p>Please say out loud all the images you saw, as many as you can remember. The images can be said in any order.</p>""]","","1",""
"","","","","","instructions","23","196196","0.0-9.0","BFAFB5FB18564AEF8D00B606A1DD8989","BFAFB5FB18564AEF8D00B606A1DD8989","d0550f07-c9a5-42d6-b1e5-69de0a46469c","051c06f1-75cc-4548-856d-4923ddaba0dc","{""num_scrambled_semantic"":""8"",""num_scrambled_causal"":""4"",""num_scrambled_schematic"":""4"",""participantId"":""BFAFB5FB18564AEF8D00B606A1DD8989"",""assignmentId"":""d0550f07-c9a5-42d6-b1e5-69de0a46469c"",""projectId"":""051c06f1-75cc-4548-856d-4923ddaba0dc""}","https://test12345.live/?num_scrambled_semantic=8&num_scrambled_causal=4&num_scrambled_schematic=4&participantId=BFAFB5FB18564AEF8D00B606A1DD8989&assignmentId=d0550f07-c9a5-42d6-b1e5-69de0a46469c&projectId=051c06f1-75cc-4548-856d-4923ddaba0dc","BFAFB5FB18564AEF8D00B606A1DD8989-2025-05-15-19-05-22","[{""page_index"":0,""viewing_time"":2355}]","2355","","","","",""
"","","","","","image-button-response","24","202198","0.0-10.0-0.0","BFAFB5FB18564AEF8D00B606A1DD8989","BFAFB5FB18564AEF8D00B606A1DD8989","d0550f07-c9a5-42d6-b1e5-69de0a46469c","051c06f1-75cc-4548-856d-4923ddaba0dc","{""num_scrambled_semantic"":""8"",""num_scrambled_causal"":""4"",""num_scrambled_schematic"":""4"",""participantId"":""BFAFB5FB18564AEF8D00B606A1DD8989"",""assignmentId"":""d0550f07-c9a5-42d6-b1e5-69de0a46469c"",""projectId"":""051c06f1-75cc-4548-856d-4923ddaba0dc""}","https://test12345.live/?num_scrambled_semantic=8&num_scrambled_causal=4&num_scrambled_schematic=4&participantId=BFAFB5FB18564AEF8D00B606A1DD8989&assignmentId=d0550f07-c9a5-42d6-b1e5-69de0a46469c&projectId=051c06f1-75cc-4548-856d-4923ddaba0dc","BFAFB5FB18564AEF8D00B606A1DD8989-2025-05-15-19-05-22","","null","","images/schematic_sequence/flight_scheme/flight_scheme_0.png","null","",""
"","","","","","image-button-response","25","206699","0.0-10.0-1.0-0.0","BFAFB5FB18564AEF8D00B606A1DD8989","BFAFB5FB18564AEF8D00B606A1DD8989","d0550f07-c9a5-42d6-b1e5-69de0a46469c","051c06f1-75cc-4548-856d-4923ddaba0dc","{""num_scrambled_semantic"":""8"",""num_scrambled_causal"":""4"",""num_scrambled_schematic"":""4"",""participantId"":""BFAFB5FB18564AEF8D00B606A1DD8989"",""assignmentId"":""d0550f07-c9a5-42d6-b1e5-69de0a46469c"",""projectId"":""051c06f1-75cc-4548-856d-4923ddaba0dc""}","https://test12345.live/?num_scrambled_semantic=8&num_scrambled_causal=4&num_scrambled_schematic=4&participantId=BFAFB5FB18564AEF8D00B606A1DD8989&assignmentId=d0550f07-c9a5-42d6-b1e5-69de0a46469c&projectId=051c06f1-75cc-4548-856d-4923ddaba0dc","BFAFB5FB18564AEF8D00B606A1DD8989-2025-05-15-19-05-22","","null","","images/schematic_sequence/flight_scheme/flight_scheme_3.png","null","",""
"","","","","","image-button-response","26","209676","0.0-10.0-1.0-1.0","BFAFB5FB18564AEF8D00B606A1DD8989","BFAFB5FB18564AEF8D00B606A1DD8989","d0550f07-c9a5-42d6-b1e5-69de0a46469c","051c06f1-75cc-4548-856d-4923ddaba0dc","{""num_scrambled_semantic"":""8"",""num_scrambled_causal"":""4"",""num_scrambled_schematic"":""4"",""participantId"":""BFAFB5FB18564AEF8D00B606A1DD8989"",""assignmentId"":""d0550f07-c9a5-42d6-b1e5-69de0a46469c"",""projectId"":""051c06f1-75cc-4548-856d-4923ddaba0dc""}","https://test12345.live/?num_scrambled_semantic=8&num_scrambled_causal=4&num_scrambled_schematic=4&participantId=BFAFB5FB18564AEF8D00B606A1DD8989&assignmentId=d0550f07-c9a5-42d6-b1e5-69de0a46469c&projectId=051c06f1-75cc-4548-856d-4923ddaba0dc","BFAFB5FB18564AEF8D00B606A1DD8989-2025-05-15-19-05-22","","2977","","images/schematic_sequence/flight_scheme/flight_scheme_3.png","0","",""
"","","","","","image-button-response","27","211478","0.0-10.0-1.0-2.0","BFAFB5FB18564AEF8D00B606A1DD8989","BFAFB5FB18564AEF8D00B606A1DD8989","d0550f07-c9a5-42d6-b1e5-69de0a46469c","051c06f1-75cc-4548-856d-4923ddaba0dc","{""num_scrambled_semantic"":""8"",""num_scrambled_causal"":""4"",""num_scrambled_schematic"":""4"",""participantId"":""BFAFB5FB18564AEF8D00B606A1DD8989"",""assignmentId"":""d0550f07-c9a5-42d6-b1e5-69de0a46469c"",""projectId"":""051c06f1-75cc-4548-856d-4923ddaba0dc""}","https://test12345.live/?num_scrambled_semantic=8&num_scrambled_causal=4&num_scrambled_schematic=4&participantId=BFAFB5FB18564AEF8D00B606A1DD8989&assignmentId=d0550f07-c9a5-42d6-b1e5-69de0a46469c&projectId=051c06f1-75cc-4548-856d-4923ddaba0dc","BFAFB5FB18564AEF8D00B606A1DD8989-2025-05-15-19-05-22","","null","","[]","null","",""
"","","","","","image-button-response","28","215979","0.0-10.0-1.0-0.1","BFAFB5FB18564AEF8D00B606A1DD8989","BFAFB5FB18564AEF8D00B606A1DD8989","d0550f07-c9a5-42d6-b1e5-69de0a46469c","051c06f1-75cc-4548-856d-4923ddaba0dc","{""num_scrambled_semantic"":""8"",""num_scrambled_causal"":""4"",""num_scrambled_schematic"":""4"",""participantId"":""BFAFB5FB18564AEF8D00B606A1DD8989"",""assignmentId"":""d0550f07-c9a5-42d6-b1e5-69de0a46469c"",""projectId"":""051c06f1-75cc-4548-856d-4923ddaba0dc""}","https://test12345.live/?num_scrambled_semantic=8&num_scrambled_causal=4&num_scrambled_schematic=4&participantId=BFAFB5FB18564AEF8D00B606A1DD8989&assignmentId=d0550f07-c9a5-42d6-b1e5-69de0a46469c&projectId=051c06f1-75cc-4548-856d-4923ddaba0dc","BFAFB5FB18564AEF8D00B606A1DD8989-2025-05-15-19-05-22","","null","","images/schematic_sequence/flight_scheme/flight_scheme_5.png","null","",""
"","","","","","image-button-response","29","219980","0.0-10.0-1.0-1.1","BFAFB5FB18564AEF8D00B606A1DD8989","BFAFB5FB18564AEF8D00B606A1DD8989","d0550f07-c9a5-42d6-b1e5-69de0a46469c","051c06f1-75cc-4548-856d-4923ddaba0dc","{""num_scrambled_semantic"":""8"",""num_scrambled_causal"":""4"",""num_scrambled_schematic"":""4"",""participantId"":""BFAFB5FB18564AEF8D00B606A1DD8989"",""assignmentId"":""d0550f07-c9a5-42d6-b1e5-69de0a46469c"",""projectId"":""051c06f1-75cc-4548-856d-4923ddaba0dc""}","https://test12345.live/?num_scrambled_semantic=8&num_scrambled_causal=4&num_scrambled_schematic=4&participantId=BFAFB5FB18564AEF8D00B606A1DD8989&assignmentId=d0550f07-c9a5-42d6-b1e5-69de0a46469c&projectId=051c06f1-75cc-4548-856d-4923ddaba0dc","BFAFB5FB18564AEF8D00B606A1DD8989-2025-05-15-19-05-22","","null","","images/schematic_sequence/flight_scheme/flight_scheme_5.png","null","",""
"","","","","","image-button-response","30","221781","0.0-10.0-1.0-2.1","BFAFB5FB18564AEF8D00B606A1DD8989","BFAFB5FB18564AEF8D00B606A1DD8989","d0550f07-c9a5-42d6-b1e5-69de0a46469c","051c06f1-75cc-4548-856d-4923ddaba0dc","{""num_scrambled_semantic"":""8"",""num_scrambled_causal"":""4"",""num_scrambled_schematic"":""4"",""participantId"":""BFAFB5FB18564AEF8D00B606A1DD8989"",""assignmentId"":""d0550f07-c9a5-42d6-b1e5-69de0a46469c"",""projectId"":""051c06f1-75cc-4548-856d-4923ddaba0dc""}","https://test12345.live/?num_scrambled_semantic=8&num_scrambled_causal=4&num_scrambled_schematic=4&participantId=BFAFB5FB18564AEF8D00B606A1DD8989&assignmentId=d0550f07-c9a5-42d6-b1e5-69de0a46469c&projectId=051c06f1-75cc-4548-856d-4923ddaba0dc","BFAFB5FB18564AEF8D00B606A1DD8989-2025-05-15-19-05-22","","null","","[]","null","",""
"","","","","","image-button-response","31","226283","0.0-10.0-1.0-0.2","BFAFB5FB18564AEF8D00B606A1DD8989","BFAFB5FB18564AEF8D00B606A1DD8989","d0550f07-c9a5-42d6-b1e5-69de0a46469c","051c06f1-75cc-4548-856d-4923ddaba0dc","{""num_scrambled_semantic"":""8"",""num_scrambled_causal"":""4"",""num_scrambled_schematic"":""4"",""participantId"":""BFAFB5FB18564AEF8D00B606A1DD8989"",""assignmentId"":""d0550f07-c9a5-42d6-b1e5-69de0a46469c"",""projectId"":""051c06f1-75cc-4548-856d-4923ddaba0dc""}","https://test12345.live/?num_scrambled_semantic=8&num_scrambled_causal=4&num_scrambled_schematic=4&participantId=BFAFB5FB18564AEF8D00B606A1DD8989&assignmentId=d0550f07-c9a5-42d6-b1e5-69de0a46469c&projectId=051c06f1-75cc-4548-856d-4923ddaba0dc","BFAFB5FB18564AEF8D00B606A1DD8989-2025-05-15-19-05-22","","null","","images/schematic_sequence/flight_scheme/flight_scheme_4.png","null","",""
"","","","","","image-button-response","32","230285","0.0-10.0-1.0-1.2","BFAFB5FB18564AEF8D00B606A1DD8989","BFAFB5FB18564AEF8D00B606A1DD8989","d0550f07-c9a5-42d6-b1e5-69de0a46469c","051c06f1-75cc-4548-856d-4923ddaba0dc","{""num_scrambled_semantic"":""8"",""num_scrambled_causal"":""4"",""num_scrambled_schematic"":""4"",""participantId"":""BFAFB5FB18564AEF8D00B606A1DD8989"",""assignmentId"":""d0550f07-c9a5-42d6-b1e5-69de0a46469c"",""projectId"":""051c06f1-75cc-4548-856d-4923ddaba0dc""}","https://test12345.live/?num_scrambled_semantic=8&num_scrambled_causal=4&num_scrambled_schematic=4&participantId=BFAFB5FB18564AEF8D00B606A1DD8989&assignmentId=d0550f07-c9a5-42d6-b1e5-69de0a46469c&projectId=051c06f1-75cc-4548-856d-4923ddaba0dc","BFAFB5FB18564AEF8D00B606A1DD8989-2025-05-15-19-05-22","","null","","images/schematic_sequence/flight_scheme/flight_scheme_4.png","null","",""
"","","","","","image-button-response","33","232086","0.0-10.0-1.0-2.2","BFAFB5FB18564AEF8D00B606A1DD8989","BFAFB5FB18564AEF8D00B606A1DD8989","d0550f07-c9a5-42d6-b1e5-69de0a46469c","051c06f1-75cc-4548-856d-4923ddaba0dc","{""num_scrambled_semantic"":""8"",""num_scrambled_causal"":""4"",""num_scrambled_schematic"":""4"",""participantId"":""BFAFB5FB18564AEF8D00B606A1DD8989"",""assignmentId"":""d0550f07-c9a5-42d6-b1e5-69de0a46469c"",""projectId"":""051c06f1-75cc-4548-856d-4923ddaba0dc""}","https://test12345.live/?num_scrambled_semantic=8&num_scrambled_causal=4&num_scrambled_schematic=4&participantId=BFAFB5FB18564AEF8D00B606A1DD8989&assignmentId=d0550f07-c9a5-42d6-b1e5-69de0a46469c&projectId=051c06f1-75cc-4548-856d-4923ddaba0dc","BFAFB5FB18564AEF8D00B606A1DD8989-2025-05-15-19-05-22","","null","","[]","null","",""
"","","","","","image-button-response","34","236588","0.0-10.0-1.0-0.3","BFAFB5FB18564AEF8D00B606A1DD8989","BFAFB5FB18564AEF8D00B606A1DD8989","d0550f07-c9a5-42d6-b1e5-69de0a46469c","051c06f1-75cc-4548-856d-4923ddaba0dc","{""num_scrambled_semantic"":""8"",""num_scrambled_causal"":""4"",""num_scrambled_schematic"":""4"",""participantId"":""BFAFB5FB18564AEF8D00B606A1DD8989"",""assignmentId"":""d0550f07-c9a5-42d6-b1e5-69de0a46469c"",""projectId"":""051c06f1-75cc-4548-856d-4923ddaba0dc""}","https://test12345.live/?num_scrambled_semantic=8&num_scrambled_causal=4&num_scrambled_schematic=4&participantId=BFAFB5FB18564AEF8D00B606A1DD8989&assignmentId=d0550f07-c9a5-42d6-b1e5-69de0a46469c&projectId=051c06f1-75cc-4548-856d-4923ddaba0dc","BFAFB5FB18564AEF8D00B606A1DD8989-2025-05-15-19-05-22","","null","","images/schematic_sequence/flight_scheme/flight_scheme_1.png","null","",""
"","","","","","image-button-response","35","238220","0.0-10.0-1.0-1.3","BFAFB5FB18564AEF8D00B606A1DD8989","BFAFB5FB18564AEF8D00B606A1DD8989","d0550f07-c9a5-42d6-b1e5-69de0a46469c","051c06f1-75cc-4548-856d-4923ddaba0dc","{""num_scrambled_semantic"":""8"",""num_scrambled_causal"":""4"",""num_scrambled_schematic"":""4"",""participantId"":""BFAFB5FB18564AEF8D00B606A1DD8989"",""assignmentId"":""d0550f07-c9a5-42d6-b1e5-69de0a46469c"",""projectId"":""051c06f1-75cc-4548-856d-4923ddaba0dc""}","https://test12345.live/?num_scrambled_semantic=8&num_scrambled_causal=4&num_scrambled_schematic=4&participantId=BFAFB5FB18564AEF8D00B606A1DD8989&assignmentId=d0550f07-c9a5-42d6-b1e5-69de0a46469c&projectId=051c06f1-75cc-4548-856d-4923ddaba0dc","BFAFB5FB18564AEF8D00B606A1DD8989-2025-05-15-19-05-22","","1632","","images/schematic_sequence/flight_scheme/flight_scheme_1.png","0","",""
"","","","","","image-button-response","36","240021","0.0-10.0-1.0-2.3","BFAFB5FB18564AEF8D00B606A1DD8989","BFAFB5FB18564AEF8D00B606A1DD8989","d0550f07-c9a5-42d6-b1e5-69de0a46469c","051c06f1-75cc-4548-856d-4923ddaba0dc","{""num_scrambled_semantic"":""8"",""num_scrambled_causal"":""4"",""num_scrambled_schematic"":""4"",""participantId"":""BFAFB5FB18564AEF8D00B606A1DD8989"",""assignmentId"":""d0550f07-c9a5-42d6-b1e5-69de0a46469c"",""projectId"":""051c06f1-75cc-4548-856d-4923ddaba0dc""}","https://test12345.live/?num_scrambled_semantic=8&num_scrambled_causal=4&num_scrambled_schematic=4&participantId=BFAFB5FB18564AEF8D00B606A1DD8989&assignmentId=d0550f07-c9a5-42d6-b1e5-69de0a46469c&projectId=051c06f1-75cc-4548-856d-4923ddaba0dc","BFAFB5FB18564AEF8D00B606A1DD8989-2025-05-15-19-05-22","","null","","[]","null","",""
"","","","","","image-button-response","37","244523","0.0-10.0-1.0-0.4","BFAFB5FB18564AEF8D00B606A1DD8989","BFAFB5FB18564AEF8D00B606A1DD8989","d0550f07-c9a5-42d6-b1e5-69de0a46469c","051c06f1-75cc-4548-856d-4923ddaba0dc","{""num_scrambled_semantic"":""8"",""num_scrambled_causal"":""4"",""num_scrambled_schematic"":""4"",""participantId"":""BFAFB5FB18564AEF8D00B606A1DD8989"",""assignmentId"":""d0550f07-c9a5-42d6-b1e5-69de0a46469c"",""projectId"":""051c06f1-75cc-4548-856d-4923ddaba0dc""}","https://test12345.live/?num_scrambled_semantic=8&num_scrambled_causal=4&num_scrambled_schematic=4&participantId=BFAFB5FB18564AEF8D00B606A1DD8989&assignmentId=d0550f07-c9a5-42d6-b1e5-69de0a46469c&projectId=051c06f1-75cc-4548-856d-4923ddaba0dc","BFAFB5FB18564AEF8D00B606A1DD8989-2025-05-15-19-05-22","","null","","images/schematic_sequence/flight_scheme/flight_scheme_2.png","null","",""
"","","","","","image-button-response","38","245380","0.0-10.0-1.0-1.4","BFAFB5FB18564AEF8D00B606A1DD8989","BFAFB5FB18564AEF8D00B606A1DD8989","d0550f07-c9a5-42d6-b1e5-69de0a46469c","051c06f1-75cc-4548-856d-4923ddaba0dc","{""num_scrambled_semantic"":""8"",""num_scrambled_causal"":""4"",""num_scrambled_schematic"":""4"",""participantId"":""BFAFB5FB18564AEF8D00B606A1DD8989"",""assignmentId"":""d0550f07-c9a5-42d6-b1e5-69de0a46469c"",""projectId"":""051c06f1-75cc-4548-856d-4923ddaba0dc""}","https://test12345.live/?num_scrambled_semantic=8&num_scrambled_causal=4&num_scrambled_schematic=4&participantId=BFAFB5FB18564AEF8D00B606A1DD8989&assignmentId=d0550f07-c9a5-42d6-b1e5-69de0a46469c&projectId=051c06f1-75cc-4548-856d-4923ddaba0dc","BFAFB5FB18564AEF8D00B606A1DD8989-2025-05-15-19-05-22","","857","","images/schematic_sequence/flight_scheme/flight_scheme_2.png","1","",""
"","","","","","image-button-response","39","247182","0.0-10.0-1.0-2.4","BFAFB5FB18564AEF8D00B606A1DD8989","BFAFB5FB18564AEF8D00B606A1DD8989","d0550f07-c9a5-42d6-b1e5-69de0a46469c","051c06f1-75cc-4548-856d-4923ddaba0dc","{""num_scrambled_semantic"":""8"",""num_scrambled_causal"":""4"",""num_scrambled_schematic"":""4"",""participantId"":""BFAFB5FB18564AEF8D00B606A1DD8989"",""assignmentId"":""d0550f07-c9a5-42d6-b1e5-69de0a46469c"",""projectId"":""051c06f1-75cc-4548-856d-4923ddaba0dc""}","https://test12345.live/?num_scrambled_semantic=8&num_scrambled_causal=4&num_scrambled_schematic=4&participantId=BFAFB5FB18564AEF8D00B606A1DD8989&assignmentId=d0550f07-c9a5-42d6-b1e5-69de0a46469c&projectId=051c06f1-75cc-4548-856d-4923ddaba0dc","BFAFB5FB18564AEF8D00B606A1DD8989-2025-05-15-19-05-22","","null","","[]","null","",""
"","","","","","image-button-response","40","251684","0.0-10.0-1.0-0.5","BFAFB5FB18564AEF8D00B606A1DD8989","BFAFB5FB18564AEF8D00B606A1DD8989","d0550f07-c9a5-42d6-b1e5-69de0a46469c","051c06f1-75cc-4548-856d-4923ddaba0dc","{""num_scrambled_semantic"":""8"",""num_scrambled_causal"":""4"",""num_scrambled_schematic"":""4"",""participantId"":""BFAFB5FB18564AEF8D00B606A1DD8989"",""assignmentId"":""d0550f07-c9a5-42d6-b1e5-69de0a46469c"",""projectId"":""051c06f1-75cc-4548-856d-4923ddaba0dc""}","https://test12345.live/?num_scrambled_semantic=8&num_scrambled_causal=4&num_scrambled_schematic=4&participantId=BFAFB5FB18564AEF8D00B606A1DD8989&assignmentId=d0550f07-c9a5-42d6-b1e5-69de0a46469c&projectId=051c06f1-75cc-4548-856d-4923ddaba0dc","BFAFB5FB18564AEF8D00B606A1DD8989-2025-05-15-19-05-22","","null","","images/schematic_sequence/flight_scheme/flight_scheme_9.png","null","",""
"","","","","","image-button-response","41","252380","0.0-10.0-1.0-1.5","BFAFB5FB18564AEF8D00B606A1DD8989","BFAFB5FB18564AEF8D00B606A1DD8989","d0550f07-c9a5-42d6-b1e5-69de0a46469c","051c06f1-75cc-4548-856d-4923ddaba0dc","{""num_scrambled_semantic"":""8"",""num_scrambled_causal"":""4"",""num_scrambled_schematic"":""4"",""participantId"":""BFAFB5FB18564AEF8D00B606A1DD8989"",""assignmentId"":""d0550f07-c9a5-42d6-b1e5-69de0a46469c"",""projectId"":""051c06f1-75cc-4548-856d-4923ddaba0dc""}","https://test12345.live/?num_scrambled_semantic=8&num_scrambled_causal=4&num_scrambled_schematic=4&participantId=BFAFB5FB18564AEF8D00B606A1DD8989&assignmentId=d0550f07-c9a5-42d6-b1e5-69de0a46469c&projectId=051c06f1-75cc-4548-856d-4923ddaba0dc","BFAFB5FB18564AEF8D00B606A1DD8989-2025-05-15-19-05-22","","696","","images/schematic_sequence/flight_scheme/flight_scheme_9.png","0","",""
"","","","","","image-button-response","42","254182","0.0-10.0-1.0-2.5","BFAFB5FB18564AEF8D00B606A1DD8989","BFAFB5FB18564AEF8D00B606A1DD8989","d0550f07-c9a5-42d6-b1e5-69de0a46469c","051c06f1-75cc-4548-856d-4923ddaba0dc","{""num_scrambled_semantic"":""8"",""num_scrambled_causal"":""4"",""num_scrambled_schematic"":""4"",""participantId"":""BFAFB5FB18564AEF8D00B606A1DD8989"",""assignmentId"":""d0550f07-c9a5-42d6-b1e5-69de0a46469c"",""projectId"":""051c06f1-75cc-4548-856d-4923ddaba0dc""}","https://test12345.live/?num_scrambled_semantic=8&num_scrambled_causal=4&num_scrambled_schematic=4&participantId=BFAFB5FB18564AEF8D00B606A1DD8989&assignmentId=d0550f07-c9a5-42d6-b1e5-69de0a46469c&projectId=051c06f1-75cc-4548-856d-4923ddaba0dc","BFAFB5FB18564AEF8D00B606A1DD8989-2025-05-15-19-05-22","","null","","[]","null","",""
"","","","","","image-button-response","43","258683","0.0-10.0-1.0-0.6","BFAFB5FB18564AEF8D00B606A1DD8989","BFAFB5FB18564AEF8D00B606A1DD8989","d0550f07-c9a5-42d6-b1e5-69de0a46469c","051c06f1-75cc-4548-856d-4923ddaba0dc","{""num_scrambled_semantic"":""8"",""num_scrambled_causal"":""4"",""num_scrambled_schematic"":""4"",""participantId"":""BFAFB5FB18564AEF8D00B606A1DD8989"",""assignmentId"":""d0550f07-c9a5-42d6-b1e5-69de0a46469c"",""projectId"":""051c06f1-75cc-4548-856d-4923ddaba0dc""}","https://test12345.live/?num_scrambled_semantic=8&num_scrambled_causal=4&num_scrambled_schematic=4&participantId=BFAFB5FB18564AEF8D00B606A1DD8989&assignmentId=d0550f07-c9a5-42d6-b1e5-69de0a46469c&projectId=051c06f1-75cc-4548-856d-4923ddaba0dc","BFAFB5FB18564AEF8D00B606A1DD8989-2025-05-15-19-05-22","","null","","images/schematic_sequence/flight_scheme/flight_scheme_8.png","null","",""
"","","","","","image-button-response","44","259484","0.0-10.0-1.0-1.6","BFAFB5FB18564AEF8D00B606A1DD8989","BFAFB5FB18564AEF8D00B606A1DD8989","d0550f07-c9a5-42d6-b1e5-69de0a46469c","051c06f1-75cc-4548-856d-4923ddaba0dc","{""num_scrambled_semantic"":""8"",""num_scrambled_causal"":""4"",""num_scrambled_schematic"":""4"",""participantId"":""BFAFB5FB18564AEF8D00B606A1DD8989"",""assignmentId"":""d0550f07-c9a5-42d6-b1e5-69de0a46469c"",""projectId"":""051c06f1-75cc-4548-856d-4923ddaba0dc""}","https://test12345.live/?num_scrambled_semantic=8&num_scrambled_causal=4&num_scrambled_schematic=4&participantId=BFAFB5FB18564AEF8D00B606A1DD8989&assignmentId=d0550f07-c9a5-42d6-b1e5-69de0a46469c&projectId=051c06f1-75cc-4548-856d-4923ddaba0dc","BFAFB5FB18564AEF8D00B606A1DD8989-2025-05-15-19-05-22","","800","","images/schematic_sequence/flight_scheme/flight_scheme_8.png","1","",""
"","","","","","image-button-response","45","261285","0.0-10.0-1.0-2.6","BFAFB5FB18564AEF8D00B606A1DD8989","BFAFB5FB18564AEF8D00B606A1DD8989","d0550f07-c9a5-42d6-b1e5-69de0a46469c","051c06f1-75cc-4548-856d-4923ddaba0dc","{""num_scrambled_semantic"":""8"",""num_scrambled_causal"":""4"",""num_scrambled_schematic"":""4"",""participantId"":""BFAFB5FB18564AEF8D00B606A1DD8989"",""assignmentId"":""d0550f07-c9a5-42d6-b1e5-69de0a46469c"",""projectId"":""051c06f1-75cc-4548-856d-4923ddaba0dc""}","https://test12345.live/?num_scrambled_semantic=8&num_scrambled_causal=4&num_scrambled_schematic=4&participantId=BFAFB5FB18564AEF8D00B606A1DD8989&assignmentId=d0550f07-c9a5-42d6-b1e5-69de0a46469c&projectId=051c06f1-75cc-4548-856d-4923ddaba0dc","BFAFB5FB18564AEF8D00B606A1DD8989-2025-05-15-19-05-22","","null","","[]","null","",""
"","","","","","image-button-response","46","265786","0.0-10.0-1.0-0.7","BFAFB5FB18564AEF8D00B606A1DD8989","BFAFB5FB18564AEF8D00B606A1DD8989","d0550f07-c9a5-42d6-b1e5-69de0a46469c","051c06f1-75cc-4548-856d-4923ddaba0dc","{""num_scrambled_semantic"":""8"",""num_scrambled_causal"":""4"",""num_scrambled_schematic"":""4"",""participantId"":""BFAFB5FB18564AEF8D00B606A1DD8989"",""assignmentId"":""d0550f07-c9a5-42d6-b1e5-69de0a46469c"",""projectId"":""051c06f1-75cc-4548-856d-4923ddaba0dc""}","https://test12345.live/?num_scrambled_semantic=8&num_scrambled_causal=4&num_scrambled_schematic=4&participantId=BFAFB5FB18564AEF8D00B606A1DD8989&assignmentId=d0550f07-c9a5-42d6-b1e5-69de0a46469c&projectId=051c06f1-75cc-4548-856d-4923ddaba0dc","BFAFB5FB18564AEF8D00B606A1DD8989-2025-05-15-19-05-22","","null","","images/schematic_sequence/flight_scheme/flight_scheme_6.png","null","",""
"","","","","","image-button-response","47","266620","0.0-10.0-1.0-1.7","BFAFB5FB18564AEF8D00B606A1DD8989","BFAFB5FB18564AEF8D00B606A1DD8989","d0550f07-c9a5-42d6-b1e5-69de0a46469c","051c06f1-75cc-4548-856d-4923ddaba0dc","{""num_scrambled_semantic"":""8"",""num_scrambled_causal"":""4"",""num_scrambled_schematic"":""4"",""participantId"":""BFAFB5FB18564AEF8D00B606A1DD8989"",""assignmentId"":""d0550f07-c9a5-42d6-b1e5-69de0a46469c"",""projectId"":""051c06f1-75cc-4548-856d-4923ddaba0dc""}","https://test12345.live/?num_scrambled_semantic=8&num_scrambled_causal=4&num_scrambled_schematic=4&participantId=BFAFB5FB18564AEF8D00B606A1DD8989&assignmentId=d0550f07-c9a5-42d6-b1e5-69de0a46469c&projectId=051c06f1-75cc-4548-856d-4923ddaba0dc","BFAFB5FB18564AEF8D00B606A1DD8989-2025-05-15-19-05-22","","834","","images/schematic_sequence/flight_scheme/flight_scheme_6.png","1","",""
"","","","","","image-button-response","48","268422","0.0-10.0-1.0-2.7","BFAFB5FB18564AEF8D00B606A1DD8989","BFAFB5FB18564AEF8D00B606A1DD8989","d0550f07-c9a5-42d6-b1e5-69de0a46469c","051c06f1-75cc-4548-856d-4923ddaba0dc","{""num_scrambled_semantic"":""8"",""num_scrambled_causal"":""4"",""num_scrambled_schematic"":""4"",""participantId"":""BFAFB5FB18564AEF8D00B606A1DD8989"",""assignmentId"":""d0550f07-c9a5-42d6-b1e5-69de0a46469c"",""projectId"":""051c06f1-75cc-4548-856d-4923ddaba0dc""}","https://test12345.live/?num_scrambled_semantic=8&num_scrambled_causal=4&num_scrambled_schematic=4&participantId=BFAFB5FB18564AEF8D00B606A1DD8989&assignmentId=d0550f07-c9a5-42d6-b1e5-69de0a46469c&projectId=051c06f1-75cc-4548-856d-4923ddaba0dc","BFAFB5FB18564AEF8D00B606A1DD8989-2025-05-15-19-05-22","","null","","[]","null","",""
"","","","","","image-button-response","49","272924","0.0-10.0-1.0-0.8","BFAFB5FB18564AEF8D00B606A1DD8989","BFAFB5FB18564AEF8D00B606A1DD8989","d0550f07-c9a5-42d6-b1e5-69de0a46469c","051c06f1-75cc-4548-856d-4923ddaba0dc","{""num_scrambled_semantic"":""8"",""num_scrambled_causal"":""4"",""num_scrambled_schematic"":""4"",""participantId"":""BFAFB5FB18564AEF8D00B606A1DD8989"",""assignmentId"":""d0550f07-c9a5-42d6-b1e5-69de0a46469c"",""projectId"":""051c06f1-75cc-4548-856d-4923ddaba0dc""}","https://test12345.live/?num_scrambled_semantic=8&num_scrambled_causal=4&num_scrambled_schematic=4&participantId=BFAFB5FB18564AEF8D00B606A1DD8989&assignmentId=d0550f07-c9a5-42d6-b1e5-69de0a46469c&projectId=051c06f1-75cc-4548-856d-4923ddaba0dc","BFAFB5FB18564AEF8D00B606A1DD8989-2025-05-15-19-05-22","","null","","images/schematic_sequence/flight_scheme/flight_scheme_ten.png","null","",""
"","","","","","image-button-response","50","274092","0.0-10.0-1.0-1.8","BFAFB5FB18564AEF8D00B606A1DD8989","BFAFB5FB18564AEF8D00B606A1DD8989","d0550f07-c9a5-42d6-b1e5-69de0a46469c","051c06f1-75cc-4548-856d-4923ddaba0dc","{""num_scrambled_semantic"":""8"",""num_scrambled_causal"":""4"",""num_scrambled_schematic"":""4"",""participantId"":""BFAFB5FB18564AEF8D00B606A1DD8989"",""assignmentId"":""d0550f07-c9a5-42d6-b1e5-69de0a46469c"",""projectId"":""051c06f1-75cc-4548-856d-4923ddaba0dc""}","https://test12345.live/?num_scrambled_semantic=8&num_scrambled_causal=4&num_scrambled_schematic=4&participantId=BFAFB5FB18564AEF8D00B606A1DD8989&assignmentId=d0550f07-c9a5-42d6-b1e5-69de0a46469c&projectId=051c06f1-75cc-4548-856d-4923ddaba0dc","BFAFB5FB18564AEF8D00B606A1DD8989-2025-05-15-19-05-22","","1168","","images/schematic_sequence/flight_scheme/flight_scheme_ten.png","0","",""
"","","","","","image-button-response","51","275893","0.0-10.0-1.0-2.8","BFAFB5FB18564AEF8D00B606A1DD8989","BFAFB5FB18564AEF8D00B606A1DD8989","d0550f07-c9a5-42d6-b1e5-69de0a46469c","051c06f1-75cc-4548-856d-4923ddaba0dc","{""num_scrambled_semantic"":""8"",""num_scrambled_causal"":""4"",""num_scrambled_schematic"":""4"",""participantId"":""BFAFB5FB18564AEF8D00B606A1DD8989"",""assignmentId"":""d0550f07-c9a5-42d6-b1e5-69de0a46469c"",""projectId"":""051c06f1-75cc-4548-856d-4923ddaba0dc""}","https://test12345.live/?num_scrambled_semantic=8&num_scrambled_causal=4&num_scrambled_schematic=4&participantId=BFAFB5FB18564AEF8D00B606A1DD8989&assignmentId=d0550f07-c9a5-42d6-b1e5-69de0a46469c&projectId=051c06f1-75cc-4548-856d-4923ddaba0dc","BFAFB5FB18564AEF8D00B606A1DD8989-2025-05-15-19-05-22","","null","","[]","null","",""
"","","","","","image-button-response","52","280394","0.0-10.0-1.0-0.9","BFAFB5FB18564AEF8D00B606A1DD8989","BFAFB5FB18564AEF8D00B606A1DD8989","d0550f07-c9a5-42d6-b1e5-69de0a46469c","051c06f1-75cc-4548-856d-4923ddaba0dc","{""num_scrambled_semantic"":""8"",""num_scrambled_causal"":""4"",""num_scrambled_schematic"":""4"",""participantId"":""BFAFB5FB18564AEF8D00B606A1DD8989"",""assignmentId"":""d0550f07-c9a5-42d6-b1e5-69de0a46469c"",""projectId"":""051c06f1-75cc-4548-856d-4923ddaba0dc""}","https://test12345.live/?num_scrambled_semantic=8&num_scrambled_causal=4&num_scrambled_schematic=4&participantId=BFAFB5FB18564AEF8D00B606A1DD8989&assignmentId=d0550f07-c9a5-42d6-b1e5-69de0a46469c&projectId=051c06f1-75cc-4548-856d-4923ddaba0dc","BFAFB5FB18564AEF8D00B606A1DD8989-2025-05-15-19-05-22","","null","","images/schematic_sequence/flight_scheme/flight_scheme_7.png","null","",""
"","","","","","image-button-response","53","281540","0.0-10.0-1.0-1.9","BFAFB5FB18564AEF8D00B606A1DD8989","BFAFB5FB18564AEF8D00B606A1DD8989","d0550f07-c9a5-42d6-b1e5-69de0a46469c","051c06f1-75cc-4548-856d-4923ddaba0dc","{""num_scrambled_semantic"":""8"",""num_scrambled_causal"":""4"",""num_scrambled_schematic"":""4"",""participantId"":""BFAFB5FB18564AEF8D00B606A1DD8989"",""assignmentId"":""d0550f07-c9a5-42d6-b1e5-69de0a46469c"",""projectId"":""051c06f1-75cc-4548-856d-4923ddaba0dc""}","https://test12345.live/?num_scrambled_semantic=8&num_scrambled_causal=4&num_scrambled_schematic=4&participantId=BFAFB5FB18564AEF8D00B606A1DD8989&assignmentId=d0550f07-c9a5-42d6-b1e5-69de0a46469c&projectId=051c06f1-75cc-4548-856d-4923ddaba0dc","BFAFB5FB18564AEF8D00B606A1DD8989-2025-05-15-19-05-22","","1145","","images/schematic_sequence/flight_scheme/flight_scheme_7.png","1","",""
"","","","","","image-button-response","54","283342","0.0-10.0-1.0-2.9","BFAFB5FB18564AEF8D00B606A1DD8989","BFAFB5FB18564AEF8D00B606A1DD8989","d0550f07-c9a5-42d6-b1e5-69de0a46469c","051c06f1-75cc-4548-856d-4923ddaba0dc","{""num_scrambled_semantic"":""8"",""num_scrambled_causal"":""4"",""num_scrambled_schematic"":""4"",""participantId"":""BFAFB5FB18564AEF8D00B606A1DD8989"",""assignmentId"":""d0550f07-c9a5-42d6-b1e5-69de0a46469c"",""projectId"":""051c06f1-75cc-4548-856d-4923ddaba0dc""}","https://test12345.live/?num_scrambled_semantic=8&num_scrambled_causal=4&num_scrambled_schematic=4&participantId=BFAFB5FB18564AEF8D00B606A1DD8989&assignmentId=d0550f07-c9a5-42d6-b1e5-69de0a46469c&projectId=051c06f1-75cc-4548-856d-4923ddaba0dc","BFAFB5FB18564AEF8D00B606A1DD8989-2025-05-15-19-05-22","","null","","[]","null","",""
"","","","","","html-audio-response","55","379892","0.0-11.0","BFAFB5FB18564AEF8D00B606A1DD8989","BFAFB5FB18564AEF8D00B606A1DD8989","d0550f07-c9a5-42d6-b1e5-69de0a46469c","051c06f1-75cc-4548-856d-4923ddaba0dc","{""num_scrambled_semantic"":""8"",""num_scrambled_causal"":""4"",""num_scrambled_schematic"":""4"",""participantId"":""BFAFB5FB18564AEF8D00B606A1DD8989"",""assignmentId"":""d0550f07-c9a5-42d6-b1e5-69de0a46469c"",""projectId"":""051c06f1-75cc-4548-856d-4923ddaba0dc""}","https://test12345.live/?num_scrambled_semantic=8&num_scrambled_causal=4&num_scrambled_schematic=4&participantId=BFAFB5FB18564AEF8D00B606A1DD8989&assignmentId=d0550f07-c9a5-42d6-b1e5-69de0a46469c&projectId=051c06f1-75cc-4548-856d-4923ddaba0dc","BFAFB5FB18564AEF8D00B606A1DD8989-2025-05-15-19-05-22","","2405","","[""<span style=\""color: red; font-size: 24px\""> NOW RECORDING</span><p>Please say out loud all the images you saw, as many as you can remember. The images can be said in any order.</p>""]","","1","flight_scheme"
"","","","","","image-button-response","56","385894","0.0-12.0-0.0","BFAFB5FB18564AEF8D00B606A1DD8989","BFAFB5FB18564AEF8D00B606A1DD8989","d0550f07-c9a5-42d6-b1e5-69de0a46469c","051c06f1-75cc-4548-856d-4923ddaba0dc","{""num_scrambled_semantic"":""8"",""num_scrambled_causal"":""4"",""num_scrambled_schematic"":""4"",""participantId"":""BFAFB5FB18564AEF8D00B606A1DD8989"",""assignmentId"":""d0550f07-c9a5-42d6-b1e5-69de0a46469c"",""projectId"":""051c06f1-75cc-4548-856d-4923ddaba0dc""}","https://test12345.live/?num_scrambled_semantic=8&num_scrambled_causal=4&num_scrambled_schematic=4&participantId=BFAFB5FB18564AEF8D00B606A1DD8989&assignmentId=d0550f07-c9a5-42d6-b1e5-69de0a46469c&projectId=051c06f1-75cc-4548-856d-4923ddaba0dc","BFAFB5FB18564AEF8D00B606A1DD8989-2025-05-15-19-05-22","","null","","images/schematic_sequence/restaurant_scheme/restaurant_scheme_0.png","null","",""
"","","","","","image-button-response","57","390396","0.0-12.0-1.0-0.0","BFAFB5FB18564AEF8D00B606A1DD8989","BFAFB5FB18564AEF8D00B606A1DD8989","d0550f07-c9a5-42d6-b1e5-69de0a46469c","051c06f1-75cc-4548-856d-4923ddaba0dc","{""num_scrambled_semantic"":""8"",""num_scrambled_causal"":""4"",""num_scrambled_schematic"":""4"",""participantId"":""BFAFB5FB18564AEF8D00B606A1DD8989"",""assignmentId"":""d0550f07-c9a5-42d6-b1e5-69de0a46469c"",""projectId"":""051c06f1-75cc-4548-856d-4923ddaba0dc""}","https://test12345.live/?num_scrambled_semantic=8&num_scrambled_causal=4&num_scrambled_schematic=4&participantId=BFAFB5FB18564AEF8D00B606A1DD8989&assignmentId=d0550f07-c9a5-42d6-b1e5-69de0a46469c&projectId=051c06f1-75cc-4548-856d-4923ddaba0dc","BFAFB5FB18564AEF8D00B606A1DD8989-2025-05-15-19-05-22","","null","","images/schematic_sequence/restaurant_scheme/restaurant_scheme_1.png","null","",""
"","","","","","image-button-response","58","392076","0.0-12.0-1.0-1.0","BFAFB5FB18564AEF8D00B606A1DD8989","BFAFB5FB18564AEF8D00B606A1DD8989","d0550f07-c9a5-42d6-b1e5-69de0a46469c","051c06f1-75cc-4548-856d-4923ddaba0dc","{""num_scrambled_semantic"":""8"",""num_scrambled_causal"":""4"",""num_scrambled_schematic"":""4"",""participantId"":""BFAFB5FB18564AEF8D00B606A1DD8989"",""assignmentId"":""d0550f07-c9a5-42d6-b1e5-69de0a46469c"",""projectId"":""051c06f1-75cc-4548-856d-4923ddaba0dc""}","https://test12345.live/?num_scrambled_semantic=8&num_scrambled_causal=4&num_scrambled_schematic=4&participantId=BFAFB5FB18564AEF8D00B606A1DD8989&assignmentId=d0550f07-c9a5-42d6-b1e5-69de0a46469c&projectId=051c06f1-75cc-4548-856d-4923ddaba0dc","BFAFB5FB18564AEF8D00B606A1DD8989-2025-05-15-19-05-22","","1680","","images/schematic_sequence/restaurant_scheme/restaurant_scheme_1.png","0","",""
"","","","","","image-button-response","59","393878","0.0-12.0-1.0-2.0","BFAFB5FB18564AEF8D00B606A1DD8989","BFAFB5FB18564AEF8D00B606A1DD8989","d0550f07-c9a5-42d6-b1e5-69de0a46469c","051c06f1-75cc-4548-856d-4923ddaba0dc","{""num_scrambled_semantic"":""8"",""num_scrambled_causal"":""4"",""num_scrambled_schematic"":""4"",""participantId"":""BFAFB5FB18564AEF8D00B606A1DD8989"",""assignmentId"":""d0550f07-c9a5-42d6-b1e5-69de0a46469c"",""projectId"":""051c06f1-75cc-4548-856d-4923ddaba0dc""}","https://test12345.live/?num_scrambled_semantic=8&num_scrambled_causal=4&num_scrambled_schematic=4&participantId=BFAFB5FB18564AEF8D00B606A1DD8989&assignmentId=d0550f07-c9a5-42d6-b1e5-69de0a46469c&projectId=051c06f1-75cc-4548-856d-4923ddaba0dc","BFAFB5FB18564AEF8D00B606A1DD8989-2025-05-15-19-05-22","","null","","[]","null","",""
"","","","","","image-button-response","60","398379","0.0-12.0-1.0-0.1","BFAFB5FB18564AEF8D00B606A1DD8989","BFAFB5FB18564AEF8D00B606A1DD8989","d0550f07-c9a5-42d6-b1e5-69de0a46469c","051c06f1-75cc-4548-856d-4923ddaba0dc","{""num_scrambled_semantic"":""8"",""num_scrambled_causal"":""4"",""num_scrambled_schematic"":""4"",""participantId"":""BFAFB5FB18564AEF8D00B606A1DD8989"",""assignmentId"":""d0550f07-c9a5-42d6-b1e5-69de0a46469c"",""projectId"":""051c06f1-75cc-4548-856d-4923ddaba0dc""}","https://test12345.live/?num_scrambled_semantic=8&num_scrambled_causal=4&num_scrambled_schematic=4&participantId=BFAFB5FB18564AEF8D00B606A1DD8989&assignmentId=d0550f07-c9a5-42d6-b1e5-69de0a46469c&projectId=051c06f1-75cc-4548-856d-4923ddaba0dc","BFAFB5FB18564AEF8D00B606A1DD8989-2025-05-15-19-05-22","","null","","images/schematic_sequence/restaurant_scheme/restaurant_scheme_2.png","null","",""
"","","","","","image-button-response","61","400476","0.0-12.0-1.0-1.1","BFAFB5FB18564AEF8D00B606A1DD8989","BFAFB5FB18564AEF8D00B606A1DD8989","d0550f07-c9a5-42d6-b1e5-69de0a46469c","051c06f1-75cc-4548-856d-4923ddaba0dc","{""num_scrambled_semantic"":""8"",""num_scrambled_causal"":""4"",""num_scrambled_schematic"":""4"",""participantId"":""BFAFB5FB18564AEF8D00B606A1DD8989"",""assignmentId"":""d0550f07-c9a5-42d6-b1e5-69de0a46469c"",""projectId"":""051c06f1-75cc-4548-856d-4923ddaba0dc""}","https://test12345.live/?num_scrambled_semantic=8&num_scrambled_causal=4&num_scrambled_schematic=4&participantId=BFAFB5FB18564AEF8D00B606A1DD8989&assignmentId=d0550f07-c9a5-42d6-b1e5-69de0a46469c&projectId=051c06f1-75cc-4548-856d-4923ddaba0dc","BFAFB5FB18564AEF8D00B606A1DD8989-2025-05-15-19-05-22","","2097","","images/schematic_sequence/restaurant_scheme/restaurant_scheme_2.png","1","",""
"","","","","","image-button-response","62","402278","0.0-12.0-1.0-2.1","BFAFB5FB18564AEF8D00B606A1DD8989","BFAFB5FB18564AEF8D00B606A1DD8989","d0550f07-c9a5-42d6-b1e5-69de0a46469c","051c06f1-75cc-4548-856d-4923ddaba0dc","{""num_scrambled_semantic"":""8"",""num_scrambled_causal"":""4"",""num_scrambled_schematic"":""4"",""participantId"":""BFAFB5FB18564AEF8D00B606A1DD8989"",""assignmentId"":""d0550f07-c9a5-42d6-b1e5-69de0a46469c"",""projectId"":""051c06f1-75cc-4548-856d-4923ddaba0dc""}","https://test12345.live/?num_scrambled_semantic=8&num_scrambled_causal=4&num_scrambled_schematic=4&participantId=BFAFB5FB18564AEF8D00B606A1DD8989&assignmentId=d0550f07-c9a5-42d6-b1e5-69de0a46469c&projectId=051c06f1-75cc-4548-856d-4923ddaba0dc","BFAFB5FB18564AEF8D00B606A1DD8989-2025-05-15-19-05-22","","null","","[]","null","",""
"","","","","","image-button-response","63","406779","0.0-12.0-1.0-0.2","BFAFB5FB18564AEF8D00B606A1DD8989","BFAFB5FB18564AEF8D00B606A1DD8989","d0550f07-c9a5-42d6-b1e5-69de0a46469c","051c06f1-75cc-4548-856d-4923ddaba0dc","{""num_scrambled_semantic"":""8"",""num_scrambled_causal"":""4"",""num_scrambled_schematic"":""4"",""participantId"":""BFAFB5FB18564AEF8D00B606A1DD8989"",""assignmentId"":""d0550f07-c9a5-42d6-b1e5-69de0a46469c"",""projectId"":""051c06f1-75cc-4548-856d-4923ddaba0dc""}","https://test12345.live/?num_scrambled_semantic=8&num_scrambled_causal=4&num_scrambled_schematic=4&participantId=BFAFB5FB18564AEF8D00B606A1DD8989&assignmentId=d0550f07-c9a5-42d6-b1e5-69de0a46469c&projectId=051c06f1-75cc-4548-856d-4923ddaba0dc","BFAFB5FB18564AEF8D00B606A1DD8989-2025-05-15-19-05-22","","null","","images/schematic_sequence/restaurant_scheme/restaurant_scheme_3.png","null","",""
"","","","","","image-button-response","64","408332","0.0-12.0-1.0-1.2","BFAFB5FB18564AEF8D00B606A1DD8989","BFAFB5FB18564AEF8D00B606A1DD8989","d0550f07-c9a5-42d6-b1e5-69de0a46469c","051c06f1-75cc-4548-856d-4923ddaba0dc","{""num_scrambled_semantic"":""8"",""num_scrambled_causal"":""4"",""num_scrambled_schematic"":""4"",""participantId"":""BFAFB5FB18564AEF8D00B606A1DD8989"",""assignmentId"":""d0550f07-c9a5-42d6-b1e5-69de0a46469c"",""projectId"":""051c06f1-75cc-4548-856d-4923ddaba0dc""}","https://test12345.live/?num_scrambled_semantic=8&num_scrambled_causal=4&num_scrambled_schematic=4&participantId=BFAFB5FB18564AEF8D00B606A1DD8989&assignmentId=d0550f07-c9a5-42d6-b1e5-69de0a46469c&projectId=051c06f1-75cc-4548-856d-4923ddaba0dc","BFAFB5FB18564AEF8D00B606A1DD8989-2025-05-15-19-05-22","","1553","","images/schematic_sequence/restaurant_scheme/restaurant_scheme_3.png","1","",""
"","","","","","image-button-response","65","410133","0.0-12.0-1.0-2.2","BFAFB5FB18564AEF8D00B606A1DD8989","BFAFB5FB18564AEF8D00B606A1DD8989","d0550f07-c9a5-42d6-b1e5-69de0a46469c","051c06f1-75cc-4548-856d-4923ddaba0dc","{""num_scrambled_semantic"":""8"",""num_scrambled_causal"":""4"",""num_scrambled_schematic"":""4"",""participantId"":""BFAFB5FB18564AEF8D00B606A1DD8989"",""assignmentId"":""d0550f07-c9a5-42d6-b1e5-69de0a46469c"",""projectId"":""051c06f1-75cc-4548-856d-4923ddaba0dc""}","https://test12345.live/?num_scrambled_semantic=8&num_scrambled_causal=4&num_scrambled_schematic=4&participantId=BFAFB5FB18564AEF8D00B606A1DD8989&assignmentId=d0550f07-c9a5-42d6-b1e5-69de0a46469c&projectId=051c06f1-75cc-4548-856d-4923ddaba0dc","BFAFB5FB18564AEF8D00B606A1DD8989-2025-05-15-19-05-22","","null","","[]","null","",""
"","","","","","image-button-response","66","414635","0.0-12.0-1.0-0.3","BFAFB5FB18564AEF8D00B606A1DD8989","BFAFB5FB18564AEF8D00B606A1DD8989","d0550f07-c9a5-42d6-b1e5-69de0a46469c","051c06f1-75cc-4548-856d-4923ddaba0dc","{""num_scrambled_semantic"":""8"",""num_scrambled_causal"":""4"",""num_scrambled_schematic"":""4"",""participantId"":""BFAFB5FB18564AEF8D00B606A1DD8989"",""assignmentId"":""d0550f07-c9a5-42d6-b1e5-69de0a46469c"",""projectId"":""051c06f1-75cc-4548-856d-4923ddaba0dc""}","https://test12345.live/?num_scrambled_semantic=8&num_scrambled_causal=4&num_scrambled_schematic=4&participantId=BFAFB5FB18564AEF8D00B606A1DD8989&assignmentId=d0550f07-c9a5-42d6-b1e5-69de0a46469c&projectId=051c06f1-75cc-4548-856d-4923ddaba0dc","BFAFB5FB18564AEF8D00B606A1DD8989-2025-05-15-19-05-22","","null","","images/schematic_sequence/restaurant_scheme/restaurant_scheme_4.png","null","",""
"","","","","","image-button-response","67","416580","0.0-12.0-1.0-1.3","BFAFB5FB18564AEF8D00B606A1DD8989","BFAFB5FB18564AEF8D00B606A1DD8989","d0550f07-c9a5-42d6-b1e5-69de0a46469c","051c06f1-75cc-4548-856d-4923ddaba0dc","{""num_scrambled_semantic"":""8"",""num_scrambled_causal"":""4"",""num_scrambled_schematic"":""4"",""participantId"":""BFAFB5FB18564AEF8D00B606A1DD8989"",""assignmentId"":""d0550f07-c9a5-42d6-b1e5-69de0a46469c"",""projectId"":""051c06f1-75cc-4548-856d-4923ddaba0dc""}","https://test12345.live/?num_scrambled_semantic=8&num_scrambled_causal=4&num_scrambled_schematic=4&participantId=BFAFB5FB18564AEF8D00B606A1DD8989&assignmentId=d0550f07-c9a5-42d6-b1e5-69de0a46469c&projectId=051c06f1-75cc-4548-856d-4923ddaba0dc","BFAFB5FB18564AEF8D00B606A1DD8989-2025-05-15-19-05-22","","1944","","images/schematic_sequence/restaurant_scheme/restaurant_scheme_4.png","0","",""
"","","","","","image-button-response","68","418381","0.0-12.0-1.0-2.3","BFAFB5FB18564AEF8D00B606A1DD8989","BFAFB5FB18564AEF8D00B606A1DD8989","d0550f07-c9a5-42d6-b1e5-69de0a46469c","051c06f1-75cc-4548-856d-4923ddaba0dc","{""num_scrambled_semantic"":""8"",""num_scrambled_causal"":""4"",""num_scrambled_schematic"":""4"",""participantId"":""BFAFB5FB18564AEF8D00B606A1DD8989"",""assignmentId"":""d0550f07-c9a5-42d6-b1e5-69de0a46469c"",""projectId"":""051c06f1-75cc-4548-856d-4923ddaba0dc""}","https://test12345.live/?num_scrambled_semantic=8&num_scrambled_causal=4&num_scrambled_schematic=4&participantId=BFAFB5FB18564AEF8D00B606A1DD8989&assignmentId=d0550f07-c9a5-42d6-b1e5-69de0a46469c&projectId=051c06f1-75cc-4548-856d-4923ddaba0dc","BFAFB5FB18564AEF8D00B606A1DD8989-2025-05-15-19-05-22","","null","","[]","null","",""
"","","","","","image-button-response","69","422883","0.0-12.0-1.0-0.4","BFAFB5FB18564AEF8D00B606A1DD8989","BFAFB5FB18564AEF8D00B606A1DD8989","d0550f07-c9a5-42d6-b1e5-69de0a46469c","051c06f1-75cc-4548-856d-4923ddaba0dc","{""num_scrambled_semantic"":""8"",""num_scrambled_causal"":""4"",""num_scrambled_schematic"":""4"",""participantId"":""BFAFB5FB18564AEF8D00B606A1DD8989"",""assignmentId"":""d0550f07-c9a5-42d6-b1e5-69de0a46469c"",""projectId"":""051c06f1-75cc-4548-856d-4923ddaba0dc""}","https://test12345.live/?num_scrambled_semantic=8&num_scrambled_causal=4&num_scrambled_schematic=4&participantId=BFAFB5FB18564AEF8D00B606A1DD8989&assignmentId=d0550f07-c9a5-42d6-b1e5-69de0a46469c&projectId=051c06f1-75cc-4548-856d-4923ddaba0dc","BFAFB5FB18564AEF8D00B606A1DD8989-2025-05-15-19-05-22","","null","","images/schematic_sequence/restaurant_scheme/restaurant_scheme_5.png","null","",""
"","","","","","image-button-response","70","424900","0.0-12.0-1.0-1.4","BFAFB5FB18564AEF8D00B606A1DD8989","BFAFB5FB18564AEF8D00B606A1DD8989","d0550f07-c9a5-42d6-b1e5-69de0a46469c","051c06f1-75cc-4548-856d-4923ddaba0dc","{""num_scrambled_semantic"":""8"",""num_scrambled_causal"":""4"",""num_scrambled_schematic"":""4"",""participantId"":""BFAFB5FB18564AEF8D00B606A1DD8989"",""assignmentId"":""d0550f07-c9a5-42d6-b1e5-69de0a46469c"",""projectId"":""051c06f1-75cc-4548-856d-4923ddaba0dc""}","https://test12345.live/?num_scrambled_semantic=8&num_scrambled_causal=4&num_scrambled_schematic=4&participantId=BFAFB5FB18564AEF8D00B606A1DD8989&assignmentId=d0550f07-c9a5-42d6-b1e5-69de0a46469c&projectId=051c06f1-75cc-4548-856d-4923ddaba0dc","BFAFB5FB18564AEF8D00B606A1DD8989-2025-05-15-19-05-22","","2017","","images/schematic_sequence/restaurant_scheme/restaurant_scheme_5.png","0","",""
"","","","","","image-button-response","71","426701","0.0-12.0-1.0-2.4","BFAFB5FB18564AEF8D00B606A1DD8989","BFAFB5FB18564AEF8D00B606A1DD8989","d0550f07-c9a5-42d6-b1e5-69de0a46469c","051c06f1-75cc-4548-856d-4923ddaba0dc","{""num_scrambled_semantic"":""8"",""num_scrambled_causal"":""4"",""num_scrambled_schematic"":""4"",""participantId"":""BFAFB5FB18564AEF8D00B606A1DD8989"",""assignmentId"":""d0550f07-c9a5-42d6-b1e5-69de0a46469c"",""projectId"":""051c06f1-75cc-4548-856d-4923ddaba0dc""}","https://test12345.live/?num_scrambled_semantic=8&num_scrambled_causal=4&num_scrambled_schematic=4&participantId=BFAFB5FB18564AEF8D00B606A1DD8989&assignmentId=d0550f07-c9a5-42d6-b1e5-69de0a46469c&projectId=051c06f1-75cc-4548-856d-4923ddaba0dc","BFAFB5FB18564AEF8D00B606A1DD8989-2025-05-15-19-05-22","","null","","[]","null","",""
"","","","","","image-button-response","72","431202","0.0-12.0-1.0-0.5","BFAFB5FB18564AEF8D00B606A1DD8989","BFAFB5FB18564AEF8D00B606A1DD8989","d0550f07-c9a5-42d6-b1e5-69de0a46469c","051c06f1-75cc-4548-856d-4923ddaba0dc","{""num_scrambled_semantic"":""8"",""num_scrambled_causal"":""4"",""num_scrambled_schematic"":""4"",""participantId"":""BFAFB5FB18564AEF8D00B606A1DD8989"",""assignmentId"":""d0550f07-c9a5-42d6-b1e5-69de0a46469c"",""projectId"":""051c06f1-75cc-4548-856d-4923ddaba0dc""}","https://test12345.live/?num_scrambled_semantic=8&num_scrambled_causal=4&num_scrambled_schematic=4&participantId=BFAFB5FB18564AEF8D00B606A1DD8989&assignmentId=d0550f07-c9a5-42d6-b1e5-69de0a46469c&projectId=051c06f1-75cc-4548-856d-4923ddaba0dc","BFAFB5FB18564AEF8D00B606A1DD8989-2025-05-15-19-05-22","","null","","images/schematic_sequence/restaurant_scheme/restaurant_scheme_6.png","null","",""
"","","","","","image-button-response","73","432820","0.0-12.0-1.0-1.5","BFAFB5FB18564AEF8D00B606A1DD8989","BFAFB5FB18564AEF8D00B606A1DD8989","d0550f07-c9a5-42d6-b1e5-69de0a46469c","051c06f1-75cc-4548-856d-4923ddaba0dc","{""num_scrambled_semantic"":""8"",""num_scrambled_causal"":""4"",""num_scrambled_schematic"":""4"",""participantId"":""BFAFB5FB18564AEF8D00B606A1DD8989"",""assignmentId"":""d0550f07-c9a5-42d6-b1e5-69de0a46469c"",""projectId"":""051c06f1-75cc-4548-856d-4923ddaba0dc""}","https://test12345.live/?num_scrambled_semantic=8&num_scrambled_causal=4&num_scrambled_schematic=4&participantId=BFAFB5FB18564AEF8D00B606A1DD8989&assignmentId=d0550f07-c9a5-42d6-b1e5-69de0a46469c&projectId=051c06f1-75cc-4548-856d-4923ddaba0dc","BFAFB5FB18564AEF8D00B606A1DD8989-2025-05-15-19-05-22","","1617","","images/schematic_sequence/restaurant_scheme/restaurant_scheme_6.png","1","",""
"","","","","","image-button-response","74","434621","0.0-12.0-1.0-2.5","BFAFB5FB18564AEF8D00B606A1DD8989","BFAFB5FB18564AEF8D00B606A1DD8989","d0550f07-c9a5-42d6-b1e5-69de0a46469c","051c06f1-75cc-4548-856d-4923ddaba0dc","{""num_scrambled_semantic"":""8"",""num_scrambled_causal"":""4"",""num_scrambled_schematic"":""4"",""participantId"":""BFAFB5FB18564AEF8D00B606A1DD8989"",""assignmentId"":""d0550f07-c9a5-42d6-b1e5-69de0a46469c"",""projectId"":""051c06f1-75cc-4548-856d-4923ddaba0dc""}","https://test12345.live/?num_scrambled_semantic=8&num_scrambled_causal=4&num_scrambled_schematic=4&participantId=BFAFB5FB18564AEF8D00B606A1DD8989&assignmentId=d0550f07-c9a5-42d6-b1e5-69de0a46469c&projectId=051c06f1-75cc-4548-856d-4923ddaba0dc","BFAFB5FB18564AEF8D00B606A1DD8989-2025-05-15-19-05-22","","null","","[]","null","",""
"","","","","","image-button-response","75","439122","0.0-12.0-1.0-0.6","BFAFB5FB18564AEF8D00B606A1DD8989","BFAFB5FB18564AEF8D00B606A1DD8989","d0550f07-c9a5-42d6-b1e5-69de0a46469c","051c06f1-75cc-4548-856d-4923ddaba0dc","{""num_scrambled_semantic"":""8"",""num_scrambled_causal"":""4"",""num_scrambled_schematic"":""4"",""participantId"":""BFAFB5FB18564AEF8D00B606A1DD8989"",""assignmentId"":""d0550f07-c9a5-42d6-b1e5-69de0a46469c"",""projectId"":""051c06f1-75cc-4548-856d-4923ddaba0dc""}","https://test12345.live/?num_scrambled_semantic=8&num_scrambled_causal=4&num_scrambled_schematic=4&participantId=BFAFB5FB18564AEF8D00B606A1DD8989&assignmentId=d0550f07-c9a5-42d6-b1e5-69de0a46469c&projectId=051c06f1-75cc-4548-856d-4923ddaba0dc","BFAFB5FB18564AEF8D00B606A1DD8989-2025-05-15-19-05-22","","null","","images/schematic_sequence/restaurant_scheme/restaurant_scheme_7.png","null","",""
"","","","","","image-button-response","76","439828","0.0-12.0-1.0-1.6","BFAFB5FB18564AEF8D00B606A1DD8989","BFAFB5FB18564AEF8D00B606A1DD8989","d0550f07-c9a5-42d6-b1e5-69de0a46469c","051c06f1-75cc-4548-856d-4923ddaba0dc","{""num_scrambled_semantic"":""8"",""num_scrambled_causal"":""4"",""num_scrambled_schematic"":""4"",""participantId"":""BFAFB5FB18564AEF8D00B606A1DD8989"",""assignmentId"":""d0550f07-c9a5-42d6-b1e5-69de0a46469c"",""projectId"":""051c06f1-75cc-4548-856d-4923ddaba0dc""}","https://test12345.live/?num_scrambled_semantic=8&num_scrambled_causal=4&num_scrambled_schematic=4&participantId=BFAFB5FB18564AEF8D00B606A1DD8989&assignmentId=d0550f07-c9a5-42d6-b1e5-69de0a46469c&projectId=051c06f1-75cc-4548-856d-4923ddaba0dc","BFAFB5FB18564AEF8D00B606A1DD8989-2025-05-15-19-05-22","","706","","images/schematic_sequence/restaurant_scheme/restaurant_scheme_7.png","1","",""
"","","","","","image-button-response","77","441630","0.0-12.0-1.0-2.6","BFAFB5FB18564AEF8D00B606A1DD8989","BFAFB5FB18564AEF8D00B606A1DD8989","d0550f07-c9a5-42d6-b1e5-69de0a46469c","051c06f1-75cc-4548-856d-4923ddaba0dc","{""num_scrambled_semantic"":""8"",""num_scrambled_causal"":""4"",""num_scrambled_schematic"":""4"",""participantId"":""BFAFB5FB18564AEF8D00B606A1DD8989"",""assignmentId"":""d0550f07-c9a5-42d6-b1e5-69de0a46469c"",""projectId"":""051c06f1-75cc-4548-856d-4923ddaba0dc""}","https://test12345.live/?num_scrambled_semantic=8&num_scrambled_causal=4&num_scrambled_schematic=4&participantId=BFAFB5FB18564AEF8D00B606A1DD8989&assignmentId=d0550f07-c9a5-42d6-b1e5-69de0a46469c&projectId=051c06f1-75cc-4548-856d-4923ddaba0dc","BFAFB5FB18564AEF8D00B606A1DD8989-2025-05-15-19-05-22","","null","","[]","null","",""
"","","","","","image-button-response","78","446131","0.0-12.0-1.0-0.7","BFAFB5FB18564AEF8D00B606A1DD8989","BFAFB5FB18564AEF8D00B606A1DD8989","d0550f07-c9a5-42d6-b1e5-69de0a46469c","051c06f1-75cc-4548-856d-4923ddaba0dc","{""num_scrambled_semantic"":""8"",""num_scrambled_causal"":""4"",""num_scrambled_schematic"":""4"",""participantId"":""BFAFB5FB18564AEF8D00B606A1DD8989"",""assignmentId"":""d0550f07-c9a5-42d6-b1e5-69de0a46469c"",""projectId"":""051c06f1-75cc-4548-856d-4923ddaba0dc""}","https://test12345.live/?num_scrambled_semantic=8&num_scrambled_causal=4&num_scrambled_schematic=4&participantId=BFAFB5FB18564AEF8D00B606A1DD8989&assignmentId=d0550f07-c9a5-42d6-b1e5-69de0a46469c&projectId=051c06f1-75cc-4548-856d-4923ddaba0dc","BFAFB5FB18564AEF8D00B606A1DD8989-2025-05-15-19-05-22","","null","","images/schematic_sequence/restaurant_scheme/restaurant_scheme_8.png","null","",""
"","","","","","image-button-response","79","449588","0.0-12.0-1.0-1.7","BFAFB5FB18564AEF8D00B606A1DD8989","BFAFB5FB18564AEF8D00B606A1DD8989","d0550f07-c9a5-42d6-b1e5-69de0a46469c","051c06f1-75cc-4548-856d-4923ddaba0dc","{""num_scrambled_semantic"":""8"",""num_scrambled_causal"":""4"",""num_scrambled_schematic"":""4"",""participantId"":""BFAFB5FB18564AEF8D00B606A1DD8989"",""assignmentId"":""d0550f07-c9a5-42d6-b1e5-69de0a46469c"",""projectId"":""051c06f1-75cc-4548-856d-4923ddaba0dc""}","https://test12345.live/?num_scrambled_semantic=8&num_scrambled_causal=4&num_scrambled_schematic=4&participantId=BFAFB5FB18564AEF8D00B606A1DD8989&assignmentId=d0550f07-c9a5-42d6-b1e5-69de0a46469c&projectId=051c06f1-75cc-4548-856d-4923ddaba0dc","BFAFB5FB18564AEF8D00B606A1DD8989-2025-05-15-19-05-22","","3457","","images/schematic_sequence/restaurant_scheme/restaurant_scheme_8.png","0","",""
"","","","","","image-button-response","80","451390","0.0-12.0-1.0-2.7","BFAFB5FB18564AEF8D00B606A1DD8989","BFAFB5FB18564AEF8D00B606A1DD8989","d0550f07-c9a5-42d6-b1e5-69de0a46469c","051c06f1-75cc-4548-856d-4923ddaba0dc","{""num_scrambled_semantic"":""8"",""num_scrambled_causal"":""4"",""num_scrambled_schematic"":""4"",""participantId"":""BFAFB5FB18564AEF8D00B606A1DD8989"",""assignmentId"":""d0550f07-c9a5-42d6-b1e5-69de0a46469c"",""projectId"":""051c06f1-75cc-4548-856d-4923ddaba0dc""}","https://test12345.live/?num_scrambled_semantic=8&num_scrambled_causal=4&num_scrambled_schematic=4&participantId=BFAFB5FB18564AEF8D00B606A1DD8989&assignmentId=d0550f07-c9a5-42d6-b1e5-69de0a46469c&projectId=051c06f1-75cc-4548-856d-4923ddaba0dc","BFAFB5FB18564AEF8D00B606A1DD8989-2025-05-15-19-05-22","","null","","[]","null","",""
"","","","","","image-button-response","81","455892","0.0-12.0-1.0-0.8","BFAFB5FB18564AEF8D00B606A1DD8989","BFAFB5FB18564AEF8D00B606A1DD8989","d0550f07-c9a5-42d6-b1e5-69de0a46469c","051c06f1-75cc-4548-856d-4923ddaba0dc","{""num_scrambled_semantic"":""8"",""num_scrambled_causal"":""4"",""num_scrambled_schematic"":""4"",""participantId"":""BFAFB5FB18564AEF8D00B606A1DD8989"",""assignmentId"":""d0550f07-c9a5-42d6-b1e5-69de0a46469c"",""projectId"":""051c06f1-75cc-4548-856d-4923ddaba0dc""}","https://test12345.live/?num_scrambled_semantic=8&num_scrambled_causal=4&num_scrambled_schematic=4&participantId=BFAFB5FB18564AEF8D00B606A1DD8989&assignmentId=d0550f07-c9a5-42d6-b1e5-69de0a46469c&projectId=051c06f1-75cc-4548-856d-4923ddaba0dc","BFAFB5FB18564AEF8D00B606A1DD8989-2025-05-15-19-05-22","","null","","images/schematic_sequence/restaurant_scheme/restaurant_scheme_9.png","null","",""
"","","","","","image-button-response","82","456692","0.0-12.0-1.0-1.8","BFAFB5FB18564AEF8D00B606A1DD8989","BFAFB5FB18564AEF8D00B606A1DD8989","d0550f07-c9a5-42d6-b1e5-69de0a46469c","051c06f1-75cc-4548-856d-4923ddaba0dc","{""num_scrambled_semantic"":""8"",""num_scrambled_causal"":""4"",""num_scrambled_schematic"":""4"",""participantId"":""BFAFB5FB18564AEF8D00B606A1DD8989"",""assignmentId"":""d0550f07-c9a5-42d6-b1e5-69de0a46469c"",""projectId"":""051c06f1-75cc-4548-856d-4923ddaba0dc""}","https://test12345.live/?num_scrambled_semantic=8&num_scrambled_causal=4&num_scrambled_schematic=4&participantId=BFAFB5FB18564AEF8D00B606A1DD8989&assignmentId=d0550f07-c9a5-42d6-b1e5-69de0a46469c&projectId=051c06f1-75cc-4548-856d-4923ddaba0dc","BFAFB5FB18564AEF8D00B606A1DD8989-2025-05-15-19-05-22","","800","","images/schematic_sequence/restaurant_scheme/restaurant_scheme_9.png","0","",""
"","","","","","image-button-response","83","458494","0.0-12.0-1.0-2.8","BFAFB5FB18564AEF8D00B606A1DD8989","BFAFB5FB18564AEF8D00B606A1DD8989","d0550f07-c9a5-42d6-b1e5-69de0a46469c","051c06f1-75cc-4548-856d-4923ddaba0dc","{""num_scrambled_semantic"":""8"",""num_scrambled_causal"":""4"",""num_scrambled_schematic"":""4"",""participantId"":""BFAFB5FB18564AEF8D00B606A1DD8989"",""assignmentId"":""d0550f07-c9a5-42d6-b1e5-69de0a46469c"",""projectId"":""051c06f1-75cc-4548-856d-4923ddaba0dc""}","https://test12345.live/?num_scrambled_semantic=8&num_scrambled_causal=4&num_scrambled_schematic=4&participantId=BFAFB5FB18564AEF8D00B606A1DD8989&assignmentId=d0550f07-c9a5-42d6-b1e5-69de0a46469c&projectId=051c06f1-75cc-4548-856d-4923ddaba0dc","BFAFB5FB18564AEF8D00B606A1DD8989-2025-05-15-19-05-22","","null","","[]","null","",""
"","","","","","image-button-response","84","462995","0.0-12.0-1.0-0.9","BFAFB5FB18564AEF8D00B606A1DD8989","BFAFB5FB18564AEF8D00B606A1DD8989","d0550f07-c9a5-42d6-b1e5-69de0a46469c","051c06f1-75cc-4548-856d-4923ddaba0dc","{""num_scrambled_semantic"":""8"",""num_scrambled_causal"":""4"",""num_scrambled_schematic"":""4"",""participantId"":""BFAFB5FB18564AEF8D00B606A1DD8989"",""assignmentId"":""d0550f07-c9a5-42d6-b1e5-69de0a46469c"",""projectId"":""051c06f1-75cc-4548-856d-4923ddaba0dc""}","https://test12345.live/?num_scrambled_semantic=8&num_scrambled_causal=4&num_scrambled_schematic=4&participantId=BFAFB5FB18564AEF8D00B606A1DD8989&assignmentId=d0550f07-c9a5-42d6-b1e5-69de0a46469c&projectId=051c06f1-75cc-4548-856d-4923ddaba0dc","BFAFB5FB18564AEF8D00B606A1DD8989-2025-05-15-19-05-22","","null","","images/schematic_sequence/restaurant_scheme/restaurant_scheme_ten.png","null","",""
"","","","","","image-button-response","85","463716","0.0-12.0-1.0-1.9","BFAFB5FB18564AEF8D00B606A1DD8989","BFAFB5FB18564AEF8D00B606A1DD8989","d0550f07-c9a5-42d6-b1e5-69de0a46469c","051c06f1-75cc-4548-856d-4923ddaba0dc","{""num_scrambled_semantic"":""8"",""num_scrambled_causal"":""4"",""num_scrambled_schematic"":""4"",""participantId"":""BFAFB5FB18564AEF8D00B606A1DD8989"",""assignmentId"":""d0550f07-c9a5-42d6-b1e5-69de0a46469c"",""projectId"":""051c06f1-75cc-4548-856d-4923ddaba0dc""}","https://test12345.live/?num_scrambled_semantic=8&num_scrambled_causal=4&num_scrambled_schematic=4&participantId=BFAFB5FB18564AEF8D00B606A1DD8989&assignmentId=d0550f07-c9a5-42d6-b1e5-69de0a46469c&projectId=051c06f1-75cc-4548-856d-4923ddaba0dc","BFAFB5FB18564AEF8D00B606A1DD8989-2025-05-15-19-05-22","","721","","images/schematic_sequence/restaurant_scheme/restaurant_scheme_ten.png","0","",""
"","","","","","image-button-response","86","465517","0.0-12.0-1.0-2.9","BFAFB5FB18564AEF8D00B606A1DD8989","BFAFB5FB18564AEF8D00B606A1DD8989","d0550f07-c9a5-42d6-b1e5-69de0a46469c","051c06f1-75cc-4548-856d-4923ddaba0dc","{""num_scrambled_semantic"":""8"",""num_scrambled_causal"":""4"",""num_scrambled_schematic"":""4"",""participantId"":""BFAFB5FB18564AEF8D00B606A1DD8989"",""assignmentId"":""d0550f07-c9a5-42d6-b1e5-69de0a46469c"",""projectId"":""051c06f1-75cc-4548-856d-4923ddaba0dc""}","https://test12345.live/?num_scrambled_semantic=8&num_scrambled_causal=4&num_scrambled_schematic=4&participantId=BFAFB5FB18564AEF8D00B606A1DD8989&assignmentId=d0550f07-c9a5-42d6-b1e5-69de0a46469c&projectId=051c06f1-75cc-4548-856d-4923ddaba0dc","BFAFB5FB18564AEF8D00B606A1DD8989-2025-05-15-19-05-22","","null","","[]","null","",""
"","","","","","html-audio-response","87","533876","0.0-13.0","BFAFB5FB18564AEF8D00B606A1DD8989","BFAFB5FB18564AEF8D00B606A1DD8989","d0550f07-c9a5-42d6-b1e5-69de0a46469c","051c06f1-75cc-4548-856d-4923ddaba0dc","{""num_scrambled_semantic"":""8"",""num_scrambled_causal"":""4"",""num_scrambled_schematic"":""4"",""participantId"":""BFAFB5FB18564AEF8D00B606A1DD8989"",""assignmentId"":""d0550f07-c9a5-42d6-b1e5-69de0a46469c"",""projectId"":""051c06f1-75cc-4548-856d-4923ddaba0dc""}","https://test12345.live/?num_scrambled_semantic=8&num_scrambled_causal=4&num_scrambled_schematic=4&participantId=BFAFB5FB18564AEF8D00B606A1DD8989&assignmentId=d0550f07-c9a5-42d6-b1e5-69de0a46469c&projectId=051c06f1-75cc-4548-856d-4923ddaba0dc","BFAFB5FB18564AEF8D00B606A1DD8989-2025-05-15-19-05-22","","41668","","[""<span style=\""color: red; font-size: 24px\""> NOW RECORDING</span><p>Please say out loud all the images you saw, as many as you can remember. The images can be said in any order.</p>""]","","1","restaurant_scheme"
"","","","","","image-button-response","88","539881","0.0-14.0-0.0","BFAFB5FB18564AEF8D00B606A1DD8989","BFAFB5FB18564AEF8D00B606A1DD8989","d0550f07-c9a5-42d6-b1e5-69de0a46469c","051c06f1-75cc-4548-856d-4923ddaba0dc","{""num_scrambled_semantic"":""8"",""num_scrambled_causal"":""4"",""num_scrambled_schematic"":""4"",""participantId"":""BFAFB5FB18564AEF8D00B606A1DD8989"",""assignmentId"":""d0550f07-c9a5-42d6-b1e5-69de0a46469c"",""projectId"":""051c06f1-75cc-4548-856d-4923ddaba0dc""}","https://test12345.live/?num_scrambled_semantic=8&num_scrambled_causal=4&num_scrambled_schematic=4&participantId=BFAFB5FB18564AEF8D00B606A1DD8989&assignmentId=d0550f07-c9a5-42d6-b1e5-69de0a46469c&projectId=051c06f1-75cc-4548-856d-4923ddaba0dc","BFAFB5FB18564AEF8D00B606A1DD8989-2025-05-15-19-05-22","","null","","images/causal_sequence/coin_causal/coin_causal_0.png","null","",""
"","","","","","image-button-response","89","544383","0.0-14.0-1.0-0.0","BFAFB5FB18564AEF8D00B606A1DD8989","BFAFB5FB18564AEF8D00B606A1DD8989","d0550f07-c9a5-42d6-b1e5-69de0a46469c","051c06f1-75cc-4548-856d-4923ddaba0dc","{""num_scrambled_semantic"":""8"",""num_scrambled_causal"":""4"",""num_scrambled_schematic"":""4"",""participantId"":""BFAFB5FB18564AEF8D00B606A1DD8989"",""assignmentId"":""d0550f07-c9a5-42d6-b1e5-69de0a46469c"",""projectId"":""051c06f1-75cc-4548-856d-4923ddaba0dc""}","https://test12345.live/?num_scrambled_semantic=8&num_scrambled_causal=4&num_scrambled_schematic=4&participantId=BFAFB5FB18564AEF8D00B606A1DD8989&assignmentId=d0550f07-c9a5-42d6-b1e5-69de0a46469c&projectId=051c06f1-75cc-4548-856d-4923ddaba0dc","BFAFB5FB18564AEF8D00B606A1DD8989-2025-05-15-19-05-22","","null","","images/causal_sequence/coin_causal/coin_causal_1.png","null","",""
"","","","","","image-button-response","90","548385","0.0-14.0-1.0-1.0","BFAFB5FB18564AEF8D00B606A1DD8989","BFAFB5FB18564AEF8D00B606A1DD8989","d0550f07-c9a5-42d6-b1e5-69de0a46469c","051c06f1-75cc-4548-856d-4923ddaba0dc","{""num_scrambled_semantic"":""8"",""num_scrambled_causal"":""4"",""num_scrambled_schematic"":""4"",""participantId"":""BFAFB5FB18564AEF8D00B606A1DD8989"",""assignmentId"":""d0550f07-c9a5-42d6-b1e5-69de0a46469c"",""projectId"":""051c06f1-75cc-4548-856d-4923ddaba0dc""}","https://test12345.live/?num_scrambled_semantic=8&num_scrambled_causal=4&num_scrambled_schematic=4&participantId=BFAFB5FB18564AEF8D00B606A1DD8989&assignmentId=d0550f07-c9a5-42d6-b1e5-69de0a46469c&projectId=051c06f1-75cc-4548-856d-4923ddaba0dc","BFAFB5FB18564AEF8D00B606A1DD8989-2025-05-15-19-05-22","","null","","images/causal_sequence/coin_causal/coin_causal_1.png","null","",""
"","","","","","image-button-response","91","550186","0.0-14.0-1.0-2.0","BFAFB5FB18564AEF8D00B606A1DD8989","BFAFB5FB18564AEF8D00B606A1DD8989","d0550f07-c9a5-42d6-b1e5-69de0a46469c","051c06f1-75cc-4548-856d-4923ddaba0dc","{""num_scrambled_semantic"":""8"",""num_scrambled_causal"":""4"",""num_scrambled_schematic"":""4"",""participantId"":""BFAFB5FB18564AEF8D00B606A1DD8989"",""assignmentId"":""d0550f07-c9a5-42d6-b1e5-69de0a46469c"",""projectId"":""051c06f1-75cc-4548-856d-4923ddaba0dc""}","https://test12345.live/?num_scrambled_semantic=8&num_scrambled_causal=4&num_scrambled_schematic=4&participantId=BFAFB5FB18564AEF8D00B606A1DD8989&assignmentId=d0550f07-c9a5-42d6-b1e5-69de0a46469c&projectId=051c06f1-75cc-4548-856d-4923ddaba0dc","BFAFB5FB18564AEF8D00B606A1DD8989-2025-05-15-19-05-22","","null","","[]","null","",""
"","","","","","image-button-response","92","554688","0.0-14.0-1.0-0.1","BFAFB5FB18564AEF8D00B606A1DD8989","BFAFB5FB18564AEF8D00B606A1DD8989","d0550f07-c9a5-42d6-b1e5-69de0a46469c","051c06f1-75cc-4548-856d-4923ddaba0dc","{""num_scrambled_semantic"":""8"",""num_scrambled_causal"":""4"",""num_scrambled_schematic"":""4"",""participantId"":""BFAFB5FB18564AEF8D00B606A1DD8989"",""assignmentId"":""d0550f07-c9a5-42d6-b1e5-69de0a46469c"",""projectId"":""051c06f1-75cc-4548-856d-4923ddaba0dc""}","https://test12345.live/?num_scrambled_semantic=8&num_scrambled_causal=4&num_scrambled_schematic=4&participantId=BFAFB5FB18564AEF8D00B606A1DD8989&assignmentId=d0550f07-c9a5-42d6-b1e5-69de0a46469c&projectId=051c06f1-75cc-4548-856d-4923ddaba0dc","BFAFB5FB18564AEF8D00B606A1DD8989-2025-05-15-19-05-22","","null","","images/causal_sequence/coin_causal/coin_causal_2.png","null","",""
"","","","","","image-button-response","93","555716","0.0-14.0-1.0-1.1","BFAFB5FB18564AEF8D00B606A1DD8989","BFAFB5FB18564AEF8D00B606A1DD8989","d0550f07-c9a5-42d6-b1e5-69de0a46469c","051c06f1-75cc-4548-856d-4923ddaba0dc","{""num_scrambled_semantic"":""8"",""num_scrambled_causal"":""4"",""num_scrambled_schematic"":""4"",""participantId"":""BFAFB5FB18564AEF8D00B606A1DD8989"",""assignmentId"":""d0550f07-c9a5-42d6-b1e5-69de0a46469c"",""projectId"":""051c06f1-75cc-4548-856d-4923ddaba0dc""}","https://test12345.live/?num_scrambled_semantic=8&num_scrambled_causal=4&num_scrambled_schematic=4&participantId=BFAFB5FB18564AEF8D00B606A1DD8989&assignmentId=d0550f07-c9a5-42d6-b1e5-69de0a46469c&projectId=051c06f1-75cc-4548-856d-4923ddaba0dc","BFAFB5FB18564AEF8D00B606A1DD8989-2025-05-15-19-05-22","","1028","","images/causal_sequence/coin_causal/coin_causal_2.png","0","",""
"","","","","","image-button-response","94","557517","0.0-14.0-1.0-2.1","BFAFB5FB18564AEF8D00B606A1DD8989","BFAFB5FB18564AEF8D00B606A1DD8989","d0550f07-c9a5-42d6-b1e5-69de0a46469c","051c06f1-75cc-4548-856d-4923ddaba0dc","{""num_scrambled_semantic"":""8"",""num_scrambled_causal"":""4"",""num_scrambled_schematic"":""4"",""participantId"":""BFAFB5FB18564AEF8D00B606A1DD8989"",""assignmentId"":""d0550f07-c9a5-42d6-b1e5-69de0a46469c"",""projectId"":""051c06f1-75cc-4548-856d-4923ddaba0dc""}","https://test12345.live/?num_scrambled_semantic=8&num_scrambled_causal=4&num_scrambled_schematic=4&participantId=BFAFB5FB18564AEF8D00B606A1DD8989&assignmentId=d0550f07-c9a5-42d6-b1e5-69de0a46469c&projectId=051c06f1-75cc-4548-856d-4923ddaba0dc","BFAFB5FB18564AEF8D00B606A1DD8989-2025-05-15-19-05-22","","null","","[]","null","",""
"","","","","","image-button-response","95","562019","0.0-14.0-1.0-0.2","BFAFB5FB18564AEF8D00B606A1DD8989","BFAFB5FB18564AEF8D00B606A1DD8989","d0550f07-c9a5-42d6-b1e5-69de0a46469c","051c06f1-75cc-4548-856d-4923ddaba0dc","{""num_scrambled_semantic"":""8"",""num_scrambled_causal"":""4"",""num_scrambled_schematic"":""4"",""participantId"":""BFAFB5FB18564AEF8D00B606A1DD8989"",""assignmentId"":""d0550f07-c9a5-42d6-b1e5-69de0a46469c"",""projectId"":""051c06f1-75cc-4548-856d-4923ddaba0dc""}","https://test12345.live/?num_scrambled_semantic=8&num_scrambled_causal=4&num_scrambled_schematic=4&participantId=BFAFB5FB18564AEF8D00B606A1DD8989&assignmentId=d0550f07-c9a5-42d6-b1e5-69de0a46469c&projectId=051c06f1-75cc-4548-856d-4923ddaba0dc","BFAFB5FB18564AEF8D00B606A1DD8989-2025-05-15-19-05-22","","null","","images/causal_sequence/coin_causal/coin_causal_3.png","null","",""
"","","","","","image-button-response","96","562908","0.0-14.0-1.0-1.2","BFAFB5FB18564AEF8D00B606A1DD8989","BFAFB5FB18564AEF8D00B606A1DD8989","d0550f07-c9a5-42d6-b1e5-69de0a46469c","051c06f1-75cc-4548-856d-4923ddaba0dc","{""num_scrambled_semantic"":""8"",""num_scrambled_causal"":""4"",""num_scrambled_schematic"":""4"",""participantId"":""BFAFB5FB18564AEF8D00B606A1DD8989"",""assignmentId"":""d0550f07-c9a5-42d6-b1e5-69de0a46469c"",""projectId"":""051c06f1-75cc-4548-856d-4923ddaba0dc""}","https://test12345.live/?num_scrambled_semantic=8&num_scrambled_causal=4&num_scrambled_schematic=4&participantId=BFAFB5FB18564AEF8D00B606A1DD8989&assignmentId=d0550f07-c9a5-42d6-b1e5-69de0a46469c&projectId=051c06f1-75cc-4548-856d-4923ddaba0dc","BFAFB5FB18564AEF8D00B606A1DD8989-2025-05-15-19-05-22","","889","","images/causal_sequence/coin_causal/coin_causal_3.png","0","",""
"","","","","","image-button-response","97","564709","0.0-14.0-1.0-2.2","BFAFB5FB18564AEF8D00B606A1DD8989","BFAFB5FB18564AEF8D00B606A1DD8989","d0550f07-c9a5-42d6-b1e5-69de0a46469c","051c06f1-75cc-4548-856d-4923ddaba0dc","{""num_scrambled_semantic"":""8"",""num_scrambled_causal"":""4"",""num_scrambled_schematic"":""4"",""participantId"":""BFAFB5FB18564AEF8D00B606A1DD8989"",""assignmentId"":""d0550f07-c9a5-42d6-b1e5-69de0a46469c"",""projectId"":""051c06f1-75cc-4548-856d-4923ddaba0dc""}","https://test12345.live/?num_scrambled_semantic=8&num_scrambled_causal=4&num_scrambled_schematic=4&participantId=BFAFB5FB18564AEF8D00B606A1DD8989&assignmentId=d0550f07-c9a5-42d6-b1e5-69de0a46469c&projectId=051c06f1-75cc-4548-856d-4923ddaba0dc","BFAFB5FB18564AEF8D00B606A1DD8989-2025-05-15-19-05-22","","null","","[]","null","",""
"","","","","","image-button-response","98","569210","0.0-14.0-1.0-0.3","BFAFB5FB18564AEF8D00B606A1DD8989","BFAFB5FB18564AEF8D00B606A1DD8989","d0550f07-c9a5-42d6-b1e5-69de0a46469c","051c06f1-75cc-4548-856d-4923ddaba0dc","{""num_scrambled_semantic"":""8"",""num_scrambled_causal"":""4"",""num_scrambled_schematic"":""4"",""participantId"":""BFAFB5FB18564AEF8D00B606A1DD8989"",""assignmentId"":""d0550f07-c9a5-42d6-b1e5-69de0a46469c"",""projectId"":""051c06f1-75cc-4548-856d-4923ddaba0dc""}","https://test12345.live/?num_scrambled_semantic=8&num_scrambled_causal=4&num_scrambled_schematic=4&participantId=BFAFB5FB18564AEF8D00B606A1DD8989&assignmentId=d0550f07-c9a5-42d6-b1e5-69de0a46469c&projectId=051c06f1-75cc-4548-856d-4923ddaba0dc","BFAFB5FB18564AEF8D00B606A1DD8989-2025-05-15-19-05-22","","null","","images/causal_sequence/coin_causal/coin_causal_4.png","null","",""
"","","","","","image-button-response","99","570364","0.0-14.0-1.0-1.3","BFAFB5FB18564AEF8D00B606A1DD8989","BFAFB5FB18564AEF8D00B606A1DD8989","d0550f07-c9a5-42d6-b1e5-69de0a46469c","051c06f1-75cc-4548-856d-4923ddaba0dc","{""num_scrambled_semantic"":""8"",""num_scrambled_causal"":""4"",""num_scrambled_schematic"":""4"",""participantId"":""BFAFB5FB18564AEF8D00B606A1DD8989"",""assignmentId"":""d0550f07-c9a5-42d6-b1e5-69de0a46469c"",""projectId"":""051c06f1-75cc-4548-856d-4923ddaba0dc""}","https://test12345.live/?num_scrambled_semantic=8&num_scrambled_causal=4&num_scrambled_schematic=4&participantId=BFAFB5FB18564AEF8D00B606A1DD8989&assignmentId=d0550f07-c9a5-42d6-b1e5-69de0a46469c&projectId=051c06f1-75cc-4548-856d-4923ddaba0dc","BFAFB5FB18564AEF8D00B606A1DD8989-2025-05-15-19-05-22","","1153","","images/causal_sequence/coin_causal/coin_causal_4.png","0","",""
"","","","","","image-button-response","100","572165","0.0-14.0-1.0-2.3","BFAFB5FB18564AEF8D00B606A1DD8989","BFAFB5FB18564AEF8D00B606A1DD8989","d0550f07-c9a5-42d6-b1e5-69de0a46469c","051c06f1-75cc-4548-856d-4923ddaba0dc","{""num_scrambled_semantic"":""8"",""num_scrambled_causal"":""4"",""num_scrambled_schematic"":""4"",""participantId"":""BFAFB5FB18564AEF8D00B606A1DD8989"",""assignmentId"":""d0550f07-c9a5-42d6-b1e5-69de0a46469c"",""projectId"":""051c06f1-75cc-4548-856d-4923ddaba0dc""}","https://test12345.live/?num_scrambled_semantic=8&num_scrambled_causal=4&num_scrambled_schematic=4&participantId=BFAFB5FB18564AEF8D00B606A1DD8989&assignmentId=d0550f07-c9a5-42d6-b1e5-69de0a46469c&projectId=051c06f1-75cc-4548-856d-4923ddaba0dc","BFAFB5FB18564AEF8D00B606A1DD8989-2025-05-15-19-05-22","","null","","[]","null","",""
"","","","","","image-button-response","101","576667","0.0-14.0-1.0-0.4","BFAFB5FB18564AEF8D00B606A1DD8989","BFAFB5FB18564AEF8D00B606A1DD8989","d0550f07-c9a5-42d6-b1e5-69de0a46469c","051c06f1-75cc-4548-856d-4923ddaba0dc","{""num_scrambled_semantic"":""8"",""num_scrambled_causal"":""4"",""num_scrambled_schematic"":""4"",""participantId"":""BFAFB5FB18564AEF8D00B606A1DD8989"",""assignmentId"":""d0550f07-c9a5-42d6-b1e5-69de0a46469c"",""projectId"":""051c06f1-75cc-4548-856d-4923ddaba0dc""}","https://test12345.live/?num_scrambled_semantic=8&num_scrambled_causal=4&num_scrambled_schematic=4&participantId=BFAFB5FB18564AEF8D00B606A1DD8989&assignmentId=d0550f07-c9a5-42d6-b1e5-69de0a46469c&projectId=051c06f1-75cc-4548-856d-4923ddaba0dc","BFAFB5FB18564AEF8D00B606A1DD8989-2025-05-15-19-05-22","","null","","images/causal_sequence/coin_causal/coin_causal_5.png","null","",""
"","","","","","image-button-response","102","578364","0.0-14.0-1.0-1.4","BFAFB5FB18564AEF8D00B606A1DD8989","BFAFB5FB18564AEF8D00B606A1DD8989","d0550f07-c9a5-42d6-b1e5-69de0a46469c","051c06f1-75cc-4548-856d-4923ddaba0dc","{""num_scrambled_semantic"":""8"",""num_scrambled_causal"":""4"",""num_scrambled_schematic"":""4"",""participantId"":""BFAFB5FB18564AEF8D00B606A1DD8989"",""assignmentId"":""d0550f07-c9a5-42d6-b1e5-69de0a46469c"",""projectId"":""051c06f1-75cc-4548-856d-4923ddaba0dc""}","https://test12345.live/?num_scrambled_semantic=8&num_scrambled_causal=4&num_scrambled_schematic=4&participantId=BFAFB5FB18564AEF8D00B606A1DD8989&assignmentId=d0550f07-c9a5-42d6-b1e5-69de0a46469c&projectId=051c06f1-75cc-4548-856d-4923ddaba0dc","BFAFB5FB18564AEF8D00B606A1DD8989-2025-05-15-19-05-22","","1697","","images/causal_sequence/coin_causal/coin_causal_5.png","0","",""
"","","","","","image-button-response","103","580165","0.0-14.0-1.0-2.4","BFAFB5FB18564AEF8D00B606A1DD8989","BFAFB5FB18564AEF8D00B606A1DD8989","d0550f07-c9a5-42d6-b1e5-69de0a46469c","051c06f1-75cc-4548-856d-4923ddaba0dc","{""num_scrambled_semantic"":""8"",""num_scrambled_causal"":""4"",""num_scrambled_schematic"":""4"",""participantId"":""BFAFB5FB18564AEF8D00B606A1DD8989"",""assignmentId"":""d0550f07-c9a5-42d6-b1e5-69de0a46469c"",""projectId"":""051c06f1-75cc-4548-856d-4923ddaba0dc""}","https://test12345.live/?num_scrambled_semantic=8&num_scrambled_causal=4&num_scrambled_schematic=4&participantId=BFAFB5FB18564AEF8D00B606A1DD8989&assignmentId=d0550f07-c9a5-42d6-b1e5-69de0a46469c&projectId=051c06f1-75cc-4548-856d-4923ddaba0dc","BFAFB5FB18564AEF8D00B606A1DD8989-2025-05-15-19-05-22","","null","","[]","null","",""
"","","","","","image-button-response","104","584667","0.0-14.0-1.0-0.5","BFAFB5FB18564AEF8D00B606A1DD8989","BFAFB5FB18564AEF8D00B606A1DD8989","d0550f07-c9a5-42d6-b1e5-69de0a46469c","051c06f1-75cc-4548-856d-4923ddaba0dc","{""num_scrambled_semantic"":""8"",""num_scrambled_causal"":""4"",""num_scrambled_schematic"":""4"",""participantId"":""BFAFB5FB18564AEF8D00B606A1DD8989"",""assignmentId"":""d0550f07-c9a5-42d6-b1e5-69de0a46469c"",""projectId"":""051c06f1-75cc-4548-856d-4923ddaba0dc""}","https://test12345.live/?num_scrambled_semantic=8&num_scrambled_causal=4&num_scrambled_schematic=4&participantId=BFAFB5FB18564AEF8D00B606A1DD8989&assignmentId=d0550f07-c9a5-42d6-b1e5-69de0a46469c&projectId=051c06f1-75cc-4548-856d-4923ddaba0dc","BFAFB5FB18564AEF8D00B606A1DD8989-2025-05-15-19-05-22","","null","","images/causal_sequence/coin_causal/coin_causal_6.png","null","",""
"","","","","","image-button-response","105","585580","0.0-14.0-1.0-1.5","BFAFB5FB18564AEF8D00B606A1DD8989","BFAFB5FB18564AEF8D00B606A1DD8989","d0550f07-c9a5-42d6-b1e5-69de0a46469c","051c06f1-75cc-4548-856d-4923ddaba0dc","{""num_scrambled_semantic"":""8"",""num_scrambled_causal"":""4"",""num_scrambled_schematic"":""4"",""participantId"":""BFAFB5FB18564AEF8D00B606A1DD8989"",""assignmentId"":""d0550f07-c9a5-42d6-b1e5-69de0a46469c"",""projectId"":""051c06f1-75cc-4548-856d-4923ddaba0dc""}","https://test12345.live/?num_scrambled_semantic=8&num_scrambled_causal=4&num_scrambled_schematic=4&participantId=BFAFB5FB18564AEF8D00B606A1DD8989&assignmentId=d0550f07-c9a5-42d6-b1e5-69de0a46469c&projectId=051c06f1-75cc-4548-856d-4923ddaba0dc","BFAFB5FB18564AEF8D00B606A1DD8989-2025-05-15-19-05-22","","913","","images/causal_sequence/coin_causal/coin_causal_6.png","0","",""
"","","","","","image-button-response","106","587381","0.0-14.0-1.0-2.5","BFAFB5FB18564AEF8D00B606A1DD8989","BFAFB5FB18564AEF8D00B606A1DD8989","d0550f07-c9a5-42d6-b1e5-69de0a46469c","051c06f1-75cc-4548-856d-4923ddaba0dc","{""num_scrambled_semantic"":""8"",""num_scrambled_causal"":""4"",""num_scrambled_schematic"":""4"",""participantId"":""BFAFB5FB18564AEF8D00B606A1DD8989"",""assignmentId"":""d0550f07-c9a5-42d6-b1e5-69de0a46469c"",""projectId"":""051c06f1-75cc-4548-856d-4923ddaba0dc""}","https://test12345.live/?num_scrambled_semantic=8&num_scrambled_causal=4&num_scrambled_schematic=4&participantId=BFAFB5FB18564AEF8D00B606A1DD8989&assignmentId=d0550f07-c9a5-42d6-b1e5-69de0a46469c&projectId=051c06f1-75cc-4548-856d-4923ddaba0dc","BFAFB5FB18564AEF8D00B606A1DD8989-2025-05-15-19-05-22","","null","","[]","null","",""
"","","","","","image-button-response","107","591883","0.0-14.0-1.0-0.6","BFAFB5FB18564AEF8D00B606A1DD8989","BFAFB5FB18564AEF8D00B606A1DD8989","d0550f07-c9a5-42d6-b1e5-69de0a46469c","051c06f1-75cc-4548-856d-4923ddaba0dc","{""num_scrambled_semantic"":""8"",""num_scrambled_causal"":""4"",""num_scrambled_schematic"":""4"",""participantId"":""BFAFB5FB18564AEF8D00B606A1DD8989"",""assignmentId"":""d0550f07-c9a5-42d6-b1e5-69de0a46469c"",""projectId"":""051c06f1-75cc-4548-856d-4923ddaba0dc""}","https://test12345.live/?num_scrambled_semantic=8&num_scrambled_causal=4&num_scrambled_schematic=4&participantId=BFAFB5FB18564AEF8D00B606A1DD8989&assignmentId=d0550f07-c9a5-42d6-b1e5-69de0a46469c&projectId=051c06f1-75cc-4548-856d-4923ddaba0dc","BFAFB5FB18564AEF8D00B606A1DD8989-2025-05-15-19-05-22","","null","","images/causal_sequence/coin_causal/coin_causal_7.png","null","",""
"","","","","","image-button-response","108","593332","0.0-14.0-1.0-1.6","BFAFB5FB18564AEF8D00B606A1DD8989","BFAFB5FB18564AEF8D00B606A1DD8989","d0550f07-c9a5-42d6-b1e5-69de0a46469c","051c06f1-75cc-4548-856d-4923ddaba0dc","{""num_scrambled_semantic"":""8"",""num_scrambled_causal"":""4"",""num_scrambled_schematic"":""4"",""participantId"":""BFAFB5FB18564AEF8D00B606A1DD8989"",""assignmentId"":""d0550f07-c9a5-42d6-b1e5-69de0a46469c"",""projectId"":""051c06f1-75cc-4548-856d-4923ddaba0dc""}","https://test12345.live/?num_scrambled_semantic=8&num_scrambled_causal=4&num_scrambled_schematic=4&participantId=BFAFB5FB18564AEF8D00B606A1DD8989&assignmentId=d0550f07-c9a5-42d6-b1e5-69de0a46469c&projectId=051c06f1-75cc-4548-856d-4923ddaba0dc","BFAFB5FB18564AEF8D00B606A1DD8989-2025-05-15-19-05-22","","1449","","images/causal_sequence/coin_causal/coin_causal_7.png","1","",""
"","","","","","image-button-response","109","595133","0.0-14.0-1.0-2.6","BFAFB5FB18564AEF8D00B606A1DD8989","BFAFB5FB18564AEF8D00B606A1DD8989","d0550f07-c9a5-42d6-b1e5-69de0a46469c","051c06f1-75cc-4548-856d-4923ddaba0dc","{""num_scrambled_semantic"":""8"",""num_scrambled_causal"":""4"",""num_scrambled_schematic"":""4"",""participantId"":""BFAFB5FB18564AEF8D00B606A1DD8989"",""assignmentId"":""d0550f07-c9a5-42d6-b1e5-69de0a46469c"",""projectId"":""051c06f1-75cc-4548-856d-4923ddaba0dc""}","https://test12345.live/?num_scrambled_semantic=8&num_scrambled_causal=4&num_scrambled_schematic=4&participantId=BFAFB5FB18564AEF8D00B606A1DD8989&assignmentId=d0550f07-c9a5-42d6-b1e5-69de0a46469c&projectId=051c06f1-75cc-4548-856d-4923ddaba0dc","BFAFB5FB18564AEF8D00B606A1DD8989-2025-05-15-19-05-22","","null","","[]","null","",""
"","","","","","image-button-response","110","599635","0.0-14.0-1.0-0.7","BFAFB5FB18564AEF8D00B606A1DD8989","BFAFB5FB18564AEF8D00B606A1DD8989","d0550f07-c9a5-42d6-b1e5-69de0a46469c","051c06f1-75cc-4548-856d-4923ddaba0dc","{""num_scrambled_semantic"":""8"",""num_scrambled_causal"":""4"",""num_scrambled_schematic"":""4"",""participantId"":""BFAFB5FB18564AEF8D00B606A1DD8989"",""assignmentId"":""d0550f07-c9a5-42d6-b1e5-69de0a46469c"",""projectId"":""051c06f1-75cc-4548-856d-4923ddaba0dc""}","https://test12345.live/?num_scrambled_semantic=8&num_scrambled_causal=4&num_scrambled_schematic=4&participantId=BFAFB5FB18564AEF8D00B606A1DD8989&assignmentId=d0550f07-c9a5-42d6-b1e5-69de0a46469c&projectId=051c06f1-75cc-4548-856d-4923ddaba0dc","BFAFB5FB18564AEF8D00B606A1DD8989-2025-05-15-19-05-22","","null","","images/causal_sequence/coin_causal/coin_causal_8.png","null","",""
"","","","","","image-button-response","111","600580","0.0-14.0-1.0-1.7","BFAFB5FB18564AEF8D00B606A1DD8989","BFAFB5FB18564AEF8D00B606A1DD8989","d0550f07-c9a5-42d6-b1e5-69de0a46469c","051c06f1-75cc-4548-856d-4923ddaba0dc","{""num_scrambled_semantic"":""8"",""num_scrambled_causal"":""4"",""num_scrambled_schematic"":""4"",""participantId"":""BFAFB5FB18564AEF8D00B606A1DD8989"",""assignmentId"":""d0550f07-c9a5-42d6-b1e5-69de0a46469c"",""projectId"":""051c06f1-75cc-4548-856d-4923ddaba0dc""}","https://test12345.live/?num_scrambled_semantic=8&num_scrambled_causal=4&num_scrambled_schematic=4&participantId=BFAFB5FB18564AEF8D00B606A1DD8989&assignmentId=d0550f07-c9a5-42d6-b1e5-69de0a46469c&projectId=051c06f1-75cc-4548-856d-4923ddaba0dc","BFAFB5FB18564AEF8D00B606A1DD8989-2025-05-15-19-05-22","","945","","images/causal_sequence/coin_causal/coin_causal_8.png","0","",""
"","","","","","image-button-response","112","602381","0.0-14.0-1.0-2.7","BFAFB5FB18564AEF8D00B606A1DD8989","BFAFB5FB18564AEF8D00B606A1DD8989","d0550f07-c9a5-42d6-b1e5-69de0a46469c","051c06f1-75cc-4548-856d-4923ddaba0dc","{""num_scrambled_semantic"":""8"",""num_scrambled_causal"":""4"",""num_scrambled_schematic"":""4"",""participantId"":""BFAFB5FB18564AEF8D00B606A1DD8989"",""assignmentId"":""d0550f07-c9a5-42d6-b1e5-69de0a46469c"",""projectId"":""051c06f1-75cc-4548-856d-4923ddaba0dc""}","https://test12345.live/?num_scrambled_semantic=8&num_scrambled_causal=4&num_scrambled_schematic=4&participantId=BFAFB5FB18564AEF8D00B606A1DD8989&assignmentId=d0550f07-c9a5-42d6-b1e5-69de0a46469c&projectId=051c06f1-75cc-4548-856d-4923ddaba0dc","BFAFB5FB18564AEF8D00B606A1DD8989-2025-05-15-19-05-22","","null","","[]","null","",""
"","","","","","image-button-response","113","606884","0.0-14.0-1.0-0.8","BFAFB5FB18564AEF8D00B606A1DD8989","BFAFB5FB18564AEF8D00B606A1DD8989","d0550f07-c9a5-42d6-b1e5-69de0a46469c","051c06f1-75cc-4548-856d-4923ddaba0dc","{""num_scrambled_semantic"":""8"",""num_scrambled_causal"":""4"",""num_scrambled_schematic"":""4"",""participantId"":""BFAFB5FB18564AEF8D00B606A1DD8989"",""assignmentId"":""d0550f07-c9a5-42d6-b1e5-69de0a46469c"",""projectId"":""051c06f1-75cc-4548-856d-4923ddaba0dc""}","https://test12345.live/?num_scrambled_semantic=8&num_scrambled_causal=4&num_scrambled_schematic=4&participantId=BFAFB5FB18564AEF8D00B606A1DD8989&assignmentId=d0550f07-c9a5-42d6-b1e5-69de0a46469c&projectId=051c06f1-75cc-4548-856d-4923ddaba0dc","BFAFB5FB18564AEF8D00B606A1DD8989-2025-05-15-19-05-22","","null","","images/causal_sequence/coin_causal/coin_causal_9.png","null","",""
"","","","","","image-button-response","114","607892","0.0-14.0-1.0-1.8","BFAFB5FB18564AEF8D00B606A1DD8989","BFAFB5FB18564AEF8D00B606A1DD8989","d0550f07-c9a5-42d6-b1e5-69de0a46469c","051c06f1-75cc-4548-856d-4923ddaba0dc","{""num_scrambled_semantic"":""8"",""num_scrambled_causal"":""4"",""num_scrambled_schematic"":""4"",""participantId"":""BFAFB5FB18564AEF8D00B606A1DD8989"",""assignmentId"":""d0550f07-c9a5-42d6-b1e5-69de0a46469c"",""projectId"":""051c06f1-75cc-4548-856d-4923ddaba0dc""}","https://test12345.live/?num_scrambled_semantic=8&num_scrambled_causal=4&num_scrambled_schematic=4&participantId=BFAFB5FB18564AEF8D00B606A1DD8989&assignmentId=d0550f07-c9a5-42d6-b1e5-69de0a46469c&projectId=051c06f1-75cc-4548-856d-4923ddaba0dc","BFAFB5FB18564AEF8D00B606A1DD8989-2025-05-15-19-05-22","","1008","","images/causal_sequence/coin_causal/coin_causal_9.png","0","",""
