"success","timeout","failed_images","failed_audio","failed_video","trial_type","trial_index","time_elapsed","internal_node_id","subject","subject_id","study_id","session_id","urlvar","current_url","audio_id","view_history","rt","device_id","stimulus","response","estimated_stimulus_onset","seq_name"
"true","false","[]","[]","[]","preload","0","4056","0.0-0.0","C00B7F79D4C944AABF7219589DDAB05A","C00B7F79D4C944AABF7219589DDAB05A","0198b996-a893-777c-ab74-6a26db41d1b0","0198b979-1f5e-7105-8b5f-48f920534529","{""num_scrambled_semantic"":""8"",""num_scrambled_causal"":""4"",""num_scrambled_schematic"":""4"",""participantId"":""C00B7F79D4C944AABF7219589DDAB05A"",""assignmentId"":""0198b996-a893-777c-ab74-6a26db41d1b0"",""projectId"":""0198b979-1f5e-7105-8b5f-48f920534529""}","https://test12345.live/?num_scrambled_semantic=8&num_scrambled_causal=4&num_scrambled_schematic=4&participantId=C00B7F79D4C944AABF7219589DDAB05A&assignmentId=0198b996-a893-777c-ab74-6a26db41d1b0&projectId=0198b979-1f5e-7105-8b5f-48f920534529","C00B7F79D4C944AABF7219589DDAB05A-2025-08-17-20-37-14","","","","","","",""
"","","","","","instructions","1","51831","0.0-1.0","C00B7F79D4C944AABF7219589DDAB05A","C00B7F79D4C944AABF7219589DDAB05A","0198b996-a893-777c-ab74-6a26db41d1b0","0198b979-1f5e-7105-8b5f-48f920534529","{""num_scrambled_semantic"":""8"",""num_scrambled_causal"":""4"",""num_scrambled_schematic"":""4"",""participantId"":""C00B7F79D4C944AABF7219589DDAB05A"",""assignmentId"":""0198b996-a893-777c-ab74-6a26db41d1b0"",""projectId"":""0198b979-1f5e-7105-8b5f-48f920534529""}","https://test12345.live/?num_scrambled_semantic=8&num_scrambled_causal=4&num_scrambled_schematic=4&participantId=C00B7F79D4C944AABF7219589DDAB05A&assignmentId=0198b996-a893-777c-ab74-6a26db41d1b0&projectId=0198b979-1f5e-7105-8b5f-48f920534529","C00B7F79D4C944AABF7219589DDAB05A-2025-08-17-20-37-14","[{""page_index"":0,""viewing_time"":47775}]","47775","","","","",""
"","","","","","instructions","2","57375","0.0-2.0","C00B7F79D4C944AABF7219589DDAB05A","C00B7F79D4C944AABF7219589DDAB05A","0198b996-a893-777c-ab74-6a26db41d1b0","0198b979-1f5e-7105-8b5f-48f920534529","{""num_scrambled_semantic"":""8"",""num_scrambled_causal"":""4"",""num_scrambled_schematic"":""4"",""participantId"":""C00B7F79D4C944AABF7219589DDAB05A"",""assignmentId"":""0198b996-a893-777c-ab74-6a26db41d1b0"",""projectId"":""0198b979-1f5e-7105-8b5f-48f920534529""}","https://test12345.live/?num_scrambled_semantic=8&num_scrambled_causal=4&num_scrambled_schematic=4&participantId=C00B7F79D4C944AABF7219589DDAB05A&assignmentId=0198b996-a893-777c-ab74-6a26db41d1b0&projectId=0198b979-1f5e-7105-8b5f-48f920534529","C00B7F79D4C944AABF7219589DDAB05A-2025-08-17-20-37-14","[{""page_index"":0,""viewing_time"":5543}]","5543","","","","",""
"true","","","","","fullscreen","3","59894","0.0-3.0","C00B7F79D4C944AABF7219589DDAB05A","C00B7F79D4C944AABF7219589DDAB05A","0198b996-a893-777c-ab74-6a26db41d1b0","0198b979-1f5e-7105-8b5f-48f920534529","{""num_scrambled_semantic"":""8"",""num_scrambled_causal"":""4"",""num_scrambled_schematic"":""4"",""participantId"":""C00B7F79D4C944AABF7219589DDAB05A"",""assignmentId"":""0198b996-a893-777c-ab74-6a26db41d1b0"",""projectId"":""0198b979-1f5e-7105-8b5f-48f920534529""}","https://test12345.live/?num_scrambled_semantic=8&num_scrambled_causal=4&num_scrambled_schematic=4&participantId=C00B7F79D4C944AABF7219589DDAB05A&assignmentId=0198b996-a893-777c-ab74-6a26db41d1b0&projectId=0198b979-1f5e-7105-8b5f-48f920534529","C00B7F79D4C944AABF7219589DDAB05A-2025-08-17-20-37-14","","1515","","","","",""
"","","","","","initialize-microphone","4","116455","0.0-4.0-0.0","C00B7F79D4C944AABF7219589DDAB05A","C00B7F79D4C944AABF7219589DDAB05A","0198b996-a893-777c-ab74-6a26db41d1b0","0198b979-1f5e-7105-8b5f-48f920534529","{""num_scrambled_semantic"":""8"",""num_scrambled_causal"":""4"",""num_scrambled_schematic"":""4"",""participantId"":""C00B7F79D4C944AABF7219589DDAB05A"",""assignmentId"":""0198b996-a893-777c-ab74-6a26db41d1b0"",""projectId"":""0198b979-1f5e-7105-8b5f-48f920534529""}","https://test12345.live/?num_scrambled_semantic=8&num_scrambled_causal=4&num_scrambled_schematic=4&participantId=C00B7F79D4C944AABF7219589DDAB05A&assignmentId=0198b996-a893-777c-ab74-6a26db41d1b0&projectId=0198b979-1f5e-7105-8b5f-48f920534529","C00B7F79D4C944AABF7219589DDAB05A-2025-08-17-20-37-14","","","073001031f33af27b808bb9db9a09d0ccf662097365cd55292e791f44321eb48","","","",""
"","","","","","html-audio-response","5","130613","0.0-4.0-1.0","C00B7F79D4C944AABF7219589DDAB05A","C00B7F79D4C944AABF7219589DDAB05A","0198b996-a893-777c-ab74-6a26db41d1b0","0198b979-1f5e-7105-8b5f-48f920534529","{""num_scrambled_semantic"":""8"",""num_scrambled_causal"":""4"",""num_scrambled_schematic"":""4"",""participantId"":""C00B7F79D4C944AABF7219589DDAB05A"",""assignmentId"":""0198b996-a893-777c-ab74-6a26db41d1b0"",""projectId"":""0198b979-1f5e-7105-8b5f-48f920534529""}","https://test12345.live/?num_scrambled_semantic=8&num_scrambled_causal=4&num_scrambled_schematic=4&participantId=C00B7F79D4C944AABF7219589DDAB05A&assignmentId=0198b996-a893-777c-ab74-6a26db41d1b0&projectId=0198b979-1f5e-7105-8b5f-48f920534529","C00B7F79D4C944AABF7219589DDAB05A-2025-08-17-20-37-14","","5440","","<span style=""color: red; font-size: 24px""> NOW RECORDING</span>
        <p>Please test Microphone</p>","","4",""
"","","","","","html-button-response","6","133863","0.0-4.0-2.0","C00B7F79D4C944AABF7219589DDAB05A","C00B7F79D4C944AABF7219589DDAB05A","0198b996-a893-777c-ab74-6a26db41d1b0","0198b979-1f5e-7105-8b5f-48f920534529","{""num_scrambled_semantic"":""8"",""num_scrambled_causal"":""4"",""num_scrambled_schematic"":""4"",""participantId"":""C00B7F79D4C944AABF7219589DDAB05A"",""assignmentId"":""0198b996-a893-777c-ab74-6a26db41d1b0"",""projectId"":""0198b979-1f5e-7105-8b5f-48f920534529""}","https://test12345.live/?num_scrambled_semantic=8&num_scrambled_causal=4&num_scrambled_schematic=4&participantId=C00B7F79D4C944AABF7219589DDAB05A&assignmentId=0198b996-a893-777c-ab74-6a26db41d1b0&projectId=0198b979-1f5e-7105-8b5f-48f920534529","C00B7F79D4C944AABF7219589DDAB05A-2025-08-17-20-37-14","","3249","","<p style=""font-size:48px; color:red;"">Is Microphone OK?</p>","1","",""
"","","","","","instructions","7","165574","0.0-5.0","C00B7F79D4C944AABF7219589DDAB05A","C00B7F79D4C944AABF7219589DDAB05A","0198b996-a893-777c-ab74-6a26db41d1b0","0198b979-1f5e-7105-8b5f-48f920534529","{""num_scrambled_semantic"":""8"",""num_scrambled_causal"":""4"",""num_scrambled_schematic"":""4"",""participantId"":""C00B7F79D4C944AABF7219589DDAB05A"",""assignmentId"":""0198b996-a893-777c-ab74-6a26db41d1b0"",""projectId"":""0198b979-1f5e-7105-8b5f-48f920534529""}","https://test12345.live/?num_scrambled_semantic=8&num_scrambled_causal=4&num_scrambled_schematic=4&participantId=C00B7F79D4C944AABF7219589DDAB05A&assignmentId=0198b996-a893-777c-ab74-6a26db41d1b0&projectId=0198b979-1f5e-7105-8b5f-48f920534529","C00B7F79D4C944AABF7219589DDAB05A-2025-08-17-20-37-14","[{""page_index"":0,""viewing_time"":8685},{""page_index"":1,""viewing_time"":23025}]","31710","","","","",""
"","","","","","image-button-response","8","171607","0.0-6.0-0.0","C00B7F79D4C944AABF7219589DDAB05A","C00B7F79D4C944AABF7219589DDAB05A","0198b996-a893-777c-ab74-6a26db41d1b0","0198b979-1f5e-7105-8b5f-48f920534529","{""num_scrambled_semantic"":""8"",""num_scrambled_causal"":""4"",""num_scrambled_schematic"":""4"",""participantId"":""C00B7F79D4C944AABF7219589DDAB05A"",""assignmentId"":""0198b996-a893-777c-ab74-6a26db41d1b0"",""projectId"":""0198b979-1f5e-7105-8b5f-48f920534529""}","https://test12345.live/?num_scrambled_semantic=8&num_scrambled_causal=4&num_scrambled_schematic=4&participantId=C00B7F79D4C944AABF7219589DDAB05A&assignmentId=0198b996-a893-777c-ab74-6a26db41d1b0&projectId=0198b979-1f5e-7105-8b5f-48f920534529","C00B7F79D4C944AABF7219589DDAB05A-2025-08-17-20-37-14","","null","","images/instructions/movie_0.png","null","",""
"","","","","","image-button-response","9","176120","0.0-6.0-1.0-0.0","C00B7F79D4C944AABF7219589DDAB05A","C00B7F79D4C944AABF7219589DDAB05A","0198b996-a893-777c-ab74-6a26db41d1b0","0198b979-1f5e-7105-8b5f-48f920534529","{""num_scrambled_semantic"":""8"",""num_scrambled_causal"":""4"",""num_scrambled_schematic"":""4"",""participantId"":""C00B7F79D4C944AABF7219589DDAB05A"",""assignmentId"":""0198b996-a893-777c-ab74-6a26db41d1b0"",""projectId"":""0198b979-1f5e-7105-8b5f-48f920534529""}","https://test12345.live/?num_scrambled_semantic=8&num_scrambled_causal=4&num_scrambled_schematic=4&participantId=C00B7F79D4C944AABF7219589DDAB05A&assignmentId=0198b996-a893-777c-ab74-6a26db41d1b0&projectId=0198b979-1f5e-7105-8b5f-48f920534529","C00B7F79D4C944AABF7219589DDAB05A-2025-08-17-20-37-14","","null","","images/instructions/movie_1.png","null","",""
"","","","","","image-button-response","10","180086","0.0-6.0-1.0-1.0","C00B7F79D4C944AABF7219589DDAB05A","C00B7F79D4C944AABF7219589DDAB05A","0198b996-a893-777c-ab74-6a26db41d1b0","0198b979-1f5e-7105-8b5f-48f920534529","{""num_scrambled_semantic"":""8"",""num_scrambled_causal"":""4"",""num_scrambled_schematic"":""4"",""participantId"":""C00B7F79D4C944AABF7219589DDAB05A"",""assignmentId"":""0198b996-a893-777c-ab74-6a26db41d1b0"",""projectId"":""0198b979-1f5e-7105-8b5f-48f920534529""}","https://test12345.live/?num_scrambled_semantic=8&num_scrambled_causal=4&num_scrambled_schematic=4&participantId=C00B7F79D4C944AABF7219589DDAB05A&assignmentId=0198b996-a893-777c-ab74-6a26db41d1b0&projectId=0198b979-1f5e-7105-8b5f-48f920534529","C00B7F79D4C944AABF7219589DDAB05A-2025-08-17-20-37-14","","3964","","images/instructions/movie_1.png","0","",""
"","","","","","image-button-response","11","185495","0.0-6.0-1.0-2.0","C00B7F79D4C944AABF7219589DDAB05A","C00B7F79D4C944AABF7219589DDAB05A","0198b996-a893-777c-ab74-6a26db41d1b0","0198b979-1f5e-7105-8b5f-48f920534529","{""num_scrambled_semantic"":""8"",""num_scrambled_causal"":""4"",""num_scrambled_schematic"":""4"",""participantId"":""C00B7F79D4C944AABF7219589DDAB05A"",""assignmentId"":""0198b996-a893-777c-ab74-6a26db41d1b0"",""projectId"":""0198b979-1f5e-7105-8b5f-48f920534529""}","https://test12345.live/?num_scrambled_semantic=8&num_scrambled_causal=4&num_scrambled_schematic=4&participantId=C00B7F79D4C944AABF7219589DDAB05A&assignmentId=0198b996-a893-777c-ab74-6a26db41d1b0&projectId=0198b979-1f5e-7105-8b5f-48f920534529","C00B7F79D4C944AABF7219589DDAB05A-2025-08-17-20-37-14","","null","","[]","null","",""
"","","","","","image-button-response","12","189997","0.0-6.0-1.0-0.1","C00B7F79D4C944AABF7219589DDAB05A","C00B7F79D4C944AABF7219589DDAB05A","0198b996-a893-777c-ab74-6a26db41d1b0","0198b979-1f5e-7105-8b5f-48f920534529","{""num_scrambled_semantic"":""8"",""num_scrambled_causal"":""4"",""num_scrambled_schematic"":""4"",""participantId"":""C00B7F79D4C944AABF7219589DDAB05A"",""assignmentId"":""0198b996-a893-777c-ab74-6a26db41d1b0"",""projectId"":""0198b979-1f5e-7105-8b5f-48f920534529""}","https://test12345.live/?num_scrambled_semantic=8&num_scrambled_causal=4&num_scrambled_schematic=4&participantId=C00B7F79D4C944AABF7219589DDAB05A&assignmentId=0198b996-a893-777c-ab74-6a26db41d1b0&projectId=0198b979-1f5e-7105-8b5f-48f920534529","C00B7F79D4C944AABF7219589DDAB05A-2025-08-17-20-37-14","","null","","images/instructions/movie_2.png","null","",""
"","","","","","image-button-response","13","192213","0.0-6.0-1.0-1.1","C00B7F79D4C944AABF7219589DDAB05A","C00B7F79D4C944AABF7219589DDAB05A","0198b996-a893-777c-ab74-6a26db41d1b0","0198b979-1f5e-7105-8b5f-48f920534529","{""num_scrambled_semantic"":""8"",""num_scrambled_causal"":""4"",""num_scrambled_schematic"":""4"",""participantId"":""C00B7F79D4C944AABF7219589DDAB05A"",""assignmentId"":""0198b996-a893-777c-ab74-6a26db41d1b0"",""projectId"":""0198b979-1f5e-7105-8b5f-48f920534529""}","https://test12345.live/?num_scrambled_semantic=8&num_scrambled_causal=4&num_scrambled_schematic=4&participantId=C00B7F79D4C944AABF7219589DDAB05A&assignmentId=0198b996-a893-777c-ab74-6a26db41d1b0&projectId=0198b979-1f5e-7105-8b5f-48f920534529","C00B7F79D4C944AABF7219589DDAB05A-2025-08-17-20-37-14","","2215","","images/instructions/movie_2.png","1","",""
"","","","","","image-button-response","14","197615","0.0-6.0-1.0-2.1","C00B7F79D4C944AABF7219589DDAB05A","C00B7F79D4C944AABF7219589DDAB05A","0198b996-a893-777c-ab74-6a26db41d1b0","0198b979-1f5e-7105-8b5f-48f920534529","{""num_scrambled_semantic"":""8"",""num_scrambled_causal"":""4"",""num_scrambled_schematic"":""4"",""participantId"":""C00B7F79D4C944AABF7219589DDAB05A"",""assignmentId"":""0198b996-a893-777c-ab74-6a26db41d1b0"",""projectId"":""0198b979-1f5e-7105-8b5f-48f920534529""}","https://test12345.live/?num_scrambled_semantic=8&num_scrambled_causal=4&num_scrambled_schematic=4&participantId=C00B7F79D4C944AABF7219589DDAB05A&assignmentId=0198b996-a893-777c-ab74-6a26db41d1b0&projectId=0198b979-1f5e-7105-8b5f-48f920534529","C00B7F79D4C944AABF7219589DDAB05A-2025-08-17-20-37-14","","null","","[]","null","",""
"","","","","","image-button-response","15","202123","0.0-6.0-1.0-0.2","C00B7F79D4C944AABF7219589DDAB05A","C00B7F79D4C944AABF7219589DDAB05A","0198b996-a893-777c-ab74-6a26db41d1b0","0198b979-1f5e-7105-8b5f-48f920534529","{""num_scrambled_semantic"":""8"",""num_scrambled_causal"":""4"",""num_scrambled_schematic"":""4"",""participantId"":""C00B7F79D4C944AABF7219589DDAB05A"",""assignmentId"":""0198b996-a893-777c-ab74-6a26db41d1b0"",""projectId"":""0198b979-1f5e-7105-8b5f-48f920534529""}","https://test12345.live/?num_scrambled_semantic=8&num_scrambled_causal=4&num_scrambled_schematic=4&participantId=C00B7F79D4C944AABF7219589DDAB05A&assignmentId=0198b996-a893-777c-ab74-6a26db41d1b0&projectId=0198b979-1f5e-7105-8b5f-48f920534529","C00B7F79D4C944AABF7219589DDAB05A-2025-08-17-20-37-14","","null","","images/instructions/movie_3.png","null","",""
"","","","","","image-button-response","16","204757","0.0-6.0-1.0-1.2","C00B7F79D4C944AABF7219589DDAB05A","C00B7F79D4C944AABF7219589DDAB05A","0198b996-a893-777c-ab74-6a26db41d1b0","0198b979-1f5e-7105-8b5f-48f920534529","{""num_scrambled_semantic"":""8"",""num_scrambled_causal"":""4"",""num_scrambled_schematic"":""4"",""participantId"":""C00B7F79D4C944AABF7219589DDAB05A"",""assignmentId"":""0198b996-a893-777c-ab74-6a26db41d1b0"",""projectId"":""0198b979-1f5e-7105-8b5f-48f920534529""}","https://test12345.live/?num_scrambled_semantic=8&num_scrambled_causal=4&num_scrambled_schematic=4&participantId=C00B7F79D4C944AABF7219589DDAB05A&assignmentId=0198b996-a893-777c-ab74-6a26db41d1b0&projectId=0198b979-1f5e-7105-8b5f-48f920534529","C00B7F79D4C944AABF7219589DDAB05A-2025-08-17-20-37-14","","2632","","images/instructions/movie_3.png","0","",""
"","","","","","image-button-response","17","210163","0.0-6.0-1.0-2.2","C00B7F79D4C944AABF7219589DDAB05A","C00B7F79D4C944AABF7219589DDAB05A","0198b996-a893-777c-ab74-6a26db41d1b0","0198b979-1f5e-7105-8b5f-48f920534529","{""num_scrambled_semantic"":""8"",""num_scrambled_causal"":""4"",""num_scrambled_schematic"":""4"",""participantId"":""C00B7F79D4C944AABF7219589DDAB05A"",""assignmentId"":""0198b996-a893-777c-ab74-6a26db41d1b0"",""projectId"":""0198b979-1f5e-7105-8b5f-48f920534529""}","https://test12345.live/?num_scrambled_semantic=8&num_scrambled_causal=4&num_scrambled_schematic=4&participantId=C00B7F79D4C944AABF7219589DDAB05A&assignmentId=0198b996-a893-777c-ab74-6a26db41d1b0&projectId=0198b979-1f5e-7105-8b5f-48f920534529","C00B7F79D4C944AABF7219589DDAB05A-2025-08-17-20-37-14","","null","","[]","null","",""
"","","","","","image-button-response","18","214671","0.0-6.0-1.0-0.3","C00B7F79D4C944AABF7219589DDAB05A","C00B7F79D4C944AABF7219589DDAB05A","0198b996-a893-777c-ab74-6a26db41d1b0","0198b979-1f5e-7105-8b5f-48f920534529","{""num_scrambled_semantic"":""8"",""num_scrambled_causal"":""4"",""num_scrambled_schematic"":""4"",""participantId"":""C00B7F79D4C944AABF7219589DDAB05A"",""assignmentId"":""0198b996-a893-777c-ab74-6a26db41d1b0"",""projectId"":""0198b979-1f5e-7105-8b5f-48f920534529""}","https://test12345.live/?num_scrambled_semantic=8&num_scrambled_causal=4&num_scrambled_schematic=4&participantId=C00B7F79D4C944AABF7219589DDAB05A&assignmentId=0198b996-a893-777c-ab74-6a26db41d1b0&projectId=0198b979-1f5e-7105-8b5f-48f920534529","C00B7F79D4C944AABF7219589DDAB05A-2025-08-17-20-37-14","","null","","images/instructions/movie_4.png","null","",""
"","","","","","image-button-response","19","215493","0.0-6.0-1.0-1.3","C00B7F79D4C944AABF7219589DDAB05A","C00B7F79D4C944AABF7219589DDAB05A","0198b996-a893-777c-ab74-6a26db41d1b0","0198b979-1f5e-7105-8b5f-48f920534529","{""num_scrambled_semantic"":""8"",""num_scrambled_causal"":""4"",""num_scrambled_schematic"":""4"",""participantId"":""C00B7F79D4C944AABF7219589DDAB05A"",""assignmentId"":""0198b996-a893-777c-ab74-6a26db41d1b0"",""projectId"":""0198b979-1f5e-7105-8b5f-48f920534529""}","https://test12345.live/?num_scrambled_semantic=8&num_scrambled_causal=4&num_scrambled_schematic=4&participantId=C00B7F79D4C944AABF7219589DDAB05A&assignmentId=0198b996-a893-777c-ab74-6a26db41d1b0&projectId=0198b979-1f5e-7105-8b5f-48f920534529","C00B7F79D4C944AABF7219589DDAB05A-2025-08-17-20-37-14","","821","","images/instructions/movie_4.png","0","",""
"","","","","","image-button-response","20","220907","0.0-6.0-1.0-2.3","C00B7F79D4C944AABF7219589DDAB05A","C00B7F79D4C944AABF7219589DDAB05A","0198b996-a893-777c-ab74-6a26db41d1b0","0198b979-1f5e-7105-8b5f-48f920534529","{""num_scrambled_semantic"":""8"",""num_scrambled_causal"":""4"",""num_scrambled_schematic"":""4"",""participantId"":""C00B7F79D4C944AABF7219589DDAB05A"",""assignmentId"":""0198b996-a893-777c-ab74-6a26db41d1b0"",""projectId"":""0198b979-1f5e-7105-8b5f-48f920534529""}","https://test12345.live/?num_scrambled_semantic=8&num_scrambled_causal=4&num_scrambled_schematic=4&participantId=C00B7F79D4C944AABF7219589DDAB05A&assignmentId=0198b996-a893-777c-ab74-6a26db41d1b0&projectId=0198b979-1f5e-7105-8b5f-48f920534529","C00B7F79D4C944AABF7219589DDAB05A-2025-08-17-20-37-14","","null","","[]","null","",""
"","","","","","instructions","21","236965","0.0-7.0","C00B7F79D4C944AABF7219589DDAB05A","C00B7F79D4C944AABF7219589DDAB05A","0198b996-a893-777c-ab74-6a26db41d1b0","0198b979-1f5e-7105-8b5f-48f920534529","{""num_scrambled_semantic"":""8"",""num_scrambled_causal"":""4"",""num_scrambled_schematic"":""4"",""participantId"":""C00B7F79D4C944AABF7219589DDAB05A"",""assignmentId"":""0198b996-a893-777c-ab74-6a26db41d1b0"",""projectId"":""0198b979-1f5e-7105-8b5f-48f920534529""}","https://test12345.live/?num_scrambled_semantic=8&num_scrambled_causal=4&num_scrambled_schematic=4&participantId=C00B7F79D4C944AABF7219589DDAB05A&assignmentId=0198b996-a893-777c-ab74-6a26db41d1b0&projectId=0198b979-1f5e-7105-8b5f-48f920534529","C00B7F79D4C944AABF7219589DDAB05A-2025-08-17-20-37-14","[{""page_index"":0,""viewing_time"":14490},{""page_index"":1,""viewing_time"":1568}]","16058","","","","",""
"","","","","","html-audio-response","22","277020","0.0-8.0","C00B7F79D4C944AABF7219589DDAB05A","C00B7F79D4C944AABF7219589DDAB05A","0198b996-a893-777c-ab74-6a26db41d1b0","0198b979-1f5e-7105-8b5f-48f920534529","{""num_scrambled_semantic"":""8"",""num_scrambled_causal"":""4"",""num_scrambled_schematic"":""4"",""participantId"":""C00B7F79D4C944AABF7219589DDAB05A"",""assignmentId"":""0198b996-a893-777c-ab74-6a26db41d1b0"",""projectId"":""0198b979-1f5e-7105-8b5f-48f920534529""}","https://test12345.live/?num_scrambled_semantic=8&num_scrambled_causal=4&num_scrambled_schematic=4&participantId=C00B7F79D4C944AABF7219589DDAB05A&assignmentId=0198b996-a893-777c-ab74-6a26db41d1b0&projectId=0198b979-1f5e-7105-8b5f-48f920534529","C00B7F79D4C944AABF7219589DDAB05A-2025-08-17-20-37-14","","29683","","[""<span style=\""color: red; font-size: 24px\""> NOW RECORDING</span><p>Please say out loud all the images you saw, as many as you can remember. The images can be said in any order.</p>""]","","2",""
"","","","","","instructions","23","279436","0.0-9.0","C00B7F79D4C944AABF7219589DDAB05A","C00B7F79D4C944AABF7219589DDAB05A","0198b996-a893-777c-ab74-6a26db41d1b0","0198b979-1f5e-7105-8b5f-48f920534529","{""num_scrambled_semantic"":""8"",""num_scrambled_causal"":""4"",""num_scrambled_schematic"":""4"",""participantId"":""C00B7F79D4C944AABF7219589DDAB05A"",""assignmentId"":""0198b996-a893-777c-ab74-6a26db41d1b0"",""projectId"":""0198b979-1f5e-7105-8b5f-48f920534529""}","https://test12345.live/?num_scrambled_semantic=8&num_scrambled_causal=4&num_scrambled_schematic=4&participantId=C00B7F79D4C944AABF7219589DDAB05A&assignmentId=0198b996-a893-777c-ab74-6a26db41d1b0&projectId=0198b979-1f5e-7105-8b5f-48f920534529","C00B7F79D4C944AABF7219589DDAB05A-2025-08-17-20-37-14","[{""page_index"":0,""viewing_time"":2411}]","2411","","","","",""
"","","","","","image-button-response","24","285445","0.0-10.0-0.0","C00B7F79D4C944AABF7219589DDAB05A","C00B7F79D4C944AABF7219589DDAB05A","0198b996-a893-777c-ab74-6a26db41d1b0","0198b979-1f5e-7105-8b5f-48f920534529","{""num_scrambled_semantic"":""8"",""num_scrambled_causal"":""4"",""num_scrambled_schematic"":""4"",""participantId"":""C00B7F79D4C944AABF7219589DDAB05A"",""assignmentId"":""0198b996-a893-777c-ab74-6a26db41d1b0"",""projectId"":""0198b979-1f5e-7105-8b5f-48f920534529""}","https://test12345.live/?num_scrambled_semantic=8&num_scrambled_causal=4&num_scrambled_schematic=4&participantId=C00B7F79D4C944AABF7219589DDAB05A&assignmentId=0198b996-a893-777c-ab74-6a26db41d1b0&projectId=0198b979-1f5e-7105-8b5f-48f920534529","C00B7F79D4C944AABF7219589DDAB05A-2025-08-17-20-37-14","","null","","images/causal_sequence/coin_causal/coin_causal_0.png","null","",""
"","","","","","image-button-response","25","289951","0.0-10.0-1.0-0.0","C00B7F79D4C944AABF7219589DDAB05A","C00B7F79D4C944AABF7219589DDAB05A","0198b996-a893-777c-ab74-6a26db41d1b0","0198b979-1f5e-7105-8b5f-48f920534529","{""num_scrambled_semantic"":""8"",""num_scrambled_causal"":""4"",""num_scrambled_schematic"":""4"",""participantId"":""C00B7F79D4C944AABF7219589DDAB05A"",""assignmentId"":""0198b996-a893-777c-ab74-6a26db41d1b0"",""projectId"":""0198b979-1f5e-7105-8b5f-48f920534529""}","https://test12345.live/?num_scrambled_semantic=8&num_scrambled_causal=4&num_scrambled_schematic=4&participantId=C00B7F79D4C944AABF7219589DDAB05A&assignmentId=0198b996-a893-777c-ab74-6a26db41d1b0&projectId=0198b979-1f5e-7105-8b5f-48f920534529","C00B7F79D4C944AABF7219589DDAB05A-2025-08-17-20-37-14","","null","","images/causal_sequence/coin_causal/coin_causal_5.png","null","",""
"","","","","","image-button-response","26","292269","0.0-10.0-1.0-1.0","C00B7F79D4C944AABF7219589DDAB05A","C00B7F79D4C944AABF7219589DDAB05A","0198b996-a893-777c-ab74-6a26db41d1b0","0198b979-1f5e-7105-8b5f-48f920534529","{""num_scrambled_semantic"":""8"",""num_scrambled_causal"":""4"",""num_scrambled_schematic"":""4"",""participantId"":""C00B7F79D4C944AABF7219589DDAB05A"",""assignmentId"":""0198b996-a893-777c-ab74-6a26db41d1b0"",""projectId"":""0198b979-1f5e-7105-8b5f-48f920534529""}","https://test12345.live/?num_scrambled_semantic=8&num_scrambled_causal=4&num_scrambled_schematic=4&participantId=C00B7F79D4C944AABF7219589DDAB05A&assignmentId=0198b996-a893-777c-ab74-6a26db41d1b0&projectId=0198b979-1f5e-7105-8b5f-48f920534529","C00B7F79D4C944AABF7219589DDAB05A-2025-08-17-20-37-14","","2317","","images/causal_sequence/coin_causal/coin_causal_5.png","0","",""
"","","","","","image-button-response","27","297671","0.0-10.0-1.0-2.0","C00B7F79D4C944AABF7219589DDAB05A","C00B7F79D4C944AABF7219589DDAB05A","0198b996-a893-777c-ab74-6a26db41d1b0","0198b979-1f5e-7105-8b5f-48f920534529","{""num_scrambled_semantic"":""8"",""num_scrambled_causal"":""4"",""num_scrambled_schematic"":""4"",""participantId"":""C00B7F79D4C944AABF7219589DDAB05A"",""assignmentId"":""0198b996-a893-777c-ab74-6a26db41d1b0"",""projectId"":""0198b979-1f5e-7105-8b5f-48f920534529""}","https://test12345.live/?num_scrambled_semantic=8&num_scrambled_causal=4&num_scrambled_schematic=4&participantId=C00B7F79D4C944AABF7219589DDAB05A&assignmentId=0198b996-a893-777c-ab74-6a26db41d1b0&projectId=0198b979-1f5e-7105-8b5f-48f920534529","C00B7F79D4C944AABF7219589DDAB05A-2025-08-17-20-37-14","","null","","[]","null","",""
"","","","","","image-button-response","28","302186","0.0-10.0-1.0-0.1","C00B7F79D4C944AABF7219589DDAB05A","C00B7F79D4C944AABF7219589DDAB05A","0198b996-a893-777c-ab74-6a26db41d1b0","0198b979-1f5e-7105-8b5f-48f920534529","{""num_scrambled_semantic"":""8"",""num_scrambled_causal"":""4"",""num_scrambled_schematic"":""4"",""participantId"":""C00B7F79D4C944AABF7219589DDAB05A"",""assignmentId"":""0198b996-a893-777c-ab74-6a26db41d1b0"",""projectId"":""0198b979-1f5e-7105-8b5f-48f920534529""}","https://test12345.live/?num_scrambled_semantic=8&num_scrambled_causal=4&num_scrambled_schematic=4&participantId=C00B7F79D4C944AABF7219589DDAB05A&assignmentId=0198b996-a893-777c-ab74-6a26db41d1b0&projectId=0198b979-1f5e-7105-8b5f-48f920534529","C00B7F79D4C944AABF7219589DDAB05A-2025-08-17-20-37-14","","null","","images/causal_sequence/coin_causal/coin_causal_3.png","null","",""
"","","","","","image-button-response","29","305364","0.0-10.0-1.0-1.1","C00B7F79D4C944AABF7219589DDAB05A","C00B7F79D4C944AABF7219589DDAB05A","0198b996-a893-777c-ab74-6a26db41d1b0","0198b979-1f5e-7105-8b5f-48f920534529","{""num_scrambled_semantic"":""8"",""num_scrambled_causal"":""4"",""num_scrambled_schematic"":""4"",""participantId"":""C00B7F79D4C944AABF7219589DDAB05A"",""assignmentId"":""0198b996-a893-777c-ab74-6a26db41d1b0"",""projectId"":""0198b979-1f5e-7105-8b5f-48f920534529""}","https://test12345.live/?num_scrambled_semantic=8&num_scrambled_causal=4&num_scrambled_schematic=4&participantId=C00B7F79D4C944AABF7219589DDAB05A&assignmentId=0198b996-a893-777c-ab74-6a26db41d1b0&projectId=0198b979-1f5e-7105-8b5f-48f920534529","C00B7F79D4C944AABF7219589DDAB05A-2025-08-17-20-37-14","","3177","","images/causal_sequence/coin_causal/coin_causal_3.png","0","",""
"","","","","","image-button-response","30","310772","0.0-10.0-1.0-2.1","C00B7F79D4C944AABF7219589DDAB05A","C00B7F79D4C944AABF7219589DDAB05A","0198b996-a893-777c-ab74-6a26db41d1b0","0198b979-1f5e-7105-8b5f-48f920534529","{""num_scrambled_semantic"":""8"",""num_scrambled_causal"":""4"",""num_scrambled_schematic"":""4"",""participantId"":""C00B7F79D4C944AABF7219589DDAB05A"",""assignmentId"":""0198b996-a893-777c-ab74-6a26db41d1b0"",""projectId"":""0198b979-1f5e-7105-8b5f-48f920534529""}","https://test12345.live/?num_scrambled_semantic=8&num_scrambled_causal=4&num_scrambled_schematic=4&participantId=C00B7F79D4C944AABF7219589DDAB05A&assignmentId=0198b996-a893-777c-ab74-6a26db41d1b0&projectId=0198b979-1f5e-7105-8b5f-48f920534529","C00B7F79D4C944AABF7219589DDAB05A-2025-08-17-20-37-14","","null","","[]","null","",""
"","","","","","image-button-response","31","315278","0.0-10.0-1.0-0.2","C00B7F79D4C944AABF7219589DDAB05A","C00B7F79D4C944AABF7219589DDAB05A","0198b996-a893-777c-ab74-6a26db41d1b0","0198b979-1f5e-7105-8b5f-48f920534529","{""num_scrambled_semantic"":""8"",""num_scrambled_causal"":""4"",""num_scrambled_schematic"":""4"",""participantId"":""C00B7F79D4C944AABF7219589DDAB05A"",""assignmentId"":""0198b996-a893-777c-ab74-6a26db41d1b0"",""projectId"":""0198b979-1f5e-7105-8b5f-48f920534529""}","https://test12345.live/?num_scrambled_semantic=8&num_scrambled_causal=4&num_scrambled_schematic=4&participantId=C00B7F79D4C944AABF7219589DDAB05A&assignmentId=0198b996-a893-777c-ab74-6a26db41d1b0&projectId=0198b979-1f5e-7105-8b5f-48f920534529","C00B7F79D4C944AABF7219589DDAB05A-2025-08-17-20-37-14","","null","","images/causal_sequence/coin_causal/coin_causal_6.png","null","",""
"","","","","","image-button-response","32","317644","0.0-10.0-1.0-1.2","C00B7F79D4C944AABF7219589DDAB05A","C00B7F79D4C944AABF7219589DDAB05A","0198b996-a893-777c-ab74-6a26db41d1b0","0198b979-1f5e-7105-8b5f-48f920534529","{""num_scrambled_semantic"":""8"",""num_scrambled_causal"":""4"",""num_scrambled_schematic"":""4"",""participantId"":""C00B7F79D4C944AABF7219589DDAB05A"",""assignmentId"":""0198b996-a893-777c-ab74-6a26db41d1b0"",""projectId"":""0198b979-1f5e-7105-8b5f-48f920534529""}","https://test12345.live/?num_scrambled_semantic=8&num_scrambled_causal=4&num_scrambled_schematic=4&participantId=C00B7F79D4C944AABF7219589DDAB05A&assignmentId=0198b996-a893-777c-ab74-6a26db41d1b0&projectId=0198b979-1f5e-7105-8b5f-48f920534529","C00B7F79D4C944AABF7219589DDAB05A-2025-08-17-20-37-14","","2365","","images/causal_sequence/coin_causal/coin_causal_6.png","0","",""
"","","","","","image-button-response","33","323059","0.0-10.0-1.0-2.2","C00B7F79D4C944AABF7219589DDAB05A","C00B7F79D4C944AABF7219589DDAB05A","0198b996-a893-777c-ab74-6a26db41d1b0","0198b979-1f5e-7105-8b5f-48f920534529","{""num_scrambled_semantic"":""8"",""num_scrambled_causal"":""4"",""num_scrambled_schematic"":""4"",""participantId"":""C00B7F79D4C944AABF7219589DDAB05A"",""assignmentId"":""0198b996-a893-777c-ab74-6a26db41d1b0"",""projectId"":""0198b979-1f5e-7105-8b5f-48f920534529""}","https://test12345.live/?num_scrambled_semantic=8&num_scrambled_causal=4&num_scrambled_schematic=4&participantId=C00B7F79D4C944AABF7219589DDAB05A&assignmentId=0198b996-a893-777c-ab74-6a26db41d1b0&projectId=0198b979-1f5e-7105-8b5f-48f920534529","C00B7F79D4C944AABF7219589DDAB05A-2025-08-17-20-37-14","","null","","[]","null","",""
"","","","","","image-button-response","34","327574","0.0-10.0-1.0-0.3","C00B7F79D4C944AABF7219589DDAB05A","C00B7F79D4C944AABF7219589DDAB05A","0198b996-a893-777c-ab74-6a26db41d1b0","0198b979-1f5e-7105-8b5f-48f920534529","{""num_scrambled_semantic"":""8"",""num_scrambled_causal"":""4"",""num_scrambled_schematic"":""4"",""participantId"":""C00B7F79D4C944AABF7219589DDAB05A"",""assignmentId"":""0198b996-a893-777c-ab74-6a26db41d1b0"",""projectId"":""0198b979-1f5e-7105-8b5f-48f920534529""}","https://test12345.live/?num_scrambled_semantic=8&num_scrambled_causal=4&num_scrambled_schematic=4&participantId=C00B7F79D4C944AABF7219589DDAB05A&assignmentId=0198b996-a893-777c-ab74-6a26db41d1b0&projectId=0198b979-1f5e-7105-8b5f-48f920534529","C00B7F79D4C944AABF7219589DDAB05A-2025-08-17-20-37-14","","null","","images/causal_sequence/coin_causal/coin_causal_4.png","null","",""
"","","","","","image-button-response","35","329805","0.0-10.0-1.0-1.3","C00B7F79D4C944AABF7219589DDAB05A","C00B7F79D4C944AABF7219589DDAB05A","0198b996-a893-777c-ab74-6a26db41d1b0","0198b979-1f5e-7105-8b5f-48f920534529","{""num_scrambled_semantic"":""8"",""num_scrambled_causal"":""4"",""num_scrambled_schematic"":""4"",""participantId"":""C00B7F79D4C944AABF7219589DDAB05A"",""assignmentId"":""0198b996-a893-777c-ab74-6a26db41d1b0"",""projectId"":""0198b979-1f5e-7105-8b5f-48f920534529""}","https://test12345.live/?num_scrambled_semantic=8&num_scrambled_causal=4&num_scrambled_schematic=4&participantId=C00B7F79D4C944AABF7219589DDAB05A&assignmentId=0198b996-a893-777c-ab74-6a26db41d1b0&projectId=0198b979-1f5e-7105-8b5f-48f920534529","C00B7F79D4C944AABF7219589DDAB05A-2025-08-17-20-37-14","","2229","","images/causal_sequence/coin_causal/coin_causal_4.png","0","",""
"","","","","","image-button-response","36","335216","0.0-10.0-1.0-2.3","C00B7F79D4C944AABF7219589DDAB05A","C00B7F79D4C944AABF7219589DDAB05A","0198b996-a893-777c-ab74-6a26db41d1b0","0198b979-1f5e-7105-8b5f-48f920534529","{""num_scrambled_semantic"":""8"",""num_scrambled_causal"":""4"",""num_scrambled_schematic"":""4"",""participantId"":""C00B7F79D4C944AABF7219589DDAB05A"",""assignmentId"":""0198b996-a893-777c-ab74-6a26db41d1b0"",""projectId"":""0198b979-1f5e-7105-8b5f-48f920534529""}","https://test12345.live/?num_scrambled_semantic=8&num_scrambled_causal=4&num_scrambled_schematic=4&participantId=C00B7F79D4C944AABF7219589DDAB05A&assignmentId=0198b996-a893-777c-ab74-6a26db41d1b0&projectId=0198b979-1f5e-7105-8b5f-48f920534529","C00B7F79D4C944AABF7219589DDAB05A-2025-08-17-20-37-14","","null","","[]","null","",""
"","","","","","image-button-response","37","339723","0.0-10.0-1.0-0.4","C00B7F79D4C944AABF7219589DDAB05A","C00B7F79D4C944AABF7219589DDAB05A","0198b996-a893-777c-ab74-6a26db41d1b0","0198b979-1f5e-7105-8b5f-48f920534529","{""num_scrambled_semantic"":""8"",""num_scrambled_causal"":""4"",""num_scrambled_schematic"":""4"",""participantId"":""C00B7F79D4C944AABF7219589DDAB05A"",""assignmentId"":""0198b996-a893-777c-ab74-6a26db41d1b0"",""projectId"":""0198b979-1f5e-7105-8b5f-48f920534529""}","https://test12345.live/?num_scrambled_semantic=8&num_scrambled_causal=4&num_scrambled_schematic=4&participantId=C00B7F79D4C944AABF7219589DDAB05A&assignmentId=0198b996-a893-777c-ab74-6a26db41d1b0&projectId=0198b979-1f5e-7105-8b5f-48f920534529","C00B7F79D4C944AABF7219589DDAB05A-2025-08-17-20-37-14","","null","","images/causal_sequence/coin_causal/coin_causal_7.png","null","",""
"","","","","","image-button-response","38","343729","0.0-10.0-1.0-1.4","C00B7F79D4C944AABF7219589DDAB05A","C00B7F79D4C944AABF7219589DDAB05A","0198b996-a893-777c-ab74-6a26db41d1b0","0198b979-1f5e-7105-8b5f-48f920534529","{""num_scrambled_semantic"":""8"",""num_scrambled_causal"":""4"",""num_scrambled_schematic"":""4"",""participantId"":""C00B7F79D4C944AABF7219589DDAB05A"",""assignmentId"":""0198b996-a893-777c-ab74-6a26db41d1b0"",""projectId"":""0198b979-1f5e-7105-8b5f-48f920534529""}","https://test12345.live/?num_scrambled_semantic=8&num_scrambled_causal=4&num_scrambled_schematic=4&participantId=C00B7F79D4C944AABF7219589DDAB05A&assignmentId=0198b996-a893-777c-ab74-6a26db41d1b0&projectId=0198b979-1f5e-7105-8b5f-48f920534529","C00B7F79D4C944AABF7219589DDAB05A-2025-08-17-20-37-14","","null","","images/causal_sequence/coin_causal/coin_causal_7.png","null","",""
"","","","","","image-button-response","39","349135","0.0-10.0-1.0-2.4","C00B7F79D4C944AABF7219589DDAB05A","C00B7F79D4C944AABF7219589DDAB05A","0198b996-a893-777c-ab74-6a26db41d1b0","0198b979-1f5e-7105-8b5f-48f920534529","{""num_scrambled_semantic"":""8"",""num_scrambled_causal"":""4"",""num_scrambled_schematic"":""4"",""participantId"":""C00B7F79D4C944AABF7219589DDAB05A"",""assignmentId"":""0198b996-a893-777c-ab74-6a26db41d1b0"",""projectId"":""0198b979-1f5e-7105-8b5f-48f920534529""}","https://test12345.live/?num_scrambled_semantic=8&num_scrambled_causal=4&num_scrambled_schematic=4&participantId=C00B7F79D4C944AABF7219589DDAB05A&assignmentId=0198b996-a893-777c-ab74-6a26db41d1b0&projectId=0198b979-1f5e-7105-8b5f-48f920534529","C00B7F79D4C944AABF7219589DDAB05A-2025-08-17-20-37-14","","null","","[]","null","",""
"","","","","","image-button-response","40","353638","0.0-10.0-1.0-0.5","C00B7F79D4C944AABF7219589DDAB05A","C00B7F79D4C944AABF7219589DDAB05A","0198b996-a893-777c-ab74-6a26db41d1b0","0198b979-1f5e-7105-8b5f-48f920534529","{""num_scrambled_semantic"":""8"",""num_scrambled_causal"":""4"",""num_scrambled_schematic"":""4"",""participantId"":""C00B7F79D4C944AABF7219589DDAB05A"",""assignmentId"":""0198b996-a893-777c-ab74-6a26db41d1b0"",""projectId"":""0198b979-1f5e-7105-8b5f-48f920534529""}","https://test12345.live/?num_scrambled_semantic=8&num_scrambled_causal=4&num_scrambled_schematic=4&participantId=C00B7F79D4C944AABF7219589DDAB05A&assignmentId=0198b996-a893-777c-ab74-6a26db41d1b0&projectId=0198b979-1f5e-7105-8b5f-48f920534529","C00B7F79D4C944AABF7219589DDAB05A-2025-08-17-20-37-14","","null","","images/causal_sequence/coin_causal/coin_causal_1.png","null","",""
"","","","","","image-button-response","41","355060","0.0-10.0-1.0-1.5","C00B7F79D4C944AABF7219589DDAB05A","C00B7F79D4C944AABF7219589DDAB05A","0198b996-a893-777c-ab74-6a26db41d1b0","0198b979-1f5e-7105-8b5f-48f920534529","{""num_scrambled_semantic"":""8"",""num_scrambled_causal"":""4"",""num_scrambled_schematic"":""4"",""participantId"":""C00B7F79D4C944AABF7219589DDAB05A"",""assignmentId"":""0198b996-a893-777c-ab74-6a26db41d1b0"",""projectId"":""0198b979-1f5e-7105-8b5f-48f920534529""}","https://test12345.live/?num_scrambled_semantic=8&num_scrambled_causal=4&num_scrambled_schematic=4&participantId=C00B7F79D4C944AABF7219589DDAB05A&assignmentId=0198b996-a893-777c-ab74-6a26db41d1b0&projectId=0198b979-1f5e-7105-8b5f-48f920534529","C00B7F79D4C944AABF7219589DDAB05A-2025-08-17-20-37-14","","1421","","images/causal_sequence/coin_causal/coin_causal_1.png","0","",""
"","","","","","image-button-response","42","360465","0.0-10.0-1.0-2.5","C00B7F79D4C944AABF7219589DDAB05A","C00B7F79D4C944AABF7219589DDAB05A","0198b996-a893-777c-ab74-6a26db41d1b0","0198b979-1f5e-7105-8b5f-48f920534529","{""num_scrambled_semantic"":""8"",""num_scrambled_causal"":""4"",""num_scrambled_schematic"":""4"",""participantId"":""C00B7F79D4C944AABF7219589DDAB05A"",""assignmentId"":""0198b996-a893-777c-ab74-6a26db41d1b0"",""projectId"":""0198b979-1f5e-7105-8b5f-48f920534529""}","https://test12345.live/?num_scrambled_semantic=8&num_scrambled_causal=4&num_scrambled_schematic=4&participantId=C00B7F79D4C944AABF7219589DDAB05A&assignmentId=0198b996-a893-777c-ab74-6a26db41d1b0&projectId=0198b979-1f5e-7105-8b5f-48f920534529","C00B7F79D4C944AABF7219589DDAB05A-2025-08-17-20-37-14","","null","","[]","null","",""
"","","","","","image-button-response","43","364967","0.0-10.0-1.0-0.6","C00B7F79D4C944AABF7219589DDAB05A","C00B7F79D4C944AABF7219589DDAB05A","0198b996-a893-777c-ab74-6a26db41d1b0","0198b979-1f5e-7105-8b5f-48f920534529","{""num_scrambled_semantic"":""8"",""num_scrambled_causal"":""4"",""num_scrambled_schematic"":""4"",""participantId"":""C00B7F79D4C944AABF7219589DDAB05A"",""assignmentId"":""0198b996-a893-777c-ab74-6a26db41d1b0"",""projectId"":""0198b979-1f5e-7105-8b5f-48f920534529""}","https://test12345.live/?num_scrambled_semantic=8&num_scrambled_causal=4&num_scrambled_schematic=4&participantId=C00B7F79D4C944AABF7219589DDAB05A&assignmentId=0198b996-a893-777c-ab74-6a26db41d1b0&projectId=0198b979-1f5e-7105-8b5f-48f920534529","C00B7F79D4C944AABF7219589DDAB05A-2025-08-17-20-37-14","","null","","images/causal_sequence/coin_causal/coin_causal_9.png","null","",""
"","","","","","image-button-response","44","366596","0.0-10.0-1.0-1.6","C00B7F79D4C944AABF7219589DDAB05A","C00B7F79D4C944AABF7219589DDAB05A","0198b996-a893-777c-ab74-6a26db41d1b0","0198b979-1f5e-7105-8b5f-48f920534529","{""num_scrambled_semantic"":""8"",""num_scrambled_causal"":""4"",""num_scrambled_schematic"":""4"",""participantId"":""C00B7F79D4C944AABF7219589DDAB05A"",""assignmentId"":""0198b996-a893-777c-ab74-6a26db41d1b0"",""projectId"":""0198b979-1f5e-7105-8b5f-48f920534529""}","https://test12345.live/?num_scrambled_semantic=8&num_scrambled_causal=4&num_scrambled_schematic=4&participantId=C00B7F79D4C944AABF7219589DDAB05A&assignmentId=0198b996-a893-777c-ab74-6a26db41d1b0&projectId=0198b979-1f5e-7105-8b5f-48f920534529","C00B7F79D4C944AABF7219589DDAB05A-2025-08-17-20-37-14","","1629","","images/causal_sequence/coin_causal/coin_causal_9.png","0","",""
"","","","","","image-button-response","45","372012","0.0-10.0-1.0-2.6","C00B7F79D4C944AABF7219589DDAB05A","C00B7F79D4C944AABF7219589DDAB05A","0198b996-a893-777c-ab74-6a26db41d1b0","0198b979-1f5e-7105-8b5f-48f920534529","{""num_scrambled_semantic"":""8"",""num_scrambled_causal"":""4"",""num_scrambled_schematic"":""4"",""participantId"":""C00B7F79D4C944AABF7219589DDAB05A"",""assignmentId"":""0198b996-a893-777c-ab74-6a26db41d1b0"",""projectId"":""0198b979-1f5e-7105-8b5f-48f920534529""}","https://test12345.live/?num_scrambled_semantic=8&num_scrambled_causal=4&num_scrambled_schematic=4&participantId=C00B7F79D4C944AABF7219589DDAB05A&assignmentId=0198b996-a893-777c-ab74-6a26db41d1b0&projectId=0198b979-1f5e-7105-8b5f-48f920534529","C00B7F79D4C944AABF7219589DDAB05A-2025-08-17-20-37-14","","null","","[]","null","",""
"","","","","","image-button-response","46","376522","0.0-10.0-1.0-0.7","C00B7F79D4C944AABF7219589DDAB05A","C00B7F79D4C944AABF7219589DDAB05A","0198b996-a893-777c-ab74-6a26db41d1b0","0198b979-1f5e-7105-8b5f-48f920534529","{""num_scrambled_semantic"":""8"",""num_scrambled_causal"":""4"",""num_scrambled_schematic"":""4"",""participantId"":""C00B7F79D4C944AABF7219589DDAB05A"",""assignmentId"":""0198b996-a893-777c-ab74-6a26db41d1b0"",""projectId"":""0198b979-1f5e-7105-8b5f-48f920534529""}","https://test12345.live/?num_scrambled_semantic=8&num_scrambled_causal=4&num_scrambled_schematic=4&participantId=C00B7F79D4C944AABF7219589DDAB05A&assignmentId=0198b996-a893-777c-ab74-6a26db41d1b0&projectId=0198b979-1f5e-7105-8b5f-48f920534529","C00B7F79D4C944AABF7219589DDAB05A-2025-08-17-20-37-14","","null","","images/causal_sequence/coin_causal/coin_causal_8.png","null","",""
"","","","","","image-button-response","47","378020","0.0-10.0-1.0-1.7","C00B7F79D4C944AABF7219589DDAB05A","C00B7F79D4C944AABF7219589DDAB05A","0198b996-a893-777c-ab74-6a26db41d1b0","0198b979-1f5e-7105-8b5f-48f920534529","{""num_scrambled_semantic"":""8"",""num_scrambled_causal"":""4"",""num_scrambled_schematic"":""4"",""participantId"":""C00B7F79D4C944AABF7219589DDAB05A"",""assignmentId"":""0198b996-a893-777c-ab74-6a26db41d1b0"",""projectId"":""0198b979-1f5e-7105-8b5f-48f920534529""}","https://test12345.live/?num_scrambled_semantic=8&num_scrambled_causal=4&num_scrambled_schematic=4&participantId=C00B7F79D4C944AABF7219589DDAB05A&assignmentId=0198b996-a893-777c-ab74-6a26db41d1b0&projectId=0198b979-1f5e-7105-8b5f-48f920534529","C00B7F79D4C944AABF7219589DDAB05A-2025-08-17-20-37-14","","1497","","images/causal_sequence/coin_causal/coin_causal_8.png","0","",""
"","","","","","image-button-response","48","383423","0.0-10.0-1.0-2.7","C00B7F79D4C944AABF7219589DDAB05A","C00B7F79D4C944AABF7219589DDAB05A","0198b996-a893-777c-ab74-6a26db41d1b0","0198b979-1f5e-7105-8b5f-48f920534529","{""num_scrambled_semantic"":""8"",""num_scrambled_causal"":""4"",""num_scrambled_schematic"":""4"",""participantId"":""C00B7F79D4C944AABF7219589DDAB05A"",""assignmentId"":""0198b996-a893-777c-ab74-6a26db41d1b0"",""projectId"":""0198b979-1f5e-7105-8b5f-48f920534529""}","https://test12345.live/?num_scrambled_semantic=8&num_scrambled_causal=4&num_scrambled_schematic=4&participantId=C00B7F79D4C944AABF7219589DDAB05A&assignmentId=0198b996-a893-777c-ab74-6a26db41d1b0&projectId=0198b979-1f5e-7105-8b5f-48f920534529","C00B7F79D4C944AABF7219589DDAB05A-2025-08-17-20-37-14","","null","","[]","null","",""
"","","","","","image-button-response","49","387935","0.0-10.0-1.0-0.8","C00B7F79D4C944AABF7219589DDAB05A","C00B7F79D4C944AABF7219589DDAB05A","0198b996-a893-777c-ab74-6a26db41d1b0","0198b979-1f5e-7105-8b5f-48f920534529","{""num_scrambled_semantic"":""8"",""num_scrambled_causal"":""4"",""num_scrambled_schematic"":""4"",""participantId"":""C00B7F79D4C944AABF7219589DDAB05A"",""assignmentId"":""0198b996-a893-777c-ab74-6a26db41d1b0"",""projectId"":""0198b979-1f5e-7105-8b5f-48f920534529""}","https://test12345.live/?num_scrambled_semantic=8&num_scrambled_causal=4&num_scrambled_schematic=4&participantId=C00B7F79D4C944AABF7219589DDAB05A&assignmentId=0198b996-a893-777c-ab74-6a26db41d1b0&projectId=0198b979-1f5e-7105-8b5f-48f920534529","C00B7F79D4C944AABF7219589DDAB05A-2025-08-17-20-37-14","","null","","images/causal_sequence/coin_causal/coin_causal_2.png","null","",""
"","","","","","image-button-response","50","389140","0.0-10.0-1.0-1.8","C00B7F79D4C944AABF7219589DDAB05A","C00B7F79D4C944AABF7219589DDAB05A","0198b996-a893-777c-ab74-6a26db41d1b0","0198b979-1f5e-7105-8b5f-48f920534529","{""num_scrambled_semantic"":""8"",""num_scrambled_causal"":""4"",""num_scrambled_schematic"":""4"",""participantId"":""C00B7F79D4C944AABF7219589DDAB05A"",""assignmentId"":""0198b996-a893-777c-ab74-6a26db41d1b0"",""projectId"":""0198b979-1f5e-7105-8b5f-48f920534529""}","https://test12345.live/?num_scrambled_semantic=8&num_scrambled_causal=4&num_scrambled_schematic=4&participantId=C00B7F79D4C944AABF7219589DDAB05A&assignmentId=0198b996-a893-777c-ab74-6a26db41d1b0&projectId=0198b979-1f5e-7105-8b5f-48f920534529","C00B7F79D4C944AABF7219589DDAB05A-2025-08-17-20-37-14","","1204","","images/causal_sequence/coin_causal/coin_causal_2.png","0","",""
"","","","","","image-button-response","51","394550","0.0-10.0-1.0-2.8","C00B7F79D4C944AABF7219589DDAB05A","C00B7F79D4C944AABF7219589DDAB05A","0198b996-a893-777c-ab74-6a26db41d1b0","0198b979-1f5e-7105-8b5f-48f920534529","{""num_scrambled_semantic"":""8"",""num_scrambled_causal"":""4"",""num_scrambled_schematic"":""4"",""participantId"":""C00B7F79D4C944AABF7219589DDAB05A"",""assignmentId"":""0198b996-a893-777c-ab74-6a26db41d1b0"",""projectId"":""0198b979-1f5e-7105-8b5f-48f920534529""}","https://test12345.live/?num_scrambled_semantic=8&num_scrambled_causal=4&num_scrambled_schematic=4&participantId=C00B7F79D4C944AABF7219589DDAB05A&assignmentId=0198b996-a893-777c-ab74-6a26db41d1b0&projectId=0198b979-1f5e-7105-8b5f-48f920534529","C00B7F79D4C944AABF7219589DDAB05A-2025-08-17-20-37-14","","null","","[]","null","",""
"","","","","","image-button-response","52","399067","0.0-10.0-1.0-0.9","C00B7F79D4C944AABF7219589DDAB05A","C00B7F79D4C944AABF7219589DDAB05A","0198b996-a893-777c-ab74-6a26db41d1b0","0198b979-1f5e-7105-8b5f-48f920534529","{""num_scrambled_semantic"":""8"",""num_scrambled_causal"":""4"",""num_scrambled_schematic"":""4"",""participantId"":""C00B7F79D4C944AABF7219589DDAB05A"",""assignmentId"":""0198b996-a893-777c-ab74-6a26db41d1b0"",""projectId"":""0198b979-1f5e-7105-8b5f-48f920534529""}","https://test12345.live/?num_scrambled_semantic=8&num_scrambled_causal=4&num_scrambled_schematic=4&participantId=C00B7F79D4C944AABF7219589DDAB05A&assignmentId=0198b996-a893-777c-ab74-6a26db41d1b0&projectId=0198b979-1f5e-7105-8b5f-48f920534529","C00B7F79D4C944AABF7219589DDAB05A-2025-08-17-20-37-14","","null","","images/causal_sequence/coin_causal/coin_causal_ten.png","null","",""
"","","","","","image-button-response","53","400236","0.0-10.0-1.0-1.9","C00B7F79D4C944AABF7219589DDAB05A","C00B7F79D4C944AABF7219589DDAB05A","0198b996-a893-777c-ab74-6a26db41d1b0","0198b979-1f5e-7105-8b5f-48f920534529","{""num_scrambled_semantic"":""8"",""num_scrambled_causal"":""4"",""num_scrambled_schematic"":""4"",""participantId"":""C00B7F79D4C944AABF7219589DDAB05A"",""assignmentId"":""0198b996-a893-777c-ab74-6a26db41d1b0"",""projectId"":""0198b979-1f5e-7105-8b5f-48f920534529""}","https://test12345.live/?num_scrambled_semantic=8&num_scrambled_causal=4&num_scrambled_schematic=4&participantId=C00B7F79D4C944AABF7219589DDAB05A&assignmentId=0198b996-a893-777c-ab74-6a26db41d1b0&projectId=0198b979-1f5e-7105-8b5f-48f920534529","C00B7F79D4C944AABF7219589DDAB05A-2025-08-17-20-37-14","","1168","","images/causal_sequence/coin_causal/coin_causal_ten.png","0","",""
"","","","","","image-button-response","54","405646","0.0-10.0-1.0-2.9","C00B7F79D4C944AABF7219589DDAB05A","C00B7F79D4C944AABF7219589DDAB05A","0198b996-a893-777c-ab74-6a26db41d1b0","0198b979-1f5e-7105-8b5f-48f920534529","{""num_scrambled_semantic"":""8"",""num_scrambled_causal"":""4"",""num_scrambled_schematic"":""4"",""participantId"":""C00B7F79D4C944AABF7219589DDAB05A"",""assignmentId"":""0198b996-a893-777c-ab74-6a26db41d1b0"",""projectId"":""0198b979-1f5e-7105-8b5f-48f920534529""}","https://test12345.live/?num_scrambled_semantic=8&num_scrambled_causal=4&num_scrambled_schematic=4&participantId=C00B7F79D4C944AABF7219589DDAB05A&assignmentId=0198b996-a893-777c-ab74-6a26db41d1b0&projectId=0198b979-1f5e-7105-8b5f-48f920534529","C00B7F79D4C944AABF7219589DDAB05A-2025-08-17-20-37-14","","null","","[]","null","",""
"","","","","","html-audio-response","55","465148","0.0-11.0","C00B7F79D4C944AABF7219589DDAB05A","C00B7F79D4C944AABF7219589DDAB05A","0198b996-a893-777c-ab74-6a26db41d1b0","0198b979-1f5e-7105-8b5f-48f920534529","{""num_scrambled_semantic"":""8"",""num_scrambled_causal"":""4"",""num_scrambled_schematic"":""4"",""participantId"":""C00B7F79D4C944AABF7219589DDAB05A"",""assignmentId"":""0198b996-a893-777c-ab74-6a26db41d1b0"",""projectId"":""0198b979-1f5e-7105-8b5f-48f920534529""}","https://test12345.live/?num_scrambled_semantic=8&num_scrambled_causal=4&num_scrambled_schematic=4&participantId=C00B7F79D4C944AABF7219589DDAB05A&assignmentId=0198b996-a893-777c-ab74-6a26db41d1b0&projectId=0198b979-1f5e-7105-8b5f-48f920534529","C00B7F79D4C944AABF7219589DDAB05A-2025-08-17-20-37-14","","4809","","[""<span style=\""color: red; font-size: 24px\""> NOW RECORDING</span><p>Please say out loud all the images you saw, as many as you can remember. The images can be said in any order.</p>""]","","1","coin_causal"
"","","","","","image-button-response","56","471162","0.0-12.0-0.0","C00B7F79D4C944AABF7219589DDAB05A","C00B7F79D4C944AABF7219589DDAB05A","0198b996-a893-777c-ab74-6a26db41d1b0","0198b979-1f5e-7105-8b5f-48f920534529","{""num_scrambled_semantic"":""8"",""num_scrambled_causal"":""4"",""num_scrambled_schematic"":""4"",""participantId"":""C00B7F79D4C944AABF7219589DDAB05A"",""assignmentId"":""0198b996-a893-777c-ab74-6a26db41d1b0"",""projectId"":""0198b979-1f5e-7105-8b5f-48f920534529""}","https://test12345.live/?num_scrambled_semantic=8&num_scrambled_causal=4&num_scrambled_schematic=4&participantId=C00B7F79D4C944AABF7219589DDAB05A&assignmentId=0198b996-a893-777c-ab74-6a26db41d1b0&projectId=0198b979-1f5e-7105-8b5f-48f920534529","C00B7F79D4C944AABF7219589DDAB05A-2025-08-17-20-37-14","","null","","images/causal_sequence/dog_causal/dog_causal_0.png","null","",""
"","","","","","image-button-response","57","475667","0.0-12.0-1.0-0.0","C00B7F79D4C944AABF7219589DDAB05A","C00B7F79D4C944AABF7219589DDAB05A","0198b996-a893-777c-ab74-6a26db41d1b0","0198b979-1f5e-7105-8b5f-48f920534529","{""num_scrambled_semantic"":""8"",""num_scrambled_causal"":""4"",""num_scrambled_schematic"":""4"",""participantId"":""C00B7F79D4C944AABF7219589DDAB05A"",""assignmentId"":""0198b996-a893-777c-ab74-6a26db41d1b0"",""projectId"":""0198b979-1f5e-7105-8b5f-48f920534529""}","https://test12345.live/?num_scrambled_semantic=8&num_scrambled_causal=4&num_scrambled_schematic=4&participantId=C00B7F79D4C944AABF7219589DDAB05A&assignmentId=0198b996-a893-777c-ab74-6a26db41d1b0&projectId=0198b979-1f5e-7105-8b5f-48f920534529","C00B7F79D4C944AABF7219589DDAB05A-2025-08-17-20-37-14","","null","","images/causal_sequence/dog_causal/dog_causal_3.png","null","",""
"","","","","","image-button-response","58","477235","0.0-12.0-1.0-1.0","C00B7F79D4C944AABF7219589DDAB05A","C00B7F79D4C944AABF7219589DDAB05A","0198b996-a893-777c-ab74-6a26db41d1b0","0198b979-1f5e-7105-8b5f-48f920534529","{""num_scrambled_semantic"":""8"",""num_scrambled_causal"":""4"",""num_scrambled_schematic"":""4"",""participantId"":""C00B7F79D4C944AABF7219589DDAB05A"",""assignmentId"":""0198b996-a893-777c-ab74-6a26db41d1b0"",""projectId"":""0198b979-1f5e-7105-8b5f-48f920534529""}","https://test12345.live/?num_scrambled_semantic=8&num_scrambled_causal=4&num_scrambled_schematic=4&participantId=C00B7F79D4C944AABF7219589DDAB05A&assignmentId=0198b996-a893-777c-ab74-6a26db41d1b0&projectId=0198b979-1f5e-7105-8b5f-48f920534529","C00B7F79D4C944AABF7219589DDAB05A-2025-08-17-20-37-14","","1566","","images/causal_sequence/dog_causal/dog_causal_3.png","0","",""
"","","","","","image-button-response","59","482643","0.0-12.0-1.0-2.0","C00B7F79D4C944AABF7219589DDAB05A","C00B7F79D4C944AABF7219589DDAB05A","0198b996-a893-777c-ab74-6a26db41d1b0","0198b979-1f5e-7105-8b5f-48f920534529","{""num_scrambled_semantic"":""8"",""num_scrambled_causal"":""4"",""num_scrambled_schematic"":""4"",""participantId"":""C00B7F79D4C944AABF7219589DDAB05A"",""assignmentId"":""0198b996-a893-777c-ab74-6a26db41d1b0"",""projectId"":""0198b979-1f5e-7105-8b5f-48f920534529""}","https://test12345.live/?num_scrambled_semantic=8&num_scrambled_causal=4&num_scrambled_schematic=4&participantId=C00B7F79D4C944AABF7219589DDAB05A&assignmentId=0198b996-a893-777c-ab74-6a26db41d1b0&projectId=0198b979-1f5e-7105-8b5f-48f920534529","C00B7F79D4C944AABF7219589DDAB05A-2025-08-17-20-37-14","","null","","[]","null","",""
"","","","","","image-button-response","60","487148","0.0-12.0-1.0-0.1","C00B7F79D4C944AABF7219589DDAB05A","C00B7F79D4C944AABF7219589DDAB05A","0198b996-a893-777c-ab74-6a26db41d1b0","0198b979-1f5e-7105-8b5f-48f920534529","{""num_scrambled_semantic"":""8"",""num_scrambled_causal"":""4"",""num_scrambled_schematic"":""4"",""participantId"":""C00B7F79D4C944AABF7219589DDAB05A"",""assignmentId"":""0198b996-a893-777c-ab74-6a26db41d1b0"",""projectId"":""0198b979-1f5e-7105-8b5f-48f920534529""}","https://test12345.live/?num_scrambled_semantic=8&num_scrambled_causal=4&num_scrambled_schematic=4&participantId=C00B7F79D4C944AABF7219589DDAB05A&assignmentId=0198b996-a893-777c-ab74-6a26db41d1b0&projectId=0198b979-1f5e-7105-8b5f-48f920534529","C00B7F79D4C944AABF7219589DDAB05A-2025-08-17-20-37-14","","null","","images/causal_sequence/dog_causal/dog_causal_2.png","null","",""
"","","","","","image-button-response","61","488948","0.0-12.0-1.0-1.1","C00B7F79D4C944AABF7219589DDAB05A","C00B7F79D4C944AABF7219589DDAB05A","0198b996-a893-777c-ab74-6a26db41d1b0","0198b979-1f5e-7105-8b5f-48f920534529","{""num_scrambled_semantic"":""8"",""num_scrambled_causal"":""4"",""num_scrambled_schematic"":""4"",""participantId"":""C00B7F79D4C944AABF7219589DDAB05A"",""assignmentId"":""0198b996-a893-777c-ab74-6a26db41d1b0"",""projectId"":""0198b979-1f5e-7105-8b5f-48f920534529""}","https://test12345.live/?num_scrambled_semantic=8&num_scrambled_causal=4&num_scrambled_schematic=4&participantId=C00B7F79D4C944AABF7219589DDAB05A&assignmentId=0198b996-a893-777c-ab74-6a26db41d1b0&projectId=0198b979-1f5e-7105-8b5f-48f920534529","C00B7F79D4C944AABF7219589DDAB05A-2025-08-17-20-37-14","","1798","","images/causal_sequence/dog_causal/dog_causal_2.png","0","",""
"","","","","","image-button-response","62","494358","0.0-12.0-1.0-2.1","C00B7F79D4C944AABF7219589DDAB05A","C00B7F79D4C944AABF7219589DDAB05A","0198b996-a893-777c-ab74-6a26db41d1b0","0198b979-1f5e-7105-8b5f-48f920534529","{""num_scrambled_semantic"":""8"",""num_scrambled_causal"":""4"",""num_scrambled_schematic"":""4"",""participantId"":""C00B7F79D4C944AABF7219589DDAB05A"",""assignmentId"":""0198b996-a893-777c-ab74-6a26db41d1b0"",""projectId"":""0198b979-1f5e-7105-8b5f-48f920534529""}","https://test12345.live/?num_scrambled_semantic=8&num_scrambled_causal=4&num_scrambled_schematic=4&participantId=C00B7F79D4C944AABF7219589DDAB05A&assignmentId=0198b996-a893-777c-ab74-6a26db41d1b0&projectId=0198b979-1f5e-7105-8b5f-48f920534529","C00B7F79D4C944AABF7219589DDAB05A-2025-08-17-20-37-14","","null","","[]","null","",""
"","","","","","image-button-response","63","498868","0.0-12.0-1.0-0.2","C00B7F79D4C944AABF7219589DDAB05A","C00B7F79D4C944AABF7219589DDAB05A","0198b996-a893-777c-ab74-6a26db41d1b0","0198b979-1f5e-7105-8b5f-48f920534529","{""num_scrambled_semantic"":""8"",""num_scrambled_causal"":""4"",""num_scrambled_schematic"":""4"",""participantId"":""C00B7F79D4C944AABF7219589DDAB05A"",""assignmentId"":""0198b996-a893-777c-ab74-6a26db41d1b0"",""projectId"":""0198b979-1f5e-7105-8b5f-48f920534529""}","https://test12345.live/?num_scrambled_semantic=8&num_scrambled_causal=4&num_scrambled_schematic=4&participantId=C00B7F79D4C944AABF7219589DDAB05A&assignmentId=0198b996-a893-777c-ab74-6a26db41d1b0&projectId=0198b979-1f5e-7105-8b5f-48f920534529","C00B7F79D4C944AABF7219589DDAB05A-2025-08-17-20-37-14","","null","","images/causal_sequence/dog_causal/dog_causal_5.png","null","",""
"","","","","","image-button-response","64","500107","0.0-12.0-1.0-1.2","C00B7F79D4C944AABF7219589DDAB05A","C00B7F79D4C944AABF7219589DDAB05A","0198b996-a893-777c-ab74-6a26db41d1b0","0198b979-1f5e-7105-8b5f-48f920534529","{""num_scrambled_semantic"":""8"",""num_scrambled_causal"":""4"",""num_scrambled_schematic"":""4"",""participantId"":""C00B7F79D4C944AABF7219589DDAB05A"",""assignmentId"":""0198b996-a893-777c-ab74-6a26db41d1b0"",""projectId"":""0198b979-1f5e-7105-8b5f-48f920534529""}","https://test12345.live/?num_scrambled_semantic=8&num_scrambled_causal=4&num_scrambled_schematic=4&participantId=C00B7F79D4C944AABF7219589DDAB05A&assignmentId=0198b996-a893-777c-ab74-6a26db41d1b0&projectId=0198b979-1f5e-7105-8b5f-48f920534529","C00B7F79D4C944AABF7219589DDAB05A-2025-08-17-20-37-14","","1239","","images/causal_sequence/dog_causal/dog_causal_5.png","0","",""
"","","","","","image-button-response","65","505518","0.0-12.0-1.0-2.2","C00B7F79D4C944AABF7219589DDAB05A","C00B7F79D4C944AABF7219589DDAB05A","0198b996-a893-777c-ab74-6a26db41d1b0","0198b979-1f5e-7105-8b5f-48f920534529","{""num_scrambled_semantic"":""8"",""num_scrambled_causal"":""4"",""num_scrambled_schematic"":""4"",""participantId"":""C00B7F79D4C944AABF7219589DDAB05A"",""assignmentId"":""0198b996-a893-777c-ab74-6a26db41d1b0"",""projectId"":""0198b979-1f5e-7105-8b5f-48f920534529""}","https://test12345.live/?num_scrambled_semantic=8&num_scrambled_causal=4&num_scrambled_schematic=4&participantId=C00B7F79D4C944AABF7219589DDAB05A&assignmentId=0198b996-a893-777c-ab74-6a26db41d1b0&projectId=0198b979-1f5e-7105-8b5f-48f920534529","C00B7F79D4C944AABF7219589DDAB05A-2025-08-17-20-37-14","","null","","[]","null","",""
"","","","","","image-button-response","66","510026","0.0-12.0-1.0-0.3","C00B7F79D4C944AABF7219589DDAB05A","C00B7F79D4C944AABF7219589DDAB05A","0198b996-a893-777c-ab74-6a26db41d1b0","0198b979-1f5e-7105-8b5f-48f920534529","{""num_scrambled_semantic"":""8"",""num_scrambled_causal"":""4"",""num_scrambled_schematic"":""4"",""participantId"":""C00B7F79D4C944AABF7219589DDAB05A"",""assignmentId"":""0198b996-a893-777c-ab74-6a26db41d1b0"",""projectId"":""0198b979-1f5e-7105-8b5f-48f920534529""}","https://test12345.live/?num_scrambled_semantic=8&num_scrambled_causal=4&num_scrambled_schematic=4&participantId=C00B7F79D4C944AABF7219589DDAB05A&assignmentId=0198b996-a893-777c-ab74-6a26db41d1b0&projectId=0198b979-1f5e-7105-8b5f-48f920534529","C00B7F79D4C944AABF7219589DDAB05A-2025-08-17-20-37-14","","null","","images/causal_sequence/dog_causal/dog_causal_6.png","null","",""
"","","","","","image-button-response","67","510956","0.0-12.0-1.0-1.3","C00B7F79D4C944AABF7219589DDAB05A","C00B7F79D4C944AABF7219589DDAB05A","0198b996-a893-777c-ab74-6a26db41d1b0","0198b979-1f5e-7105-8b5f-48f920534529","{""num_scrambled_semantic"":""8"",""num_scrambled_causal"":""4"",""num_scrambled_schematic"":""4"",""participantId"":""C00B7F79D4C944AABF7219589DDAB05A"",""assignmentId"":""0198b996-a893-777c-ab74-6a26db41d1b0"",""projectId"":""0198b979-1f5e-7105-8b5f-48f920534529""}","https://test12345.live/?num_scrambled_semantic=8&num_scrambled_causal=4&num_scrambled_schematic=4&participantId=C00B7F79D4C944AABF7219589DDAB05A&assignmentId=0198b996-a893-777c-ab74-6a26db41d1b0&projectId=0198b979-1f5e-7105-8b5f-48f920534529","C00B7F79D4C944AABF7219589DDAB05A-2025-08-17-20-37-14","","929","","images/causal_sequence/dog_causal/dog_causal_6.png","0","",""
"","","","","","image-button-response","68","516362","0.0-12.0-1.0-2.3","C00B7F79D4C944AABF7219589DDAB05A","C00B7F79D4C944AABF7219589DDAB05A","0198b996-a893-777c-ab74-6a26db41d1b0","0198b979-1f5e-7105-8b5f-48f920534529","{""num_scrambled_semantic"":""8"",""num_scrambled_causal"":""4"",""num_scrambled_schematic"":""4"",""participantId"":""C00B7F79D4C944AABF7219589DDAB05A"",""assignmentId"":""0198b996-a893-777c-ab74-6a26db41d1b0"",""projectId"":""0198b979-1f5e-7105-8b5f-48f920534529""}","https://test12345.live/?num_scrambled_semantic=8&num_scrambled_causal=4&num_scrambled_schematic=4&participantId=C00B7F79D4C944AABF7219589DDAB05A&assignmentId=0198b996-a893-777c-ab74-6a26db41d1b0&projectId=0198b979-1f5e-7105-8b5f-48f920534529","C00B7F79D4C944AABF7219589DDAB05A-2025-08-17-20-37-14","","null","","[]","null","",""
"","","","","","image-button-response","69","520877","0.0-12.0-1.0-0.4","C00B7F79D4C944AABF7219589DDAB05A","C00B7F79D4C944AABF7219589DDAB05A","0198b996-a893-777c-ab74-6a26db41d1b0","0198b979-1f5e-7105-8b5f-48f920534529","{""num_scrambled_semantic"":""8"",""num_scrambled_causal"":""4"",""num_scrambled_schematic"":""4"",""participantId"":""C00B7F79D4C944AABF7219589DDAB05A"",""assignmentId"":""0198b996-a893-777c-ab74-6a26db41d1b0"",""projectId"":""0198b979-1f5e-7105-8b5f-48f920534529""}","https://test12345.live/?num_scrambled_semantic=8&num_scrambled_causal=4&num_scrambled_schematic=4&participantId=C00B7F79D4C944AABF7219589DDAB05A&assignmentId=0198b996-a893-777c-ab74-6a26db41d1b0&projectId=0198b979-1f5e-7105-8b5f-48f920534529","C00B7F79D4C944AABF7219589DDAB05A-2025-08-17-20-37-14","","null","","images/causal_sequence/dog_causal/dog_causal_9.png","null","",""
"","","","","","image-button-response","70","522483","0.0-12.0-1.0-1.4","C00B7F79D4C944AABF7219589DDAB05A","C00B7F79D4C944AABF7219589DDAB05A","0198b996-a893-777c-ab74-6a26db41d1b0","0198b979-1f5e-7105-8b5f-48f920534529","{""num_scrambled_semantic"":""8"",""num_scrambled_causal"":""4"",""num_scrambled_schematic"":""4"",""participantId"":""C00B7F79D4C944AABF7219589DDAB05A"",""assignmentId"":""0198b996-a893-777c-ab74-6a26db41d1b0"",""projectId"":""0198b979-1f5e-7105-8b5f-48f920534529""}","https://test12345.live/?num_scrambled_semantic=8&num_scrambled_causal=4&num_scrambled_schematic=4&participantId=C00B7F79D4C944AABF7219589DDAB05A&assignmentId=0198b996-a893-777c-ab74-6a26db41d1b0&projectId=0198b979-1f5e-7105-8b5f-48f920534529","C00B7F79D4C944AABF7219589DDAB05A-2025-08-17-20-37-14","","1605","","images/causal_sequence/dog_causal/dog_causal_9.png","0","",""
"","","","","","image-button-response","71","527887","0.0-12.0-1.0-2.4","C00B7F79D4C944AABF7219589DDAB05A","C00B7F79D4C944AABF7219589DDAB05A","0198b996-a893-777c-ab74-6a26db41d1b0","0198b979-1f5e-7105-8b5f-48f920534529","{""num_scrambled_semantic"":""8"",""num_scrambled_causal"":""4"",""num_scrambled_schematic"":""4"",""participantId"":""C00B7F79D4C944AABF7219589DDAB05A"",""assignmentId"":""0198b996-a893-777c-ab74-6a26db41d1b0"",""projectId"":""0198b979-1f5e-7105-8b5f-48f920534529""}","https://test12345.live/?num_scrambled_semantic=8&num_scrambled_causal=4&num_scrambled_schematic=4&participantId=C00B7F79D4C944AABF7219589DDAB05A&assignmentId=0198b996-a893-777c-ab74-6a26db41d1b0&projectId=0198b979-1f5e-7105-8b5f-48f920534529","C00B7F79D4C944AABF7219589DDAB05A-2025-08-17-20-37-14","","null","","[]","null","",""
"","","","","","image-button-response","72","532397","0.0-12.0-1.0-0.5","C00B7F79D4C944AABF7219589DDAB05A","C00B7F79D4C944AABF7219589DDAB05A","0198b996-a893-777c-ab74-6a26db41d1b0","0198b979-1f5e-7105-8b5f-48f920534529","{""num_scrambled_semantic"":""8"",""num_scrambled_causal"":""4"",""num_scrambled_schematic"":""4"",""participantId"":""C00B7F79D4C944AABF7219589DDAB05A"",""assignmentId"":""0198b996-a893-777c-ab74-6a26db41d1b0"",""projectId"":""0198b979-1f5e-7105-8b5f-48f920534529""}","https://test12345.live/?num_scrambled_semantic=8&num_scrambled_causal=4&num_scrambled_schematic=4&participantId=C00B7F79D4C944AABF7219589DDAB05A&assignmentId=0198b996-a893-777c-ab74-6a26db41d1b0&projectId=0198b979-1f5e-7105-8b5f-48f920534529","C00B7F79D4C944AABF7219589DDAB05A-2025-08-17-20-37-14","","null","","images/causal_sequence/dog_causal/dog_causal_ten.png","null","",""
"","","","","","image-button-response","73","533467","0.0-12.0-1.0-1.5","C00B7F79D4C944AABF7219589DDAB05A","C00B7F79D4C944AABF7219589DDAB05A","0198b996-a893-777c-ab74-6a26db41d1b0","0198b979-1f5e-7105-8b5f-48f920534529","{""num_scrambled_semantic"":""8"",""num_scrambled_causal"":""4"",""num_scrambled_schematic"":""4"",""participantId"":""C00B7F79D4C944AABF7219589DDAB05A"",""assignmentId"":""0198b996-a893-777c-ab74-6a26db41d1b0"",""projectId"":""0198b979-1f5e-7105-8b5f-48f920534529""}","https://test12345.live/?num_scrambled_semantic=8&num_scrambled_causal=4&num_scrambled_schematic=4&participantId=C00B7F79D4C944AABF7219589DDAB05A&assignmentId=0198b996-a893-777c-ab74-6a26db41d1b0&projectId=0198b979-1f5e-7105-8b5f-48f920534529","C00B7F79D4C944AABF7219589DDAB05A-2025-08-17-20-37-14","","1069","","images/causal_sequence/dog_causal/dog_causal_ten.png","0","",""
"","","","","","image-button-response","74","538884","0.0-12.0-1.0-2.5","C00B7F79D4C944AABF7219589DDAB05A","C00B7F79D4C944AABF7219589DDAB05A","0198b996-a893-777c-ab74-6a26db41d1b0","0198b979-1f5e-7105-8b5f-48f920534529","{""num_scrambled_semantic"":""8"",""num_scrambled_causal"":""4"",""num_scrambled_schematic"":""4"",""participantId"":""C00B7F79D4C944AABF7219589DDAB05A"",""assignmentId"":""0198b996-a893-777c-ab74-6a26db41d1b0"",""projectId"":""0198b979-1f5e-7105-8b5f-48f920534529""}","https://test12345.live/?num_scrambled_semantic=8&num_scrambled_causal=4&num_scrambled_schematic=4&participantId=C00B7F79D4C944AABF7219589DDAB05A&assignmentId=0198b996-a893-777c-ab74-6a26db41d1b0&projectId=0198b979-1f5e-7105-8b5f-48f920534529","C00B7F79D4C944AABF7219589DDAB05A-2025-08-17-20-37-14","","null","","[]","null","",""
"","","","","","image-button-response","75","543395","0.0-12.0-1.0-0.6","C00B7F79D4C944AABF7219589DDAB05A","C00B7F79D4C944AABF7219589DDAB05A","0198b996-a893-777c-ab74-6a26db41d1b0","0198b979-1f5e-7105-8b5f-48f920534529","{""num_scrambled_semantic"":""8"",""num_scrambled_causal"":""4"",""num_scrambled_schematic"":""4"",""participantId"":""C00B7F79D4C944AABF7219589DDAB05A"",""assignmentId"":""0198b996-a893-777c-ab74-6a26db41d1b0"",""projectId"":""0198b979-1f5e-7105-8b5f-48f920534529""}","https://test12345.live/?num_scrambled_semantic=8&num_scrambled_causal=4&num_scrambled_schematic=4&participantId=C00B7F79D4C944AABF7219589DDAB05A&assignmentId=0198b996-a893-777c-ab74-6a26db41d1b0&projectId=0198b979-1f5e-7105-8b5f-48f920534529","C00B7F79D4C944AABF7219589DDAB05A-2025-08-17-20-37-14","","null","","images/causal_sequence/dog_causal/dog_causal_1.png","null","",""
"","","","","","image-button-response","76","545315","0.0-12.0-1.0-1.6","C00B7F79D4C944AABF7219589DDAB05A","C00B7F79D4C944AABF7219589DDAB05A","0198b996-a893-777c-ab74-6a26db41d1b0","0198b979-1f5e-7105-8b5f-48f920534529","{""num_scrambled_semantic"":""8"",""num_scrambled_causal"":""4"",""num_scrambled_schematic"":""4"",""participantId"":""C00B7F79D4C944AABF7219589DDAB05A"",""assignmentId"":""0198b996-a893-777c-ab74-6a26db41d1b0"",""projectId"":""0198b979-1f5e-7105-8b5f-48f920534529""}","https://test12345.live/?num_scrambled_semantic=8&num_scrambled_causal=4&num_scrambled_schematic=4&participantId=C00B7F79D4C944AABF7219589DDAB05A&assignmentId=0198b996-a893-777c-ab74-6a26db41d1b0&projectId=0198b979-1f5e-7105-8b5f-48f920534529","C00B7F79D4C944AABF7219589DDAB05A-2025-08-17-20-37-14","","1919","","images/causal_sequence/dog_causal/dog_causal_1.png","0","",""
"","","","","","image-button-response","77","550724","0.0-12.0-1.0-2.6","C00B7F79D4C944AABF7219589DDAB05A","C00B7F79D4C944AABF7219589DDAB05A","0198b996-a893-777c-ab74-6a26db41d1b0","0198b979-1f5e-7105-8b5f-48f920534529","{""num_scrambled_semantic"":""8"",""num_scrambled_causal"":""4"",""num_scrambled_schematic"":""4"",""participantId"":""C00B7F79D4C944AABF7219589DDAB05A"",""assignmentId"":""0198b996-a893-777c-ab74-6a26db41d1b0"",""projectId"":""0198b979-1f5e-7105-8b5f-48f920534529""}","https://test12345.live/?num_scrambled_semantic=8&num_scrambled_causal=4&num_scrambled_schematic=4&participantId=C00B7F79D4C944AABF7219589DDAB05A&assignmentId=0198b996-a893-777c-ab74-6a26db41d1b0&projectId=0198b979-1f5e-7105-8b5f-48f920534529","C00B7F79D4C944AABF7219589DDAB05A-2025-08-17-20-37-14","","null","","[]","null","",""
"","","","","","image-button-response","78","555233","0.0-12.0-1.0-0.7","C00B7F79D4C944AABF7219589DDAB05A","C00B7F79D4C944AABF7219589DDAB05A","0198b996-a893-777c-ab74-6a26db41d1b0","0198b979-1f5e-7105-8b5f-48f920534529","{""num_scrambled_semantic"":""8"",""num_scrambled_causal"":""4"",""num_scrambled_schematic"":""4"",""participantId"":""C00B7F79D4C944AABF7219589DDAB05A"",""assignmentId"":""0198b996-a893-777c-ab74-6a26db41d1b0"",""projectId"":""0198b979-1f5e-7105-8b5f-48f920534529""}","https://test12345.live/?num_scrambled_semantic=8&num_scrambled_causal=4&num_scrambled_schematic=4&participantId=C00B7F79D4C944AABF7219589DDAB05A&assignmentId=0198b996-a893-777c-ab74-6a26db41d1b0&projectId=0198b979-1f5e-7105-8b5f-48f920534529","C00B7F79D4C944AABF7219589DDAB05A-2025-08-17-20-37-14","","null","","images/causal_sequence/dog_causal/dog_causal_4.png","null","",""
"","","","","","image-button-response","79","556884","0.0-12.0-1.0-1.7","C00B7F79D4C944AABF7219589DDAB05A","C00B7F79D4C944AABF7219589DDAB05A","0198b996-a893-777c-ab74-6a26db41d1b0","0198b979-1f5e-7105-8b5f-48f920534529","{""num_scrambled_semantic"":""8"",""num_scrambled_causal"":""4"",""num_scrambled_schematic"":""4"",""participantId"":""C00B7F79D4C944AABF7219589DDAB05A"",""assignmentId"":""0198b996-a893-777c-ab74-6a26db41d1b0"",""projectId"":""0198b979-1f5e-7105-8b5f-48f920534529""}","https://test12345.live/?num_scrambled_semantic=8&num_scrambled_causal=4&num_scrambled_schematic=4&participantId=C00B7F79D4C944AABF7219589DDAB05A&assignmentId=0198b996-a893-777c-ab74-6a26db41d1b0&projectId=0198b979-1f5e-7105-8b5f-48f920534529","C00B7F79D4C944AABF7219589DDAB05A-2025-08-17-20-37-14","","1650","","images/causal_sequence/dog_causal/dog_causal_4.png","0","",""
"","","","","","image-button-response","80","562298","0.0-12.0-1.0-2.7","C00B7F79D4C944AABF7219589DDAB05A","C00B7F79D4C944AABF7219589DDAB05A","0198b996-a893-777c-ab74-6a26db41d1b0","0198b979-1f5e-7105-8b5f-48f920534529","{""num_scrambled_semantic"":""8"",""num_scrambled_causal"":""4"",""num_scrambled_schematic"":""4"",""participantId"":""C00B7F79D4C944AABF7219589DDAB05A"",""assignmentId"":""0198b996-a893-777c-ab74-6a26db41d1b0"",""projectId"":""0198b979-1f5e-7105-8b5f-48f920534529""}","https://test12345.live/?num_scrambled_semantic=8&num_scrambled_causal=4&num_scrambled_schematic=4&participantId=C00B7F79D4C944AABF7219589DDAB05A&assignmentId=0198b996-a893-777c-ab74-6a26db41d1b0&projectId=0198b979-1f5e-7105-8b5f-48f920534529","C00B7F79D4C944AABF7219589DDAB05A-2025-08-17-20-37-14","","null","","[]","null","",""
"","","","","","image-button-response","81","566804","0.0-12.0-1.0-0.8","C00B7F79D4C944AABF7219589DDAB05A","C00B7F79D4C944AABF7219589DDAB05A","0198b996-a893-777c-ab74-6a26db41d1b0","0198b979-1f5e-7105-8b5f-48f920534529","{""num_scrambled_semantic"":""8"",""num_scrambled_causal"":""4"",""num_scrambled_schematic"":""4"",""participantId"":""C00B7F79D4C944AABF7219589DDAB05A"",""assignmentId"":""0198b996-a893-777c-ab74-6a26db41d1b0"",""projectId"":""0198b979-1f5e-7105-8b5f-48f920534529""}","https://test12345.live/?num_scrambled_semantic=8&num_scrambled_causal=4&num_scrambled_schematic=4&participantId=C00B7F79D4C944AABF7219589DDAB05A&assignmentId=0198b996-a893-777c-ab74-6a26db41d1b0&projectId=0198b979-1f5e-7105-8b5f-48f920534529","C00B7F79D4C944AABF7219589DDAB05A-2025-08-17-20-37-14","","null","","images/causal_sequence/dog_causal/dog_causal_7.png","null","",""
"","","","","","image-button-response","82","568163","0.0-12.0-1.0-1.8","C00B7F79D4C944AABF7219589DDAB05A","C00B7F79D4C944AABF7219589DDAB05A","0198b996-a893-777c-ab74-6a26db41d1b0","0198b979-1f5e-7105-8b5f-48f920534529","{""num_scrambled_semantic"":""8"",""num_scrambled_causal"":""4"",""num_scrambled_schematic"":""4"",""participantId"":""C00B7F79D4C944AABF7219589DDAB05A"",""assignmentId"":""0198b996-a893-777c-ab74-6a26db41d1b0"",""projectId"":""0198b979-1f5e-7105-8b5f-48f920534529""}","https://test12345.live/?num_scrambled_semantic=8&num_scrambled_causal=4&num_scrambled_schematic=4&participantId=C00B7F79D4C944AABF7219589DDAB05A&assignmentId=0198b996-a893-777c-ab74-6a26db41d1b0&projectId=0198b979-1f5e-7105-8b5f-48f920534529","C00B7F79D4C944AABF7219589DDAB05A-2025-08-17-20-37-14","","1358","","images/causal_sequence/dog_causal/dog_causal_7.png","0","",""
"","","","","","image-button-response","83","573573","0.0-12.0-1.0-2.8","C00B7F79D4C944AABF7219589DDAB05A","C00B7F79D4C944AABF7219589DDAB05A","0198b996-a893-777c-ab74-6a26db41d1b0","0198b979-1f5e-7105-8b5f-48f920534529","{""num_scrambled_semantic"":""8"",""num_scrambled_causal"":""4"",""num_scrambled_schematic"":""4"",""participantId"":""C00B7F79D4C944AABF7219589DDAB05A"",""assignmentId"":""0198b996-a893-777c-ab74-6a26db41d1b0"",""projectId"":""0198b979-1f5e-7105-8b5f-48f920534529""}","https://test12345.live/?num_scrambled_semantic=8&num_scrambled_causal=4&num_scrambled_schematic=4&participantId=C00B7F79D4C944AABF7219589DDAB05A&assignmentId=0198b996-a893-777c-ab74-6a26db41d1b0&projectId=0198b979-1f5e-7105-8b5f-48f920534529","C00B7F79D4C944AABF7219589DDAB05A-2025-08-17-20-37-14","","null","","[]","null","",""
"","","","","","image-button-response","84","578075","0.0-12.0-1.0-0.9","C00B7F79D4C944AABF7219589DDAB05A","C00B7F79D4C944AABF7219589DDAB05A","0198b996-a893-777c-ab74-6a26db41d1b0","0198b979-1f5e-7105-8b5f-48f920534529","{""num_scrambled_semantic"":""8"",""num_scrambled_causal"":""4"",""num_scrambled_schematic"":""4"",""participantId"":""C00B7F79D4C944AABF7219589DDAB05A"",""assignmentId"":""0198b996-a893-777c-ab74-6a26db41d1b0"",""projectId"":""0198b979-1f5e-7105-8b5f-48f920534529""}","https://test12345.live/?num_scrambled_semantic=8&num_scrambled_causal=4&num_scrambled_schematic=4&participantId=C00B7F79D4C944AABF7219589DDAB05A&assignmentId=0198b996-a893-777c-ab74-6a26db41d1b0&projectId=0198b979-1f5e-7105-8b5f-48f920534529","C00B7F79D4C944AABF7219589DDAB05A-2025-08-17-20-37-14","","null","","images/causal_sequence/dog_causal/dog_causal_8.png","null","",""
"","","","","","image-button-response","85","579107","0.0-12.0-1.0-1.9","C00B7F79D4C944AABF7219589DDAB05A","C00B7F79D4C944AABF7219589DDAB05A","0198b996-a893-777c-ab74-6a26db41d1b0","0198b979-1f5e-7105-8b5f-48f920534529","{""num_scrambled_semantic"":""8"",""num_scrambled_causal"":""4"",""num_scrambled_schematic"":""4"",""participantId"":""C00B7F79D4C944AABF7219589DDAB05A"",""assignmentId"":""0198b996-a893-777c-ab74-6a26db41d1b0"",""projectId"":""0198b979-1f5e-7105-8b5f-48f920534529""}","https://test12345.live/?num_scrambled_semantic=8&num_scrambled_causal=4&num_scrambled_schematic=4&participantId=C00B7F79D4C944AABF7219589DDAB05A&assignmentId=0198b996-a893-777c-ab74-6a26db41d1b0&projectId=0198b979-1f5e-7105-8b5f-48f920534529","C00B7F79D4C944AABF7219589DDAB05A-2025-08-17-20-37-14","","1030","","images/causal_sequence/dog_causal/dog_causal_8.png","0","",""
"","","","","","image-button-response","86","584519","0.0-12.0-1.0-2.9","C00B7F79D4C944AABF7219589DDAB05A","C00B7F79D4C944AABF7219589DDAB05A","0198b996-a893-777c-ab74-6a26db41d1b0","0198b979-1f5e-7105-8b5f-48f920534529","{""num_scrambled_semantic"":""8"",""num_scrambled_causal"":""4"",""num_scrambled_schematic"":""4"",""participantId"":""C00B7F79D4C944AABF7219589DDAB05A"",""assignmentId"":""0198b996-a893-777c-ab74-6a26db41d1b0"",""projectId"":""0198b979-1f5e-7105-8b5f-48f920534529""}","https://test12345.live/?num_scrambled_semantic=8&num_scrambled_causal=4&num_scrambled_schematic=4&participantId=C00B7F79D4C944AABF7219589DDAB05A&assignmentId=0198b996-a893-777c-ab74-6a26db41d1b0&projectId=0198b979-1f5e-7105-8b5f-48f920534529","C00B7F79D4C944AABF7219589DDAB05A-2025-08-17-20-37-14","","null","","[]","null","",""
"","","","","","html-audio-response","87","638322","0.0-13.0","C00B7F79D4C944AABF7219589DDAB05A","C00B7F79D4C944AABF7219589DDAB05A","0198b996-a893-777c-ab74-6a26db41d1b0","0198b979-1f5e-7105-8b5f-48f920534529","{""num_scrambled_semantic"":""8"",""num_scrambled_causal"":""4"",""num_scrambled_schematic"":""4"",""participantId"":""C00B7F79D4C944AABF7219589DDAB05A"",""assignmentId"":""0198b996-a893-777c-ab74-6a26db41d1b0"",""projectId"":""0198b979-1f5e-7105-8b5f-48f920534529""}","https://test12345.live/?num_scrambled_semantic=8&num_scrambled_causal=4&num_scrambled_schematic=4&participantId=C00B7F79D4C944AABF7219589DDAB05A&assignmentId=0198b996-a893-777c-ab74-6a26db41d1b0&projectId=0198b979-1f5e-7105-8b5f-48f920534529","C00B7F79D4C944AABF7219589DDAB05A-2025-08-17-20-37-14","","44292","","[""<span style=\""color: red; font-size: 24px\""> NOW RECORDING</span><p>Please say out loud all the images you saw, as many as you can remember. The images can be said in any order.</p>""]","","6","dog_causal"
"","","","","","image-button-response","88","644330","0.0-14.0-0.0","C00B7F79D4C944AABF7219589DDAB05A","C00B7F79D4C944AABF7219589DDAB05A","0198b996-a893-777c-ab74-6a26db41d1b0","0198b979-1f5e-7105-8b5f-48f920534529","{""num_scrambled_semantic"":""8"",""num_scrambled_causal"":""4"",""num_scrambled_schematic"":""4"",""participantId"":""C00B7F79D4C944AABF7219589DDAB05A"",""assignmentId"":""0198b996-a893-777c-ab74-6a26db41d1b0"",""projectId"":""0198b979-1f5e-7105-8b5f-48f920534529""}","https://test12345.live/?num_scrambled_semantic=8&num_scrambled_causal=4&num_scrambled_schematic=4&participantId=C00B7F79D4C944AABF7219589DDAB05A&assignmentId=0198b996-a893-777c-ab74-6a26db41d1b0&projectId=0198b979-1f5e-7105-8b5f-48f920534529","C00B7F79D4C944AABF7219589DDAB05A-2025-08-17-20-37-14","","null","","images/semantic_sequence/housework_semantic/housework_semantic_0.png","null","",""
"","","","","","image-button-response","89","648839","0.0-14.0-1.0-0.0","C00B7F79D4C944AABF7219589DDAB05A","C00B7F79D4C944AABF7219589DDAB05A","0198b996-a893-777c-ab74-6a26db41d1b0","0198b979-1f5e-7105-8b5f-48f920534529","{""num_scrambled_semantic"":""8"",""num_scrambled_causal"":""4"",""num_scrambled_schematic"":""4"",""participantId"":""C00B7F79D4C944AABF7219589DDAB05A"",""assignmentId"":""0198b996-a893-777c-ab74-6a26db41d1b0"",""projectId"":""0198b979-1f5e-7105-8b5f-48f920534529""}","https://test12345.live/?num_scrambled_semantic=8&num_scrambled_causal=4&num_scrambled_schematic=4&participantId=C00B7F79D4C944AABF7219589DDAB05A&assignmentId=0198b996-a893-777c-ab74-6a26db41d1b0&projectId=0198b979-1f5e-7105-8b5f-48f920534529","C00B7F79D4C944AABF7219589DDAB05A-2025-08-17-20-37-14","","null","","images/semantic_sequence/housework_semantic/housework_semantic_3.png","null","",""
"","","","","","image-button-response","90","650130","0.0-14.0-1.0-1.0","C00B7F79D4C944AABF7219589DDAB05A","C00B7F79D4C944AABF7219589DDAB05A","0198b996-a893-777c-ab74-6a26db41d1b0","0198b979-1f5e-7105-8b5f-48f920534529","{""num_scrambled_semantic"":""8"",""num_scrambled_causal"":""4"",""num_scrambled_schematic"":""4"",""participantId"":""C00B7F79D4C944AABF7219589DDAB05A"",""assignmentId"":""0198b996-a893-777c-ab74-6a26db41d1b0"",""projectId"":""0198b979-1f5e-7105-8b5f-48f920534529""}","https://test12345.live/?num_scrambled_semantic=8&num_scrambled_causal=4&num_scrambled_schematic=4&participantId=C00B7F79D4C944AABF7219589DDAB05A&assignmentId=0198b996-a893-777c-ab74-6a26db41d1b0&projectId=0198b979-1f5e-7105-8b5f-48f920534529","C00B7F79D4C944AABF7219589DDAB05A-2025-08-17-20-37-14","","1290","","images/semantic_sequence/housework_semantic/housework_semantic_3.png","0","",""
"","","","","","image-button-response","91","655546","0.0-14.0-1.0-2.0","C00B7F79D4C944AABF7219589DDAB05A","C00B7F79D4C944AABF7219589DDAB05A","0198b996-a893-777c-ab74-6a26db41d1b0","0198b979-1f5e-7105-8b5f-48f920534529","{""num_scrambled_semantic"":""8"",""num_scrambled_causal"":""4"",""num_scrambled_schematic"":""4"",""participantId"":""C00B7F79D4C944AABF7219589DDAB05A"",""assignmentId"":""0198b996-a893-777c-ab74-6a26db41d1b0"",""projectId"":""0198b979-1f5e-7105-8b5f-48f920534529""}","https://test12345.live/?num_scrambled_semantic=8&num_scrambled_causal=4&num_scrambled_schematic=4&participantId=C00B7F79D4C944AABF7219589DDAB05A&assignmentId=0198b996-a893-777c-ab74-6a26db41d1b0&projectId=0198b979-1f5e-7105-8b5f-48f920534529","C00B7F79D4C944AABF7219589DDAB05A-2025-08-17-20-37-14","","null","","[]","null","",""
"","","","","","image-button-response","92","660054","0.0-14.0-1.0-0.1","C00B7F79D4C944AABF7219589DDAB05A","C00B7F79D4C944AABF7219589DDAB05A","0198b996-a893-777c-ab74-6a26db41d1b0","0198b979-1f5e-7105-8b5f-48f920534529","{""num_scrambled_semantic"":""8"",""num_scrambled_causal"":""4"",""num_scrambled_schematic"":""4"",""participantId"":""C00B7F79D4C944AABF7219589DDAB05A"",""assignmentId"":""0198b996-a893-777c-ab74-6a26db41d1b0"",""projectId"":""0198b979-1f5e-7105-8b5f-48f920534529""}","https://test12345.live/?num_scrambled_semantic=8&num_scrambled_causal=4&num_scrambled_schematic=4&participantId=C00B7F79D4C944AABF7219589DDAB05A&assignmentId=0198b996-a893-777c-ab74-6a26db41d1b0&projectId=0198b979-1f5e-7105-8b5f-48f920534529","C00B7F79D4C944AABF7219589DDAB05A-2025-08-17-20-37-14","","null","","images/semantic_sequence/housework_semantic/housework_semantic_ten.png","null","",""
"","","","","","image-button-response","93","661091","0.0-14.0-1.0-1.1","C00B7F79D4C944AABF7219589DDAB05A","C00B7F79D4C944AABF7219589DDAB05A","0198b996-a893-777c-ab74-6a26db41d1b0","0198b979-1f5e-7105-8b5f-48f920534529","{""num_scrambled_semantic"":""8"",""num_scrambled_causal"":""4"",""num_scrambled_schematic"":""4"",""participantId"":""C00B7F79D4C944AABF7219589DDAB05A"",""assignmentId"":""0198b996-a893-777c-ab74-6a26db41d1b0"",""projectId"":""0198b979-1f5e-7105-8b5f-48f920534529""}","https://test12345.live/?num_scrambled_semantic=8&num_scrambled_causal=4&num_scrambled_schematic=4&participantId=C00B7F79D4C944AABF7219589DDAB05A&assignmentId=0198b996-a893-777c-ab74-6a26db41d1b0&projectId=0198b979-1f5e-7105-8b5f-48f920534529","C00B7F79D4C944AABF7219589DDAB05A-2025-08-17-20-37-14","","1035","","images/semantic_sequence/housework_semantic/housework_semantic_ten.png","0","",""
"","","","","","image-button-response","94","666498","0.0-14.0-1.0-2.1","C00B7F79D4C944AABF7219589DDAB05A","C00B7F79D4C944AABF7219589DDAB05A","0198b996-a893-777c-ab74-6a26db41d1b0","0198b979-1f5e-7105-8b5f-48f920534529","{""num_scrambled_semantic"":""8"",""num_scrambled_causal"":""4"",""num_scrambled_schematic"":""4"",""participantId"":""C00B7F79D4C944AABF7219589DDAB05A"",""assignmentId"":""0198b996-a893-777c-ab74-6a26db41d1b0"",""projectId"":""0198b979-1f5e-7105-8b5f-48f920534529""}","https://test12345.live/?num_scrambled_semantic=8&num_scrambled_causal=4&num_scrambled_schematic=4&participantId=C00B7F79D4C944AABF7219589DDAB05A&assignmentId=0198b996-a893-777c-ab74-6a26db41d1b0&projectId=0198b979-1f5e-7105-8b5f-48f920534529","C00B7F79D4C944AABF7219589DDAB05A-2025-08-17-20-37-14","","null","","[]","null","",""
"","","","","","image-button-response","95","671010","0.0-14.0-1.0-0.2","C00B7F79D4C944AABF7219589DDAB05A","C00B7F79D4C944AABF7219589DDAB05A","0198b996-a893-777c-ab74-6a26db41d1b0","0198b979-1f5e-7105-8b5f-48f920534529","{""num_scrambled_semantic"":""8"",""num_scrambled_causal"":""4"",""num_scrambled_schematic"":""4"",""participantId"":""C00B7F79D4C944AABF7219589DDAB05A"",""assignmentId"":""0198b996-a893-777c-ab74-6a26db41d1b0"",""projectId"":""0198b979-1f5e-7105-8b5f-48f920534529""}","https://test12345.live/?num_scrambled_semantic=8&num_scrambled_causal=4&num_scrambled_schematic=4&participantId=C00B7F79D4C944AABF7219589DDAB05A&assignmentId=0198b996-a893-777c-ab74-6a26db41d1b0&projectId=0198b979-1f5e-7105-8b5f-48f920534529","C00B7F79D4C944AABF7219589DDAB05A-2025-08-17-20-37-14","","null","","images/semantic_sequence/housework_semantic/housework_semantic_8.png","null","",""
"","","","","","image-button-response","96","672203","0.0-14.0-1.0-1.2","C00B7F79D4C944AABF7219589DDAB05A","C00B7F79D4C944AABF7219589DDAB05A","0198b996-a893-777c-ab74-6a26db41d1b0","0198b979-1f5e-7105-8b5f-48f920534529","{""num_scrambled_semantic"":""8"",""num_scrambled_causal"":""4"",""num_scrambled_schematic"":""4"",""participantId"":""C00B7F79D4C944AABF7219589DDAB05A"",""assignmentId"":""0198b996-a893-777c-ab74-6a26db41d1b0"",""projectId"":""0198b979-1f5e-7105-8b5f-48f920534529""}","https://test12345.live/?num_scrambled_semantic=8&num_scrambled_causal=4&num_scrambled_schematic=4&participantId=C00B7F79D4C944AABF7219589DDAB05A&assignmentId=0198b996-a893-777c-ab74-6a26db41d1b0&projectId=0198b979-1f5e-7105-8b5f-48f920534529","C00B7F79D4C944AABF7219589DDAB05A-2025-08-17-20-37-14","","1191","","images/semantic_sequence/housework_semantic/housework_semantic_8.png","0","",""
"","","","","","image-button-response","97","677610","0.0-14.0-1.0-2.2","C00B7F79D4C944AABF7219589DDAB05A","C00B7F79D4C944AABF7219589DDAB05A","0198b996-a893-777c-ab74-6a26db41d1b0","0198b979-1f5e-7105-8b5f-48f920534529","{""num_scrambled_semantic"":""8"",""num_scrambled_causal"":""4"",""num_scrambled_schematic"":""4"",""participantId"":""C00B7F79D4C944AABF7219589DDAB05A"",""assignmentId"":""0198b996-a893-777c-ab74-6a26db41d1b0"",""projectId"":""0198b979-1f5e-7105-8b5f-48f920534529""}","https://test12345.live/?num_scrambled_semantic=8&num_scrambled_causal=4&num_scrambled_schematic=4&participantId=C00B7F79D4C944AABF7219589DDAB05A&assignmentId=0198b996-a893-777c-ab74-6a26db41d1b0&projectId=0198b979-1f5e-7105-8b5f-48f920534529","C00B7F79D4C944AABF7219589DDAB05A-2025-08-17-20-37-14","","null","","[]","null","",""
"","","","","","image-button-response","98","682123","0.0-14.0-1.0-0.3","C00B7F79D4C944AABF7219589DDAB05A","C00B7F79D4C944AABF7219589DDAB05A","0198b996-a893-777c-ab74-6a26db41d1b0","0198b979-1f5e-7105-8b5f-48f920534529","{""num_scrambled_semantic"":""8"",""num_scrambled_causal"":""4"",""num_scrambled_schematic"":""4"",""participantId"":""C00B7F79D4C944AABF7219589DDAB05A"",""assignmentId"":""0198b996-a893-777c-ab74-6a26db41d1b0"",""projectId"":""0198b979-1f5e-7105-8b5f-48f920534529""}","https://test12345.live/?num_scrambled_semantic=8&num_scrambled_causal=4&num_scrambled_schematic=4&participantId=C00B7F79D4C944AABF7219589DDAB05A&assignmentId=0198b996-a893-777c-ab74-6a26db41d1b0&projectId=0198b979-1f5e-7105-8b5f-48f920534529","C00B7F79D4C944AABF7219589DDAB05A-2025-08-17-20-37-14","","null","","images/semantic_sequence/housework_semantic/housework_semantic_9.png","null","",""
"","","","","","image-button-response","99","683523","0.0-14.0-1.0-1.3","C00B7F79D4C944AABF7219589DDAB05A","C00B7F79D4C944AABF7219589DDAB05A","0198b996-a893-777c-ab74-6a26db41d1b0","0198b979-1f5e-7105-8b5f-48f920534529","{""num_scrambled_semantic"":""8"",""num_scrambled_causal"":""4"",""num_scrambled_schematic"":""4"",""participantId"":""C00B7F79D4C944AABF7219589DDAB05A"",""assignmentId"":""0198b996-a893-777c-ab74-6a26db41d1b0"",""projectId"":""0198b979-1f5e-7105-8b5f-48f920534529""}","https://test12345.live/?num_scrambled_semantic=8&num_scrambled_causal=4&num_scrambled_schematic=4&participantId=C00B7F79D4C944AABF7219589DDAB05A&assignmentId=0198b996-a893-777c-ab74-6a26db41d1b0&projectId=0198b979-1f5e-7105-8b5f-48f920534529","C00B7F79D4C944AABF7219589DDAB05A-2025-08-17-20-37-14","","1398","","images/semantic_sequence/housework_semantic/housework_semantic_9.png","0","",""
"","","","","","image-button-response","100","688926","0.0-14.0-1.0-2.3","C00B7F79D4C944AABF7219589DDAB05A","C00B7F79D4C944AABF7219589DDAB05A","0198b996-a893-777c-ab74-6a26db41d1b0","0198b979-1f5e-7105-8b5f-48f920534529","{""num_scrambled_semantic"":""8"",""num_scrambled_causal"":""4"",""num_scrambled_schematic"":""4"",""participantId"":""C00B7F79D4C944AABF7219589DDAB05A"",""assignmentId"":""0198b996-a893-777c-ab74-6a26db41d1b0"",""projectId"":""0198b979-1f5e-7105-8b5f-48f920534529""}","https://test12345.live/?num_scrambled_semantic=8&num_scrambled_causal=4&num_scrambled_schematic=4&participantId=C00B7F79D4C944AABF7219589DDAB05A&assignmentId=0198b996-a893-777c-ab74-6a26db41d1b0&projectId=0198b979-1f5e-7105-8b5f-48f920534529","C00B7F79D4C944AABF7219589DDAB05A-2025-08-17-20-37-14","","null","","[]","null","",""
"","","","","","image-button-response","101","693437","0.0-14.0-1.0-0.4","C00B7F79D4C944AABF7219589DDAB05A","C00B7F79D4C944AABF7219589DDAB05A","0198b996-a893-777c-ab74-6a26db41d1b0","0198b979-1f5e-7105-8b5f-48f920534529","{""num_scrambled_semantic"":""8"",""num_scrambled_causal"":""4"",""num_scrambled_schematic"":""4"",""participantId"":""C00B7F79D4C944AABF7219589DDAB05A"",""assignmentId"":""0198b996-a893-777c-ab74-6a26db41d1b0"",""projectId"":""0198b979-1f5e-7105-8b5f-48f920534529""}","https://test12345.live/?num_scrambled_semantic=8&num_scrambled_causal=4&num_scrambled_schematic=4&participantId=C00B7F79D4C944AABF7219589DDAB05A&assignmentId=0198b996-a893-777c-ab74-6a26db41d1b0&projectId=0198b979-1f5e-7105-8b5f-48f920534529","C00B7F79D4C944AABF7219589DDAB05A-2025-08-17-20-37-14","","null","","images/semantic_sequence/housework_semantic/housework_semantic_4.png","null","",""
"","","","","","image-button-response","102","694826","0.0-14.0-1.0-1.4","C00B7F79D4C944AABF7219589DDAB05A","C00B7F79D4C944AABF7219589DDAB05A","0198b996-a893-777c-ab74-6a26db41d1b0","0198b979-1f5e-7105-8b5f-48f920534529","{""num_scrambled_semantic"":""8"",""num_scrambled_causal"":""4"",""num_scrambled_schematic"":""4"",""participantId"":""C00B7F79D4C944AABF7219589DDAB05A"",""assignmentId"":""0198b996-a893-777c-ab74-6a26db41d1b0"",""projectId"":""0198b979-1f5e-7105-8b5f-48f920534529""}","https://test12345.live/?num_scrambled_semantic=8&num_scrambled_causal=4&num_scrambled_schematic=4&participantId=C00B7F79D4C944AABF7219589DDAB05A&assignmentId=0198b996-a893-777c-ab74-6a26db41d1b0&projectId=0198b979-1f5e-7105-8b5f-48f920534529","C00B7F79D4C944AABF7219589DDAB05A-2025-08-17-20-37-14","","1388","","images/semantic_sequence/housework_semantic/housework_semantic_4.png","0","",""
"","","","","","image-button-response","103","700240","0.0-14.0-1.0-2.4","C00B7F79D4C944AABF7219589DDAB05A","C00B7F79D4C944AABF7219589DDAB05A","0198b996-a893-777c-ab74-6a26db41d1b0","0198b979-1f5e-7105-8b5f-48f920534529","{""num_scrambled_semantic"":""8"",""num_scrambled_causal"":""4"",""num_scrambled_schematic"":""4"",""participantId"":""C00B7F79D4C944AABF7219589DDAB05A"",""assignmentId"":""0198b996-a893-777c-ab74-6a26db41d1b0"",""projectId"":""0198b979-1f5e-7105-8b5f-48f920534529""}","https://test12345.live/?num_scrambled_semantic=8&num_scrambled_causal=4&num_scrambled_schematic=4&participantId=C00B7F79D4C944AABF7219589DDAB05A&assignmentId=0198b996-a893-777c-ab74-6a26db41d1b0&projectId=0198b979-1f5e-7105-8b5f-48f920534529","C00B7F79D4C944AABF7219589DDAB05A-2025-08-17-20-37-14","","null","","[]","null","",""
"","","","","","image-button-response","104","704748","0.0-14.0-1.0-0.5","C00B7F79D4C944AABF7219589DDAB05A","C00B7F79D4C944AABF7219589DDAB05A","0198b996-a893-777c-ab74-6a26db41d1b0","0198b979-1f5e-7105-8b5f-48f920534529","{""num_scrambled_semantic"":""8"",""num_scrambled_causal"":""4"",""num_scrambled_schematic"":""4"",""participantId"":""C00B7F79D4C944AABF7219589DDAB05A"",""assignmentId"":""0198b996-a893-777c-ab74-6a26db41d1b0"",""projectId"":""0198b979-1f5e-7105-8b5f-48f920534529""}","https://test12345.live/?num_scrambled_semantic=8&num_scrambled_causal=4&num_scrambled_schematic=4&participantId=C00B7F79D4C944AABF7219589DDAB05A&assignmentId=0198b996-a893-777c-ab74-6a26db41d1b0&projectId=0198b979-1f5e-7105-8b5f-48f920534529","C00B7F79D4C944AABF7219589DDAB05A-2025-08-17-20-37-14","","null","","images/semantic_sequence/housework_semantic/housework_semantic_2.png","null","",""
"","","","","","image-button-response","105","706083","0.0-14.0-1.0-1.5","C00B7F79D4C944AABF7219589DDAB05A","C00B7F79D4C944AABF7219589DDAB05A","0198b996-a893-777c-ab74-6a26db41d1b0","0198b979-1f5e-7105-8b5f-48f920534529","{""num_scrambled_semantic"":""8"",""num_scrambled_causal"":""4"",""num_scrambled_schematic"":""4"",""participantId"":""C00B7F79D4C944AABF7219589DDAB05A"",""assignmentId"":""0198b996-a893-777c-ab74-6a26db41d1b0"",""projectId"":""0198b979-1f5e-7105-8b5f-48f920534529""}","https://test12345.live/?num_scrambled_semantic=8&num_scrambled_causal=4&num_scrambled_schematic=4&participantId=C00B7F79D4C944AABF7219589DDAB05A&assignmentId=0198b996-a893-777c-ab74-6a26db41d1b0&projectId=0198b979-1f5e-7105-8b5f-48f920534529","C00B7F79D4C944AABF7219589DDAB05A-2025-08-17-20-37-14","","1333","","images/semantic_sequence/housework_semantic/housework_semantic_2.png","0","",""
"","","","","","image-button-response","106","711486","0.0-14.0-1.0-2.5","C00B7F79D4C944AABF7219589DDAB05A","C00B7F79D4C944AABF7219589DDAB05A","0198b996-a893-777c-ab74-6a26db41d1b0","0198b979-1f5e-7105-8b5f-48f920534529","{""num_scrambled_semantic"":""8"",""num_scrambled_causal"":""4"",""num_scrambled_schematic"":""4"",""participantId"":""C00B7F79D4C944AABF7219589DDAB05A"",""assignmentId"":""0198b996-a893-777c-ab74-6a26db41d1b0"",""projectId"":""0198b979-1f5e-7105-8b5f-48f920534529""}","https://test12345.live/?num_scrambled_semantic=8&num_scrambled_causal=4&num_scrambled_schematic=4&participantId=C00B7F79D4C944AABF7219589DDAB05A&assignmentId=0198b996-a893-777c-ab74-6a26db41d1b0&projectId=0198b979-1f5e-7105-8b5f-48f920534529","C00B7F79D4C944AABF7219589DDAB05A-2025-08-17-20-37-14","","null","","[]","null","",""
"","","","","","image-button-response","107","715988","0.0-14.0-1.0-0.6","C00B7F79D4C944AABF7219589DDAB05A","C00B7F79D4C944AABF7219589DDAB05A","0198b996-a893-777c-ab74-6a26db41d1b0","0198b979-1f5e-7105-8b5f-48f920534529","{""num_scrambled_semantic"":""8"",""num_scrambled_causal"":""4"",""num_scrambled_schematic"":""4"",""participantId"":""C00B7F79D4C944AABF7219589DDAB05A"",""assignmentId"":""0198b996-a893-777c-ab74-6a26db41d1b0"",""projectId"":""0198b979-1f5e-7105-8b5f-48f920534529""}","https://test12345.live/?num_scrambled_semantic=8&num_scrambled_causal=4&num_scrambled_schematic=4&participantId=C00B7F79D4C944AABF7219589DDAB05A&assignmentId=0198b996-a893-777c-ab74-6a26db41d1b0&projectId=0198b979-1f5e-7105-8b5f-48f920534529","C00B7F79D4C944AABF7219589DDAB05A-2025-08-17-20-37-14","","null","","images/semantic_sequence/housework_semantic/housework_semantic_5.png","null","",""
"","","","","","image-button-response","108","717650","0.0-14.0-1.0-1.6","C00B7F79D4C944AABF7219589DDAB05A","C00B7F79D4C944AABF7219589DDAB05A","0198b996-a893-777c-ab74-6a26db41d1b0","0198b979-1f5e-7105-8b5f-48f920534529","{""num_scrambled_semantic"":""8"",""num_scrambled_causal"":""4"",""num_scrambled_schematic"":""4"",""participantId"":""C00B7F79D4C944AABF7219589DDAB05A"",""assignmentId"":""0198b996-a893-777c-ab74-6a26db41d1b0"",""projectId"":""0198b979-1f5e-7105-8b5f-48f920534529""}","https://test12345.live/?num_scrambled_semantic=8&num_scrambled_causal=4&num_scrambled_schematic=4&participantId=C00B7F79D4C944AABF7219589DDAB05A&assignmentId=0198b996-a893-777c-ab74-6a26db41d1b0&projectId=0198b979-1f5e-7105-8b5f-48f920534529","C00B7F79D4C944AABF7219589DDAB05A-2025-08-17-20-37-14","","1660","","images/semantic_sequence/housework_semantic/housework_semantic_5.png","0","",""
"","","","","","image-button-response","109","723052","0.0-14.0-1.0-2.6","C00B7F79D4C944AABF7219589DDAB05A","C00B7F79D4C944AABF7219589DDAB05A","0198b996-a893-777c-ab74-6a26db41d1b0","0198b979-1f5e-7105-8b5f-48f920534529","{""num_scrambled_semantic"":""8"",""num_scrambled_causal"":""4"",""num_scrambled_schematic"":""4"",""participantId"":""C00B7F79D4C944AABF7219589DDAB05A"",""assignmentId"":""0198b996-a893-777c-ab74-6a26db41d1b0"",""projectId"":""0198b979-1f5e-7105-8b5f-48f920534529""}","https://test12345.live/?num_scrambled_semantic=8&num_scrambled_causal=4&num_scrambled_schematic=4&participantId=C00B7F79D4C944AABF7219589DDAB05A&assignmentId=0198b996-a893-777c-ab74-6a26db41d1b0&projectId=0198b979-1f5e-7105-8b5f-48f920534529","C00B7F79D4C944AABF7219589DDAB05A-2025-08-17-20-37-14","","null","","[]","null","",""
"","","","","","image-button-response","110","727560","0.0-14.0-1.0-0.7","C00B7F79D4C944AABF7219589DDAB05A","C00B7F79D4C944AABF7219589DDAB05A","0198b996-a893-777c-ab74-6a26db41d1b0","0198b979-1f5e-7105-8b5f-48f920534529","{""num_scrambled_semantic"":""8"",""num_scrambled_causal"":""4"",""num_scrambled_schematic"":""4"",""participantId"":""C00B7F79D4C944AABF7219589DDAB05A"",""assignmentId"":""0198b996-a893-777c-ab74-6a26db41d1b0"",""projectId"":""0198b979-1f5e-7105-8b5f-48f920534529""}","https://test12345.live/?num_scrambled_semantic=8&num_scrambled_causal=4&num_scrambled_schematic=4&participantId=C00B7F79D4C944AABF7219589DDAB05A&assignmentId=0198b996-a893-777c-ab74-6a26db41d1b0&projectId=0198b979-1f5e-7105-8b5f-48f920534529","C00B7F79D4C944AABF7219589DDAB05A-2025-08-17-20-37-14","","null","","images/semantic_sequence/housework_semantic/housework_semantic_6.png","null","",""
"","","","","","image-button-response","111","729266","0.0-14.0-1.0-1.7","C00B7F79D4C944AABF7219589DDAB05A","C00B7F79D4C944AABF7219589DDAB05A","0198b996-a893-777c-ab74-6a26db41d1b0","0198b979-1f5e-7105-8b5f-48f920534529","{""num_scrambled_semantic"":""8"",""num_scrambled_causal"":""4"",""num_scrambled_schematic"":""4"",""participantId"":""C00B7F79D4C944AABF7219589DDAB05A"",""assignmentId"":""0198b996-a893-777c-ab74-6a26db41d1b0"",""projectId"":""0198b979-1f5e-7105-8b5f-48f920534529""}","https://test12345.live/?num_scrambled_semantic=8&num_scrambled_causal=4&num_scrambled_schematic=4&participantId=C00B7F79D4C944AABF7219589DDAB05A&assignmentId=0198b996-a893-777c-ab74-6a26db41d1b0&projectId=0198b979-1f5e-7105-8b5f-48f920534529","C00B7F79D4C944AABF7219589DDAB05A-2025-08-17-20-37-14","","1705","","images/semantic_sequence/housework_semantic/housework_semantic_6.png","0","",""
"","","","","","image-button-response","112","734671","0.0-14.0-1.0-2.7","C00B7F79D4C944AABF7219589DDAB05A","C00B7F79D4C944AABF7219589DDAB05A","0198b996-a893-777c-ab74-6a26db41d1b0","0198b979-1f5e-7105-8b5f-48f920534529","{""num_scrambled_semantic"":""8"",""num_scrambled_causal"":""4"",""num_scrambled_schematic"":""4"",""participantId"":""C00B7F79D4C944AABF7219589DDAB05A"",""assignmentId"":""0198b996-a893-777c-ab74-6a26db41d1b0"",""projectId"":""0198b979-1f5e-7105-8b5f-48f920534529""}","https://test12345.live/?num_scrambled_semantic=8&num_scrambled_causal=4&num_scrambled_schematic=4&participantId=C00B7F79D4C944AABF7219589DDAB05A&assignmentId=0198b996-a893-777c-ab74-6a26db41d1b0&projectId=0198b979-1f5e-7105-8b5f-48f920534529","C00B7F79D4C944AABF7219589DDAB05A-2025-08-17-20-37-14","","null","","[]","null","",""
"","","","","","image-button-response","113","739187","0.0-14.0-1.0-0.8","C00B7F79D4C944AABF7219589DDAB05A","C00B7F79D4C944AABF7219589DDAB05A","0198b996-a893-777c-ab74-6a26db41d1b0","0198b979-1f5e-7105-8b5f-48f920534529","{""num_scrambled_semantic"":""8"",""num_scrambled_causal"":""4"",""num_scrambled_schematic"":""4"",""participantId"":""C00B7F79D4C944AABF7219589DDAB05A"",""assignmentId"":""0198b996-a893-777c-ab74-6a26db41d1b0"",""projectId"":""0198b979-1f5e-7105-8b5f-48f920534529""}","https://test12345.live/?num_scrambled_semantic=8&num_scrambled_causal=4&num_scrambled_schematic=4&participantId=C00B7F79D4C944AABF7219589DDAB05A&assignmentId=0198b996-a893-777c-ab74-6a26db41d1b0&projectId=0198b979-1f5e-7105-8b5f-48f920534529","C00B7F79D4C944AABF7219589DDAB05A-2025-08-17-20-37-14","","null","","images/semantic_sequence/housework_semantic/housework_semantic_7.png","null","",""
"","","","","","image-button-response","114","741346","0.0-14.0-1.0-1.8","C00B7F79D4C944AABF7219589DDAB05A","C00B7F79D4C944AABF7219589DDAB05A","0198b996-a893-777c-ab74-6a26db41d1b0","0198b979-1f5e-7105-8b5f-48f920534529","{""num_scrambled_semantic"":""8"",""num_scrambled_causal"":""4"",""num_scrambled_schematic"":""4"",""participantId"":""C00B7F79D4C944AABF7219589DDAB05A"",""assignmentId"":""0198b996-a893-777c-ab74-6a26db41d1b0"",""projectId"":""0198b979-1f5e-7105-8b5f-48f920534529""}","https://test12345.live/?num_scrambled_semantic=8&num_scrambled_causal=4&num_scrambled_schematic=4&participantId=C00B7F79D4C944AABF7219589DDAB05A&assignmentId=0198b996-a893-777c-ab74-6a26db41d1b0&projectId=0198b979-1f5e-7105-8b5f-48f920534529","C00B7F79D4C944AABF7219589DDAB05A-2025-08-17-20-37-14","","2158","","images/semantic_sequence/housework_semantic/housework_semantic_7.png","0","",""
"","","","","","image-button-response","115","746757","0.0-14.0-1.0-2.8","C00B7F79D4C944AABF7219589DDAB05A","C00B7F79D4C944AABF7219589DDAB05A","0198b996-a893-777c-ab74-6a26db41d1b0","0198b979-1f5e-7105-8b5f-48f920534529","{""num_scrambled_semantic"":""8"",""num_scrambled_causal"":""4"",""num_scrambled_schematic"":""4"",""participantId"":""C00B7F79D4C944AABF7219589DDAB05A"",""assignmentId"":""0198b996-a893-777c-ab74-6a26db41d1b0"",""projectId"":""0198b979-1f5e-7105-8b5f-48f920534529""}","https://test12345.live/?num_scrambled_semantic=8&num_scrambled_causal=4&num_scrambled_schematic=4&participantId=C00B7F79D4C944AABF7219589DDAB05A&assignmentId=0198b996-a893-777c-ab74-6a26db41d1b0&projectId=0198b979-1f5e-7105-8b5f-48f920534529","C00B7F79D4C944AABF7219589DDAB05A-2025-08-17-20-37-14","","null","","[]","null","",""
