"success","timeout","failed_images","failed_audio","failed_video","trial_type","trial_index","time_elapsed","internal_node_id","subject","subject_id","study_id","session_id","urlvar","current_url","audio_id","view_history","rt","device_id","stimulus","response","estimated_stimulus_onset","seq_name"
"true","false","[]","[]","[]","preload","0","2769","0.0-0.0","C02A0EE816C14BE1AC96AAB736D2B84E","C02A0EE816C14BE1AC96AAB736D2B84E","844b6a57-4f65-42ae-b303-1536579bb5c3","a0a8f18c-a66e-4ba7-a170-23efbdc67501","{""participantId"":""C02A0EE816C14BE1AC96AAB736D2B84E"",""assignmentId"":""844b6a57-4f65-42ae-b303-1536579bb5c3"",""projectId"":""a0a8f18c-a66e-4ba7-a170-23efbdc67501""}","https://test12345.live/?participantId=C02A0EE816C14BE1AC96AAB736D2B84E&assignmentId=844b6a57-4f65-42ae-b303-1536579bb5c3&projectId=a0a8f18c-a66e-4ba7-a170-23efbdc67501","C02A0EE816C14BE1AC96AAB736D2B84E-2024-11-24-18-33-35","","","","","","",""
"","","","","","instructions","1","24726","0.0-1.0","C02A0EE816C14BE1AC96AAB736D2B84E","C02A0EE816C14BE1AC96AAB736D2B84E","844b6a57-4f65-42ae-b303-1536579bb5c3","a0a8f18c-a66e-4ba7-a170-23efbdc67501","{""participantId"":""C02A0EE816C14BE1AC96AAB736D2B84E"",""assignmentId"":""844b6a57-4f65-42ae-b303-1536579bb5c3"",""projectId"":""a0a8f18c-a66e-4ba7-a170-23efbdc67501""}","https://test12345.live/?participantId=C02A0EE816C14BE1AC96AAB736D2B84E&assignmentId=844b6a57-4f65-42ae-b303-1536579bb5c3&projectId=a0a8f18c-a66e-4ba7-a170-23efbdc67501","C02A0EE816C14BE1AC96AAB736D2B84E-2024-11-24-18-33-35","[{""page_index"":0,""viewing_time"":21957}]","21957","","","","",""
"","","","","","instructions","2","41134","0.0-2.0","C02A0EE816C14BE1AC96AAB736D2B84E","C02A0EE816C14BE1AC96AAB736D2B84E","844b6a57-4f65-42ae-b303-1536579bb5c3","a0a8f18c-a66e-4ba7-a170-23efbdc67501","{""participantId"":""C02A0EE816C14BE1AC96AAB736D2B84E"",""assignmentId"":""844b6a57-4f65-42ae-b303-1536579bb5c3"",""projectId"":""a0a8f18c-a66e-4ba7-a170-23efbdc67501""}","https://test12345.live/?participantId=C02A0EE816C14BE1AC96AAB736D2B84E&assignmentId=844b6a57-4f65-42ae-b303-1536579bb5c3&projectId=a0a8f18c-a66e-4ba7-a170-23efbdc67501","C02A0EE816C14BE1AC96AAB736D2B84E-2024-11-24-18-33-35","[{""page_index"":0,""viewing_time"":16407}]","16408","","","","",""
"true","","","","","fullscreen","3","43944","0.0-3.0","C02A0EE816C14BE1AC96AAB736D2B84E","C02A0EE816C14BE1AC96AAB736D2B84E","844b6a57-4f65-42ae-b303-1536579bb5c3","a0a8f18c-a66e-4ba7-a170-23efbdc67501","{""participantId"":""C02A0EE816C14BE1AC96AAB736D2B84E"",""assignmentId"":""844b6a57-4f65-42ae-b303-1536579bb5c3"",""projectId"":""a0a8f18c-a66e-4ba7-a170-23efbdc67501""}","https://test12345.live/?participantId=C02A0EE816C14BE1AC96AAB736D2B84E&assignmentId=844b6a57-4f65-42ae-b303-1536579bb5c3&projectId=a0a8f18c-a66e-4ba7-a170-23efbdc67501","C02A0EE816C14BE1AC96AAB736D2B84E-2024-11-24-18-33-35","","1797","","","","",""
"","","","","","initialize-microphone","4","52294","0.0-4.0-0.0","C02A0EE816C14BE1AC96AAB736D2B84E","C02A0EE816C14BE1AC96AAB736D2B84E","844b6a57-4f65-42ae-b303-1536579bb5c3","a0a8f18c-a66e-4ba7-a170-23efbdc67501","{""participantId"":""C02A0EE816C14BE1AC96AAB736D2B84E"",""assignmentId"":""844b6a57-4f65-42ae-b303-1536579bb5c3"",""projectId"":""a0a8f18c-a66e-4ba7-a170-23efbdc67501""}","https://test12345.live/?participantId=C02A0EE816C14BE1AC96AAB736D2B84E&assignmentId=844b6a57-4f65-42ae-b303-1536579bb5c3&projectId=a0a8f18c-a66e-4ba7-a170-23efbdc67501","C02A0EE816C14BE1AC96AAB736D2B84E-2024-11-24-18-33-35","","","8fbb3b5a88f6ac1094b0853aea43249ef345e95cfabdab9654896985139e348a","","","",""
"","","","","","html-audio-response","5","65265","0.0-4.0-1.0","C02A0EE816C14BE1AC96AAB736D2B84E","C02A0EE816C14BE1AC96AAB736D2B84E","844b6a57-4f65-42ae-b303-1536579bb5c3","a0a8f18c-a66e-4ba7-a170-23efbdc67501","{""participantId"":""C02A0EE816C14BE1AC96AAB736D2B84E"",""assignmentId"":""844b6a57-4f65-42ae-b303-1536579bb5c3"",""projectId"":""a0a8f18c-a66e-4ba7-a170-23efbdc67501""}","https://test12345.live/?participantId=C02A0EE816C14BE1AC96AAB736D2B84E&assignmentId=844b6a57-4f65-42ae-b303-1536579bb5c3&projectId=a0a8f18c-a66e-4ba7-a170-23efbdc67501","C02A0EE816C14BE1AC96AAB736D2B84E-2024-11-24-18-33-35","","2028","","<span style=""color: red; font-size: 24px""> NOW RECORDING</span>
        <p>Please test Microphone</p>","","17",""
"","","","","","html-button-response","6","66898","0.0-4.0-2.0","C02A0EE816C14BE1AC96AAB736D2B84E","C02A0EE816C14BE1AC96AAB736D2B84E","844b6a57-4f65-42ae-b303-1536579bb5c3","a0a8f18c-a66e-4ba7-a170-23efbdc67501","{""participantId"":""C02A0EE816C14BE1AC96AAB736D2B84E"",""assignmentId"":""844b6a57-4f65-42ae-b303-1536579bb5c3"",""projectId"":""a0a8f18c-a66e-4ba7-a170-23efbdc67501""}","https://test12345.live/?participantId=C02A0EE816C14BE1AC96AAB736D2B84E&assignmentId=844b6a57-4f65-42ae-b303-1536579bb5c3&projectId=a0a8f18c-a66e-4ba7-a170-23efbdc67501","C02A0EE816C14BE1AC96AAB736D2B84E-2024-11-24-18-33-35","","1632","","<p style=""font-size:48px; color:red;"">Is Microphone OK?</p>","1","",""
"","","","","","instructions","7","79987","0.0-5.0","C02A0EE816C14BE1AC96AAB736D2B84E","C02A0EE816C14BE1AC96AAB736D2B84E","844b6a57-4f65-42ae-b303-1536579bb5c3","a0a8f18c-a66e-4ba7-a170-23efbdc67501","{""participantId"":""C02A0EE816C14BE1AC96AAB736D2B84E"",""assignmentId"":""844b6a57-4f65-42ae-b303-1536579bb5c3"",""projectId"":""a0a8f18c-a66e-4ba7-a170-23efbdc67501""}","https://test12345.live/?participantId=C02A0EE816C14BE1AC96AAB736D2B84E&assignmentId=844b6a57-4f65-42ae-b303-1536579bb5c3&projectId=a0a8f18c-a66e-4ba7-a170-23efbdc67501","C02A0EE816C14BE1AC96AAB736D2B84E-2024-11-24-18-33-35","[{""page_index"":0,""viewing_time"":4943},{""page_index"":1,""viewing_time"":8146}]","13089","","","","",""
"","","","","","image-button-response","8","86003","0.0-6.0-0.0","C02A0EE816C14BE1AC96AAB736D2B84E","C02A0EE816C14BE1AC96AAB736D2B84E","844b6a57-4f65-42ae-b303-1536579bb5c3","a0a8f18c-a66e-4ba7-a170-23efbdc67501","{""participantId"":""C02A0EE816C14BE1AC96AAB736D2B84E"",""assignmentId"":""844b6a57-4f65-42ae-b303-1536579bb5c3"",""projectId"":""a0a8f18c-a66e-4ba7-a170-23efbdc67501""}","https://test12345.live/?participantId=C02A0EE816C14BE1AC96AAB736D2B84E&assignmentId=844b6a57-4f65-42ae-b303-1536579bb5c3&projectId=a0a8f18c-a66e-4ba7-a170-23efbdc67501","C02A0EE816C14BE1AC96AAB736D2B84E-2024-11-24-18-33-35","","null","","images/instructions/movie_0.png","null","",""
"","","","","","image-button-response","9","90521","0.0-6.0-1.0-0.0","C02A0EE816C14BE1AC96AAB736D2B84E","C02A0EE816C14BE1AC96AAB736D2B84E","844b6a57-4f65-42ae-b303-1536579bb5c3","a0a8f18c-a66e-4ba7-a170-23efbdc67501","{""participantId"":""C02A0EE816C14BE1AC96AAB736D2B84E"",""assignmentId"":""844b6a57-4f65-42ae-b303-1536579bb5c3"",""projectId"":""a0a8f18c-a66e-4ba7-a170-23efbdc67501""}","https://test12345.live/?participantId=C02A0EE816C14BE1AC96AAB736D2B84E&assignmentId=844b6a57-4f65-42ae-b303-1536579bb5c3&projectId=a0a8f18c-a66e-4ba7-a170-23efbdc67501","C02A0EE816C14BE1AC96AAB736D2B84E-2024-11-24-18-33-35","","null","","images/instructions/movie_1.png","null","",""
"","","","","","image-button-response","10","93045","0.0-6.0-1.0-1.0","C02A0EE816C14BE1AC96AAB736D2B84E","C02A0EE816C14BE1AC96AAB736D2B84E","844b6a57-4f65-42ae-b303-1536579bb5c3","a0a8f18c-a66e-4ba7-a170-23efbdc67501","{""participantId"":""C02A0EE816C14BE1AC96AAB736D2B84E"",""assignmentId"":""844b6a57-4f65-42ae-b303-1536579bb5c3"",""projectId"":""a0a8f18c-a66e-4ba7-a170-23efbdc67501""}","https://test12345.live/?participantId=C02A0EE816C14BE1AC96AAB736D2B84E&assignmentId=844b6a57-4f65-42ae-b303-1536579bb5c3&projectId=a0a8f18c-a66e-4ba7-a170-23efbdc67501","C02A0EE816C14BE1AC96AAB736D2B84E-2024-11-24-18-33-35","","2522","","images/instructions/movie_1.png","0","",""
"","","","","","image-button-response","11","94851","0.0-6.0-1.0-2.0","C02A0EE816C14BE1AC96AAB736D2B84E","C02A0EE816C14BE1AC96AAB736D2B84E","844b6a57-4f65-42ae-b303-1536579bb5c3","a0a8f18c-a66e-4ba7-a170-23efbdc67501","{""participantId"":""C02A0EE816C14BE1AC96AAB736D2B84E"",""assignmentId"":""844b6a57-4f65-42ae-b303-1536579bb5c3"",""projectId"":""a0a8f18c-a66e-4ba7-a170-23efbdc67501""}","https://test12345.live/?participantId=C02A0EE816C14BE1AC96AAB736D2B84E&assignmentId=844b6a57-4f65-42ae-b303-1536579bb5c3&projectId=a0a8f18c-a66e-4ba7-a170-23efbdc67501","C02A0EE816C14BE1AC96AAB736D2B84E-2024-11-24-18-33-35","","null","","[]","null","",""
"","","","","","image-button-response","12","99358","0.0-6.0-1.0-0.1","C02A0EE816C14BE1AC96AAB736D2B84E","C02A0EE816C14BE1AC96AAB736D2B84E","844b6a57-4f65-42ae-b303-1536579bb5c3","a0a8f18c-a66e-4ba7-a170-23efbdc67501","{""participantId"":""C02A0EE816C14BE1AC96AAB736D2B84E"",""assignmentId"":""844b6a57-4f65-42ae-b303-1536579bb5c3"",""projectId"":""a0a8f18c-a66e-4ba7-a170-23efbdc67501""}","https://test12345.live/?participantId=C02A0EE816C14BE1AC96AAB736D2B84E&assignmentId=844b6a57-4f65-42ae-b303-1536579bb5c3&projectId=a0a8f18c-a66e-4ba7-a170-23efbdc67501","C02A0EE816C14BE1AC96AAB736D2B84E-2024-11-24-18-33-35","","null","","images/instructions/movie_2.png","null","",""
"","","","","","image-button-response","13","102693","0.0-6.0-1.0-1.1","C02A0EE816C14BE1AC96AAB736D2B84E","C02A0EE816C14BE1AC96AAB736D2B84E","844b6a57-4f65-42ae-b303-1536579bb5c3","a0a8f18c-a66e-4ba7-a170-23efbdc67501","{""participantId"":""C02A0EE816C14BE1AC96AAB736D2B84E"",""assignmentId"":""844b6a57-4f65-42ae-b303-1536579bb5c3"",""projectId"":""a0a8f18c-a66e-4ba7-a170-23efbdc67501""}","https://test12345.live/?participantId=C02A0EE816C14BE1AC96AAB736D2B84E&assignmentId=844b6a57-4f65-42ae-b303-1536579bb5c3&projectId=a0a8f18c-a66e-4ba7-a170-23efbdc67501","C02A0EE816C14BE1AC96AAB736D2B84E-2024-11-24-18-33-35","","3333","","images/instructions/movie_2.png","0","",""
"","","","","","image-button-response","14","104497","0.0-6.0-1.0-2.1","C02A0EE816C14BE1AC96AAB736D2B84E","C02A0EE816C14BE1AC96AAB736D2B84E","844b6a57-4f65-42ae-b303-1536579bb5c3","a0a8f18c-a66e-4ba7-a170-23efbdc67501","{""participantId"":""C02A0EE816C14BE1AC96AAB736D2B84E"",""assignmentId"":""844b6a57-4f65-42ae-b303-1536579bb5c3"",""projectId"":""a0a8f18c-a66e-4ba7-a170-23efbdc67501""}","https://test12345.live/?participantId=C02A0EE816C14BE1AC96AAB736D2B84E&assignmentId=844b6a57-4f65-42ae-b303-1536579bb5c3&projectId=a0a8f18c-a66e-4ba7-a170-23efbdc67501","C02A0EE816C14BE1AC96AAB736D2B84E-2024-11-24-18-33-35","","null","","[]","null","",""
"","","","","","image-button-response","15","109012","0.0-6.0-1.0-0.2","C02A0EE816C14BE1AC96AAB736D2B84E","C02A0EE816C14BE1AC96AAB736D2B84E","844b6a57-4f65-42ae-b303-1536579bb5c3","a0a8f18c-a66e-4ba7-a170-23efbdc67501","{""participantId"":""C02A0EE816C14BE1AC96AAB736D2B84E"",""assignmentId"":""844b6a57-4f65-42ae-b303-1536579bb5c3"",""projectId"":""a0a8f18c-a66e-4ba7-a170-23efbdc67501""}","https://test12345.live/?participantId=C02A0EE816C14BE1AC96AAB736D2B84E&assignmentId=844b6a57-4f65-42ae-b303-1536579bb5c3&projectId=a0a8f18c-a66e-4ba7-a170-23efbdc67501","C02A0EE816C14BE1AC96AAB736D2B84E-2024-11-24-18-33-35","","null","","images/instructions/movie_3.png","null","",""
"","","","","","image-button-response","16","111016","0.0-6.0-1.0-1.2","C02A0EE816C14BE1AC96AAB736D2B84E","C02A0EE816C14BE1AC96AAB736D2B84E","844b6a57-4f65-42ae-b303-1536579bb5c3","a0a8f18c-a66e-4ba7-a170-23efbdc67501","{""participantId"":""C02A0EE816C14BE1AC96AAB736D2B84E"",""assignmentId"":""844b6a57-4f65-42ae-b303-1536579bb5c3"",""projectId"":""a0a8f18c-a66e-4ba7-a170-23efbdc67501""}","https://test12345.live/?participantId=C02A0EE816C14BE1AC96AAB736D2B84E&assignmentId=844b6a57-4f65-42ae-b303-1536579bb5c3&projectId=a0a8f18c-a66e-4ba7-a170-23efbdc67501","C02A0EE816C14BE1AC96AAB736D2B84E-2024-11-24-18-33-35","","2001","","images/instructions/movie_3.png","0","",""
"","","","","","image-button-response","17","112825","0.0-6.0-1.0-2.2","C02A0EE816C14BE1AC96AAB736D2B84E","C02A0EE816C14BE1AC96AAB736D2B84E","844b6a57-4f65-42ae-b303-1536579bb5c3","a0a8f18c-a66e-4ba7-a170-23efbdc67501","{""participantId"":""C02A0EE816C14BE1AC96AAB736D2B84E"",""assignmentId"":""844b6a57-4f65-42ae-b303-1536579bb5c3"",""projectId"":""a0a8f18c-a66e-4ba7-a170-23efbdc67501""}","https://test12345.live/?participantId=C02A0EE816C14BE1AC96AAB736D2B84E&assignmentId=844b6a57-4f65-42ae-b303-1536579bb5c3&projectId=a0a8f18c-a66e-4ba7-a170-23efbdc67501","C02A0EE816C14BE1AC96AAB736D2B84E-2024-11-24-18-33-35","","null","","[]","null","",""
"","","","","","image-button-response","18","117359","0.0-6.0-1.0-0.3","C02A0EE816C14BE1AC96AAB736D2B84E","C02A0EE816C14BE1AC96AAB736D2B84E","844b6a57-4f65-42ae-b303-1536579bb5c3","a0a8f18c-a66e-4ba7-a170-23efbdc67501","{""participantId"":""C02A0EE816C14BE1AC96AAB736D2B84E"",""assignmentId"":""844b6a57-4f65-42ae-b303-1536579bb5c3"",""projectId"":""a0a8f18c-a66e-4ba7-a170-23efbdc67501""}","https://test12345.live/?participantId=C02A0EE816C14BE1AC96AAB736D2B84E&assignmentId=844b6a57-4f65-42ae-b303-1536579bb5c3&projectId=a0a8f18c-a66e-4ba7-a170-23efbdc67501","C02A0EE816C14BE1AC96AAB736D2B84E-2024-11-24-18-33-35","","null","","images/instructions/movie_4.png","null","",""
"","","","","","image-button-response","19","119215","0.0-6.0-1.0-1.3","C02A0EE816C14BE1AC96AAB736D2B84E","C02A0EE816C14BE1AC96AAB736D2B84E","844b6a57-4f65-42ae-b303-1536579bb5c3","a0a8f18c-a66e-4ba7-a170-23efbdc67501","{""participantId"":""C02A0EE816C14BE1AC96AAB736D2B84E"",""assignmentId"":""844b6a57-4f65-42ae-b303-1536579bb5c3"",""projectId"":""a0a8f18c-a66e-4ba7-a170-23efbdc67501""}","https://test12345.live/?participantId=C02A0EE816C14BE1AC96AAB736D2B84E&assignmentId=844b6a57-4f65-42ae-b303-1536579bb5c3&projectId=a0a8f18c-a66e-4ba7-a170-23efbdc67501","C02A0EE816C14BE1AC96AAB736D2B84E-2024-11-24-18-33-35","","1854","","images/instructions/movie_4.png","0","",""
"","","","","","image-button-response","20","121025","0.0-6.0-1.0-2.3","C02A0EE816C14BE1AC96AAB736D2B84E","C02A0EE816C14BE1AC96AAB736D2B84E","844b6a57-4f65-42ae-b303-1536579bb5c3","a0a8f18c-a66e-4ba7-a170-23efbdc67501","{""participantId"":""C02A0EE816C14BE1AC96AAB736D2B84E"",""assignmentId"":""844b6a57-4f65-42ae-b303-1536579bb5c3"",""projectId"":""a0a8f18c-a66e-4ba7-a170-23efbdc67501""}","https://test12345.live/?participantId=C02A0EE816C14BE1AC96AAB736D2B84E&assignmentId=844b6a57-4f65-42ae-b303-1536579bb5c3&projectId=a0a8f18c-a66e-4ba7-a170-23efbdc67501","C02A0EE816C14BE1AC96AAB736D2B84E-2024-11-24-18-33-35","","null","","[]","null","",""
"","","","","","instructions","21","129441","0.0-7.0","C02A0EE816C14BE1AC96AAB736D2B84E","C02A0EE816C14BE1AC96AAB736D2B84E","844b6a57-4f65-42ae-b303-1536579bb5c3","a0a8f18c-a66e-4ba7-a170-23efbdc67501","{""participantId"":""C02A0EE816C14BE1AC96AAB736D2B84E"",""assignmentId"":""844b6a57-4f65-42ae-b303-1536579bb5c3"",""projectId"":""a0a8f18c-a66e-4ba7-a170-23efbdc67501""}","https://test12345.live/?participantId=C02A0EE816C14BE1AC96AAB736D2B84E&assignmentId=844b6a57-4f65-42ae-b303-1536579bb5c3&projectId=a0a8f18c-a66e-4ba7-a170-23efbdc67501","C02A0EE816C14BE1AC96AAB736D2B84E-2024-11-24-18-33-35","[{""page_index"":0,""viewing_time"":6289},{""page_index"":1,""viewing_time"":2126}]","8415","","","","",""
"","","","","","html-audio-response","22","156277","0.0-8.0","C02A0EE816C14BE1AC96AAB736D2B84E","C02A0EE816C14BE1AC96AAB736D2B84E","844b6a57-4f65-42ae-b303-1536579bb5c3","a0a8f18c-a66e-4ba7-a170-23efbdc67501","{""participantId"":""C02A0EE816C14BE1AC96AAB736D2B84E"",""assignmentId"":""844b6a57-4f65-42ae-b303-1536579bb5c3"",""projectId"":""a0a8f18c-a66e-4ba7-a170-23efbdc67501""}","https://test12345.live/?participantId=C02A0EE816C14BE1AC96AAB736D2B84E&assignmentId=844b6a57-4f65-42ae-b303-1536579bb5c3&projectId=a0a8f18c-a66e-4ba7-a170-23efbdc67501","C02A0EE816C14BE1AC96AAB736D2B84E-2024-11-24-18-33-35","","16162","","[""<span style=\""color: red; font-size: 24px\""> NOW RECORDING</span><p>Please say out loud all the images you saw, as many as you can remember. The images can be said in any order.</p>""]","","1",""
"","","","","","instructions","23","161960","0.0-9.0","C02A0EE816C14BE1AC96AAB736D2B84E","C02A0EE816C14BE1AC96AAB736D2B84E","844b6a57-4f65-42ae-b303-1536579bb5c3","a0a8f18c-a66e-4ba7-a170-23efbdc67501","{""participantId"":""C02A0EE816C14BE1AC96AAB736D2B84E"",""assignmentId"":""844b6a57-4f65-42ae-b303-1536579bb5c3"",""projectId"":""a0a8f18c-a66e-4ba7-a170-23efbdc67501""}","https://test12345.live/?participantId=C02A0EE816C14BE1AC96AAB736D2B84E&assignmentId=844b6a57-4f65-42ae-b303-1536579bb5c3&projectId=a0a8f18c-a66e-4ba7-a170-23efbdc67501","C02A0EE816C14BE1AC96AAB736D2B84E-2024-11-24-18-33-35","[{""page_index"":0,""viewing_time"":5679}]","5679","","","","",""
"","","","","","image-button-response","24","167965","0.0-10.0-0.0","C02A0EE816C14BE1AC96AAB736D2B84E","C02A0EE816C14BE1AC96AAB736D2B84E","844b6a57-4f65-42ae-b303-1536579bb5c3","a0a8f18c-a66e-4ba7-a170-23efbdc67501","{""participantId"":""C02A0EE816C14BE1AC96AAB736D2B84E"",""assignmentId"":""844b6a57-4f65-42ae-b303-1536579bb5c3"",""projectId"":""a0a8f18c-a66e-4ba7-a170-23efbdc67501""}","https://test12345.live/?participantId=C02A0EE816C14BE1AC96AAB736D2B84E&assignmentId=844b6a57-4f65-42ae-b303-1536579bb5c3&projectId=a0a8f18c-a66e-4ba7-a170-23efbdc67501","C02A0EE816C14BE1AC96AAB736D2B84E-2024-11-24-18-33-35","","null","","images/schematic_sequence/restaurant_scheme/restaurant_scheme_0.png","null","",""
"","","","","","image-button-response","25","172472","0.0-10.0-1.0-0.0","C02A0EE816C14BE1AC96AAB736D2B84E","C02A0EE816C14BE1AC96AAB736D2B84E","844b6a57-4f65-42ae-b303-1536579bb5c3","a0a8f18c-a66e-4ba7-a170-23efbdc67501","{""participantId"":""C02A0EE816C14BE1AC96AAB736D2B84E"",""assignmentId"":""844b6a57-4f65-42ae-b303-1536579bb5c3"",""projectId"":""a0a8f18c-a66e-4ba7-a170-23efbdc67501""}","https://test12345.live/?participantId=C02A0EE816C14BE1AC96AAB736D2B84E&assignmentId=844b6a57-4f65-42ae-b303-1536579bb5c3&projectId=a0a8f18c-a66e-4ba7-a170-23efbdc67501","C02A0EE816C14BE1AC96AAB736D2B84E-2024-11-24-18-33-35","","null","","images/schematic_sequence/restaurant_scheme/restaurant_scheme_1.png","null","",""
"","","","","","image-button-response","26","174012","0.0-10.0-1.0-1.0","C02A0EE816C14BE1AC96AAB736D2B84E","C02A0EE816C14BE1AC96AAB736D2B84E","844b6a57-4f65-42ae-b303-1536579bb5c3","a0a8f18c-a66e-4ba7-a170-23efbdc67501","{""participantId"":""C02A0EE816C14BE1AC96AAB736D2B84E"",""assignmentId"":""844b6a57-4f65-42ae-b303-1536579bb5c3"",""projectId"":""a0a8f18c-a66e-4ba7-a170-23efbdc67501""}","https://test12345.live/?participantId=C02A0EE816C14BE1AC96AAB736D2B84E&assignmentId=844b6a57-4f65-42ae-b303-1536579bb5c3&projectId=a0a8f18c-a66e-4ba7-a170-23efbdc67501","C02A0EE816C14BE1AC96AAB736D2B84E-2024-11-24-18-33-35","","1538","","images/schematic_sequence/restaurant_scheme/restaurant_scheme_1.png","0","",""
"","","","","","image-button-response","27","175818","0.0-10.0-1.0-2.0","C02A0EE816C14BE1AC96AAB736D2B84E","C02A0EE816C14BE1AC96AAB736D2B84E","844b6a57-4f65-42ae-b303-1536579bb5c3","a0a8f18c-a66e-4ba7-a170-23efbdc67501","{""participantId"":""C02A0EE816C14BE1AC96AAB736D2B84E"",""assignmentId"":""844b6a57-4f65-42ae-b303-1536579bb5c3"",""projectId"":""a0a8f18c-a66e-4ba7-a170-23efbdc67501""}","https://test12345.live/?participantId=C02A0EE816C14BE1AC96AAB736D2B84E&assignmentId=844b6a57-4f65-42ae-b303-1536579bb5c3&projectId=a0a8f18c-a66e-4ba7-a170-23efbdc67501","C02A0EE816C14BE1AC96AAB736D2B84E-2024-11-24-18-33-35","","null","","[]","null","",""
"","","","","","image-button-response","28","180331","0.0-10.0-1.0-0.1","C02A0EE816C14BE1AC96AAB736D2B84E","C02A0EE816C14BE1AC96AAB736D2B84E","844b6a57-4f65-42ae-b303-1536579bb5c3","a0a8f18c-a66e-4ba7-a170-23efbdc67501","{""participantId"":""C02A0EE816C14BE1AC96AAB736D2B84E"",""assignmentId"":""844b6a57-4f65-42ae-b303-1536579bb5c3"",""projectId"":""a0a8f18c-a66e-4ba7-a170-23efbdc67501""}","https://test12345.live/?participantId=C02A0EE816C14BE1AC96AAB736D2B84E&assignmentId=844b6a57-4f65-42ae-b303-1536579bb5c3&projectId=a0a8f18c-a66e-4ba7-a170-23efbdc67501","C02A0EE816C14BE1AC96AAB736D2B84E-2024-11-24-18-33-35","","null","","images/schematic_sequence/restaurant_scheme/restaurant_scheme_2.png","null","",""
"","","","","","image-button-response","29","182171","0.0-10.0-1.0-1.1","C02A0EE816C14BE1AC96AAB736D2B84E","C02A0EE816C14BE1AC96AAB736D2B84E","844b6a57-4f65-42ae-b303-1536579bb5c3","a0a8f18c-a66e-4ba7-a170-23efbdc67501","{""participantId"":""C02A0EE816C14BE1AC96AAB736D2B84E"",""assignmentId"":""844b6a57-4f65-42ae-b303-1536579bb5c3"",""projectId"":""a0a8f18c-a66e-4ba7-a170-23efbdc67501""}","https://test12345.live/?participantId=C02A0EE816C14BE1AC96AAB736D2B84E&assignmentId=844b6a57-4f65-42ae-b303-1536579bb5c3&projectId=a0a8f18c-a66e-4ba7-a170-23efbdc67501","C02A0EE816C14BE1AC96AAB736D2B84E-2024-11-24-18-33-35","","1838","","images/schematic_sequence/restaurant_scheme/restaurant_scheme_2.png","1","",""
"","","","","","image-button-response","30","183986","0.0-10.0-1.0-2.1","C02A0EE816C14BE1AC96AAB736D2B84E","C02A0EE816C14BE1AC96AAB736D2B84E","844b6a57-4f65-42ae-b303-1536579bb5c3","a0a8f18c-a66e-4ba7-a170-23efbdc67501","{""participantId"":""C02A0EE816C14BE1AC96AAB736D2B84E"",""assignmentId"":""844b6a57-4f65-42ae-b303-1536579bb5c3"",""projectId"":""a0a8f18c-a66e-4ba7-a170-23efbdc67501""}","https://test12345.live/?participantId=C02A0EE816C14BE1AC96AAB736D2B84E&assignmentId=844b6a57-4f65-42ae-b303-1536579bb5c3&projectId=a0a8f18c-a66e-4ba7-a170-23efbdc67501","C02A0EE816C14BE1AC96AAB736D2B84E-2024-11-24-18-33-35","","null","","[]","null","",""
"","","","","","image-button-response","31","188491","0.0-10.0-1.0-0.2","C02A0EE816C14BE1AC96AAB736D2B84E","C02A0EE816C14BE1AC96AAB736D2B84E","844b6a57-4f65-42ae-b303-1536579bb5c3","a0a8f18c-a66e-4ba7-a170-23efbdc67501","{""participantId"":""C02A0EE816C14BE1AC96AAB736D2B84E"",""assignmentId"":""844b6a57-4f65-42ae-b303-1536579bb5c3"",""projectId"":""a0a8f18c-a66e-4ba7-a170-23efbdc67501""}","https://test12345.live/?participantId=C02A0EE816C14BE1AC96AAB736D2B84E&assignmentId=844b6a57-4f65-42ae-b303-1536579bb5c3&projectId=a0a8f18c-a66e-4ba7-a170-23efbdc67501","C02A0EE816C14BE1AC96AAB736D2B84E-2024-11-24-18-33-35","","null","","images/schematic_sequence/restaurant_scheme/restaurant_scheme_3.png","null","",""
"","","","","","image-button-response","32","192509","0.0-10.0-1.0-1.2","C02A0EE816C14BE1AC96AAB736D2B84E","C02A0EE816C14BE1AC96AAB736D2B84E","844b6a57-4f65-42ae-b303-1536579bb5c3","a0a8f18c-a66e-4ba7-a170-23efbdc67501","{""participantId"":""C02A0EE816C14BE1AC96AAB736D2B84E"",""assignmentId"":""844b6a57-4f65-42ae-b303-1536579bb5c3"",""projectId"":""a0a8f18c-a66e-4ba7-a170-23efbdc67501""}","https://test12345.live/?participantId=C02A0EE816C14BE1AC96AAB736D2B84E&assignmentId=844b6a57-4f65-42ae-b303-1536579bb5c3&projectId=a0a8f18c-a66e-4ba7-a170-23efbdc67501","C02A0EE816C14BE1AC96AAB736D2B84E-2024-11-24-18-33-35","","null","","images/schematic_sequence/restaurant_scheme/restaurant_scheme_3.png","null","",""
"","","","","","image-button-response","33","194317","0.0-10.0-1.0-2.2","C02A0EE816C14BE1AC96AAB736D2B84E","C02A0EE816C14BE1AC96AAB736D2B84E","844b6a57-4f65-42ae-b303-1536579bb5c3","a0a8f18c-a66e-4ba7-a170-23efbdc67501","{""participantId"":""C02A0EE816C14BE1AC96AAB736D2B84E"",""assignmentId"":""844b6a57-4f65-42ae-b303-1536579bb5c3"",""projectId"":""a0a8f18c-a66e-4ba7-a170-23efbdc67501""}","https://test12345.live/?participantId=C02A0EE816C14BE1AC96AAB736D2B84E&assignmentId=844b6a57-4f65-42ae-b303-1536579bb5c3&projectId=a0a8f18c-a66e-4ba7-a170-23efbdc67501","C02A0EE816C14BE1AC96AAB736D2B84E-2024-11-24-18-33-35","","null","","[]","null","",""
"","","","","","image-button-response","34","198820","0.0-10.0-1.0-0.3","C02A0EE816C14BE1AC96AAB736D2B84E","C02A0EE816C14BE1AC96AAB736D2B84E","844b6a57-4f65-42ae-b303-1536579bb5c3","a0a8f18c-a66e-4ba7-a170-23efbdc67501","{""participantId"":""C02A0EE816C14BE1AC96AAB736D2B84E"",""assignmentId"":""844b6a57-4f65-42ae-b303-1536579bb5c3"",""projectId"":""a0a8f18c-a66e-4ba7-a170-23efbdc67501""}","https://test12345.live/?participantId=C02A0EE816C14BE1AC96AAB736D2B84E&assignmentId=844b6a57-4f65-42ae-b303-1536579bb5c3&projectId=a0a8f18c-a66e-4ba7-a170-23efbdc67501","C02A0EE816C14BE1AC96AAB736D2B84E-2024-11-24-18-33-35","","null","","images/schematic_sequence/restaurant_scheme/restaurant_scheme_4.png","null","",""
"","","","","","image-button-response","35","199998","0.0-10.0-1.0-1.3","C02A0EE816C14BE1AC96AAB736D2B84E","C02A0EE816C14BE1AC96AAB736D2B84E","844b6a57-4f65-42ae-b303-1536579bb5c3","a0a8f18c-a66e-4ba7-a170-23efbdc67501","{""participantId"":""C02A0EE816C14BE1AC96AAB736D2B84E"",""assignmentId"":""844b6a57-4f65-42ae-b303-1536579bb5c3"",""projectId"":""a0a8f18c-a66e-4ba7-a170-23efbdc67501""}","https://test12345.live/?participantId=C02A0EE816C14BE1AC96AAB736D2B84E&assignmentId=844b6a57-4f65-42ae-b303-1536579bb5c3&projectId=a0a8f18c-a66e-4ba7-a170-23efbdc67501","C02A0EE816C14BE1AC96AAB736D2B84E-2024-11-24-18-33-35","","1176","","images/schematic_sequence/restaurant_scheme/restaurant_scheme_4.png","0","",""
"","","","","","image-button-response","36","201814","0.0-10.0-1.0-2.3","C02A0EE816C14BE1AC96AAB736D2B84E","C02A0EE816C14BE1AC96AAB736D2B84E","844b6a57-4f65-42ae-b303-1536579bb5c3","a0a8f18c-a66e-4ba7-a170-23efbdc67501","{""participantId"":""C02A0EE816C14BE1AC96AAB736D2B84E"",""assignmentId"":""844b6a57-4f65-42ae-b303-1536579bb5c3"",""projectId"":""a0a8f18c-a66e-4ba7-a170-23efbdc67501""}","https://test12345.live/?participantId=C02A0EE816C14BE1AC96AAB736D2B84E&assignmentId=844b6a57-4f65-42ae-b303-1536579bb5c3&projectId=a0a8f18c-a66e-4ba7-a170-23efbdc67501","C02A0EE816C14BE1AC96AAB736D2B84E-2024-11-24-18-33-35","","null","","[]","null","",""
"","","","","","image-button-response","37","206332","0.0-10.0-1.0-0.4","C02A0EE816C14BE1AC96AAB736D2B84E","C02A0EE816C14BE1AC96AAB736D2B84E","844b6a57-4f65-42ae-b303-1536579bb5c3","a0a8f18c-a66e-4ba7-a170-23efbdc67501","{""participantId"":""C02A0EE816C14BE1AC96AAB736D2B84E"",""assignmentId"":""844b6a57-4f65-42ae-b303-1536579bb5c3"",""projectId"":""a0a8f18c-a66e-4ba7-a170-23efbdc67501""}","https://test12345.live/?participantId=C02A0EE816C14BE1AC96AAB736D2B84E&assignmentId=844b6a57-4f65-42ae-b303-1536579bb5c3&projectId=a0a8f18c-a66e-4ba7-a170-23efbdc67501","C02A0EE816C14BE1AC96AAB736D2B84E-2024-11-24-18-33-35","","null","","images/schematic_sequence/restaurant_scheme/restaurant_scheme_5.png","null","",""
"","","","","","image-button-response","38","207325","0.0-10.0-1.0-1.4","C02A0EE816C14BE1AC96AAB736D2B84E","C02A0EE816C14BE1AC96AAB736D2B84E","844b6a57-4f65-42ae-b303-1536579bb5c3","a0a8f18c-a66e-4ba7-a170-23efbdc67501","{""participantId"":""C02A0EE816C14BE1AC96AAB736D2B84E"",""assignmentId"":""844b6a57-4f65-42ae-b303-1536579bb5c3"",""projectId"":""a0a8f18c-a66e-4ba7-a170-23efbdc67501""}","https://test12345.live/?participantId=C02A0EE816C14BE1AC96AAB736D2B84E&assignmentId=844b6a57-4f65-42ae-b303-1536579bb5c3&projectId=a0a8f18c-a66e-4ba7-a170-23efbdc67501","C02A0EE816C14BE1AC96AAB736D2B84E-2024-11-24-18-33-35","","991","","images/schematic_sequence/restaurant_scheme/restaurant_scheme_5.png","0","",""
"","","","","","image-button-response","39","209128","0.0-10.0-1.0-2.4","C02A0EE816C14BE1AC96AAB736D2B84E","C02A0EE816C14BE1AC96AAB736D2B84E","844b6a57-4f65-42ae-b303-1536579bb5c3","a0a8f18c-a66e-4ba7-a170-23efbdc67501","{""participantId"":""C02A0EE816C14BE1AC96AAB736D2B84E"",""assignmentId"":""844b6a57-4f65-42ae-b303-1536579bb5c3"",""projectId"":""a0a8f18c-a66e-4ba7-a170-23efbdc67501""}","https://test12345.live/?participantId=C02A0EE816C14BE1AC96AAB736D2B84E&assignmentId=844b6a57-4f65-42ae-b303-1536579bb5c3&projectId=a0a8f18c-a66e-4ba7-a170-23efbdc67501","C02A0EE816C14BE1AC96AAB736D2B84E-2024-11-24-18-33-35","","null","","[]","null","",""
"","","","","","image-button-response","40","213629","0.0-10.0-1.0-0.5","C02A0EE816C14BE1AC96AAB736D2B84E","C02A0EE816C14BE1AC96AAB736D2B84E","844b6a57-4f65-42ae-b303-1536579bb5c3","a0a8f18c-a66e-4ba7-a170-23efbdc67501","{""participantId"":""C02A0EE816C14BE1AC96AAB736D2B84E"",""assignmentId"":""844b6a57-4f65-42ae-b303-1536579bb5c3"",""projectId"":""a0a8f18c-a66e-4ba7-a170-23efbdc67501""}","https://test12345.live/?participantId=C02A0EE816C14BE1AC96AAB736D2B84E&assignmentId=844b6a57-4f65-42ae-b303-1536579bb5c3&projectId=a0a8f18c-a66e-4ba7-a170-23efbdc67501","C02A0EE816C14BE1AC96AAB736D2B84E-2024-11-24-18-33-35","","null","","images/schematic_sequence/restaurant_scheme/restaurant_scheme_6.png","null","",""
"","","","","","image-button-response","41","214974","0.0-10.0-1.0-1.5","C02A0EE816C14BE1AC96AAB736D2B84E","C02A0EE816C14BE1AC96AAB736D2B84E","844b6a57-4f65-42ae-b303-1536579bb5c3","a0a8f18c-a66e-4ba7-a170-23efbdc67501","{""participantId"":""C02A0EE816C14BE1AC96AAB736D2B84E"",""assignmentId"":""844b6a57-4f65-42ae-b303-1536579bb5c3"",""projectId"":""a0a8f18c-a66e-4ba7-a170-23efbdc67501""}","https://test12345.live/?participantId=C02A0EE816C14BE1AC96AAB736D2B84E&assignmentId=844b6a57-4f65-42ae-b303-1536579bb5c3&projectId=a0a8f18c-a66e-4ba7-a170-23efbdc67501","C02A0EE816C14BE1AC96AAB736D2B84E-2024-11-24-18-33-35","","1343","","images/schematic_sequence/restaurant_scheme/restaurant_scheme_6.png","1","",""
"","","","","","image-button-response","42","216783","0.0-10.0-1.0-2.5","C02A0EE816C14BE1AC96AAB736D2B84E","C02A0EE816C14BE1AC96AAB736D2B84E","844b6a57-4f65-42ae-b303-1536579bb5c3","a0a8f18c-a66e-4ba7-a170-23efbdc67501","{""participantId"":""C02A0EE816C14BE1AC96AAB736D2B84E"",""assignmentId"":""844b6a57-4f65-42ae-b303-1536579bb5c3"",""projectId"":""a0a8f18c-a66e-4ba7-a170-23efbdc67501""}","https://test12345.live/?participantId=C02A0EE816C14BE1AC96AAB736D2B84E&assignmentId=844b6a57-4f65-42ae-b303-1536579bb5c3&projectId=a0a8f18c-a66e-4ba7-a170-23efbdc67501","C02A0EE816C14BE1AC96AAB736D2B84E-2024-11-24-18-33-35","","null","","[]","null","",""
"","","","","","image-button-response","43","221291","0.0-10.0-1.0-0.6","C02A0EE816C14BE1AC96AAB736D2B84E","C02A0EE816C14BE1AC96AAB736D2B84E","844b6a57-4f65-42ae-b303-1536579bb5c3","a0a8f18c-a66e-4ba7-a170-23efbdc67501","{""participantId"":""C02A0EE816C14BE1AC96AAB736D2B84E"",""assignmentId"":""844b6a57-4f65-42ae-b303-1536579bb5c3"",""projectId"":""a0a8f18c-a66e-4ba7-a170-23efbdc67501""}","https://test12345.live/?participantId=C02A0EE816C14BE1AC96AAB736D2B84E&assignmentId=844b6a57-4f65-42ae-b303-1536579bb5c3&projectId=a0a8f18c-a66e-4ba7-a170-23efbdc67501","C02A0EE816C14BE1AC96AAB736D2B84E-2024-11-24-18-33-35","","null","","images/schematic_sequence/restaurant_scheme/restaurant_scheme_7.png","null","",""
"","","","","","image-button-response","44","222601","0.0-10.0-1.0-1.6","C02A0EE816C14BE1AC96AAB736D2B84E","C02A0EE816C14BE1AC96AAB736D2B84E","844b6a57-4f65-42ae-b303-1536579bb5c3","a0a8f18c-a66e-4ba7-a170-23efbdc67501","{""participantId"":""C02A0EE816C14BE1AC96AAB736D2B84E"",""assignmentId"":""844b6a57-4f65-42ae-b303-1536579bb5c3"",""projectId"":""a0a8f18c-a66e-4ba7-a170-23efbdc67501""}","https://test12345.live/?participantId=C02A0EE816C14BE1AC96AAB736D2B84E&assignmentId=844b6a57-4f65-42ae-b303-1536579bb5c3&projectId=a0a8f18c-a66e-4ba7-a170-23efbdc67501","C02A0EE816C14BE1AC96AAB736D2B84E-2024-11-24-18-33-35","","1308","","images/schematic_sequence/restaurant_scheme/restaurant_scheme_7.png","1","",""
"","","","","","image-button-response","45","224406","0.0-10.0-1.0-2.6","C02A0EE816C14BE1AC96AAB736D2B84E","C02A0EE816C14BE1AC96AAB736D2B84E","844b6a57-4f65-42ae-b303-1536579bb5c3","a0a8f18c-a66e-4ba7-a170-23efbdc67501","{""participantId"":""C02A0EE816C14BE1AC96AAB736D2B84E"",""assignmentId"":""844b6a57-4f65-42ae-b303-1536579bb5c3"",""projectId"":""a0a8f18c-a66e-4ba7-a170-23efbdc67501""}","https://test12345.live/?participantId=C02A0EE816C14BE1AC96AAB736D2B84E&assignmentId=844b6a57-4f65-42ae-b303-1536579bb5c3&projectId=a0a8f18c-a66e-4ba7-a170-23efbdc67501","C02A0EE816C14BE1AC96AAB736D2B84E-2024-11-24-18-33-35","","null","","[]","null","",""
"","","","","","image-button-response","46","228915","0.0-10.0-1.0-0.7","C02A0EE816C14BE1AC96AAB736D2B84E","C02A0EE816C14BE1AC96AAB736D2B84E","844b6a57-4f65-42ae-b303-1536579bb5c3","a0a8f18c-a66e-4ba7-a170-23efbdc67501","{""participantId"":""C02A0EE816C14BE1AC96AAB736D2B84E"",""assignmentId"":""844b6a57-4f65-42ae-b303-1536579bb5c3"",""projectId"":""a0a8f18c-a66e-4ba7-a170-23efbdc67501""}","https://test12345.live/?participantId=C02A0EE816C14BE1AC96AAB736D2B84E&assignmentId=844b6a57-4f65-42ae-b303-1536579bb5c3&projectId=a0a8f18c-a66e-4ba7-a170-23efbdc67501","C02A0EE816C14BE1AC96AAB736D2B84E-2024-11-24-18-33-35","","null","","images/schematic_sequence/restaurant_scheme/restaurant_scheme_8.png","null","",""
"","","","","","image-button-response","47","229788","0.0-10.0-1.0-1.7","C02A0EE816C14BE1AC96AAB736D2B84E","C02A0EE816C14BE1AC96AAB736D2B84E","844b6a57-4f65-42ae-b303-1536579bb5c3","a0a8f18c-a66e-4ba7-a170-23efbdc67501","{""participantId"":""C02A0EE816C14BE1AC96AAB736D2B84E"",""assignmentId"":""844b6a57-4f65-42ae-b303-1536579bb5c3"",""projectId"":""a0a8f18c-a66e-4ba7-a170-23efbdc67501""}","https://test12345.live/?participantId=C02A0EE816C14BE1AC96AAB736D2B84E&assignmentId=844b6a57-4f65-42ae-b303-1536579bb5c3&projectId=a0a8f18c-a66e-4ba7-a170-23efbdc67501","C02A0EE816C14BE1AC96AAB736D2B84E-2024-11-24-18-33-35","","871","","images/schematic_sequence/restaurant_scheme/restaurant_scheme_8.png","0","",""
"","","","","","image-button-response","48","231595","0.0-10.0-1.0-2.7","C02A0EE816C14BE1AC96AAB736D2B84E","C02A0EE816C14BE1AC96AAB736D2B84E","844b6a57-4f65-42ae-b303-1536579bb5c3","a0a8f18c-a66e-4ba7-a170-23efbdc67501","{""participantId"":""C02A0EE816C14BE1AC96AAB736D2B84E"",""assignmentId"":""844b6a57-4f65-42ae-b303-1536579bb5c3"",""projectId"":""a0a8f18c-a66e-4ba7-a170-23efbdc67501""}","https://test12345.live/?participantId=C02A0EE816C14BE1AC96AAB736D2B84E&assignmentId=844b6a57-4f65-42ae-b303-1536579bb5c3&projectId=a0a8f18c-a66e-4ba7-a170-23efbdc67501","C02A0EE816C14BE1AC96AAB736D2B84E-2024-11-24-18-33-35","","null","","[]","null","",""
"","","","","","image-button-response","49","236096","0.0-10.0-1.0-0.8","C02A0EE816C14BE1AC96AAB736D2B84E","C02A0EE816C14BE1AC96AAB736D2B84E","844b6a57-4f65-42ae-b303-1536579bb5c3","a0a8f18c-a66e-4ba7-a170-23efbdc67501","{""participantId"":""C02A0EE816C14BE1AC96AAB736D2B84E"",""assignmentId"":""844b6a57-4f65-42ae-b303-1536579bb5c3"",""projectId"":""a0a8f18c-a66e-4ba7-a170-23efbdc67501""}","https://test12345.live/?participantId=C02A0EE816C14BE1AC96AAB736D2B84E&assignmentId=844b6a57-4f65-42ae-b303-1536579bb5c3&projectId=a0a8f18c-a66e-4ba7-a170-23efbdc67501","C02A0EE816C14BE1AC96AAB736D2B84E-2024-11-24-18-33-35","","null","","images/schematic_sequence/restaurant_scheme/restaurant_scheme_9.png","null","",""
"","","","","","image-button-response","50","237746","0.0-10.0-1.0-1.8","C02A0EE816C14BE1AC96AAB736D2B84E","C02A0EE816C14BE1AC96AAB736D2B84E","844b6a57-4f65-42ae-b303-1536579bb5c3","a0a8f18c-a66e-4ba7-a170-23efbdc67501","{""participantId"":""C02A0EE816C14BE1AC96AAB736D2B84E"",""assignmentId"":""844b6a57-4f65-42ae-b303-1536579bb5c3"",""projectId"":""a0a8f18c-a66e-4ba7-a170-23efbdc67501""}","https://test12345.live/?participantId=C02A0EE816C14BE1AC96AAB736D2B84E&assignmentId=844b6a57-4f65-42ae-b303-1536579bb5c3&projectId=a0a8f18c-a66e-4ba7-a170-23efbdc67501","C02A0EE816C14BE1AC96AAB736D2B84E-2024-11-24-18-33-35","","1648","","images/schematic_sequence/restaurant_scheme/restaurant_scheme_9.png","0","",""
"","","","","","image-button-response","51","239560","0.0-10.0-1.0-2.8","C02A0EE816C14BE1AC96AAB736D2B84E","C02A0EE816C14BE1AC96AAB736D2B84E","844b6a57-4f65-42ae-b303-1536579bb5c3","a0a8f18c-a66e-4ba7-a170-23efbdc67501","{""participantId"":""C02A0EE816C14BE1AC96AAB736D2B84E"",""assignmentId"":""844b6a57-4f65-42ae-b303-1536579bb5c3"",""projectId"":""a0a8f18c-a66e-4ba7-a170-23efbdc67501""}","https://test12345.live/?participantId=C02A0EE816C14BE1AC96AAB736D2B84E&assignmentId=844b6a57-4f65-42ae-b303-1536579bb5c3&projectId=a0a8f18c-a66e-4ba7-a170-23efbdc67501","C02A0EE816C14BE1AC96AAB736D2B84E-2024-11-24-18-33-35","","null","","[]","null","",""
"","","","","","image-button-response","52","244068","0.0-10.0-1.0-0.9","C02A0EE816C14BE1AC96AAB736D2B84E","C02A0EE816C14BE1AC96AAB736D2B84E","844b6a57-4f65-42ae-b303-1536579bb5c3","a0a8f18c-a66e-4ba7-a170-23efbdc67501","{""participantId"":""C02A0EE816C14BE1AC96AAB736D2B84E"",""assignmentId"":""844b6a57-4f65-42ae-b303-1536579bb5c3"",""projectId"":""a0a8f18c-a66e-4ba7-a170-23efbdc67501""}","https://test12345.live/?participantId=C02A0EE816C14BE1AC96AAB736D2B84E&assignmentId=844b6a57-4f65-42ae-b303-1536579bb5c3&projectId=a0a8f18c-a66e-4ba7-a170-23efbdc67501","C02A0EE816C14BE1AC96AAB736D2B84E-2024-11-24-18-33-35","","null","","images/schematic_sequence/restaurant_scheme/restaurant_scheme_ten.png","null","",""
"","","","","","image-button-response","53","245243","0.0-10.0-1.0-1.9","C02A0EE816C14BE1AC96AAB736D2B84E","C02A0EE816C14BE1AC96AAB736D2B84E","844b6a57-4f65-42ae-b303-1536579bb5c3","a0a8f18c-a66e-4ba7-a170-23efbdc67501","{""participantId"":""C02A0EE816C14BE1AC96AAB736D2B84E"",""assignmentId"":""844b6a57-4f65-42ae-b303-1536579bb5c3"",""projectId"":""a0a8f18c-a66e-4ba7-a170-23efbdc67501""}","https://test12345.live/?participantId=C02A0EE816C14BE1AC96AAB736D2B84E&assignmentId=844b6a57-4f65-42ae-b303-1536579bb5c3&projectId=a0a8f18c-a66e-4ba7-a170-23efbdc67501","C02A0EE816C14BE1AC96AAB736D2B84E-2024-11-24-18-33-35","","1173","","images/schematic_sequence/restaurant_scheme/restaurant_scheme_ten.png","0","",""
"","","","","","image-button-response","54","247058","0.0-10.0-1.0-2.9","C02A0EE816C14BE1AC96AAB736D2B84E","C02A0EE816C14BE1AC96AAB736D2B84E","844b6a57-4f65-42ae-b303-1536579bb5c3","a0a8f18c-a66e-4ba7-a170-23efbdc67501","{""participantId"":""C02A0EE816C14BE1AC96AAB736D2B84E"",""assignmentId"":""844b6a57-4f65-42ae-b303-1536579bb5c3"",""projectId"":""a0a8f18c-a66e-4ba7-a170-23efbdc67501""}","https://test12345.live/?participantId=C02A0EE816C14BE1AC96AAB736D2B84E&assignmentId=844b6a57-4f65-42ae-b303-1536579bb5c3&projectId=a0a8f18c-a66e-4ba7-a170-23efbdc67501","C02A0EE816C14BE1AC96AAB736D2B84E-2024-11-24-18-33-35","","null","","[]","null","",""
"","","","","","html-audio-response","55","266717","0.0-11.0","C02A0EE816C14BE1AC96AAB736D2B84E","C02A0EE816C14BE1AC96AAB736D2B84E","844b6a57-4f65-42ae-b303-1536579bb5c3","a0a8f18c-a66e-4ba7-a170-23efbdc67501","{""participantId"":""C02A0EE816C14BE1AC96AAB736D2B84E"",""assignmentId"":""844b6a57-4f65-42ae-b303-1536579bb5c3"",""projectId"":""a0a8f18c-a66e-4ba7-a170-23efbdc67501""}","https://test12345.live/?participantId=C02A0EE816C14BE1AC96AAB736D2B84E&assignmentId=844b6a57-4f65-42ae-b303-1536579bb5c3&projectId=a0a8f18c-a66e-4ba7-a170-23efbdc67501","C02A0EE816C14BE1AC96AAB736D2B84E-2024-11-24-18-33-35","","18235","","[""<span style=\""color: red; font-size: 24px\""> NOW RECORDING</span><p>Please say out loud all the images you saw, as many as you can remember. The images can be said in any order.</p>""]","","3","restaurant_scheme"
"","","","","","image-button-response","56","272726","0.0-12.0-0.0","C02A0EE816C14BE1AC96AAB736D2B84E","C02A0EE816C14BE1AC96AAB736D2B84E","844b6a57-4f65-42ae-b303-1536579bb5c3","a0a8f18c-a66e-4ba7-a170-23efbdc67501","{""participantId"":""C02A0EE816C14BE1AC96AAB736D2B84E"",""assignmentId"":""844b6a57-4f65-42ae-b303-1536579bb5c3"",""projectId"":""a0a8f18c-a66e-4ba7-a170-23efbdc67501""}","https://test12345.live/?participantId=C02A0EE816C14BE1AC96AAB736D2B84E&assignmentId=844b6a57-4f65-42ae-b303-1536579bb5c3&projectId=a0a8f18c-a66e-4ba7-a170-23efbdc67501","C02A0EE816C14BE1AC96AAB736D2B84E-2024-11-24-18-33-35","","null","","images/causal_sequence/saving_a_cat_causal/saving_a_cat_causal_0.png","null","",""
"","","","","","image-button-response","57","277229","0.0-12.0-1.0-0.0","C02A0EE816C14BE1AC96AAB736D2B84E","C02A0EE816C14BE1AC96AAB736D2B84E","844b6a57-4f65-42ae-b303-1536579bb5c3","a0a8f18c-a66e-4ba7-a170-23efbdc67501","{""participantId"":""C02A0EE816C14BE1AC96AAB736D2B84E"",""assignmentId"":""844b6a57-4f65-42ae-b303-1536579bb5c3"",""projectId"":""a0a8f18c-a66e-4ba7-a170-23efbdc67501""}","https://test12345.live/?participantId=C02A0EE816C14BE1AC96AAB736D2B84E&assignmentId=844b6a57-4f65-42ae-b303-1536579bb5c3&projectId=a0a8f18c-a66e-4ba7-a170-23efbdc67501","C02A0EE816C14BE1AC96AAB736D2B84E-2024-11-24-18-33-35","","null","","images/causal_sequence/saving_a_cat_causal/saving_a_cat_causal_1.png","null","",""
"","","","","","image-button-response","58","278154","0.0-12.0-1.0-1.0","C02A0EE816C14BE1AC96AAB736D2B84E","C02A0EE816C14BE1AC96AAB736D2B84E","844b6a57-4f65-42ae-b303-1536579bb5c3","a0a8f18c-a66e-4ba7-a170-23efbdc67501","{""participantId"":""C02A0EE816C14BE1AC96AAB736D2B84E"",""assignmentId"":""844b6a57-4f65-42ae-b303-1536579bb5c3"",""projectId"":""a0a8f18c-a66e-4ba7-a170-23efbdc67501""}","https://test12345.live/?participantId=C02A0EE816C14BE1AC96AAB736D2B84E&assignmentId=844b6a57-4f65-42ae-b303-1536579bb5c3&projectId=a0a8f18c-a66e-4ba7-a170-23efbdc67501","C02A0EE816C14BE1AC96AAB736D2B84E-2024-11-24-18-33-35","","923","","images/causal_sequence/saving_a_cat_causal/saving_a_cat_causal_1.png","0","",""
"","","","","","image-button-response","59","279958","0.0-12.0-1.0-2.0","C02A0EE816C14BE1AC96AAB736D2B84E","C02A0EE816C14BE1AC96AAB736D2B84E","844b6a57-4f65-42ae-b303-1536579bb5c3","a0a8f18c-a66e-4ba7-a170-23efbdc67501","{""participantId"":""C02A0EE816C14BE1AC96AAB736D2B84E"",""assignmentId"":""844b6a57-4f65-42ae-b303-1536579bb5c3"",""projectId"":""a0a8f18c-a66e-4ba7-a170-23efbdc67501""}","https://test12345.live/?participantId=C02A0EE816C14BE1AC96AAB736D2B84E&assignmentId=844b6a57-4f65-42ae-b303-1536579bb5c3&projectId=a0a8f18c-a66e-4ba7-a170-23efbdc67501","C02A0EE816C14BE1AC96AAB736D2B84E-2024-11-24-18-33-35","","null","","[]","null","",""
"","","","","","image-button-response","60","284475","0.0-12.0-1.0-0.1","C02A0EE816C14BE1AC96AAB736D2B84E","C02A0EE816C14BE1AC96AAB736D2B84E","844b6a57-4f65-42ae-b303-1536579bb5c3","a0a8f18c-a66e-4ba7-a170-23efbdc67501","{""participantId"":""C02A0EE816C14BE1AC96AAB736D2B84E"",""assignmentId"":""844b6a57-4f65-42ae-b303-1536579bb5c3"",""projectId"":""a0a8f18c-a66e-4ba7-a170-23efbdc67501""}","https://test12345.live/?participantId=C02A0EE816C14BE1AC96AAB736D2B84E&assignmentId=844b6a57-4f65-42ae-b303-1536579bb5c3&projectId=a0a8f18c-a66e-4ba7-a170-23efbdc67501","C02A0EE816C14BE1AC96AAB736D2B84E-2024-11-24-18-33-35","","null","","images/causal_sequence/saving_a_cat_causal/saving_a_cat_causal_2.png","null","",""
"","","","","","image-button-response","61","286370","0.0-12.0-1.0-1.1","C02A0EE816C14BE1AC96AAB736D2B84E","C02A0EE816C14BE1AC96AAB736D2B84E","844b6a57-4f65-42ae-b303-1536579bb5c3","a0a8f18c-a66e-4ba7-a170-23efbdc67501","{""participantId"":""C02A0EE816C14BE1AC96AAB736D2B84E"",""assignmentId"":""844b6a57-4f65-42ae-b303-1536579bb5c3"",""projectId"":""a0a8f18c-a66e-4ba7-a170-23efbdc67501""}","https://test12345.live/?participantId=C02A0EE816C14BE1AC96AAB736D2B84E&assignmentId=844b6a57-4f65-42ae-b303-1536579bb5c3&projectId=a0a8f18c-a66e-4ba7-a170-23efbdc67501","C02A0EE816C14BE1AC96AAB736D2B84E-2024-11-24-18-33-35","","1894","","images/causal_sequence/saving_a_cat_causal/saving_a_cat_causal_2.png","1","",""
"","","","","","image-button-response","62","288180","0.0-12.0-1.0-2.1","C02A0EE816C14BE1AC96AAB736D2B84E","C02A0EE816C14BE1AC96AAB736D2B84E","844b6a57-4f65-42ae-b303-1536579bb5c3","a0a8f18c-a66e-4ba7-a170-23efbdc67501","{""participantId"":""C02A0EE816C14BE1AC96AAB736D2B84E"",""assignmentId"":""844b6a57-4f65-42ae-b303-1536579bb5c3"",""projectId"":""a0a8f18c-a66e-4ba7-a170-23efbdc67501""}","https://test12345.live/?participantId=C02A0EE816C14BE1AC96AAB736D2B84E&assignmentId=844b6a57-4f65-42ae-b303-1536579bb5c3&projectId=a0a8f18c-a66e-4ba7-a170-23efbdc67501","C02A0EE816C14BE1AC96AAB736D2B84E-2024-11-24-18-33-35","","null","","[]","null","",""
"","","","","","image-button-response","63","292686","0.0-12.0-1.0-0.2","C02A0EE816C14BE1AC96AAB736D2B84E","C02A0EE816C14BE1AC96AAB736D2B84E","844b6a57-4f65-42ae-b303-1536579bb5c3","a0a8f18c-a66e-4ba7-a170-23efbdc67501","{""participantId"":""C02A0EE816C14BE1AC96AAB736D2B84E"",""assignmentId"":""844b6a57-4f65-42ae-b303-1536579bb5c3"",""projectId"":""a0a8f18c-a66e-4ba7-a170-23efbdc67501""}","https://test12345.live/?participantId=C02A0EE816C14BE1AC96AAB736D2B84E&assignmentId=844b6a57-4f65-42ae-b303-1536579bb5c3&projectId=a0a8f18c-a66e-4ba7-a170-23efbdc67501","C02A0EE816C14BE1AC96AAB736D2B84E-2024-11-24-18-33-35","","null","","images/causal_sequence/saving_a_cat_causal/saving_a_cat_causal_3.png","null","",""
"","","","","","image-button-response","64","293972","0.0-12.0-1.0-1.2","C02A0EE816C14BE1AC96AAB736D2B84E","C02A0EE816C14BE1AC96AAB736D2B84E","844b6a57-4f65-42ae-b303-1536579bb5c3","a0a8f18c-a66e-4ba7-a170-23efbdc67501","{""participantId"":""C02A0EE816C14BE1AC96AAB736D2B84E"",""assignmentId"":""844b6a57-4f65-42ae-b303-1536579bb5c3"",""projectId"":""a0a8f18c-a66e-4ba7-a170-23efbdc67501""}","https://test12345.live/?participantId=C02A0EE816C14BE1AC96AAB736D2B84E&assignmentId=844b6a57-4f65-42ae-b303-1536579bb5c3&projectId=a0a8f18c-a66e-4ba7-a170-23efbdc67501","C02A0EE816C14BE1AC96AAB736D2B84E-2024-11-24-18-33-35","","1284","","images/causal_sequence/saving_a_cat_causal/saving_a_cat_causal_3.png","1","",""
"","","","","","image-button-response","65","295782","0.0-12.0-1.0-2.2","C02A0EE816C14BE1AC96AAB736D2B84E","C02A0EE816C14BE1AC96AAB736D2B84E","844b6a57-4f65-42ae-b303-1536579bb5c3","a0a8f18c-a66e-4ba7-a170-23efbdc67501","{""participantId"":""C02A0EE816C14BE1AC96AAB736D2B84E"",""assignmentId"":""844b6a57-4f65-42ae-b303-1536579bb5c3"",""projectId"":""a0a8f18c-a66e-4ba7-a170-23efbdc67501""}","https://test12345.live/?participantId=C02A0EE816C14BE1AC96AAB736D2B84E&assignmentId=844b6a57-4f65-42ae-b303-1536579bb5c3&projectId=a0a8f18c-a66e-4ba7-a170-23efbdc67501","C02A0EE816C14BE1AC96AAB736D2B84E-2024-11-24-18-33-35","","null","","[]","null","",""
"","","","","","image-button-response","66","300290","0.0-12.0-1.0-0.3","C02A0EE816C14BE1AC96AAB736D2B84E","C02A0EE816C14BE1AC96AAB736D2B84E","844b6a57-4f65-42ae-b303-1536579bb5c3","a0a8f18c-a66e-4ba7-a170-23efbdc67501","{""participantId"":""C02A0EE816C14BE1AC96AAB736D2B84E"",""assignmentId"":""844b6a57-4f65-42ae-b303-1536579bb5c3"",""projectId"":""a0a8f18c-a66e-4ba7-a170-23efbdc67501""}","https://test12345.live/?participantId=C02A0EE816C14BE1AC96AAB736D2B84E&assignmentId=844b6a57-4f65-42ae-b303-1536579bb5c3&projectId=a0a8f18c-a66e-4ba7-a170-23efbdc67501","C02A0EE816C14BE1AC96AAB736D2B84E-2024-11-24-18-33-35","","null","","images/causal_sequence/saving_a_cat_causal/saving_a_cat_causal_4.png","null","",""
"","","","","","image-button-response","67","301292","0.0-12.0-1.0-1.3","C02A0EE816C14BE1AC96AAB736D2B84E","C02A0EE816C14BE1AC96AAB736D2B84E","844b6a57-4f65-42ae-b303-1536579bb5c3","a0a8f18c-a66e-4ba7-a170-23efbdc67501","{""participantId"":""C02A0EE816C14BE1AC96AAB736D2B84E"",""assignmentId"":""844b6a57-4f65-42ae-b303-1536579bb5c3"",""projectId"":""a0a8f18c-a66e-4ba7-a170-23efbdc67501""}","https://test12345.live/?participantId=C02A0EE816C14BE1AC96AAB736D2B84E&assignmentId=844b6a57-4f65-42ae-b303-1536579bb5c3&projectId=a0a8f18c-a66e-4ba7-a170-23efbdc67501","C02A0EE816C14BE1AC96AAB736D2B84E-2024-11-24-18-33-35","","1000","","images/causal_sequence/saving_a_cat_causal/saving_a_cat_causal_4.png","0","",""
"","","","","","image-button-response","68","303094","0.0-12.0-1.0-2.3","C02A0EE816C14BE1AC96AAB736D2B84E","C02A0EE816C14BE1AC96AAB736D2B84E","844b6a57-4f65-42ae-b303-1536579bb5c3","a0a8f18c-a66e-4ba7-a170-23efbdc67501","{""participantId"":""C02A0EE816C14BE1AC96AAB736D2B84E"",""assignmentId"":""844b6a57-4f65-42ae-b303-1536579bb5c3"",""projectId"":""a0a8f18c-a66e-4ba7-a170-23efbdc67501""}","https://test12345.live/?participantId=C02A0EE816C14BE1AC96AAB736D2B84E&assignmentId=844b6a57-4f65-42ae-b303-1536579bb5c3&projectId=a0a8f18c-a66e-4ba7-a170-23efbdc67501","C02A0EE816C14BE1AC96AAB736D2B84E-2024-11-24-18-33-35","","null","","[]","null","",""
"","","","","","image-button-response","69","307600","0.0-12.0-1.0-0.4","C02A0EE816C14BE1AC96AAB736D2B84E","C02A0EE816C14BE1AC96AAB736D2B84E","844b6a57-4f65-42ae-b303-1536579bb5c3","a0a8f18c-a66e-4ba7-a170-23efbdc67501","{""participantId"":""C02A0EE816C14BE1AC96AAB736D2B84E"",""assignmentId"":""844b6a57-4f65-42ae-b303-1536579bb5c3"",""projectId"":""a0a8f18c-a66e-4ba7-a170-23efbdc67501""}","https://test12345.live/?participantId=C02A0EE816C14BE1AC96AAB736D2B84E&assignmentId=844b6a57-4f65-42ae-b303-1536579bb5c3&projectId=a0a8f18c-a66e-4ba7-a170-23efbdc67501","C02A0EE816C14BE1AC96AAB736D2B84E-2024-11-24-18-33-35","","null","","images/causal_sequence/saving_a_cat_causal/saving_a_cat_causal_5.png","null","",""
"","","","","","image-button-response","70","309849","0.0-12.0-1.0-1.4","C02A0EE816C14BE1AC96AAB736D2B84E","C02A0EE816C14BE1AC96AAB736D2B84E","844b6a57-4f65-42ae-b303-1536579bb5c3","a0a8f18c-a66e-4ba7-a170-23efbdc67501","{""participantId"":""C02A0EE816C14BE1AC96AAB736D2B84E"",""assignmentId"":""844b6a57-4f65-42ae-b303-1536579bb5c3"",""projectId"":""a0a8f18c-a66e-4ba7-a170-23efbdc67501""}","https://test12345.live/?participantId=C02A0EE816C14BE1AC96AAB736D2B84E&assignmentId=844b6a57-4f65-42ae-b303-1536579bb5c3&projectId=a0a8f18c-a66e-4ba7-a170-23efbdc67501","C02A0EE816C14BE1AC96AAB736D2B84E-2024-11-24-18-33-35","","2247","","images/causal_sequence/saving_a_cat_causal/saving_a_cat_causal_5.png","0","",""
"","","","","","image-button-response","71","311652","0.0-12.0-1.0-2.4","C02A0EE816C14BE1AC96AAB736D2B84E","C02A0EE816C14BE1AC96AAB736D2B84E","844b6a57-4f65-42ae-b303-1536579bb5c3","a0a8f18c-a66e-4ba7-a170-23efbdc67501","{""participantId"":""C02A0EE816C14BE1AC96AAB736D2B84E"",""assignmentId"":""844b6a57-4f65-42ae-b303-1536579bb5c3"",""projectId"":""a0a8f18c-a66e-4ba7-a170-23efbdc67501""}","https://test12345.live/?participantId=C02A0EE816C14BE1AC96AAB736D2B84E&assignmentId=844b6a57-4f65-42ae-b303-1536579bb5c3&projectId=a0a8f18c-a66e-4ba7-a170-23efbdc67501","C02A0EE816C14BE1AC96AAB736D2B84E-2024-11-24-18-33-35","","null","","[]","null","",""
"","","","","","image-button-response","72","316166","0.0-12.0-1.0-0.5","C02A0EE816C14BE1AC96AAB736D2B84E","C02A0EE816C14BE1AC96AAB736D2B84E","844b6a57-4f65-42ae-b303-1536579bb5c3","a0a8f18c-a66e-4ba7-a170-23efbdc67501","{""participantId"":""C02A0EE816C14BE1AC96AAB736D2B84E"",""assignmentId"":""844b6a57-4f65-42ae-b303-1536579bb5c3"",""projectId"":""a0a8f18c-a66e-4ba7-a170-23efbdc67501""}","https://test12345.live/?participantId=C02A0EE816C14BE1AC96AAB736D2B84E&assignmentId=844b6a57-4f65-42ae-b303-1536579bb5c3&projectId=a0a8f18c-a66e-4ba7-a170-23efbdc67501","C02A0EE816C14BE1AC96AAB736D2B84E-2024-11-24-18-33-35","","null","","images/causal_sequence/saving_a_cat_causal/saving_a_cat_causal_6.png","null","",""
"","","","","","image-button-response","73","317342","0.0-12.0-1.0-1.5","C02A0EE816C14BE1AC96AAB736D2B84E","C02A0EE816C14BE1AC96AAB736D2B84E","844b6a57-4f65-42ae-b303-1536579bb5c3","a0a8f18c-a66e-4ba7-a170-23efbdc67501","{""participantId"":""C02A0EE816C14BE1AC96AAB736D2B84E"",""assignmentId"":""844b6a57-4f65-42ae-b303-1536579bb5c3"",""projectId"":""a0a8f18c-a66e-4ba7-a170-23efbdc67501""}","https://test12345.live/?participantId=C02A0EE816C14BE1AC96AAB736D2B84E&assignmentId=844b6a57-4f65-42ae-b303-1536579bb5c3&projectId=a0a8f18c-a66e-4ba7-a170-23efbdc67501","C02A0EE816C14BE1AC96AAB736D2B84E-2024-11-24-18-33-35","","1174","","images/causal_sequence/saving_a_cat_causal/saving_a_cat_causal_6.png","0","",""
"","","","","","image-button-response","74","319146","0.0-12.0-1.0-2.5","C02A0EE816C14BE1AC96AAB736D2B84E","C02A0EE816C14BE1AC96AAB736D2B84E","844b6a57-4f65-42ae-b303-1536579bb5c3","a0a8f18c-a66e-4ba7-a170-23efbdc67501","{""participantId"":""C02A0EE816C14BE1AC96AAB736D2B84E"",""assignmentId"":""844b6a57-4f65-42ae-b303-1536579bb5c3"",""projectId"":""a0a8f18c-a66e-4ba7-a170-23efbdc67501""}","https://test12345.live/?participantId=C02A0EE816C14BE1AC96AAB736D2B84E&assignmentId=844b6a57-4f65-42ae-b303-1536579bb5c3&projectId=a0a8f18c-a66e-4ba7-a170-23efbdc67501","C02A0EE816C14BE1AC96AAB736D2B84E-2024-11-24-18-33-35","","null","","[]","null","",""
"","","","","","image-button-response","75","323658","0.0-12.0-1.0-0.6","C02A0EE816C14BE1AC96AAB736D2B84E","C02A0EE816C14BE1AC96AAB736D2B84E","844b6a57-4f65-42ae-b303-1536579bb5c3","a0a8f18c-a66e-4ba7-a170-23efbdc67501","{""participantId"":""C02A0EE816C14BE1AC96AAB736D2B84E"",""assignmentId"":""844b6a57-4f65-42ae-b303-1536579bb5c3"",""projectId"":""a0a8f18c-a66e-4ba7-a170-23efbdc67501""}","https://test12345.live/?participantId=C02A0EE816C14BE1AC96AAB736D2B84E&assignmentId=844b6a57-4f65-42ae-b303-1536579bb5c3&projectId=a0a8f18c-a66e-4ba7-a170-23efbdc67501","C02A0EE816C14BE1AC96AAB736D2B84E-2024-11-24-18-33-35","","null","","images/causal_sequence/saving_a_cat_causal/saving_a_cat_causal_7.png","null","",""
"","","","","","image-button-response","76","325075","0.0-12.0-1.0-1.6","C02A0EE816C14BE1AC96AAB736D2B84E","C02A0EE816C14BE1AC96AAB736D2B84E","844b6a57-4f65-42ae-b303-1536579bb5c3","a0a8f18c-a66e-4ba7-a170-23efbdc67501","{""participantId"":""C02A0EE816C14BE1AC96AAB736D2B84E"",""assignmentId"":""844b6a57-4f65-42ae-b303-1536579bb5c3"",""projectId"":""a0a8f18c-a66e-4ba7-a170-23efbdc67501""}","https://test12345.live/?participantId=C02A0EE816C14BE1AC96AAB736D2B84E&assignmentId=844b6a57-4f65-42ae-b303-1536579bb5c3&projectId=a0a8f18c-a66e-4ba7-a170-23efbdc67501","C02A0EE816C14BE1AC96AAB736D2B84E-2024-11-24-18-33-35","","1415","","images/causal_sequence/saving_a_cat_causal/saving_a_cat_causal_7.png","0","",""
"","","","","","image-button-response","77","326887","0.0-12.0-1.0-2.6","C02A0EE816C14BE1AC96AAB736D2B84E","C02A0EE816C14BE1AC96AAB736D2B84E","844b6a57-4f65-42ae-b303-1536579bb5c3","a0a8f18c-a66e-4ba7-a170-23efbdc67501","{""participantId"":""C02A0EE816C14BE1AC96AAB736D2B84E"",""assignmentId"":""844b6a57-4f65-42ae-b303-1536579bb5c3"",""projectId"":""a0a8f18c-a66e-4ba7-a170-23efbdc67501""}","https://test12345.live/?participantId=C02A0EE816C14BE1AC96AAB736D2B84E&assignmentId=844b6a57-4f65-42ae-b303-1536579bb5c3&projectId=a0a8f18c-a66e-4ba7-a170-23efbdc67501","C02A0EE816C14BE1AC96AAB736D2B84E-2024-11-24-18-33-35","","null","","[]","null","",""
"","","","","","image-button-response","78","331395","0.0-12.0-1.0-0.7","C02A0EE816C14BE1AC96AAB736D2B84E","C02A0EE816C14BE1AC96AAB736D2B84E","844b6a57-4f65-42ae-b303-1536579bb5c3","a0a8f18c-a66e-4ba7-a170-23efbdc67501","{""participantId"":""C02A0EE816C14BE1AC96AAB736D2B84E"",""assignmentId"":""844b6a57-4f65-42ae-b303-1536579bb5c3"",""projectId"":""a0a8f18c-a66e-4ba7-a170-23efbdc67501""}","https://test12345.live/?participantId=C02A0EE816C14BE1AC96AAB736D2B84E&assignmentId=844b6a57-4f65-42ae-b303-1536579bb5c3&projectId=a0a8f18c-a66e-4ba7-a170-23efbdc67501","C02A0EE816C14BE1AC96AAB736D2B84E-2024-11-24-18-33-35","","null","","images/causal_sequence/saving_a_cat_causal/saving_a_cat_causal_8.png","null","",""
"","","","","","image-button-response","79","332435","0.0-12.0-1.0-1.7","C02A0EE816C14BE1AC96AAB736D2B84E","C02A0EE816C14BE1AC96AAB736D2B84E","844b6a57-4f65-42ae-b303-1536579bb5c3","a0a8f18c-a66e-4ba7-a170-23efbdc67501","{""participantId"":""C02A0EE816C14BE1AC96AAB736D2B84E"",""assignmentId"":""844b6a57-4f65-42ae-b303-1536579bb5c3"",""projectId"":""a0a8f18c-a66e-4ba7-a170-23efbdc67501""}","https://test12345.live/?participantId=C02A0EE816C14BE1AC96AAB736D2B84E&assignmentId=844b6a57-4f65-42ae-b303-1536579bb5c3&projectId=a0a8f18c-a66e-4ba7-a170-23efbdc67501","C02A0EE816C14BE1AC96AAB736D2B84E-2024-11-24-18-33-35","","1039","","images/causal_sequence/saving_a_cat_causal/saving_a_cat_causal_8.png","0","",""
"","","","","","image-button-response","80","334242","0.0-12.0-1.0-2.7","C02A0EE816C14BE1AC96AAB736D2B84E","C02A0EE816C14BE1AC96AAB736D2B84E","844b6a57-4f65-42ae-b303-1536579bb5c3","a0a8f18c-a66e-4ba7-a170-23efbdc67501","{""participantId"":""C02A0EE816C14BE1AC96AAB736D2B84E"",""assignmentId"":""844b6a57-4f65-42ae-b303-1536579bb5c3"",""projectId"":""a0a8f18c-a66e-4ba7-a170-23efbdc67501""}","https://test12345.live/?participantId=C02A0EE816C14BE1AC96AAB736D2B84E&assignmentId=844b6a57-4f65-42ae-b303-1536579bb5c3&projectId=a0a8f18c-a66e-4ba7-a170-23efbdc67501","C02A0EE816C14BE1AC96AAB736D2B84E-2024-11-24-18-33-35","","null","","[]","null","",""
"","","","","","image-button-response","81","338754","0.0-12.0-1.0-0.8","C02A0EE816C14BE1AC96AAB736D2B84E","C02A0EE816C14BE1AC96AAB736D2B84E","844b6a57-4f65-42ae-b303-1536579bb5c3","a0a8f18c-a66e-4ba7-a170-23efbdc67501","{""participantId"":""C02A0EE816C14BE1AC96AAB736D2B84E"",""assignmentId"":""844b6a57-4f65-42ae-b303-1536579bb5c3"",""projectId"":""a0a8f18c-a66e-4ba7-a170-23efbdc67501""}","https://test12345.live/?participantId=C02A0EE816C14BE1AC96AAB736D2B84E&assignmentId=844b6a57-4f65-42ae-b303-1536579bb5c3&projectId=a0a8f18c-a66e-4ba7-a170-23efbdc67501","C02A0EE816C14BE1AC96AAB736D2B84E-2024-11-24-18-33-35","","null","","images/causal_sequence/saving_a_cat_causal/saving_a_cat_causal_9.png","null","",""
"","","","","","image-button-response","82","339746","0.0-12.0-1.0-1.8","C02A0EE816C14BE1AC96AAB736D2B84E","C02A0EE816C14BE1AC96AAB736D2B84E","844b6a57-4f65-42ae-b303-1536579bb5c3","a0a8f18c-a66e-4ba7-a170-23efbdc67501","{""participantId"":""C02A0EE816C14BE1AC96AAB736D2B84E"",""assignmentId"":""844b6a57-4f65-42ae-b303-1536579bb5c3"",""projectId"":""a0a8f18c-a66e-4ba7-a170-23efbdc67501""}","https://test12345.live/?participantId=C02A0EE816C14BE1AC96AAB736D2B84E&assignmentId=844b6a57-4f65-42ae-b303-1536579bb5c3&projectId=a0a8f18c-a66e-4ba7-a170-23efbdc67501","C02A0EE816C14BE1AC96AAB736D2B84E-2024-11-24-18-33-35","","990","","images/causal_sequence/saving_a_cat_causal/saving_a_cat_causal_9.png","0","",""
"","","","","","image-button-response","83","341562","0.0-12.0-1.0-2.8","C02A0EE816C14BE1AC96AAB736D2B84E","C02A0EE816C14BE1AC96AAB736D2B84E","844b6a57-4f65-42ae-b303-1536579bb5c3","a0a8f18c-a66e-4ba7-a170-23efbdc67501","{""participantId"":""C02A0EE816C14BE1AC96AAB736D2B84E"",""assignmentId"":""844b6a57-4f65-42ae-b303-1536579bb5c3"",""projectId"":""a0a8f18c-a66e-4ba7-a170-23efbdc67501""}","https://test12345.live/?participantId=C02A0EE816C14BE1AC96AAB736D2B84E&assignmentId=844b6a57-4f65-42ae-b303-1536579bb5c3&projectId=a0a8f18c-a66e-4ba7-a170-23efbdc67501","C02A0EE816C14BE1AC96AAB736D2B84E-2024-11-24-18-33-35","","null","","[]","null","",""
"","","","","","image-button-response","84","346072","0.0-12.0-1.0-0.9","C02A0EE816C14BE1AC96AAB736D2B84E","C02A0EE816C14BE1AC96AAB736D2B84E","844b6a57-4f65-42ae-b303-1536579bb5c3","a0a8f18c-a66e-4ba7-a170-23efbdc67501","{""participantId"":""C02A0EE816C14BE1AC96AAB736D2B84E"",""assignmentId"":""844b6a57-4f65-42ae-b303-1536579bb5c3"",""projectId"":""a0a8f18c-a66e-4ba7-a170-23efbdc67501""}","https://test12345.live/?participantId=C02A0EE816C14BE1AC96AAB736D2B84E&assignmentId=844b6a57-4f65-42ae-b303-1536579bb5c3&projectId=a0a8f18c-a66e-4ba7-a170-23efbdc67501","C02A0EE816C14BE1AC96AAB736D2B84E-2024-11-24-18-33-35","","null","","images/causal_sequence/saving_a_cat_causal/saving_a_cat_causal_ten.png","null","",""
"","","","","","image-button-response","85","346891","0.0-12.0-1.0-1.9","C02A0EE816C14BE1AC96AAB736D2B84E","C02A0EE816C14BE1AC96AAB736D2B84E","844b6a57-4f65-42ae-b303-1536579bb5c3","a0a8f18c-a66e-4ba7-a170-23efbdc67501","{""participantId"":""C02A0EE816C14BE1AC96AAB736D2B84E"",""assignmentId"":""844b6a57-4f65-42ae-b303-1536579bb5c3"",""projectId"":""a0a8f18c-a66e-4ba7-a170-23efbdc67501""}","https://test12345.live/?participantId=C02A0EE816C14BE1AC96AAB736D2B84E&assignmentId=844b6a57-4f65-42ae-b303-1536579bb5c3&projectId=a0a8f18c-a66e-4ba7-a170-23efbdc67501","C02A0EE816C14BE1AC96AAB736D2B84E-2024-11-24-18-33-35","","817","","images/causal_sequence/saving_a_cat_causal/saving_a_cat_causal_ten.png","0","",""
"","","","","","image-button-response","86","348706","0.0-12.0-1.0-2.9","C02A0EE816C14BE1AC96AAB736D2B84E","C02A0EE816C14BE1AC96AAB736D2B84E","844b6a57-4f65-42ae-b303-1536579bb5c3","a0a8f18c-a66e-4ba7-a170-23efbdc67501","{""participantId"":""C02A0EE816C14BE1AC96AAB736D2B84E"",""assignmentId"":""844b6a57-4f65-42ae-b303-1536579bb5c3"",""projectId"":""a0a8f18c-a66e-4ba7-a170-23efbdc67501""}","https://test12345.live/?participantId=C02A0EE816C14BE1AC96AAB736D2B84E&assignmentId=844b6a57-4f65-42ae-b303-1536579bb5c3&projectId=a0a8f18c-a66e-4ba7-a170-23efbdc67501","C02A0EE816C14BE1AC96AAB736D2B84E-2024-11-24-18-33-35","","null","","[]","null","",""
"","","","","","html-audio-response","87","379844","0.0-13.0","C02A0EE816C14BE1AC96AAB736D2B84E","C02A0EE816C14BE1AC96AAB736D2B84E","844b6a57-4f65-42ae-b303-1536579bb5c3","a0a8f18c-a66e-4ba7-a170-23efbdc67501","{""participantId"":""C02A0EE816C14BE1AC96AAB736D2B84E"",""assignmentId"":""844b6a57-4f65-42ae-b303-1536579bb5c3"",""projectId"":""a0a8f18c-a66e-4ba7-a170-23efbdc67501""}","https://test12345.live/?participantId=C02A0EE816C14BE1AC96AAB736D2B84E&assignmentId=844b6a57-4f65-42ae-b303-1536579bb5c3&projectId=a0a8f18c-a66e-4ba7-a170-23efbdc67501","C02A0EE816C14BE1AC96AAB736D2B84E-2024-11-24-18-33-35","","30156","","[""<span style=\""color: red; font-size: 24px\""> NOW RECORDING</span><p>Please say out loud all the images you saw, as many as you can remember. The images can be said in any order.</p>""]","","2","saving_a_cat_causal"
"","","","","","image-button-response","88","385855","0.0-14.0-0.0","C02A0EE816C14BE1AC96AAB736D2B84E","C02A0EE816C14BE1AC96AAB736D2B84E","844b6a57-4f65-42ae-b303-1536579bb5c3","a0a8f18c-a66e-4ba7-a170-23efbdc67501","{""participantId"":""C02A0EE816C14BE1AC96AAB736D2B84E"",""assignmentId"":""844b6a57-4f65-42ae-b303-1536579bb5c3"",""projectId"":""a0a8f18c-a66e-4ba7-a170-23efbdc67501""}","https://test12345.live/?participantId=C02A0EE816C14BE1AC96AAB736D2B84E&assignmentId=844b6a57-4f65-42ae-b303-1536579bb5c3&projectId=a0a8f18c-a66e-4ba7-a170-23efbdc67501","C02A0EE816C14BE1AC96AAB736D2B84E-2024-11-24-18-33-35","","null","","images/causal_sequence/museum_causal/museum_causal_0.png","null","",""
"","","","","","image-button-response","89","390362","0.0-14.0-1.0-0.0","C02A0EE816C14BE1AC96AAB736D2B84E","C02A0EE816C14BE1AC96AAB736D2B84E","844b6a57-4f65-42ae-b303-1536579bb5c3","a0a8f18c-a66e-4ba7-a170-23efbdc67501","{""participantId"":""C02A0EE816C14BE1AC96AAB736D2B84E"",""assignmentId"":""844b6a57-4f65-42ae-b303-1536579bb5c3"",""projectId"":""a0a8f18c-a66e-4ba7-a170-23efbdc67501""}","https://test12345.live/?participantId=C02A0EE816C14BE1AC96AAB736D2B84E&assignmentId=844b6a57-4f65-42ae-b303-1536579bb5c3&projectId=a0a8f18c-a66e-4ba7-a170-23efbdc67501","C02A0EE816C14BE1AC96AAB736D2B84E-2024-11-24-18-33-35","","null","","images/causal_sequence/museum_causal/museum_causal_5.png","null","",""
"","","","","","image-button-response","90","391276","0.0-14.0-1.0-1.0","C02A0EE816C14BE1AC96AAB736D2B84E","C02A0EE816C14BE1AC96AAB736D2B84E","844b6a57-4f65-42ae-b303-1536579bb5c3","a0a8f18c-a66e-4ba7-a170-23efbdc67501","{""participantId"":""C02A0EE816C14BE1AC96AAB736D2B84E"",""assignmentId"":""844b6a57-4f65-42ae-b303-1536579bb5c3"",""projectId"":""a0a8f18c-a66e-4ba7-a170-23efbdc67501""}","https://test12345.live/?participantId=C02A0EE816C14BE1AC96AAB736D2B84E&assignmentId=844b6a57-4f65-42ae-b303-1536579bb5c3&projectId=a0a8f18c-a66e-4ba7-a170-23efbdc67501","C02A0EE816C14BE1AC96AAB736D2B84E-2024-11-24-18-33-35","","912","","images/causal_sequence/museum_causal/museum_causal_5.png","0","",""
"","","","","","image-button-response","91","393078","0.0-14.0-1.0-2.0","C02A0EE816C14BE1AC96AAB736D2B84E","C02A0EE816C14BE1AC96AAB736D2B84E","844b6a57-4f65-42ae-b303-1536579bb5c3","a0a8f18c-a66e-4ba7-a170-23efbdc67501","{""participantId"":""C02A0EE816C14BE1AC96AAB736D2B84E"",""assignmentId"":""844b6a57-4f65-42ae-b303-1536579bb5c3"",""projectId"":""a0a8f18c-a66e-4ba7-a170-23efbdc67501""}","https://test12345.live/?participantId=C02A0EE816C14BE1AC96AAB736D2B84E&assignmentId=844b6a57-4f65-42ae-b303-1536579bb5c3&projectId=a0a8f18c-a66e-4ba7-a170-23efbdc67501","C02A0EE816C14BE1AC96AAB736D2B84E-2024-11-24-18-33-35","","null","","[]","null","",""
"","","","","","image-button-response","92","397580","0.0-14.0-1.0-0.1","C02A0EE816C14BE1AC96AAB736D2B84E","C02A0EE816C14BE1AC96AAB736D2B84E","844b6a57-4f65-42ae-b303-1536579bb5c3","a0a8f18c-a66e-4ba7-a170-23efbdc67501","{""participantId"":""C02A0EE816C14BE1AC96AAB736D2B84E"",""assignmentId"":""844b6a57-4f65-42ae-b303-1536579bb5c3"",""projectId"":""a0a8f18c-a66e-4ba7-a170-23efbdc67501""}","https://test12345.live/?participantId=C02A0EE816C14BE1AC96AAB736D2B84E&assignmentId=844b6a57-4f65-42ae-b303-1536579bb5c3&projectId=a0a8f18c-a66e-4ba7-a170-23efbdc67501","C02A0EE816C14BE1AC96AAB736D2B84E-2024-11-24-18-33-35","","null","","images/causal_sequence/museum_causal/museum_causal_7.png","null","",""
"","","","","","image-button-response","93","398839","0.0-14.0-1.0-1.1","C02A0EE816C14BE1AC96AAB736D2B84E","C02A0EE816C14BE1AC96AAB736D2B84E","844b6a57-4f65-42ae-b303-1536579bb5c3","a0a8f18c-a66e-4ba7-a170-23efbdc67501","{""participantId"":""C02A0EE816C14BE1AC96AAB736D2B84E"",""assignmentId"":""844b6a57-4f65-42ae-b303-1536579bb5c3"",""projectId"":""a0a8f18c-a66e-4ba7-a170-23efbdc67501""}","https://test12345.live/?participantId=C02A0EE816C14BE1AC96AAB736D2B84E&assignmentId=844b6a57-4f65-42ae-b303-1536579bb5c3&projectId=a0a8f18c-a66e-4ba7-a170-23efbdc67501","C02A0EE816C14BE1AC96AAB736D2B84E-2024-11-24-18-33-35","","1257","","images/causal_sequence/museum_causal/museum_causal_7.png","1","",""
"","","","","","image-button-response","94","400651","0.0-14.0-1.0-2.1","C02A0EE816C14BE1AC96AAB736D2B84E","C02A0EE816C14BE1AC96AAB736D2B84E","844b6a57-4f65-42ae-b303-1536579bb5c3","a0a8f18c-a66e-4ba7-a170-23efbdc67501","{""participantId"":""C02A0EE816C14BE1AC96AAB736D2B84E"",""assignmentId"":""844b6a57-4f65-42ae-b303-1536579bb5c3"",""projectId"":""a0a8f18c-a66e-4ba7-a170-23efbdc67501""}","https://test12345.live/?participantId=C02A0EE816C14BE1AC96AAB736D2B84E&assignmentId=844b6a57-4f65-42ae-b303-1536579bb5c3&projectId=a0a8f18c-a66e-4ba7-a170-23efbdc67501","C02A0EE816C14BE1AC96AAB736D2B84E-2024-11-24-18-33-35","","null","","[]","null","",""
"","","","","","image-button-response","95","405160","0.0-14.0-1.0-0.2","C02A0EE816C14BE1AC96AAB736D2B84E","C02A0EE816C14BE1AC96AAB736D2B84E","844b6a57-4f65-42ae-b303-1536579bb5c3","a0a8f18c-a66e-4ba7-a170-23efbdc67501","{""participantId"":""C02A0EE816C14BE1AC96AAB736D2B84E"",""assignmentId"":""844b6a57-4f65-42ae-b303-1536579bb5c3"",""projectId"":""a0a8f18c-a66e-4ba7-a170-23efbdc67501""}","https://test12345.live/?participantId=C02A0EE816C14BE1AC96AAB736D2B84E&assignmentId=844b6a57-4f65-42ae-b303-1536579bb5c3&projectId=a0a8f18c-a66e-4ba7-a170-23efbdc67501","C02A0EE816C14BE1AC96AAB736D2B84E-2024-11-24-18-33-35","","null","","images/causal_sequence/museum_causal/museum_causal_3.png","null","",""
"","","","","","image-button-response","96","407168","0.0-14.0-1.0-1.2","C02A0EE816C14BE1AC96AAB736D2B84E","C02A0EE816C14BE1AC96AAB736D2B84E","844b6a57-4f65-42ae-b303-1536579bb5c3","a0a8f18c-a66e-4ba7-a170-23efbdc67501","{""participantId"":""C02A0EE816C14BE1AC96AAB736D2B84E"",""assignmentId"":""844b6a57-4f65-42ae-b303-1536579bb5c3"",""projectId"":""a0a8f18c-a66e-4ba7-a170-23efbdc67501""}","https://test12345.live/?participantId=C02A0EE816C14BE1AC96AAB736D2B84E&assignmentId=844b6a57-4f65-42ae-b303-1536579bb5c3&projectId=a0a8f18c-a66e-4ba7-a170-23efbdc67501","C02A0EE816C14BE1AC96AAB736D2B84E-2024-11-24-18-33-35","","2006","","images/causal_sequence/museum_causal/museum_causal_3.png","0","",""
"","","","","","image-button-response","97","408979","0.0-14.0-1.0-2.2","C02A0EE816C14BE1AC96AAB736D2B84E","C02A0EE816C14BE1AC96AAB736D2B84E","844b6a57-4f65-42ae-b303-1536579bb5c3","a0a8f18c-a66e-4ba7-a170-23efbdc67501","{""participantId"":""C02A0EE816C14BE1AC96AAB736D2B84E"",""assignmentId"":""844b6a57-4f65-42ae-b303-1536579bb5c3"",""projectId"":""a0a8f18c-a66e-4ba7-a170-23efbdc67501""}","https://test12345.live/?participantId=C02A0EE816C14BE1AC96AAB736D2B84E&assignmentId=844b6a57-4f65-42ae-b303-1536579bb5c3&projectId=a0a8f18c-a66e-4ba7-a170-23efbdc67501","C02A0EE816C14BE1AC96AAB736D2B84E-2024-11-24-18-33-35","","null","","[]","null","",""
"","","","","","image-button-response","98","413494","0.0-14.0-1.0-0.3","C02A0EE816C14BE1AC96AAB736D2B84E","C02A0EE816C14BE1AC96AAB736D2B84E","844b6a57-4f65-42ae-b303-1536579bb5c3","a0a8f18c-a66e-4ba7-a170-23efbdc67501","{""participantId"":""C02A0EE816C14BE1AC96AAB736D2B84E"",""assignmentId"":""844b6a57-4f65-42ae-b303-1536579bb5c3"",""projectId"":""a0a8f18c-a66e-4ba7-a170-23efbdc67501""}","https://test12345.live/?participantId=C02A0EE816C14BE1AC96AAB736D2B84E&assignmentId=844b6a57-4f65-42ae-b303-1536579bb5c3&projectId=a0a8f18c-a66e-4ba7-a170-23efbdc67501","C02A0EE816C14BE1AC96AAB736D2B84E-2024-11-24-18-33-35","","null","","images/causal_sequence/museum_causal/museum_causal_4.png","null","",""
"","","","","","image-button-response","99","417508","0.0-14.0-1.0-1.3","C02A0EE816C14BE1AC96AAB736D2B84E","C02A0EE816C14BE1AC96AAB736D2B84E","844b6a57-4f65-42ae-b303-1536579bb5c3","a0a8f18c-a66e-4ba7-a170-23efbdc67501","{""participantId"":""C02A0EE816C14BE1AC96AAB736D2B84E"",""assignmentId"":""844b6a57-4f65-42ae-b303-1536579bb5c3"",""projectId"":""a0a8f18c-a66e-4ba7-a170-23efbdc67501""}","https://test12345.live/?participantId=C02A0EE816C14BE1AC96AAB736D2B84E&assignmentId=844b6a57-4f65-42ae-b303-1536579bb5c3&projectId=a0a8f18c-a66e-4ba7-a170-23efbdc67501","C02A0EE816C14BE1AC96AAB736D2B84E-2024-11-24-18-33-35","","null","","images/causal_sequence/museum_causal/museum_causal_4.png","null","",""
"","","","","","image-button-response","100","419312","0.0-14.0-1.0-2.3","C02A0EE816C14BE1AC96AAB736D2B84E","C02A0EE816C14BE1AC96AAB736D2B84E","844b6a57-4f65-42ae-b303-1536579bb5c3","a0a8f18c-a66e-4ba7-a170-23efbdc67501","{""participantId"":""C02A0EE816C14BE1AC96AAB736D2B84E"",""assignmentId"":""844b6a57-4f65-42ae-b303-1536579bb5c3"",""projectId"":""a0a8f18c-a66e-4ba7-a170-23efbdc67501""}","https://test12345.live/?participantId=C02A0EE816C14BE1AC96AAB736D2B84E&assignmentId=844b6a57-4f65-42ae-b303-1536579bb5c3&projectId=a0a8f18c-a66e-4ba7-a170-23efbdc67501","C02A0EE816C14BE1AC96AAB736D2B84E-2024-11-24-18-33-35","","null","","[]","null","",""
"","","","","","image-button-response","101","423821","0.0-14.0-1.0-0.4","C02A0EE816C14BE1AC96AAB736D2B84E","C02A0EE816C14BE1AC96AAB736D2B84E","844b6a57-4f65-42ae-b303-1536579bb5c3","a0a8f18c-a66e-4ba7-a170-23efbdc67501","{""participantId"":""C02A0EE816C14BE1AC96AAB736D2B84E"",""assignmentId"":""844b6a57-4f65-42ae-b303-1536579bb5c3"",""projectId"":""a0a8f18c-a66e-4ba7-a170-23efbdc67501""}","https://test12345.live/?participantId=C02A0EE816C14BE1AC96AAB736D2B84E&assignmentId=844b6a57-4f65-42ae-b303-1536579bb5c3&projectId=a0a8f18c-a66e-4ba7-a170-23efbdc67501","C02A0EE816C14BE1AC96AAB736D2B84E-2024-11-24-18-33-35","","null","","images/causal_sequence/museum_causal/museum_causal_9.png","null","",""
"","","","","","image-button-response","102","425466","0.0-14.0-1.0-1.4","C02A0EE816C14BE1AC96AAB736D2B84E","C02A0EE816C14BE1AC96AAB736D2B84E","844b6a57-4f65-42ae-b303-1536579bb5c3","a0a8f18c-a66e-4ba7-a170-23efbdc67501","{""participantId"":""C02A0EE816C14BE1AC96AAB736D2B84E"",""assignmentId"":""844b6a57-4f65-42ae-b303-1536579bb5c3"",""projectId"":""a0a8f18c-a66e-4ba7-a170-23efbdc67501""}","https://test12345.live/?participantId=C02A0EE816C14BE1AC96AAB736D2B84E&assignmentId=844b6a57-4f65-42ae-b303-1536579bb5c3&projectId=a0a8f18c-a66e-4ba7-a170-23efbdc67501","C02A0EE816C14BE1AC96AAB736D2B84E-2024-11-24-18-33-35","","1643","","images/causal_sequence/museum_causal/museum_causal_9.png","1","",""
"","","","","","image-button-response","103","427281","0.0-14.0-1.0-2.4","C02A0EE816C14BE1AC96AAB736D2B84E","C02A0EE816C14BE1AC96AAB736D2B84E","844b6a57-4f65-42ae-b303-1536579bb5c3","a0a8f18c-a66e-4ba7-a170-23efbdc67501","{""participantId"":""C02A0EE816C14BE1AC96AAB736D2B84E"",""assignmentId"":""844b6a57-4f65-42ae-b303-1536579bb5c3"",""projectId"":""a0a8f18c-a66e-4ba7-a170-23efbdc67501""}","https://test12345.live/?participantId=C02A0EE816C14BE1AC96AAB736D2B84E&assignmentId=844b6a57-4f65-42ae-b303-1536579bb5c3&projectId=a0a8f18c-a66e-4ba7-a170-23efbdc67501","C02A0EE816C14BE1AC96AAB736D2B84E-2024-11-24-18-33-35","","null","","[]","null","",""
"","","","","","image-button-response","104","431797","0.0-14.0-1.0-0.5","C02A0EE816C14BE1AC96AAB736D2B84E","C02A0EE816C14BE1AC96AAB736D2B84E","844b6a57-4f65-42ae-b303-1536579bb5c3","a0a8f18c-a66e-4ba7-a170-23efbdc67501","{""participantId"":""C02A0EE816C14BE1AC96AAB736D2B84E"",""assignmentId"":""844b6a57-4f65-42ae-b303-1536579bb5c3"",""projectId"":""a0a8f18c-a66e-4ba7-a170-23efbdc67501""}","https://test12345.live/?participantId=C02A0EE816C14BE1AC96AAB736D2B84E&assignmentId=844b6a57-4f65-42ae-b303-1536579bb5c3&projectId=a0a8f18c-a66e-4ba7-a170-23efbdc67501","C02A0EE816C14BE1AC96AAB736D2B84E-2024-11-24-18-33-35","","null","","images/causal_sequence/museum_causal/museum_causal_ten.png","null","",""
"","","","","","image-button-response","105","432622","0.0-14.0-1.0-1.5","C02A0EE816C14BE1AC96AAB736D2B84E","C02A0EE816C14BE1AC96AAB736D2B84E","844b6a57-4f65-42ae-b303-1536579bb5c3","a0a8f18c-a66e-4ba7-a170-23efbdc67501","{""participantId"":""C02A0EE816C14BE1AC96AAB736D2B84E"",""assignmentId"":""844b6a57-4f65-42ae-b303-1536579bb5c3"",""projectId"":""a0a8f18c-a66e-4ba7-a170-23efbdc67501""}","https://test12345.live/?participantId=C02A0EE816C14BE1AC96AAB736D2B84E&assignmentId=844b6a57-4f65-42ae-b303-1536579bb5c3&projectId=a0a8f18c-a66e-4ba7-a170-23efbdc67501","C02A0EE816C14BE1AC96AAB736D2B84E-2024-11-24-18-33-35","","823","","images/causal_sequence/museum_causal/museum_causal_ten.png","0","",""
"","","","","","image-button-response","106","434431","0.0-14.0-1.0-2.5","C02A0EE816C14BE1AC96AAB736D2B84E","C02A0EE816C14BE1AC96AAB736D2B84E","844b6a57-4f65-42ae-b303-1536579bb5c3","a0a8f18c-a66e-4ba7-a170-23efbdc67501","{""participantId"":""C02A0EE816C14BE1AC96AAB736D2B84E"",""assignmentId"":""844b6a57-4f65-42ae-b303-1536579bb5c3"",""projectId"":""a0a8f18c-a66e-4ba7-a170-23efbdc67501""}","https://test12345.live/?participantId=C02A0EE816C14BE1AC96AAB736D2B84E&assignmentId=844b6a57-4f65-42ae-b303-1536579bb5c3&projectId=a0a8f18c-a66e-4ba7-a170-23efbdc67501","C02A0EE816C14BE1AC96AAB736D2B84E-2024-11-24-18-33-35","","null","","[]","null","",""
"","","","","","image-button-response","107","438938","0.0-14.0-1.0-0.6","C02A0EE816C14BE1AC96AAB736D2B84E","C02A0EE816C14BE1AC96AAB736D2B84E","844b6a57-4f65-42ae-b303-1536579bb5c3","a0a8f18c-a66e-4ba7-a170-23efbdc67501","{""participantId"":""C02A0EE816C14BE1AC96AAB736D2B84E"",""assignmentId"":""844b6a57-4f65-42ae-b303-1536579bb5c3"",""projectId"":""a0a8f18c-a66e-4ba7-a170-23efbdc67501""}","https://test12345.live/?participantId=C02A0EE816C14BE1AC96AAB736D2B84E&assignmentId=844b6a57-4f65-42ae-b303-1536579bb5c3&projectId=a0a8f18c-a66e-4ba7-a170-23efbdc67501","C02A0EE816C14BE1AC96AAB736D2B84E-2024-11-24-18-33-35","","null","","images/causal_sequence/museum_causal/museum_causal_6.png","null","",""
"","","","","","image-button-response","108","440327","0.0-14.0-1.0-1.6","C02A0EE816C14BE1AC96AAB736D2B84E","C02A0EE816C14BE1AC96AAB736D2B84E","844b6a57-4f65-42ae-b303-1536579bb5c3","a0a8f18c-a66e-4ba7-a170-23efbdc67501","{""participantId"":""C02A0EE816C14BE1AC96AAB736D2B84E"",""assignmentId"":""844b6a57-4f65-42ae-b303-1536579bb5c3"",""projectId"":""a0a8f18c-a66e-4ba7-a170-23efbdc67501""}","https://test12345.live/?participantId=C02A0EE816C14BE1AC96AAB736D2B84E&assignmentId=844b6a57-4f65-42ae-b303-1536579bb5c3&projectId=a0a8f18c-a66e-4ba7-a170-23efbdc67501","C02A0EE816C14BE1AC96AAB736D2B84E-2024-11-24-18-33-35","","1386","","images/causal_sequence/museum_causal/museum_causal_6.png","0","",""
"","","","","","image-button-response","109","442141","0.0-14.0-1.0-2.6","C02A0EE816C14BE1AC96AAB736D2B84E","C02A0EE816C14BE1AC96AAB736D2B84E","844b6a57-4f65-42ae-b303-1536579bb5c3","a0a8f18c-a66e-4ba7-a170-23efbdc67501","{""participantId"":""C02A0EE816C14BE1AC96AAB736D2B84E"",""assignmentId"":""844b6a57-4f65-42ae-b303-1536579bb5c3"",""projectId"":""a0a8f18c-a66e-4ba7-a170-23efbdc67501""}","https://test12345.live/?participantId=C02A0EE816C14BE1AC96AAB736D2B84E&assignmentId=844b6a57-4f65-42ae-b303-1536579bb5c3&projectId=a0a8f18c-a66e-4ba7-a170-23efbdc67501","C02A0EE816C14BE1AC96AAB736D2B84E-2024-11-24-18-33-35","","null","","[]","null","",""
"","","","","","image-button-response","110","446654","0.0-14.0-1.0-0.7","C02A0EE816C14BE1AC96AAB736D2B84E","C02A0EE816C14BE1AC96AAB736D2B84E","844b6a57-4f65-42ae-b303-1536579bb5c3","a0a8f18c-a66e-4ba7-a170-23efbdc67501","{""participantId"":""C02A0EE816C14BE1AC96AAB736D2B84E"",""assignmentId"":""844b6a57-4f65-42ae-b303-1536579bb5c3"",""projectId"":""a0a8f18c-a66e-4ba7-a170-23efbdc67501""}","https://test12345.live/?participantId=C02A0EE816C14BE1AC96AAB736D2B84E&assignmentId=844b6a57-4f65-42ae-b303-1536579bb5c3&projectId=a0a8f18c-a66e-4ba7-a170-23efbdc67501","C02A0EE816C14BE1AC96AAB736D2B84E-2024-11-24-18-33-35","","null","","images/causal_sequence/museum_causal/museum_causal_1.png","null","",""
"","","","","","image-button-response","111","448078","0.0-14.0-1.0-1.7","C02A0EE816C14BE1AC96AAB736D2B84E","C02A0EE816C14BE1AC96AAB736D2B84E","844b6a57-4f65-42ae-b303-1536579bb5c3","a0a8f18c-a66e-4ba7-a170-23efbdc67501","{""participantId"":""C02A0EE816C14BE1AC96AAB736D2B84E"",""assignmentId"":""844b6a57-4f65-42ae-b303-1536579bb5c3"",""projectId"":""a0a8f18c-a66e-4ba7-a170-23efbdc67501""}","https://test12345.live/?participantId=C02A0EE816C14BE1AC96AAB736D2B84E&assignmentId=844b6a57-4f65-42ae-b303-1536579bb5c3&projectId=a0a8f18c-a66e-4ba7-a170-23efbdc67501","C02A0EE816C14BE1AC96AAB736D2B84E-2024-11-24-18-33-35","","1423","","images/causal_sequence/museum_causal/museum_causal_1.png","0","",""
"","","","","","image-button-response","112","449891","0.0-14.0-1.0-2.7","C02A0EE816C14BE1AC96AAB736D2B84E","C02A0EE816C14BE1AC96AAB736D2B84E","844b6a57-4f65-42ae-b303-1536579bb5c3","a0a8f18c-a66e-4ba7-a170-23efbdc67501","{""participantId"":""C02A0EE816C14BE1AC96AAB736D2B84E"",""assignmentId"":""844b6a57-4f65-42ae-b303-1536579bb5c3"",""projectId"":""a0a8f18c-a66e-4ba7-a170-23efbdc67501""}","https://test12345.live/?participantId=C02A0EE816C14BE1AC96AAB736D2B84E&assignmentId=844b6a57-4f65-42ae-b303-1536579bb5c3&projectId=a0a8f18c-a66e-4ba7-a170-23efbdc67501","C02A0EE816C14BE1AC96AAB736D2B84E-2024-11-24-18-33-35","","null","","[]","null","",""
"","","","","","image-button-response","113","454397","0.0-14.0-1.0-0.8","C02A0EE816C14BE1AC96AAB736D2B84E","C02A0EE816C14BE1AC96AAB736D2B84E","844b6a57-4f65-42ae-b303-1536579bb5c3","a0a8f18c-a66e-4ba7-a170-23efbdc67501","{""participantId"":""C02A0EE816C14BE1AC96AAB736D2B84E"",""assignmentId"":""844b6a57-4f65-42ae-b303-1536579bb5c3"",""projectId"":""a0a8f18c-a66e-4ba7-a170-23efbdc67501""}","https://test12345.live/?participantId=C02A0EE816C14BE1AC96AAB736D2B84E&assignmentId=844b6a57-4f65-42ae-b303-1536579bb5c3&projectId=a0a8f18c-a66e-4ba7-a170-23efbdc67501","C02A0EE816C14BE1AC96AAB736D2B84E-2024-11-24-18-33-35","","null","","images/causal_sequence/museum_causal/museum_causal_8.png","null","",""
"","","","","","image-button-response","114","455738","0.0-14.0-1.0-1.8","C02A0EE816C14BE1AC96AAB736D2B84E","C02A0EE816C14BE1AC96AAB736D2B84E","844b6a57-4f65-42ae-b303-1536579bb5c3","a0a8f18c-a66e-4ba7-a170-23efbdc67501","{""participantId"":""C02A0EE816C14BE1AC96AAB736D2B84E"",""assignmentId"":""844b6a57-4f65-42ae-b303-1536579bb5c3"",""projectId"":""a0a8f18c-a66e-4ba7-a170-23efbdc67501""}","https://test12345.live/?participantId=C02A0EE816C14BE1AC96AAB736D2B84E&assignmentId=844b6a57-4f65-42ae-b303-1536579bb5c3&projectId=a0a8f18c-a66e-4ba7-a170-23efbdc67501","C02A0EE816C14BE1AC96AAB736D2B84E-2024-11-24-18-33-35","","1339","","images/causal_sequence/museum_causal/museum_causal_8.png","0","",""
"","","","","","image-button-response","115","457551","0.0-14.0-1.0-2.8","C02A0EE816C14BE1AC96AAB736D2B84E","C02A0EE816C14BE1AC96AAB736D2B84E","844b6a57-4f65-42ae-b303-1536579bb5c3","a0a8f18c-a66e-4ba7-a170-23efbdc67501","{""participantId"":""C02A0EE816C14BE1AC96AAB736D2B84E"",""assignmentId"":""844b6a57-4f65-42ae-b303-1536579bb5c3"",""projectId"":""a0a8f18c-a66e-4ba7-a170-23efbdc67501""}","https://test12345.live/?participantId=C02A0EE816C14BE1AC96AAB736D2B84E&assignmentId=844b6a57-4f65-42ae-b303-1536579bb5c3&projectId=a0a8f18c-a66e-4ba7-a170-23efbdc67501","C02A0EE816C14BE1AC96AAB736D2B84E-2024-11-24-18-33-35","","null","","[]","null","",""
"","","","","","image-button-response","116","462060","0.0-14.0-1.0-0.9","C02A0EE816C14BE1AC96AAB736D2B84E","C02A0EE816C14BE1AC96AAB736D2B84E","844b6a57-4f65-42ae-b303-1536579bb5c3","a0a8f18c-a66e-4ba7-a170-23efbdc67501","{""participantId"":""C02A0EE816C14BE1AC96AAB736D2B84E"",""assignmentId"":""844b6a57-4f65-42ae-b303-1536579bb5c3"",""projectId"":""a0a8f18c-a66e-4ba7-a170-23efbdc67501""}","https://test12345.live/?participantId=C02A0EE816C14BE1AC96AAB736D2B84E&assignmentId=844b6a57-4f65-42ae-b303-1536579bb5c3&projectId=a0a8f18c-a66e-4ba7-a170-23efbdc67501","C02A0EE816C14BE1AC96AAB736D2B84E-2024-11-24-18-33-35","","null","","images/causal_sequence/museum_causal/museum_causal_2.png","null","",""
"","","","","","image-button-response","117","464087","0.0-14.0-1.0-1.9","C02A0EE816C14BE1AC96AAB736D2B84E","C02A0EE816C14BE1AC96AAB736D2B84E","844b6a57-4f65-42ae-b303-1536579bb5c3","a0a8f18c-a66e-4ba7-a170-23efbdc67501","{""participantId"":""C02A0EE816C14BE1AC96AAB736D2B84E"",""assignmentId"":""844b6a57-4f65-42ae-b303-1536579bb5c3"",""projectId"":""a0a8f18c-a66e-4ba7-a170-23efbdc67501""}","https://test12345.live/?participantId=C02A0EE816C14BE1AC96AAB736D2B84E&assignmentId=844b6a57-4f65-42ae-b303-1536579bb5c3&projectId=a0a8f18c-a66e-4ba7-a170-23efbdc67501","C02A0EE816C14BE1AC96AAB736D2B84E-2024-11-24-18-33-35","","2025","","images/causal_sequence/museum_causal/museum_causal_2.png","0","",""
"","","","","","image-button-response","118","465898","0.0-14.0-1.0-2.9","C02A0EE816C14BE1AC96AAB736D2B84E","C02A0EE816C14BE1AC96AAB736D2B84E","844b6a57-4f65-42ae-b303-1536579bb5c3","a0a8f18c-a66e-4ba7-a170-23efbdc67501","{""participantId"":""C02A0EE816C14BE1AC96AAB736D2B84E"",""assignmentId"":""844b6a57-4f65-42ae-b303-1536579bb5c3"",""projectId"":""a0a8f18c-a66e-4ba7-a170-23efbdc67501""}","https://test12345.live/?participantId=C02A0EE816C14BE1AC96AAB736D2B84E&assignmentId=844b6a57-4f65-42ae-b303-1536579bb5c3&projectId=a0a8f18c-a66e-4ba7-a170-23efbdc67501","C02A0EE816C14BE1AC96AAB736D2B84E-2024-11-24-18-33-35","","null","","[]","null","",""
"","","","","","html-audio-response","119","491596","0.0-15.0","C02A0EE816C14BE1AC96AAB736D2B84E","C02A0EE816C14BE1AC96AAB736D2B84E","844b6a57-4f65-42ae-b303-1536579bb5c3","a0a8f18c-a66e-4ba7-a170-23efbdc67501","{""participantId"":""C02A0EE816C14BE1AC96AAB736D2B84E"",""assignmentId"":""844b6a57-4f65-42ae-b303-1536579bb5c3"",""projectId"":""a0a8f18c-a66e-4ba7-a170-23efbdc67501""}","https://test12345.live/?participantId=C02A0EE816C14BE1AC96AAB736D2B84E&assignmentId=844b6a57-4f65-42ae-b303-1536579bb5c3&projectId=a0a8f18c-a66e-4ba7-a170-23efbdc67501","C02A0EE816C14BE1AC96AAB736D2B84E-2024-11-24-18-33-35","","24587","","[""<span style=\""color: red; font-size: 24px\""> NOW RECORDING</span><p>Please say out loud all the images you saw, as many as you can remember. The images can be said in any order.</p>""]","","3","museum_causal"
"","","","","","image-button-response","120","497612","0.0-16.0-0.0","C02A0EE816C14BE1AC96AAB736D2B84E","C02A0EE816C14BE1AC96AAB736D2B84E","844b6a57-4f65-42ae-b303-1536579bb5c3","a0a8f18c-a66e-4ba7-a170-23efbdc67501","{""participantId"":""C02A0EE816C14BE1AC96AAB736D2B84E"",""assignmentId"":""844b6a57-4f65-42ae-b303-1536579bb5c3"",""projectId"":""a0a8f18c-a66e-4ba7-a170-23efbdc67501""}","https://test12345.live/?participantId=C02A0EE816C14BE1AC96AAB736D2B84E&assignmentId=844b6a57-4f65-42ae-b303-1536579bb5c3&projectId=a0a8f18c-a66e-4ba7-a170-23efbdc67501","C02A0EE816C14BE1AC96AAB736D2B84E-2024-11-24-18-33-35","","null","","images/causal_sequence/dog_causal/dog_causal_0.png","null","",""
"","","","","","image-button-response","121","502115","0.0-16.0-1.0-0.0","C02A0EE816C14BE1AC96AAB736D2B84E","C02A0EE816C14BE1AC96AAB736D2B84E","844b6a57-4f65-42ae-b303-1536579bb5c3","a0a8f18c-a66e-4ba7-a170-23efbdc67501","{""participantId"":""C02A0EE816C14BE1AC96AAB736D2B84E"",""assignmentId"":""844b6a57-4f65-42ae-b303-1536579bb5c3"",""projectId"":""a0a8f18c-a66e-4ba7-a170-23efbdc67501""}","https://test12345.live/?participantId=C02A0EE816C14BE1AC96AAB736D2B84E&assignmentId=844b6a57-4f65-42ae-b303-1536579bb5c3&projectId=a0a8f18c-a66e-4ba7-a170-23efbdc67501","C02A0EE816C14BE1AC96AAB736D2B84E-2024-11-24-18-33-35","","null","","images/causal_sequence/dog_causal/dog_causal_1.png","null","",""
"","","","","","image-button-response","122","504231","0.0-16.0-1.0-1.0","C02A0EE816C14BE1AC96AAB736D2B84E","C02A0EE816C14BE1AC96AAB736D2B84E","844b6a57-4f65-42ae-b303-1536579bb5c3","a0a8f18c-a66e-4ba7-a170-23efbdc67501","{""participantId"":""C02A0EE816C14BE1AC96AAB736D2B84E"",""assignmentId"":""844b6a57-4f65-42ae-b303-1536579bb5c3"",""projectId"":""a0a8f18c-a66e-4ba7-a170-23efbdc67501""}","https://test12345.live/?participantId=C02A0EE816C14BE1AC96AAB736D2B84E&assignmentId=844b6a57-4f65-42ae-b303-1536579bb5c3&projectId=a0a8f18c-a66e-4ba7-a170-23efbdc67501","C02A0EE816C14BE1AC96AAB736D2B84E-2024-11-24-18-33-35","","2114","","images/causal_sequence/dog_causal/dog_causal_1.png","0","",""
"","","","","","image-button-response","123","506034","0.0-16.0-1.0-2.0","C02A0EE816C14BE1AC96AAB736D2B84E","C02A0EE816C14BE1AC96AAB736D2B84E","844b6a57-4f65-42ae-b303-1536579bb5c3","a0a8f18c-a66e-4ba7-a170-23efbdc67501","{""participantId"":""C02A0EE816C14BE1AC96AAB736D2B84E"",""assignmentId"":""844b6a57-4f65-42ae-b303-1536579bb5c3"",""projectId"":""a0a8f18c-a66e-4ba7-a170-23efbdc67501""}","https://test12345.live/?participantId=C02A0EE816C14BE1AC96AAB736D2B84E&assignmentId=844b6a57-4f65-42ae-b303-1536579bb5c3&projectId=a0a8f18c-a66e-4ba7-a170-23efbdc67501","C02A0EE816C14BE1AC96AAB736D2B84E-2024-11-24-18-33-35","","null","","[]","null","",""
"","","","","","image-button-response","124","510549","0.0-16.0-1.0-0.1","C02A0EE816C14BE1AC96AAB736D2B84E","C02A0EE816C14BE1AC96AAB736D2B84E","844b6a57-4f65-42ae-b303-1536579bb5c3","a0a8f18c-a66e-4ba7-a170-23efbdc67501","{""participantId"":""C02A0EE816C14BE1AC96AAB736D2B84E"",""assignmentId"":""844b6a57-4f65-42ae-b303-1536579bb5c3"",""projectId"":""a0a8f18c-a66e-4ba7-a170-23efbdc67501""}","https://test12345.live/?participantId=C02A0EE816C14BE1AC96AAB736D2B84E&assignmentId=844b6a57-4f65-42ae-b303-1536579bb5c3&projectId=a0a8f18c-a66e-4ba7-a170-23efbdc67501","C02A0EE816C14BE1AC96AAB736D2B84E-2024-11-24-18-33-35","","null","","images/causal_sequence/dog_causal/dog_causal_2.png","null","",""
"","","","","","image-button-response","125","511482","0.0-16.0-1.0-1.1","C02A0EE816C14BE1AC96AAB736D2B84E","C02A0EE816C14BE1AC96AAB736D2B84E","844b6a57-4f65-42ae-b303-1536579bb5c3","a0a8f18c-a66e-4ba7-a170-23efbdc67501","{""participantId"":""C02A0EE816C14BE1AC96AAB736D2B84E"",""assignmentId"":""844b6a57-4f65-42ae-b303-1536579bb5c3"",""projectId"":""a0a8f18c-a66e-4ba7-a170-23efbdc67501""}","https://test12345.live/?participantId=C02A0EE816C14BE1AC96AAB736D2B84E&assignmentId=844b6a57-4f65-42ae-b303-1536579bb5c3&projectId=a0a8f18c-a66e-4ba7-a170-23efbdc67501","C02A0EE816C14BE1AC96AAB736D2B84E-2024-11-24-18-33-35","","931","","images/causal_sequence/dog_causal/dog_causal_2.png","0","",""
"","","","","","image-button-response","126","513292","0.0-16.0-1.0-2.1","C02A0EE816C14BE1AC96AAB736D2B84E","C02A0EE816C14BE1AC96AAB736D2B84E","844b6a57-4f65-42ae-b303-1536579bb5c3","a0a8f18c-a66e-4ba7-a170-23efbdc67501","{""participantId"":""C02A0EE816C14BE1AC96AAB736D2B84E"",""assignmentId"":""844b6a57-4f65-42ae-b303-1536579bb5c3"",""projectId"":""a0a8f18c-a66e-4ba7-a170-23efbdc67501""}","https://test12345.live/?participantId=C02A0EE816C14BE1AC96AAB736D2B84E&assignmentId=844b6a57-4f65-42ae-b303-1536579bb5c3&projectId=a0a8f18c-a66e-4ba7-a170-23efbdc67501","C02A0EE816C14BE1AC96AAB736D2B84E-2024-11-24-18-33-35","","null","","[]","null","",""
"","","","","","image-button-response","127","517801","0.0-16.0-1.0-0.2","C02A0EE816C14BE1AC96AAB736D2B84E","C02A0EE816C14BE1AC96AAB736D2B84E","844b6a57-4f65-42ae-b303-1536579bb5c3","a0a8f18c-a66e-4ba7-a170-23efbdc67501","{""participantId"":""C02A0EE816C14BE1AC96AAB736D2B84E"",""assignmentId"":""844b6a57-4f65-42ae-b303-1536579bb5c3"",""projectId"":""a0a8f18c-a66e-4ba7-a170-23efbdc67501""}","https://test12345.live/?participantId=C02A0EE816C14BE1AC96AAB736D2B84E&assignmentId=844b6a57-4f65-42ae-b303-1536579bb5c3&projectId=a0a8f18c-a66e-4ba7-a170-23efbdc67501","C02A0EE816C14BE1AC96AAB736D2B84E-2024-11-24-18-33-35","","null","","images/causal_sequence/dog_causal/dog_causal_3.png","null","",""
"","","","","","image-button-response","128","518834","0.0-16.0-1.0-1.2","C02A0EE816C14BE1AC96AAB736D2B84E","C02A0EE816C14BE1AC96AAB736D2B84E","844b6a57-4f65-42ae-b303-1536579bb5c3","a0a8f18c-a66e-4ba7-a170-23efbdc67501","{""participantId"":""C02A0EE816C14BE1AC96AAB736D2B84E"",""assignmentId"":""844b6a57-4f65-42ae-b303-1536579bb5c3"",""projectId"":""a0a8f18c-a66e-4ba7-a170-23efbdc67501""}","https://test12345.live/?participantId=C02A0EE816C14BE1AC96AAB736D2B84E&assignmentId=844b6a57-4f65-42ae-b303-1536579bb5c3&projectId=a0a8f18c-a66e-4ba7-a170-23efbdc67501","C02A0EE816C14BE1AC96AAB736D2B84E-2024-11-24-18-33-35","","1031","","images/causal_sequence/dog_causal/dog_causal_3.png","0","",""
"","","","","","image-button-response","129","520650","0.0-16.0-1.0-2.2","C02A0EE816C14BE1AC96AAB736D2B84E","C02A0EE816C14BE1AC96AAB736D2B84E","844b6a57-4f65-42ae-b303-1536579bb5c3","a0a8f18c-a66e-4ba7-a170-23efbdc67501","{""participantId"":""C02A0EE816C14BE1AC96AAB736D2B84E"",""assignmentId"":""844b6a57-4f65-42ae-b303-1536579bb5c3"",""projectId"":""a0a8f18c-a66e-4ba7-a170-23efbdc67501""}","https://test12345.live/?participantId=C02A0EE816C14BE1AC96AAB736D2B84E&assignmentId=844b6a57-4f65-42ae-b303-1536579bb5c3&projectId=a0a8f18c-a66e-4ba7-a170-23efbdc67501","C02A0EE816C14BE1AC96AAB736D2B84E-2024-11-24-18-33-35","","null","","[]","null","",""
"","","","","","image-button-response","130","525152","0.0-16.0-1.0-0.3","C02A0EE816C14BE1AC96AAB736D2B84E","C02A0EE816C14BE1AC96AAB736D2B84E","844b6a57-4f65-42ae-b303-1536579bb5c3","a0a8f18c-a66e-4ba7-a170-23efbdc67501","{""participantId"":""C02A0EE816C14BE1AC96AAB736D2B84E"",""assignmentId"":""844b6a57-4f65-42ae-b303-1536579bb5c3"",""projectId"":""a0a8f18c-a66e-4ba7-a170-23efbdc67501""}","https://test12345.live/?participantId=C02A0EE816C14BE1AC96AAB736D2B84E&assignmentId=844b6a57-4f65-42ae-b303-1536579bb5c3&projectId=a0a8f18c-a66e-4ba7-a170-23efbdc67501","C02A0EE816C14BE1AC96AAB736D2B84E-2024-11-24-18-33-35","","null","","images/causal_sequence/dog_causal/dog_causal_4.png","null","",""
"","","","","","image-button-response","131","526088","0.0-16.0-1.0-1.3","C02A0EE816C14BE1AC96AAB736D2B84E","C02A0EE816C14BE1AC96AAB736D2B84E","844b6a57-4f65-42ae-b303-1536579bb5c3","a0a8f18c-a66e-4ba7-a170-23efbdc67501","{""participantId"":""C02A0EE816C14BE1AC96AAB736D2B84E"",""assignmentId"":""844b6a57-4f65-42ae-b303-1536579bb5c3"",""projectId"":""a0a8f18c-a66e-4ba7-a170-23efbdc67501""}","https://test12345.live/?participantId=C02A0EE816C14BE1AC96AAB736D2B84E&assignmentId=844b6a57-4f65-42ae-b303-1536579bb5c3&projectId=a0a8f18c-a66e-4ba7-a170-23efbdc67501","C02A0EE816C14BE1AC96AAB736D2B84E-2024-11-24-18-33-35","","934","","images/causal_sequence/dog_causal/dog_causal_4.png","0","",""
"","","","","","image-button-response","132","527898","0.0-16.0-1.0-2.3","C02A0EE816C14BE1AC96AAB736D2B84E","C02A0EE816C14BE1AC96AAB736D2B84E","844b6a57-4f65-42ae-b303-1536579bb5c3","a0a8f18c-a66e-4ba7-a170-23efbdc67501","{""participantId"":""C02A0EE816C14BE1AC96AAB736D2B84E"",""assignmentId"":""844b6a57-4f65-42ae-b303-1536579bb5c3"",""projectId"":""a0a8f18c-a66e-4ba7-a170-23efbdc67501""}","https://test12345.live/?participantId=C02A0EE816C14BE1AC96AAB736D2B84E&assignmentId=844b6a57-4f65-42ae-b303-1536579bb5c3&projectId=a0a8f18c-a66e-4ba7-a170-23efbdc67501","C02A0EE816C14BE1AC96AAB736D2B84E-2024-11-24-18-33-35","","null","","[]","null","",""
"","","","","","image-button-response","133","532413","0.0-16.0-1.0-0.4","C02A0EE816C14BE1AC96AAB736D2B84E","C02A0EE816C14BE1AC96AAB736D2B84E","844b6a57-4f65-42ae-b303-1536579bb5c3","a0a8f18c-a66e-4ba7-a170-23efbdc67501","{""participantId"":""C02A0EE816C14BE1AC96AAB736D2B84E"",""assignmentId"":""844b6a57-4f65-42ae-b303-1536579bb5c3"",""projectId"":""a0a8f18c-a66e-4ba7-a170-23efbdc67501""}","https://test12345.live/?participantId=C02A0EE816C14BE1AC96AAB736D2B84E&assignmentId=844b6a57-4f65-42ae-b303-1536579bb5c3&projectId=a0a8f18c-a66e-4ba7-a170-23efbdc67501","C02A0EE816C14BE1AC96AAB736D2B84E-2024-11-24-18-33-35","","null","","images/causal_sequence/dog_causal/dog_causal_5.png","null","",""
"","","","","","image-button-response","134","533392","0.0-16.0-1.0-1.4","C02A0EE816C14BE1AC96AAB736D2B84E","C02A0EE816C14BE1AC96AAB736D2B84E","844b6a57-4f65-42ae-b303-1536579bb5c3","a0a8f18c-a66e-4ba7-a170-23efbdc67501","{""participantId"":""C02A0EE816C14BE1AC96AAB736D2B84E"",""assignmentId"":""844b6a57-4f65-42ae-b303-1536579bb5c3"",""projectId"":""a0a8f18c-a66e-4ba7-a170-23efbdc67501""}","https://test12345.live/?participantId=C02A0EE816C14BE1AC96AAB736D2B84E&assignmentId=844b6a57-4f65-42ae-b303-1536579bb5c3&projectId=a0a8f18c-a66e-4ba7-a170-23efbdc67501","C02A0EE816C14BE1AC96AAB736D2B84E-2024-11-24-18-33-35","","979","","images/causal_sequence/dog_causal/dog_causal_5.png","0","",""
"","","","","","image-button-response","135","535205","0.0-16.0-1.0-2.4","C02A0EE816C14BE1AC96AAB736D2B84E","C02A0EE816C14BE1AC96AAB736D2B84E","844b6a57-4f65-42ae-b303-1536579bb5c3","a0a8f18c-a66e-4ba7-a170-23efbdc67501","{""participantId"":""C02A0EE816C14BE1AC96AAB736D2B84E"",""assignmentId"":""844b6a57-4f65-42ae-b303-1536579bb5c3"",""projectId"":""a0a8f18c-a66e-4ba7-a170-23efbdc67501""}","https://test12345.live/?participantId=C02A0EE816C14BE1AC96AAB736D2B84E&assignmentId=844b6a57-4f65-42ae-b303-1536579bb5c3&projectId=a0a8f18c-a66e-4ba7-a170-23efbdc67501","C02A0EE816C14BE1AC96AAB736D2B84E-2024-11-24-18-33-35","","null","","[]","null","",""
"","","","","","image-button-response","136","539706","0.0-16.0-1.0-0.5","C02A0EE816C14BE1AC96AAB736D2B84E","C02A0EE816C14BE1AC96AAB736D2B84E","844b6a57-4f65-42ae-b303-1536579bb5c3","a0a8f18c-a66e-4ba7-a170-23efbdc67501","{""participantId"":""C02A0EE816C14BE1AC96AAB736D2B84E"",""assignmentId"":""844b6a57-4f65-42ae-b303-1536579bb5c3"",""projectId"":""a0a8f18c-a66e-4ba7-a170-23efbdc67501""}","https://test12345.live/?participantId=C02A0EE816C14BE1AC96AAB736D2B84E&assignmentId=844b6a57-4f65-42ae-b303-1536579bb5c3&projectId=a0a8f18c-a66e-4ba7-a170-23efbdc67501","C02A0EE816C14BE1AC96AAB736D2B84E-2024-11-24-18-33-35","","null","","images/causal_sequence/dog_causal/dog_causal_6.png","null","",""
"","","","","","image-button-response","137","540782","0.0-16.0-1.0-1.5","C02A0EE816C14BE1AC96AAB736D2B84E","C02A0EE816C14BE1AC96AAB736D2B84E","844b6a57-4f65-42ae-b303-1536579bb5c3","a0a8f18c-a66e-4ba7-a170-23efbdc67501","{""participantId"":""C02A0EE816C14BE1AC96AAB736D2B84E"",""assignmentId"":""844b6a57-4f65-42ae-b303-1536579bb5c3"",""projectId"":""a0a8f18c-a66e-4ba7-a170-23efbdc67501""}","https://test12345.live/?participantId=C02A0EE816C14BE1AC96AAB736D2B84E&assignmentId=844b6a57-4f65-42ae-b303-1536579bb5c3&projectId=a0a8f18c-a66e-4ba7-a170-23efbdc67501","C02A0EE816C14BE1AC96AAB736D2B84E-2024-11-24-18-33-35","","1075","","images/causal_sequence/dog_causal/dog_causal_6.png","0","",""
"","","","","","image-button-response","138","542592","0.0-16.0-1.0-2.5","C02A0EE816C14BE1AC96AAB736D2B84E","C02A0EE816C14BE1AC96AAB736D2B84E","844b6a57-4f65-42ae-b303-1536579bb5c3","a0a8f18c-a66e-4ba7-a170-23efbdc67501","{""participantId"":""C02A0EE816C14BE1AC96AAB736D2B84E"",""assignmentId"":""844b6a57-4f65-42ae-b303-1536579bb5c3"",""projectId"":""a0a8f18c-a66e-4ba7-a170-23efbdc67501""}","https://test12345.live/?participantId=C02A0EE816C14BE1AC96AAB736D2B84E&assignmentId=844b6a57-4f65-42ae-b303-1536579bb5c3&projectId=a0a8f18c-a66e-4ba7-a170-23efbdc67501","C02A0EE816C14BE1AC96AAB736D2B84E-2024-11-24-18-33-35","","null","","[]","null","",""
"","","","","","image-button-response","139","547104","0.0-16.0-1.0-0.6","C02A0EE816C14BE1AC96AAB736D2B84E","C02A0EE816C14BE1AC96AAB736D2B84E","844b6a57-4f65-42ae-b303-1536579bb5c3","a0a8f18c-a66e-4ba7-a170-23efbdc67501","{""participantId"":""C02A0EE816C14BE1AC96AAB736D2B84E"",""assignmentId"":""844b6a57-4f65-42ae-b303-1536579bb5c3"",""projectId"":""a0a8f18c-a66e-4ba7-a170-23efbdc67501""}","https://test12345.live/?participantId=C02A0EE816C14BE1AC96AAB736D2B84E&assignmentId=844b6a57-4f65-42ae-b303-1536579bb5c3&projectId=a0a8f18c-a66e-4ba7-a170-23efbdc67501","C02A0EE816C14BE1AC96AAB736D2B84E-2024-11-24-18-33-35","","null","","images/causal_sequence/dog_causal/dog_causal_7.png","null","",""
"","","","","","image-button-response","140","548794","0.0-16.0-1.0-1.6","C02A0EE816C14BE1AC96AAB736D2B84E","C02A0EE816C14BE1AC96AAB736D2B84E","844b6a57-4f65-42ae-b303-1536579bb5c3","a0a8f18c-a66e-4ba7-a170-23efbdc67501","{""participantId"":""C02A0EE816C14BE1AC96AAB736D2B84E"",""assignmentId"":""844b6a57-4f65-42ae-b303-1536579bb5c3"",""projectId"":""a0a8f18c-a66e-4ba7-a170-23efbdc67501""}","https://test12345.live/?participantId=C02A0EE816C14BE1AC96AAB736D2B84E&assignmentId=844b6a57-4f65-42ae-b303-1536579bb5c3&projectId=a0a8f18c-a66e-4ba7-a170-23efbdc67501","C02A0EE816C14BE1AC96AAB736D2B84E-2024-11-24-18-33-35","","1688","","images/causal_sequence/dog_causal/dog_causal_7.png","0","",""
"","","","","","image-button-response","141","550597","0.0-16.0-1.0-2.6","C02A0EE816C14BE1AC96AAB736D2B84E","C02A0EE816C14BE1AC96AAB736D2B84E","844b6a57-4f65-42ae-b303-1536579bb5c3","a0a8f18c-a66e-4ba7-a170-23efbdc67501","{""participantId"":""C02A0EE816C14BE1AC96AAB736D2B84E"",""assignmentId"":""844b6a57-4f65-42ae-b303-1536579bb5c3"",""projectId"":""a0a8f18c-a66e-4ba7-a170-23efbdc67501""}","https://test12345.live/?participantId=C02A0EE816C14BE1AC96AAB736D2B84E&assignmentId=844b6a57-4f65-42ae-b303-1536579bb5c3&projectId=a0a8f18c-a66e-4ba7-a170-23efbdc67501","C02A0EE816C14BE1AC96AAB736D2B84E-2024-11-24-18-33-35","","null","","[]","null","",""
"","","","","","image-button-response","142","555101","0.0-16.0-1.0-0.7","C02A0EE816C14BE1AC96AAB736D2B84E","C02A0EE816C14BE1AC96AAB736D2B84E","844b6a57-4f65-42ae-b303-1536579bb5c3","a0a8f18c-a66e-4ba7-a170-23efbdc67501","{""participantId"":""C02A0EE816C14BE1AC96AAB736D2B84E"",""assignmentId"":""844b6a57-4f65-42ae-b303-1536579bb5c3"",""projectId"":""a0a8f18c-a66e-4ba7-a170-23efbdc67501""}","https://test12345.live/?participantId=C02A0EE816C14BE1AC96AAB736D2B84E&assignmentId=844b6a57-4f65-42ae-b303-1536579bb5c3&projectId=a0a8f18c-a66e-4ba7-a170-23efbdc67501","C02A0EE816C14BE1AC96AAB736D2B84E-2024-11-24-18-33-35","","null","","images/causal_sequence/dog_causal/dog_causal_8.png","null","",""
"","","","","","image-button-response","143","555983","0.0-16.0-1.0-1.7","C02A0EE816C14BE1AC96AAB736D2B84E","C02A0EE816C14BE1AC96AAB736D2B84E","844b6a57-4f65-42ae-b303-1536579bb5c3","a0a8f18c-a66e-4ba7-a170-23efbdc67501","{""participantId"":""C02A0EE816C14BE1AC96AAB736D2B84E"",""assignmentId"":""844b6a57-4f65-42ae-b303-1536579bb5c3"",""projectId"":""a0a8f18c-a66e-4ba7-a170-23efbdc67501""}","https://test12345.live/?participantId=C02A0EE816C14BE1AC96AAB736D2B84E&assignmentId=844b6a57-4f65-42ae-b303-1536579bb5c3&projectId=a0a8f18c-a66e-4ba7-a170-23efbdc67501","C02A0EE816C14BE1AC96AAB736D2B84E-2024-11-24-18-33-35","","880","","images/causal_sequence/dog_causal/dog_causal_8.png","0","",""
