"success","timeout","failed_images","failed_audio","failed_video","trial_type","trial_index","time_elapsed","internal_node_id","subject","subject_id","study_id","session_id","urlvar","current_url","audio_id","view_history","rt","device_id","stimulus","response","estimated_stimulus_onset","seq_name"
"true","false","[]","[]","[]","preload","0","3601","0.0-0.0","C0686A9C7AB14B599E535D94201A7FBA","C0686A9C7AB14B599E535D94201A7FBA","df8cd1df-49c0-4380-879f-75a282ab275b","051c06f1-75cc-4548-856d-4923ddaba0dc","{""num_scrambled_semantic"":""8"",""num_scrambled_causal"":""4"",""num_scrambled_schematic"":""4"",""participantId"":""C0686A9C7AB14B599E535D94201A7FBA"",""assignmentId"":""df8cd1df-49c0-4380-879f-75a282ab275b"",""projectId"":""051c06f1-75cc-4548-856d-4923ddaba0dc""}","https://test12345.live/?num_scrambled_semantic=8&num_scrambled_causal=4&num_scrambled_schematic=4&participantId=C0686A9C7AB14B599E535D94201A7FBA&assignmentId=df8cd1df-49c0-4380-879f-75a282ab275b&projectId=051c06f1-75cc-4548-856d-4923ddaba0dc","C0686A9C7AB14B599E535D94201A7FBA-2025-05-15-19-00-13","","","","","","",""
"","","","","","instructions","1","34029","0.0-1.0","C0686A9C7AB14B599E535D94201A7FBA","C0686A9C7AB14B599E535D94201A7FBA","df8cd1df-49c0-4380-879f-75a282ab275b","051c06f1-75cc-4548-856d-4923ddaba0dc","{""num_scrambled_semantic"":""8"",""num_scrambled_causal"":""4"",""num_scrambled_schematic"":""4"",""participantId"":""C0686A9C7AB14B599E535D94201A7FBA"",""assignmentId"":""df8cd1df-49c0-4380-879f-75a282ab275b"",""projectId"":""051c06f1-75cc-4548-856d-4923ddaba0dc""}","https://test12345.live/?num_scrambled_semantic=8&num_scrambled_causal=4&num_scrambled_schematic=4&participantId=C0686A9C7AB14B599E535D94201A7FBA&assignmentId=df8cd1df-49c0-4380-879f-75a282ab275b&projectId=051c06f1-75cc-4548-856d-4923ddaba0dc","C0686A9C7AB14B599E535D94201A7FBA-2025-05-15-19-00-13","[{""page_index"":0,""viewing_time"":30427}]","30428","","","","",""
"","","","","","instructions","2","91916","0.0-2.0","C0686A9C7AB14B599E535D94201A7FBA","C0686A9C7AB14B599E535D94201A7FBA","df8cd1df-49c0-4380-879f-75a282ab275b","051c06f1-75cc-4548-856d-4923ddaba0dc","{""num_scrambled_semantic"":""8"",""num_scrambled_causal"":""4"",""num_scrambled_schematic"":""4"",""participantId"":""C0686A9C7AB14B599E535D94201A7FBA"",""assignmentId"":""df8cd1df-49c0-4380-879f-75a282ab275b"",""projectId"":""051c06f1-75cc-4548-856d-4923ddaba0dc""}","https://test12345.live/?num_scrambled_semantic=8&num_scrambled_causal=4&num_scrambled_schematic=4&participantId=C0686A9C7AB14B599E535D94201A7FBA&assignmentId=df8cd1df-49c0-4380-879f-75a282ab275b&projectId=051c06f1-75cc-4548-856d-4923ddaba0dc","C0686A9C7AB14B599E535D94201A7FBA-2025-05-15-19-00-13","[{""page_index"":0,""viewing_time"":57886}]","57886","","","","",""
"true","","","","","fullscreen","3","99986","0.0-3.0","C0686A9C7AB14B599E535D94201A7FBA","C0686A9C7AB14B599E535D94201A7FBA","df8cd1df-49c0-4380-879f-75a282ab275b","051c06f1-75cc-4548-856d-4923ddaba0dc","{""num_scrambled_semantic"":""8"",""num_scrambled_causal"":""4"",""num_scrambled_schematic"":""4"",""participantId"":""C0686A9C7AB14B599E535D94201A7FBA"",""assignmentId"":""df8cd1df-49c0-4380-879f-75a282ab275b"",""projectId"":""051c06f1-75cc-4548-856d-4923ddaba0dc""}","https://test12345.live/?num_scrambled_semantic=8&num_scrambled_causal=4&num_scrambled_schematic=4&participantId=C0686A9C7AB14B599E535D94201A7FBA&assignmentId=df8cd1df-49c0-4380-879f-75a282ab275b&projectId=051c06f1-75cc-4548-856d-4923ddaba0dc","C0686A9C7AB14B599E535D94201A7FBA-2025-05-15-19-00-13","","7060","","","","",""
"","","","","","initialize-microphone","4","569298","0.0-4.0-0.0","C0686A9C7AB14B599E535D94201A7FBA","C0686A9C7AB14B599E535D94201A7FBA","df8cd1df-49c0-4380-879f-75a282ab275b","051c06f1-75cc-4548-856d-4923ddaba0dc","{""num_scrambled_semantic"":""8"",""num_scrambled_causal"":""4"",""num_scrambled_schematic"":""4"",""participantId"":""C0686A9C7AB14B599E535D94201A7FBA"",""assignmentId"":""df8cd1df-49c0-4380-879f-75a282ab275b"",""projectId"":""051c06f1-75cc-4548-856d-4923ddaba0dc""}","https://test12345.live/?num_scrambled_semantic=8&num_scrambled_causal=4&num_scrambled_schematic=4&participantId=C0686A9C7AB14B599E535D94201A7FBA&assignmentId=df8cd1df-49c0-4380-879f-75a282ab275b&projectId=051c06f1-75cc-4548-856d-4923ddaba0dc","C0686A9C7AB14B599E535D94201A7FBA-2025-05-15-19-00-13","","","14463bcc35de099f0f789ebc7f9e617957c8ccc46a6450e089a2a1f3c7dcddb4","","","",""
"","","","","","html-audio-response","5","578242","0.0-4.0-1.0","C0686A9C7AB14B599E535D94201A7FBA","C0686A9C7AB14B599E535D94201A7FBA","df8cd1df-49c0-4380-879f-75a282ab275b","051c06f1-75cc-4548-856d-4923ddaba0dc","{""num_scrambled_semantic"":""8"",""num_scrambled_causal"":""4"",""num_scrambled_schematic"":""4"",""participantId"":""C0686A9C7AB14B599E535D94201A7FBA"",""assignmentId"":""df8cd1df-49c0-4380-879f-75a282ab275b"",""projectId"":""051c06f1-75cc-4548-856d-4923ddaba0dc""}","https://test12345.live/?num_scrambled_semantic=8&num_scrambled_causal=4&num_scrambled_schematic=4&participantId=C0686A9C7AB14B599E535D94201A7FBA&assignmentId=df8cd1df-49c0-4380-879f-75a282ab275b&projectId=051c06f1-75cc-4548-856d-4923ddaba0dc","C0686A9C7AB14B599E535D94201A7FBA-2025-05-15-19-00-13","","3630","","<span style=""color: red; font-size: 24px""> NOW RECORDING</span>
        <p>Please test Microphone</p>","","3",""
"","","","","","html-button-response","6","579703","0.0-4.0-2.0","C0686A9C7AB14B599E535D94201A7FBA","C0686A9C7AB14B599E535D94201A7FBA","df8cd1df-49c0-4380-879f-75a282ab275b","051c06f1-75cc-4548-856d-4923ddaba0dc","{""num_scrambled_semantic"":""8"",""num_scrambled_causal"":""4"",""num_scrambled_schematic"":""4"",""participantId"":""C0686A9C7AB14B599E535D94201A7FBA"",""assignmentId"":""df8cd1df-49c0-4380-879f-75a282ab275b"",""projectId"":""051c06f1-75cc-4548-856d-4923ddaba0dc""}","https://test12345.live/?num_scrambled_semantic=8&num_scrambled_causal=4&num_scrambled_schematic=4&participantId=C0686A9C7AB14B599E535D94201A7FBA&assignmentId=df8cd1df-49c0-4380-879f-75a282ab275b&projectId=051c06f1-75cc-4548-856d-4923ddaba0dc","C0686A9C7AB14B599E535D94201A7FBA-2025-05-15-19-00-13","","1459","","<p style=""font-size:48px; color:red;"">Is Microphone OK?</p>","1","",""
"","","","","","instructions","7","595218","0.0-5.0","C0686A9C7AB14B599E535D94201A7FBA","C0686A9C7AB14B599E535D94201A7FBA","df8cd1df-49c0-4380-879f-75a282ab275b","051c06f1-75cc-4548-856d-4923ddaba0dc","{""num_scrambled_semantic"":""8"",""num_scrambled_causal"":""4"",""num_scrambled_schematic"":""4"",""participantId"":""C0686A9C7AB14B599E535D94201A7FBA"",""assignmentId"":""df8cd1df-49c0-4380-879f-75a282ab275b"",""projectId"":""051c06f1-75cc-4548-856d-4923ddaba0dc""}","https://test12345.live/?num_scrambled_semantic=8&num_scrambled_causal=4&num_scrambled_schematic=4&participantId=C0686A9C7AB14B599E535D94201A7FBA&assignmentId=df8cd1df-49c0-4380-879f-75a282ab275b&projectId=051c06f1-75cc-4548-856d-4923ddaba0dc","C0686A9C7AB14B599E535D94201A7FBA-2025-05-15-19-00-13","[{""page_index"":0,""viewing_time"":6667},{""page_index"":1,""viewing_time"":8847}]","15514","","","","",""
"","","","","","image-button-response","8","601224","0.0-6.0-0.0","C0686A9C7AB14B599E535D94201A7FBA","C0686A9C7AB14B599E535D94201A7FBA","df8cd1df-49c0-4380-879f-75a282ab275b","051c06f1-75cc-4548-856d-4923ddaba0dc","{""num_scrambled_semantic"":""8"",""num_scrambled_causal"":""4"",""num_scrambled_schematic"":""4"",""participantId"":""C0686A9C7AB14B599E535D94201A7FBA"",""assignmentId"":""df8cd1df-49c0-4380-879f-75a282ab275b"",""projectId"":""051c06f1-75cc-4548-856d-4923ddaba0dc""}","https://test12345.live/?num_scrambled_semantic=8&num_scrambled_causal=4&num_scrambled_schematic=4&participantId=C0686A9C7AB14B599E535D94201A7FBA&assignmentId=df8cd1df-49c0-4380-879f-75a282ab275b&projectId=051c06f1-75cc-4548-856d-4923ddaba0dc","C0686A9C7AB14B599E535D94201A7FBA-2025-05-15-19-00-13","","null","","images/instructions/movie_0.png","null","",""
"","","","","","image-button-response","9","605732","0.0-6.0-1.0-0.0","C0686A9C7AB14B599E535D94201A7FBA","C0686A9C7AB14B599E535D94201A7FBA","df8cd1df-49c0-4380-879f-75a282ab275b","051c06f1-75cc-4548-856d-4923ddaba0dc","{""num_scrambled_semantic"":""8"",""num_scrambled_causal"":""4"",""num_scrambled_schematic"":""4"",""participantId"":""C0686A9C7AB14B599E535D94201A7FBA"",""assignmentId"":""df8cd1df-49c0-4380-879f-75a282ab275b"",""projectId"":""051c06f1-75cc-4548-856d-4923ddaba0dc""}","https://test12345.live/?num_scrambled_semantic=8&num_scrambled_causal=4&num_scrambled_schematic=4&participantId=C0686A9C7AB14B599E535D94201A7FBA&assignmentId=df8cd1df-49c0-4380-879f-75a282ab275b&projectId=051c06f1-75cc-4548-856d-4923ddaba0dc","C0686A9C7AB14B599E535D94201A7FBA-2025-05-15-19-00-13","","null","","images/instructions/movie_1.png","null","",""
"","","","","","image-button-response","10","609014","0.0-6.0-1.0-1.0","C0686A9C7AB14B599E535D94201A7FBA","C0686A9C7AB14B599E535D94201A7FBA","df8cd1df-49c0-4380-879f-75a282ab275b","051c06f1-75cc-4548-856d-4923ddaba0dc","{""num_scrambled_semantic"":""8"",""num_scrambled_causal"":""4"",""num_scrambled_schematic"":""4"",""participantId"":""C0686A9C7AB14B599E535D94201A7FBA"",""assignmentId"":""df8cd1df-49c0-4380-879f-75a282ab275b"",""projectId"":""051c06f1-75cc-4548-856d-4923ddaba0dc""}","https://test12345.live/?num_scrambled_semantic=8&num_scrambled_causal=4&num_scrambled_schematic=4&participantId=C0686A9C7AB14B599E535D94201A7FBA&assignmentId=df8cd1df-49c0-4380-879f-75a282ab275b&projectId=051c06f1-75cc-4548-856d-4923ddaba0dc","C0686A9C7AB14B599E535D94201A7FBA-2025-05-15-19-00-13","","3280","","images/instructions/movie_1.png","0","",""
"","","","","","image-button-response","11","610827","0.0-6.0-1.0-2.0","C0686A9C7AB14B599E535D94201A7FBA","C0686A9C7AB14B599E535D94201A7FBA","df8cd1df-49c0-4380-879f-75a282ab275b","051c06f1-75cc-4548-856d-4923ddaba0dc","{""num_scrambled_semantic"":""8"",""num_scrambled_causal"":""4"",""num_scrambled_schematic"":""4"",""participantId"":""C0686A9C7AB14B599E535D94201A7FBA"",""assignmentId"":""df8cd1df-49c0-4380-879f-75a282ab275b"",""projectId"":""051c06f1-75cc-4548-856d-4923ddaba0dc""}","https://test12345.live/?num_scrambled_semantic=8&num_scrambled_causal=4&num_scrambled_schematic=4&participantId=C0686A9C7AB14B599E535D94201A7FBA&assignmentId=df8cd1df-49c0-4380-879f-75a282ab275b&projectId=051c06f1-75cc-4548-856d-4923ddaba0dc","C0686A9C7AB14B599E535D94201A7FBA-2025-05-15-19-00-13","","null","","[]","null","",""
"","","","","","image-button-response","12","615343","0.0-6.0-1.0-0.1","C0686A9C7AB14B599E535D94201A7FBA","C0686A9C7AB14B599E535D94201A7FBA","df8cd1df-49c0-4380-879f-75a282ab275b","051c06f1-75cc-4548-856d-4923ddaba0dc","{""num_scrambled_semantic"":""8"",""num_scrambled_causal"":""4"",""num_scrambled_schematic"":""4"",""participantId"":""C0686A9C7AB14B599E535D94201A7FBA"",""assignmentId"":""df8cd1df-49c0-4380-879f-75a282ab275b"",""projectId"":""051c06f1-75cc-4548-856d-4923ddaba0dc""}","https://test12345.live/?num_scrambled_semantic=8&num_scrambled_causal=4&num_scrambled_schematic=4&participantId=C0686A9C7AB14B599E535D94201A7FBA&assignmentId=df8cd1df-49c0-4380-879f-75a282ab275b&projectId=051c06f1-75cc-4548-856d-4923ddaba0dc","C0686A9C7AB14B599E535D94201A7FBA-2025-05-15-19-00-13","","null","","images/instructions/movie_2.png","null","",""
"","","","","","image-button-response","13","617891","0.0-6.0-1.0-1.1","C0686A9C7AB14B599E535D94201A7FBA","C0686A9C7AB14B599E535D94201A7FBA","df8cd1df-49c0-4380-879f-75a282ab275b","051c06f1-75cc-4548-856d-4923ddaba0dc","{""num_scrambled_semantic"":""8"",""num_scrambled_causal"":""4"",""num_scrambled_schematic"":""4"",""participantId"":""C0686A9C7AB14B599E535D94201A7FBA"",""assignmentId"":""df8cd1df-49c0-4380-879f-75a282ab275b"",""projectId"":""051c06f1-75cc-4548-856d-4923ddaba0dc""}","https://test12345.live/?num_scrambled_semantic=8&num_scrambled_causal=4&num_scrambled_schematic=4&participantId=C0686A9C7AB14B599E535D94201A7FBA&assignmentId=df8cd1df-49c0-4380-879f-75a282ab275b&projectId=051c06f1-75cc-4548-856d-4923ddaba0dc","C0686A9C7AB14B599E535D94201A7FBA-2025-05-15-19-00-13","","2546","","images/instructions/movie_2.png","0","",""
"","","","","","image-button-response","14","619699","0.0-6.0-1.0-2.1","C0686A9C7AB14B599E535D94201A7FBA","C0686A9C7AB14B599E535D94201A7FBA","df8cd1df-49c0-4380-879f-75a282ab275b","051c06f1-75cc-4548-856d-4923ddaba0dc","{""num_scrambled_semantic"":""8"",""num_scrambled_causal"":""4"",""num_scrambled_schematic"":""4"",""participantId"":""C0686A9C7AB14B599E535D94201A7FBA"",""assignmentId"":""df8cd1df-49c0-4380-879f-75a282ab275b"",""projectId"":""051c06f1-75cc-4548-856d-4923ddaba0dc""}","https://test12345.live/?num_scrambled_semantic=8&num_scrambled_causal=4&num_scrambled_schematic=4&participantId=C0686A9C7AB14B599E535D94201A7FBA&assignmentId=df8cd1df-49c0-4380-879f-75a282ab275b&projectId=051c06f1-75cc-4548-856d-4923ddaba0dc","C0686A9C7AB14B599E535D94201A7FBA-2025-05-15-19-00-13","","null","","[]","null","",""
"","","","","","image-button-response","15","624202","0.0-6.0-1.0-0.2","C0686A9C7AB14B599E535D94201A7FBA","C0686A9C7AB14B599E535D94201A7FBA","df8cd1df-49c0-4380-879f-75a282ab275b","051c06f1-75cc-4548-856d-4923ddaba0dc","{""num_scrambled_semantic"":""8"",""num_scrambled_causal"":""4"",""num_scrambled_schematic"":""4"",""participantId"":""C0686A9C7AB14B599E535D94201A7FBA"",""assignmentId"":""df8cd1df-49c0-4380-879f-75a282ab275b"",""projectId"":""051c06f1-75cc-4548-856d-4923ddaba0dc""}","https://test12345.live/?num_scrambled_semantic=8&num_scrambled_causal=4&num_scrambled_schematic=4&participantId=C0686A9C7AB14B599E535D94201A7FBA&assignmentId=df8cd1df-49c0-4380-879f-75a282ab275b&projectId=051c06f1-75cc-4548-856d-4923ddaba0dc","C0686A9C7AB14B599E535D94201A7FBA-2025-05-15-19-00-13","","null","","images/instructions/movie_3.png","null","",""
"","","","","","image-button-response","16","625762","0.0-6.0-1.0-1.2","C0686A9C7AB14B599E535D94201A7FBA","C0686A9C7AB14B599E535D94201A7FBA","df8cd1df-49c0-4380-879f-75a282ab275b","051c06f1-75cc-4548-856d-4923ddaba0dc","{""num_scrambled_semantic"":""8"",""num_scrambled_causal"":""4"",""num_scrambled_schematic"":""4"",""participantId"":""C0686A9C7AB14B599E535D94201A7FBA"",""assignmentId"":""df8cd1df-49c0-4380-879f-75a282ab275b"",""projectId"":""051c06f1-75cc-4548-856d-4923ddaba0dc""}","https://test12345.live/?num_scrambled_semantic=8&num_scrambled_causal=4&num_scrambled_schematic=4&participantId=C0686A9C7AB14B599E535D94201A7FBA&assignmentId=df8cd1df-49c0-4380-879f-75a282ab275b&projectId=051c06f1-75cc-4548-856d-4923ddaba0dc","C0686A9C7AB14B599E535D94201A7FBA-2025-05-15-19-00-13","","1559","","images/instructions/movie_3.png","0","",""
"","","","","","image-button-response","17","627575","0.0-6.0-1.0-2.2","C0686A9C7AB14B599E535D94201A7FBA","C0686A9C7AB14B599E535D94201A7FBA","df8cd1df-49c0-4380-879f-75a282ab275b","051c06f1-75cc-4548-856d-4923ddaba0dc","{""num_scrambled_semantic"":""8"",""num_scrambled_causal"":""4"",""num_scrambled_schematic"":""4"",""participantId"":""C0686A9C7AB14B599E535D94201A7FBA"",""assignmentId"":""df8cd1df-49c0-4380-879f-75a282ab275b"",""projectId"":""051c06f1-75cc-4548-856d-4923ddaba0dc""}","https://test12345.live/?num_scrambled_semantic=8&num_scrambled_causal=4&num_scrambled_schematic=4&participantId=C0686A9C7AB14B599E535D94201A7FBA&assignmentId=df8cd1df-49c0-4380-879f-75a282ab275b&projectId=051c06f1-75cc-4548-856d-4923ddaba0dc","C0686A9C7AB14B599E535D94201A7FBA-2025-05-15-19-00-13","","null","","[]","null","",""
"","","","","","image-button-response","18","632092","0.0-6.0-1.0-0.3","C0686A9C7AB14B599E535D94201A7FBA","C0686A9C7AB14B599E535D94201A7FBA","df8cd1df-49c0-4380-879f-75a282ab275b","051c06f1-75cc-4548-856d-4923ddaba0dc","{""num_scrambled_semantic"":""8"",""num_scrambled_causal"":""4"",""num_scrambled_schematic"":""4"",""participantId"":""C0686A9C7AB14B599E535D94201A7FBA"",""assignmentId"":""df8cd1df-49c0-4380-879f-75a282ab275b"",""projectId"":""051c06f1-75cc-4548-856d-4923ddaba0dc""}","https://test12345.live/?num_scrambled_semantic=8&num_scrambled_causal=4&num_scrambled_schematic=4&participantId=C0686A9C7AB14B599E535D94201A7FBA&assignmentId=df8cd1df-49c0-4380-879f-75a282ab275b&projectId=051c06f1-75cc-4548-856d-4923ddaba0dc","C0686A9C7AB14B599E535D94201A7FBA-2025-05-15-19-00-13","","null","","images/instructions/movie_4.png","null","",""
"","","","","","image-button-response","19","633369","0.0-6.0-1.0-1.3","C0686A9C7AB14B599E535D94201A7FBA","C0686A9C7AB14B599E535D94201A7FBA","df8cd1df-49c0-4380-879f-75a282ab275b","051c06f1-75cc-4548-856d-4923ddaba0dc","{""num_scrambled_semantic"":""8"",""num_scrambled_causal"":""4"",""num_scrambled_schematic"":""4"",""participantId"":""C0686A9C7AB14B599E535D94201A7FBA"",""assignmentId"":""df8cd1df-49c0-4380-879f-75a282ab275b"",""projectId"":""051c06f1-75cc-4548-856d-4923ddaba0dc""}","https://test12345.live/?num_scrambled_semantic=8&num_scrambled_causal=4&num_scrambled_schematic=4&participantId=C0686A9C7AB14B599E535D94201A7FBA&assignmentId=df8cd1df-49c0-4380-879f-75a282ab275b&projectId=051c06f1-75cc-4548-856d-4923ddaba0dc","C0686A9C7AB14B599E535D94201A7FBA-2025-05-15-19-00-13","","1275","","images/instructions/movie_4.png","0","",""
"","","","","","image-button-response","20","635183","0.0-6.0-1.0-2.3","C0686A9C7AB14B599E535D94201A7FBA","C0686A9C7AB14B599E535D94201A7FBA","df8cd1df-49c0-4380-879f-75a282ab275b","051c06f1-75cc-4548-856d-4923ddaba0dc","{""num_scrambled_semantic"":""8"",""num_scrambled_causal"":""4"",""num_scrambled_schematic"":""4"",""participantId"":""C0686A9C7AB14B599E535D94201A7FBA"",""assignmentId"":""df8cd1df-49c0-4380-879f-75a282ab275b"",""projectId"":""051c06f1-75cc-4548-856d-4923ddaba0dc""}","https://test12345.live/?num_scrambled_semantic=8&num_scrambled_causal=4&num_scrambled_schematic=4&participantId=C0686A9C7AB14B599E535D94201A7FBA&assignmentId=df8cd1df-49c0-4380-879f-75a282ab275b&projectId=051c06f1-75cc-4548-856d-4923ddaba0dc","C0686A9C7AB14B599E535D94201A7FBA-2025-05-15-19-00-13","","null","","[]","null","",""
"","","","","","instructions","21","641031","0.0-7.0","C0686A9C7AB14B599E535D94201A7FBA","C0686A9C7AB14B599E535D94201A7FBA","df8cd1df-49c0-4380-879f-75a282ab275b","051c06f1-75cc-4548-856d-4923ddaba0dc","{""num_scrambled_semantic"":""8"",""num_scrambled_causal"":""4"",""num_scrambled_schematic"":""4"",""participantId"":""C0686A9C7AB14B599E535D94201A7FBA"",""assignmentId"":""df8cd1df-49c0-4380-879f-75a282ab275b"",""projectId"":""051c06f1-75cc-4548-856d-4923ddaba0dc""}","https://test12345.live/?num_scrambled_semantic=8&num_scrambled_causal=4&num_scrambled_schematic=4&participantId=C0686A9C7AB14B599E535D94201A7FBA&assignmentId=df8cd1df-49c0-4380-879f-75a282ab275b&projectId=051c06f1-75cc-4548-856d-4923ddaba0dc","C0686A9C7AB14B599E535D94201A7FBA-2025-05-15-19-00-13","[{""page_index"":0,""viewing_time"":4857},{""page_index"":1,""viewing_time"":991}]","5848","","","","",""
"","","","","","html-audio-response","22","667929","0.0-8.0","C0686A9C7AB14B599E535D94201A7FBA","C0686A9C7AB14B599E535D94201A7FBA","df8cd1df-49c0-4380-879f-75a282ab275b","051c06f1-75cc-4548-856d-4923ddaba0dc","{""num_scrambled_semantic"":""8"",""num_scrambled_causal"":""4"",""num_scrambled_schematic"":""4"",""participantId"":""C0686A9C7AB14B599E535D94201A7FBA"",""assignmentId"":""df8cd1df-49c0-4380-879f-75a282ab275b"",""projectId"":""051c06f1-75cc-4548-856d-4923ddaba0dc""}","https://test12345.live/?num_scrambled_semantic=8&num_scrambled_causal=4&num_scrambled_schematic=4&participantId=C0686A9C7AB14B599E535D94201A7FBA&assignmentId=df8cd1df-49c0-4380-879f-75a282ab275b&projectId=051c06f1-75cc-4548-856d-4923ddaba0dc","C0686A9C7AB14B599E535D94201A7FBA-2025-05-15-19-00-13","","15163","","[""<span style=\""color: red; font-size: 24px\""> NOW RECORDING</span><p>Please say out loud all the images you saw, as many as you can remember. The images can be said in any order.</p>""]","","1",""
"","","","","","instructions","23","668929","0.0-9.0","C0686A9C7AB14B599E535D94201A7FBA","C0686A9C7AB14B599E535D94201A7FBA","df8cd1df-49c0-4380-879f-75a282ab275b","051c06f1-75cc-4548-856d-4923ddaba0dc","{""num_scrambled_semantic"":""8"",""num_scrambled_causal"":""4"",""num_scrambled_schematic"":""4"",""participantId"":""C0686A9C7AB14B599E535D94201A7FBA"",""assignmentId"":""df8cd1df-49c0-4380-879f-75a282ab275b"",""projectId"":""051c06f1-75cc-4548-856d-4923ddaba0dc""}","https://test12345.live/?num_scrambled_semantic=8&num_scrambled_causal=4&num_scrambled_schematic=4&participantId=C0686A9C7AB14B599E535D94201A7FBA&assignmentId=df8cd1df-49c0-4380-879f-75a282ab275b&projectId=051c06f1-75cc-4548-856d-4923ddaba0dc","C0686A9C7AB14B599E535D94201A7FBA-2025-05-15-19-00-13","[{""page_index"":0,""viewing_time"":997}]","997","","","","",""
"","","","","","image-button-response","24","674946","0.0-10.0-0.0","C0686A9C7AB14B599E535D94201A7FBA","C0686A9C7AB14B599E535D94201A7FBA","df8cd1df-49c0-4380-879f-75a282ab275b","051c06f1-75cc-4548-856d-4923ddaba0dc","{""num_scrambled_semantic"":""8"",""num_scrambled_causal"":""4"",""num_scrambled_schematic"":""4"",""participantId"":""C0686A9C7AB14B599E535D94201A7FBA"",""assignmentId"":""df8cd1df-49c0-4380-879f-75a282ab275b"",""projectId"":""051c06f1-75cc-4548-856d-4923ddaba0dc""}","https://test12345.live/?num_scrambled_semantic=8&num_scrambled_causal=4&num_scrambled_schematic=4&participantId=C0686A9C7AB14B599E535D94201A7FBA&assignmentId=df8cd1df-49c0-4380-879f-75a282ab275b&projectId=051c06f1-75cc-4548-856d-4923ddaba0dc","C0686A9C7AB14B599E535D94201A7FBA-2025-05-15-19-00-13","","null","","images/semantic_sequence/market_semantic/market_semantic_0.png","null","",""
"","","","","","image-button-response","25","679450","0.0-10.0-1.0-0.0","C0686A9C7AB14B599E535D94201A7FBA","C0686A9C7AB14B599E535D94201A7FBA","df8cd1df-49c0-4380-879f-75a282ab275b","051c06f1-75cc-4548-856d-4923ddaba0dc","{""num_scrambled_semantic"":""8"",""num_scrambled_causal"":""4"",""num_scrambled_schematic"":""4"",""participantId"":""C0686A9C7AB14B599E535D94201A7FBA"",""assignmentId"":""df8cd1df-49c0-4380-879f-75a282ab275b"",""projectId"":""051c06f1-75cc-4548-856d-4923ddaba0dc""}","https://test12345.live/?num_scrambled_semantic=8&num_scrambled_causal=4&num_scrambled_schematic=4&participantId=C0686A9C7AB14B599E535D94201A7FBA&assignmentId=df8cd1df-49c0-4380-879f-75a282ab275b&projectId=051c06f1-75cc-4548-856d-4923ddaba0dc","C0686A9C7AB14B599E535D94201A7FBA-2025-05-15-19-00-13","","null","","images/semantic_sequence/market_semantic/market_semantic_ten.png","null","",""
"","","","","","image-button-response","26","682615","0.0-10.0-1.0-1.0","C0686A9C7AB14B599E535D94201A7FBA","C0686A9C7AB14B599E535D94201A7FBA","df8cd1df-49c0-4380-879f-75a282ab275b","051c06f1-75cc-4548-856d-4923ddaba0dc","{""num_scrambled_semantic"":""8"",""num_scrambled_causal"":""4"",""num_scrambled_schematic"":""4"",""participantId"":""C0686A9C7AB14B599E535D94201A7FBA"",""assignmentId"":""df8cd1df-49c0-4380-879f-75a282ab275b"",""projectId"":""051c06f1-75cc-4548-856d-4923ddaba0dc""}","https://test12345.live/?num_scrambled_semantic=8&num_scrambled_causal=4&num_scrambled_schematic=4&participantId=C0686A9C7AB14B599E535D94201A7FBA&assignmentId=df8cd1df-49c0-4380-879f-75a282ab275b&projectId=051c06f1-75cc-4548-856d-4923ddaba0dc","C0686A9C7AB14B599E535D94201A7FBA-2025-05-15-19-00-13","","3163","","images/semantic_sequence/market_semantic/market_semantic_ten.png","1","",""
"","","","","","image-button-response","27","684428","0.0-10.0-1.0-2.0","C0686A9C7AB14B599E535D94201A7FBA","C0686A9C7AB14B599E535D94201A7FBA","df8cd1df-49c0-4380-879f-75a282ab275b","051c06f1-75cc-4548-856d-4923ddaba0dc","{""num_scrambled_semantic"":""8"",""num_scrambled_causal"":""4"",""num_scrambled_schematic"":""4"",""participantId"":""C0686A9C7AB14B599E535D94201A7FBA"",""assignmentId"":""df8cd1df-49c0-4380-879f-75a282ab275b"",""projectId"":""051c06f1-75cc-4548-856d-4923ddaba0dc""}","https://test12345.live/?num_scrambled_semantic=8&num_scrambled_causal=4&num_scrambled_schematic=4&participantId=C0686A9C7AB14B599E535D94201A7FBA&assignmentId=df8cd1df-49c0-4380-879f-75a282ab275b&projectId=051c06f1-75cc-4548-856d-4923ddaba0dc","C0686A9C7AB14B599E535D94201A7FBA-2025-05-15-19-00-13","","null","","[]","null","",""
"","","","","","image-button-response","28","688942","0.0-10.0-1.0-0.1","C0686A9C7AB14B599E535D94201A7FBA","C0686A9C7AB14B599E535D94201A7FBA","df8cd1df-49c0-4380-879f-75a282ab275b","051c06f1-75cc-4548-856d-4923ddaba0dc","{""num_scrambled_semantic"":""8"",""num_scrambled_causal"":""4"",""num_scrambled_schematic"":""4"",""participantId"":""C0686A9C7AB14B599E535D94201A7FBA"",""assignmentId"":""df8cd1df-49c0-4380-879f-75a282ab275b"",""projectId"":""051c06f1-75cc-4548-856d-4923ddaba0dc""}","https://test12345.live/?num_scrambled_semantic=8&num_scrambled_causal=4&num_scrambled_schematic=4&participantId=C0686A9C7AB14B599E535D94201A7FBA&assignmentId=df8cd1df-49c0-4380-879f-75a282ab275b&projectId=051c06f1-75cc-4548-856d-4923ddaba0dc","C0686A9C7AB14B599E535D94201A7FBA-2025-05-15-19-00-13","","null","","images/semantic_sequence/market_semantic/market_semantic_5.png","null","",""
"","","","","","image-button-response","29","690790","0.0-10.0-1.0-1.1","C0686A9C7AB14B599E535D94201A7FBA","C0686A9C7AB14B599E535D94201A7FBA","df8cd1df-49c0-4380-879f-75a282ab275b","051c06f1-75cc-4548-856d-4923ddaba0dc","{""num_scrambled_semantic"":""8"",""num_scrambled_causal"":""4"",""num_scrambled_schematic"":""4"",""participantId"":""C0686A9C7AB14B599E535D94201A7FBA"",""assignmentId"":""df8cd1df-49c0-4380-879f-75a282ab275b"",""projectId"":""051c06f1-75cc-4548-856d-4923ddaba0dc""}","https://test12345.live/?num_scrambled_semantic=8&num_scrambled_causal=4&num_scrambled_schematic=4&participantId=C0686A9C7AB14B599E535D94201A7FBA&assignmentId=df8cd1df-49c0-4380-879f-75a282ab275b&projectId=051c06f1-75cc-4548-856d-4923ddaba0dc","C0686A9C7AB14B599E535D94201A7FBA-2025-05-15-19-00-13","","1847","","images/semantic_sequence/market_semantic/market_semantic_5.png","1","",""
"","","","","","image-button-response","30","692601","0.0-10.0-1.0-2.1","C0686A9C7AB14B599E535D94201A7FBA","C0686A9C7AB14B599E535D94201A7FBA","df8cd1df-49c0-4380-879f-75a282ab275b","051c06f1-75cc-4548-856d-4923ddaba0dc","{""num_scrambled_semantic"":""8"",""num_scrambled_causal"":""4"",""num_scrambled_schematic"":""4"",""participantId"":""C0686A9C7AB14B599E535D94201A7FBA"",""assignmentId"":""df8cd1df-49c0-4380-879f-75a282ab275b"",""projectId"":""051c06f1-75cc-4548-856d-4923ddaba0dc""}","https://test12345.live/?num_scrambled_semantic=8&num_scrambled_causal=4&num_scrambled_schematic=4&participantId=C0686A9C7AB14B599E535D94201A7FBA&assignmentId=df8cd1df-49c0-4380-879f-75a282ab275b&projectId=051c06f1-75cc-4548-856d-4923ddaba0dc","C0686A9C7AB14B599E535D94201A7FBA-2025-05-15-19-00-13","","null","","[]","null","",""
"","","","","","image-button-response","31","697116","0.0-10.0-1.0-0.2","C0686A9C7AB14B599E535D94201A7FBA","C0686A9C7AB14B599E535D94201A7FBA","df8cd1df-49c0-4380-879f-75a282ab275b","051c06f1-75cc-4548-856d-4923ddaba0dc","{""num_scrambled_semantic"":""8"",""num_scrambled_causal"":""4"",""num_scrambled_schematic"":""4"",""participantId"":""C0686A9C7AB14B599E535D94201A7FBA"",""assignmentId"":""df8cd1df-49c0-4380-879f-75a282ab275b"",""projectId"":""051c06f1-75cc-4548-856d-4923ddaba0dc""}","https://test12345.live/?num_scrambled_semantic=8&num_scrambled_causal=4&num_scrambled_schematic=4&participantId=C0686A9C7AB14B599E535D94201A7FBA&assignmentId=df8cd1df-49c0-4380-879f-75a282ab275b&projectId=051c06f1-75cc-4548-856d-4923ddaba0dc","C0686A9C7AB14B599E535D94201A7FBA-2025-05-15-19-00-13","","null","","images/semantic_sequence/market_semantic/market_semantic_4.png","null","",""
"","","","","","image-button-response","32","701126","0.0-10.0-1.0-1.2","C0686A9C7AB14B599E535D94201A7FBA","C0686A9C7AB14B599E535D94201A7FBA","df8cd1df-49c0-4380-879f-75a282ab275b","051c06f1-75cc-4548-856d-4923ddaba0dc","{""num_scrambled_semantic"":""8"",""num_scrambled_causal"":""4"",""num_scrambled_schematic"":""4"",""participantId"":""C0686A9C7AB14B599E535D94201A7FBA"",""assignmentId"":""df8cd1df-49c0-4380-879f-75a282ab275b"",""projectId"":""051c06f1-75cc-4548-856d-4923ddaba0dc""}","https://test12345.live/?num_scrambled_semantic=8&num_scrambled_causal=4&num_scrambled_schematic=4&participantId=C0686A9C7AB14B599E535D94201A7FBA&assignmentId=df8cd1df-49c0-4380-879f-75a282ab275b&projectId=051c06f1-75cc-4548-856d-4923ddaba0dc","C0686A9C7AB14B599E535D94201A7FBA-2025-05-15-19-00-13","","null","","images/semantic_sequence/market_semantic/market_semantic_4.png","null","",""
"","","","","","image-button-response","33","702941","0.0-10.0-1.0-2.2","C0686A9C7AB14B599E535D94201A7FBA","C0686A9C7AB14B599E535D94201A7FBA","df8cd1df-49c0-4380-879f-75a282ab275b","051c06f1-75cc-4548-856d-4923ddaba0dc","{""num_scrambled_semantic"":""8"",""num_scrambled_causal"":""4"",""num_scrambled_schematic"":""4"",""participantId"":""C0686A9C7AB14B599E535D94201A7FBA"",""assignmentId"":""df8cd1df-49c0-4380-879f-75a282ab275b"",""projectId"":""051c06f1-75cc-4548-856d-4923ddaba0dc""}","https://test12345.live/?num_scrambled_semantic=8&num_scrambled_causal=4&num_scrambled_schematic=4&participantId=C0686A9C7AB14B599E535D94201A7FBA&assignmentId=df8cd1df-49c0-4380-879f-75a282ab275b&projectId=051c06f1-75cc-4548-856d-4923ddaba0dc","C0686A9C7AB14B599E535D94201A7FBA-2025-05-15-19-00-13","","null","","[]","null","",""
"","","","","","image-button-response","34","707454","0.0-10.0-1.0-0.3","C0686A9C7AB14B599E535D94201A7FBA","C0686A9C7AB14B599E535D94201A7FBA","df8cd1df-49c0-4380-879f-75a282ab275b","051c06f1-75cc-4548-856d-4923ddaba0dc","{""num_scrambled_semantic"":""8"",""num_scrambled_causal"":""4"",""num_scrambled_schematic"":""4"",""participantId"":""C0686A9C7AB14B599E535D94201A7FBA"",""assignmentId"":""df8cd1df-49c0-4380-879f-75a282ab275b"",""projectId"":""051c06f1-75cc-4548-856d-4923ddaba0dc""}","https://test12345.live/?num_scrambled_semantic=8&num_scrambled_causal=4&num_scrambled_schematic=4&participantId=C0686A9C7AB14B599E535D94201A7FBA&assignmentId=df8cd1df-49c0-4380-879f-75a282ab275b&projectId=051c06f1-75cc-4548-856d-4923ddaba0dc","C0686A9C7AB14B599E535D94201A7FBA-2025-05-15-19-00-13","","null","","images/semantic_sequence/market_semantic/market_semantic_2.png","null","",""
"","","","","","image-button-response","35","710945","0.0-10.0-1.0-1.3","C0686A9C7AB14B599E535D94201A7FBA","C0686A9C7AB14B599E535D94201A7FBA","df8cd1df-49c0-4380-879f-75a282ab275b","051c06f1-75cc-4548-856d-4923ddaba0dc","{""num_scrambled_semantic"":""8"",""num_scrambled_causal"":""4"",""num_scrambled_schematic"":""4"",""participantId"":""C0686A9C7AB14B599E535D94201A7FBA"",""assignmentId"":""df8cd1df-49c0-4380-879f-75a282ab275b"",""projectId"":""051c06f1-75cc-4548-856d-4923ddaba0dc""}","https://test12345.live/?num_scrambled_semantic=8&num_scrambled_causal=4&num_scrambled_schematic=4&participantId=C0686A9C7AB14B599E535D94201A7FBA&assignmentId=df8cd1df-49c0-4380-879f-75a282ab275b&projectId=051c06f1-75cc-4548-856d-4923ddaba0dc","C0686A9C7AB14B599E535D94201A7FBA-2025-05-15-19-00-13","","3490","","images/semantic_sequence/market_semantic/market_semantic_2.png","1","",""
"","","","","","image-button-response","36","712758","0.0-10.0-1.0-2.3","C0686A9C7AB14B599E535D94201A7FBA","C0686A9C7AB14B599E535D94201A7FBA","df8cd1df-49c0-4380-879f-75a282ab275b","051c06f1-75cc-4548-856d-4923ddaba0dc","{""num_scrambled_semantic"":""8"",""num_scrambled_causal"":""4"",""num_scrambled_schematic"":""4"",""participantId"":""C0686A9C7AB14B599E535D94201A7FBA"",""assignmentId"":""df8cd1df-49c0-4380-879f-75a282ab275b"",""projectId"":""051c06f1-75cc-4548-856d-4923ddaba0dc""}","https://test12345.live/?num_scrambled_semantic=8&num_scrambled_causal=4&num_scrambled_schematic=4&participantId=C0686A9C7AB14B599E535D94201A7FBA&assignmentId=df8cd1df-49c0-4380-879f-75a282ab275b&projectId=051c06f1-75cc-4548-856d-4923ddaba0dc","C0686A9C7AB14B599E535D94201A7FBA-2025-05-15-19-00-13","","null","","[]","null","",""
"","","","","","image-button-response","37","717264","0.0-10.0-1.0-0.4","C0686A9C7AB14B599E535D94201A7FBA","C0686A9C7AB14B599E535D94201A7FBA","df8cd1df-49c0-4380-879f-75a282ab275b","051c06f1-75cc-4548-856d-4923ddaba0dc","{""num_scrambled_semantic"":""8"",""num_scrambled_causal"":""4"",""num_scrambled_schematic"":""4"",""participantId"":""C0686A9C7AB14B599E535D94201A7FBA"",""assignmentId"":""df8cd1df-49c0-4380-879f-75a282ab275b"",""projectId"":""051c06f1-75cc-4548-856d-4923ddaba0dc""}","https://test12345.live/?num_scrambled_semantic=8&num_scrambled_causal=4&num_scrambled_schematic=4&participantId=C0686A9C7AB14B599E535D94201A7FBA&assignmentId=df8cd1df-49c0-4380-879f-75a282ab275b&projectId=051c06f1-75cc-4548-856d-4923ddaba0dc","C0686A9C7AB14B599E535D94201A7FBA-2025-05-15-19-00-13","","null","","images/semantic_sequence/market_semantic/market_semantic_7.png","null","",""
"","","","","","image-button-response","38","719297","0.0-10.0-1.0-1.4","C0686A9C7AB14B599E535D94201A7FBA","C0686A9C7AB14B599E535D94201A7FBA","df8cd1df-49c0-4380-879f-75a282ab275b","051c06f1-75cc-4548-856d-4923ddaba0dc","{""num_scrambled_semantic"":""8"",""num_scrambled_causal"":""4"",""num_scrambled_schematic"":""4"",""participantId"":""C0686A9C7AB14B599E535D94201A7FBA"",""assignmentId"":""df8cd1df-49c0-4380-879f-75a282ab275b"",""projectId"":""051c06f1-75cc-4548-856d-4923ddaba0dc""}","https://test12345.live/?num_scrambled_semantic=8&num_scrambled_causal=4&num_scrambled_schematic=4&participantId=C0686A9C7AB14B599E535D94201A7FBA&assignmentId=df8cd1df-49c0-4380-879f-75a282ab275b&projectId=051c06f1-75cc-4548-856d-4923ddaba0dc","C0686A9C7AB14B599E535D94201A7FBA-2025-05-15-19-00-13","","2032","","images/semantic_sequence/market_semantic/market_semantic_7.png","0","",""
"","","","","","image-button-response","39","721108","0.0-10.0-1.0-2.4","C0686A9C7AB14B599E535D94201A7FBA","C0686A9C7AB14B599E535D94201A7FBA","df8cd1df-49c0-4380-879f-75a282ab275b","051c06f1-75cc-4548-856d-4923ddaba0dc","{""num_scrambled_semantic"":""8"",""num_scrambled_causal"":""4"",""num_scrambled_schematic"":""4"",""participantId"":""C0686A9C7AB14B599E535D94201A7FBA"",""assignmentId"":""df8cd1df-49c0-4380-879f-75a282ab275b"",""projectId"":""051c06f1-75cc-4548-856d-4923ddaba0dc""}","https://test12345.live/?num_scrambled_semantic=8&num_scrambled_causal=4&num_scrambled_schematic=4&participantId=C0686A9C7AB14B599E535D94201A7FBA&assignmentId=df8cd1df-49c0-4380-879f-75a282ab275b&projectId=051c06f1-75cc-4548-856d-4923ddaba0dc","C0686A9C7AB14B599E535D94201A7FBA-2025-05-15-19-00-13","","null","","[]","null","",""
"","","","","","image-button-response","40","725623","0.0-10.0-1.0-0.5","C0686A9C7AB14B599E535D94201A7FBA","C0686A9C7AB14B599E535D94201A7FBA","df8cd1df-49c0-4380-879f-75a282ab275b","051c06f1-75cc-4548-856d-4923ddaba0dc","{""num_scrambled_semantic"":""8"",""num_scrambled_causal"":""4"",""num_scrambled_schematic"":""4"",""participantId"":""C0686A9C7AB14B599E535D94201A7FBA"",""assignmentId"":""df8cd1df-49c0-4380-879f-75a282ab275b"",""projectId"":""051c06f1-75cc-4548-856d-4923ddaba0dc""}","https://test12345.live/?num_scrambled_semantic=8&num_scrambled_causal=4&num_scrambled_schematic=4&participantId=C0686A9C7AB14B599E535D94201A7FBA&assignmentId=df8cd1df-49c0-4380-879f-75a282ab275b&projectId=051c06f1-75cc-4548-856d-4923ddaba0dc","C0686A9C7AB14B599E535D94201A7FBA-2025-05-15-19-00-13","","null","","images/semantic_sequence/market_semantic/market_semantic_8.png","null","",""
"","","","","","image-button-response","41","728178","0.0-10.0-1.0-1.5","C0686A9C7AB14B599E535D94201A7FBA","C0686A9C7AB14B599E535D94201A7FBA","df8cd1df-49c0-4380-879f-75a282ab275b","051c06f1-75cc-4548-856d-4923ddaba0dc","{""num_scrambled_semantic"":""8"",""num_scrambled_causal"":""4"",""num_scrambled_schematic"":""4"",""participantId"":""C0686A9C7AB14B599E535D94201A7FBA"",""assignmentId"":""df8cd1df-49c0-4380-879f-75a282ab275b"",""projectId"":""051c06f1-75cc-4548-856d-4923ddaba0dc""}","https://test12345.live/?num_scrambled_semantic=8&num_scrambled_causal=4&num_scrambled_schematic=4&participantId=C0686A9C7AB14B599E535D94201A7FBA&assignmentId=df8cd1df-49c0-4380-879f-75a282ab275b&projectId=051c06f1-75cc-4548-856d-4923ddaba0dc","C0686A9C7AB14B599E535D94201A7FBA-2025-05-15-19-00-13","","2553","","images/semantic_sequence/market_semantic/market_semantic_8.png","1","",""
"","","","","","image-button-response","42","729984","0.0-10.0-1.0-2.5","C0686A9C7AB14B599E535D94201A7FBA","C0686A9C7AB14B599E535D94201A7FBA","df8cd1df-49c0-4380-879f-75a282ab275b","051c06f1-75cc-4548-856d-4923ddaba0dc","{""num_scrambled_semantic"":""8"",""num_scrambled_causal"":""4"",""num_scrambled_schematic"":""4"",""participantId"":""C0686A9C7AB14B599E535D94201A7FBA"",""assignmentId"":""df8cd1df-49c0-4380-879f-75a282ab275b"",""projectId"":""051c06f1-75cc-4548-856d-4923ddaba0dc""}","https://test12345.live/?num_scrambled_semantic=8&num_scrambled_causal=4&num_scrambled_schematic=4&participantId=C0686A9C7AB14B599E535D94201A7FBA&assignmentId=df8cd1df-49c0-4380-879f-75a282ab275b&projectId=051c06f1-75cc-4548-856d-4923ddaba0dc","C0686A9C7AB14B599E535D94201A7FBA-2025-05-15-19-00-13","","null","","[]","null","",""
"","","","","","image-button-response","43","734496","0.0-10.0-1.0-0.6","C0686A9C7AB14B599E535D94201A7FBA","C0686A9C7AB14B599E535D94201A7FBA","df8cd1df-49c0-4380-879f-75a282ab275b","051c06f1-75cc-4548-856d-4923ddaba0dc","{""num_scrambled_semantic"":""8"",""num_scrambled_causal"":""4"",""num_scrambled_schematic"":""4"",""participantId"":""C0686A9C7AB14B599E535D94201A7FBA"",""assignmentId"":""df8cd1df-49c0-4380-879f-75a282ab275b"",""projectId"":""051c06f1-75cc-4548-856d-4923ddaba0dc""}","https://test12345.live/?num_scrambled_semantic=8&num_scrambled_causal=4&num_scrambled_schematic=4&participantId=C0686A9C7AB14B599E535D94201A7FBA&assignmentId=df8cd1df-49c0-4380-879f-75a282ab275b&projectId=051c06f1-75cc-4548-856d-4923ddaba0dc","C0686A9C7AB14B599E535D94201A7FBA-2025-05-15-19-00-13","","null","","images/semantic_sequence/market_semantic/market_semantic_9.png","null","",""
"","","","","","image-button-response","44","737104","0.0-10.0-1.0-1.6","C0686A9C7AB14B599E535D94201A7FBA","C0686A9C7AB14B599E535D94201A7FBA","df8cd1df-49c0-4380-879f-75a282ab275b","051c06f1-75cc-4548-856d-4923ddaba0dc","{""num_scrambled_semantic"":""8"",""num_scrambled_causal"":""4"",""num_scrambled_schematic"":""4"",""participantId"":""C0686A9C7AB14B599E535D94201A7FBA"",""assignmentId"":""df8cd1df-49c0-4380-879f-75a282ab275b"",""projectId"":""051c06f1-75cc-4548-856d-4923ddaba0dc""}","https://test12345.live/?num_scrambled_semantic=8&num_scrambled_causal=4&num_scrambled_schematic=4&participantId=C0686A9C7AB14B599E535D94201A7FBA&assignmentId=df8cd1df-49c0-4380-879f-75a282ab275b&projectId=051c06f1-75cc-4548-856d-4923ddaba0dc","C0686A9C7AB14B599E535D94201A7FBA-2025-05-15-19-00-13","","2606","","images/semantic_sequence/market_semantic/market_semantic_9.png","1","",""
"","","","","","image-button-response","45","738908","0.0-10.0-1.0-2.6","C0686A9C7AB14B599E535D94201A7FBA","C0686A9C7AB14B599E535D94201A7FBA","df8cd1df-49c0-4380-879f-75a282ab275b","051c06f1-75cc-4548-856d-4923ddaba0dc","{""num_scrambled_semantic"":""8"",""num_scrambled_causal"":""4"",""num_scrambled_schematic"":""4"",""participantId"":""C0686A9C7AB14B599E535D94201A7FBA"",""assignmentId"":""df8cd1df-49c0-4380-879f-75a282ab275b"",""projectId"":""051c06f1-75cc-4548-856d-4923ddaba0dc""}","https://test12345.live/?num_scrambled_semantic=8&num_scrambled_causal=4&num_scrambled_schematic=4&participantId=C0686A9C7AB14B599E535D94201A7FBA&assignmentId=df8cd1df-49c0-4380-879f-75a282ab275b&projectId=051c06f1-75cc-4548-856d-4923ddaba0dc","C0686A9C7AB14B599E535D94201A7FBA-2025-05-15-19-00-13","","null","","[]","null","",""
"","","","","","image-button-response","46","743416","0.0-10.0-1.0-0.7","C0686A9C7AB14B599E535D94201A7FBA","C0686A9C7AB14B599E535D94201A7FBA","df8cd1df-49c0-4380-879f-75a282ab275b","051c06f1-75cc-4548-856d-4923ddaba0dc","{""num_scrambled_semantic"":""8"",""num_scrambled_causal"":""4"",""num_scrambled_schematic"":""4"",""participantId"":""C0686A9C7AB14B599E535D94201A7FBA"",""assignmentId"":""df8cd1df-49c0-4380-879f-75a282ab275b"",""projectId"":""051c06f1-75cc-4548-856d-4923ddaba0dc""}","https://test12345.live/?num_scrambled_semantic=8&num_scrambled_causal=4&num_scrambled_schematic=4&participantId=C0686A9C7AB14B599E535D94201A7FBA&assignmentId=df8cd1df-49c0-4380-879f-75a282ab275b&projectId=051c06f1-75cc-4548-856d-4923ddaba0dc","C0686A9C7AB14B599E535D94201A7FBA-2025-05-15-19-00-13","","null","","images/semantic_sequence/market_semantic/market_semantic_6.png","null","",""
"","","","","","image-button-response","47","744739","0.0-10.0-1.0-1.7","C0686A9C7AB14B599E535D94201A7FBA","C0686A9C7AB14B599E535D94201A7FBA","df8cd1df-49c0-4380-879f-75a282ab275b","051c06f1-75cc-4548-856d-4923ddaba0dc","{""num_scrambled_semantic"":""8"",""num_scrambled_causal"":""4"",""num_scrambled_schematic"":""4"",""participantId"":""C0686A9C7AB14B599E535D94201A7FBA"",""assignmentId"":""df8cd1df-49c0-4380-879f-75a282ab275b"",""projectId"":""051c06f1-75cc-4548-856d-4923ddaba0dc""}","https://test12345.live/?num_scrambled_semantic=8&num_scrambled_causal=4&num_scrambled_schematic=4&participantId=C0686A9C7AB14B599E535D94201A7FBA&assignmentId=df8cd1df-49c0-4380-879f-75a282ab275b&projectId=051c06f1-75cc-4548-856d-4923ddaba0dc","C0686A9C7AB14B599E535D94201A7FBA-2025-05-15-19-00-13","","1321","","images/semantic_sequence/market_semantic/market_semantic_6.png","1","",""
"","","","","","image-button-response","48","746544","0.0-10.0-1.0-2.7","C0686A9C7AB14B599E535D94201A7FBA","C0686A9C7AB14B599E535D94201A7FBA","df8cd1df-49c0-4380-879f-75a282ab275b","051c06f1-75cc-4548-856d-4923ddaba0dc","{""num_scrambled_semantic"":""8"",""num_scrambled_causal"":""4"",""num_scrambled_schematic"":""4"",""participantId"":""C0686A9C7AB14B599E535D94201A7FBA"",""assignmentId"":""df8cd1df-49c0-4380-879f-75a282ab275b"",""projectId"":""051c06f1-75cc-4548-856d-4923ddaba0dc""}","https://test12345.live/?num_scrambled_semantic=8&num_scrambled_causal=4&num_scrambled_schematic=4&participantId=C0686A9C7AB14B599E535D94201A7FBA&assignmentId=df8cd1df-49c0-4380-879f-75a282ab275b&projectId=051c06f1-75cc-4548-856d-4923ddaba0dc","C0686A9C7AB14B599E535D94201A7FBA-2025-05-15-19-00-13","","null","","[]","null","",""
"","","","","","image-button-response","49","751047","0.0-10.0-1.0-0.8","C0686A9C7AB14B599E535D94201A7FBA","C0686A9C7AB14B599E535D94201A7FBA","df8cd1df-49c0-4380-879f-75a282ab275b","051c06f1-75cc-4548-856d-4923ddaba0dc","{""num_scrambled_semantic"":""8"",""num_scrambled_causal"":""4"",""num_scrambled_schematic"":""4"",""participantId"":""C0686A9C7AB14B599E535D94201A7FBA"",""assignmentId"":""df8cd1df-49c0-4380-879f-75a282ab275b"",""projectId"":""051c06f1-75cc-4548-856d-4923ddaba0dc""}","https://test12345.live/?num_scrambled_semantic=8&num_scrambled_causal=4&num_scrambled_schematic=4&participantId=C0686A9C7AB14B599E535D94201A7FBA&assignmentId=df8cd1df-49c0-4380-879f-75a282ab275b&projectId=051c06f1-75cc-4548-856d-4923ddaba0dc","C0686A9C7AB14B599E535D94201A7FBA-2025-05-15-19-00-13","","null","","images/semantic_sequence/market_semantic/market_semantic_1.png","null","",""
"","","","","","image-button-response","50","752868","0.0-10.0-1.0-1.8","C0686A9C7AB14B599E535D94201A7FBA","C0686A9C7AB14B599E535D94201A7FBA","df8cd1df-49c0-4380-879f-75a282ab275b","051c06f1-75cc-4548-856d-4923ddaba0dc","{""num_scrambled_semantic"":""8"",""num_scrambled_causal"":""4"",""num_scrambled_schematic"":""4"",""participantId"":""C0686A9C7AB14B599E535D94201A7FBA"",""assignmentId"":""df8cd1df-49c0-4380-879f-75a282ab275b"",""projectId"":""051c06f1-75cc-4548-856d-4923ddaba0dc""}","https://test12345.live/?num_scrambled_semantic=8&num_scrambled_causal=4&num_scrambled_schematic=4&participantId=C0686A9C7AB14B599E535D94201A7FBA&assignmentId=df8cd1df-49c0-4380-879f-75a282ab275b&projectId=051c06f1-75cc-4548-856d-4923ddaba0dc","C0686A9C7AB14B599E535D94201A7FBA-2025-05-15-19-00-13","","1819","","images/semantic_sequence/market_semantic/market_semantic_1.png","1","",""
"","","","","","image-button-response","51","754672","0.0-10.0-1.0-2.8","C0686A9C7AB14B599E535D94201A7FBA","C0686A9C7AB14B599E535D94201A7FBA","df8cd1df-49c0-4380-879f-75a282ab275b","051c06f1-75cc-4548-856d-4923ddaba0dc","{""num_scrambled_semantic"":""8"",""num_scrambled_causal"":""4"",""num_scrambled_schematic"":""4"",""participantId"":""C0686A9C7AB14B599E535D94201A7FBA"",""assignmentId"":""df8cd1df-49c0-4380-879f-75a282ab275b"",""projectId"":""051c06f1-75cc-4548-856d-4923ddaba0dc""}","https://test12345.live/?num_scrambled_semantic=8&num_scrambled_causal=4&num_scrambled_schematic=4&participantId=C0686A9C7AB14B599E535D94201A7FBA&assignmentId=df8cd1df-49c0-4380-879f-75a282ab275b&projectId=051c06f1-75cc-4548-856d-4923ddaba0dc","C0686A9C7AB14B599E535D94201A7FBA-2025-05-15-19-00-13","","null","","[]","null","",""
"","","","","","image-button-response","52","759176","0.0-10.0-1.0-0.9","C0686A9C7AB14B599E535D94201A7FBA","C0686A9C7AB14B599E535D94201A7FBA","df8cd1df-49c0-4380-879f-75a282ab275b","051c06f1-75cc-4548-856d-4923ddaba0dc","{""num_scrambled_semantic"":""8"",""num_scrambled_causal"":""4"",""num_scrambled_schematic"":""4"",""participantId"":""C0686A9C7AB14B599E535D94201A7FBA"",""assignmentId"":""df8cd1df-49c0-4380-879f-75a282ab275b"",""projectId"":""051c06f1-75cc-4548-856d-4923ddaba0dc""}","https://test12345.live/?num_scrambled_semantic=8&num_scrambled_causal=4&num_scrambled_schematic=4&participantId=C0686A9C7AB14B599E535D94201A7FBA&assignmentId=df8cd1df-49c0-4380-879f-75a282ab275b&projectId=051c06f1-75cc-4548-856d-4923ddaba0dc","C0686A9C7AB14B599E535D94201A7FBA-2025-05-15-19-00-13","","null","","images/semantic_sequence/market_semantic/market_semantic_3.png","null","",""
"","","","","","image-button-response","53","760795","0.0-10.0-1.0-1.9","C0686A9C7AB14B599E535D94201A7FBA","C0686A9C7AB14B599E535D94201A7FBA","df8cd1df-49c0-4380-879f-75a282ab275b","051c06f1-75cc-4548-856d-4923ddaba0dc","{""num_scrambled_semantic"":""8"",""num_scrambled_causal"":""4"",""num_scrambled_schematic"":""4"",""participantId"":""C0686A9C7AB14B599E535D94201A7FBA"",""assignmentId"":""df8cd1df-49c0-4380-879f-75a282ab275b"",""projectId"":""051c06f1-75cc-4548-856d-4923ddaba0dc""}","https://test12345.live/?num_scrambled_semantic=8&num_scrambled_causal=4&num_scrambled_schematic=4&participantId=C0686A9C7AB14B599E535D94201A7FBA&assignmentId=df8cd1df-49c0-4380-879f-75a282ab275b&projectId=051c06f1-75cc-4548-856d-4923ddaba0dc","C0686A9C7AB14B599E535D94201A7FBA-2025-05-15-19-00-13","","1618","","images/semantic_sequence/market_semantic/market_semantic_3.png","1","",""
"","","","","","image-button-response","54","762610","0.0-10.0-1.0-2.9","C0686A9C7AB14B599E535D94201A7FBA","C0686A9C7AB14B599E535D94201A7FBA","df8cd1df-49c0-4380-879f-75a282ab275b","051c06f1-75cc-4548-856d-4923ddaba0dc","{""num_scrambled_semantic"":""8"",""num_scrambled_causal"":""4"",""num_scrambled_schematic"":""4"",""participantId"":""C0686A9C7AB14B599E535D94201A7FBA"",""assignmentId"":""df8cd1df-49c0-4380-879f-75a282ab275b"",""projectId"":""051c06f1-75cc-4548-856d-4923ddaba0dc""}","https://test12345.live/?num_scrambled_semantic=8&num_scrambled_causal=4&num_scrambled_schematic=4&participantId=C0686A9C7AB14B599E535D94201A7FBA&assignmentId=df8cd1df-49c0-4380-879f-75a282ab275b&projectId=051c06f1-75cc-4548-856d-4923ddaba0dc","C0686A9C7AB14B599E535D94201A7FBA-2025-05-15-19-00-13","","null","","[]","null","",""
"","","","","","html-audio-response","55","787661","0.0-11.0","C0686A9C7AB14B599E535D94201A7FBA","C0686A9C7AB14B599E535D94201A7FBA","df8cd1df-49c0-4380-879f-75a282ab275b","051c06f1-75cc-4548-856d-4923ddaba0dc","{""num_scrambled_semantic"":""8"",""num_scrambled_causal"":""4"",""num_scrambled_schematic"":""4"",""participantId"":""C0686A9C7AB14B599E535D94201A7FBA"",""assignmentId"":""df8cd1df-49c0-4380-879f-75a282ab275b"",""projectId"":""051c06f1-75cc-4548-856d-4923ddaba0dc""}","https://test12345.live/?num_scrambled_semantic=8&num_scrambled_causal=4&num_scrambled_schematic=4&participantId=C0686A9C7AB14B599E535D94201A7FBA&assignmentId=df8cd1df-49c0-4380-879f-75a282ab275b&projectId=051c06f1-75cc-4548-856d-4923ddaba0dc","C0686A9C7AB14B599E535D94201A7FBA-2025-05-15-19-00-13","","23143","","[""<span style=\""color: red; font-size: 24px\""> NOW RECORDING</span><p>Please say out loud all the images you saw, as many as you can remember. The images can be said in any order.</p>""]","","2","market_semantic"
"","","","","","image-button-response","56","793668","0.0-12.0-0.0","C0686A9C7AB14B599E535D94201A7FBA","C0686A9C7AB14B599E535D94201A7FBA","df8cd1df-49c0-4380-879f-75a282ab275b","051c06f1-75cc-4548-856d-4923ddaba0dc","{""num_scrambled_semantic"":""8"",""num_scrambled_causal"":""4"",""num_scrambled_schematic"":""4"",""participantId"":""C0686A9C7AB14B599E535D94201A7FBA"",""assignmentId"":""df8cd1df-49c0-4380-879f-75a282ab275b"",""projectId"":""051c06f1-75cc-4548-856d-4923ddaba0dc""}","https://test12345.live/?num_scrambled_semantic=8&num_scrambled_causal=4&num_scrambled_schematic=4&participantId=C0686A9C7AB14B599E535D94201A7FBA&assignmentId=df8cd1df-49c0-4380-879f-75a282ab275b&projectId=051c06f1-75cc-4548-856d-4923ddaba0dc","C0686A9C7AB14B599E535D94201A7FBA-2025-05-15-19-00-13","","null","","images/semantic_sequence/creative_activities_semantic/creative_activities_semantic_0.png","null","",""
"","","","","","image-button-response","57","798180","0.0-12.0-1.0-0.0","C0686A9C7AB14B599E535D94201A7FBA","C0686A9C7AB14B599E535D94201A7FBA","df8cd1df-49c0-4380-879f-75a282ab275b","051c06f1-75cc-4548-856d-4923ddaba0dc","{""num_scrambled_semantic"":""8"",""num_scrambled_causal"":""4"",""num_scrambled_schematic"":""4"",""participantId"":""C0686A9C7AB14B599E535D94201A7FBA"",""assignmentId"":""df8cd1df-49c0-4380-879f-75a282ab275b"",""projectId"":""051c06f1-75cc-4548-856d-4923ddaba0dc""}","https://test12345.live/?num_scrambled_semantic=8&num_scrambled_causal=4&num_scrambled_schematic=4&participantId=C0686A9C7AB14B599E535D94201A7FBA&assignmentId=df8cd1df-49c0-4380-879f-75a282ab275b&projectId=051c06f1-75cc-4548-856d-4923ddaba0dc","C0686A9C7AB14B599E535D94201A7FBA-2025-05-15-19-00-13","","null","","images/semantic_sequence/creative_activities_semantic/creative_activities_semantic_1.png","null","",""
"","","","","","image-button-response","58","799195","0.0-12.0-1.0-1.0","C0686A9C7AB14B599E535D94201A7FBA","C0686A9C7AB14B599E535D94201A7FBA","df8cd1df-49c0-4380-879f-75a282ab275b","051c06f1-75cc-4548-856d-4923ddaba0dc","{""num_scrambled_semantic"":""8"",""num_scrambled_causal"":""4"",""num_scrambled_schematic"":""4"",""participantId"":""C0686A9C7AB14B599E535D94201A7FBA"",""assignmentId"":""df8cd1df-49c0-4380-879f-75a282ab275b"",""projectId"":""051c06f1-75cc-4548-856d-4923ddaba0dc""}","https://test12345.live/?num_scrambled_semantic=8&num_scrambled_causal=4&num_scrambled_schematic=4&participantId=C0686A9C7AB14B599E535D94201A7FBA&assignmentId=df8cd1df-49c0-4380-879f-75a282ab275b&projectId=051c06f1-75cc-4548-856d-4923ddaba0dc","C0686A9C7AB14B599E535D94201A7FBA-2025-05-15-19-00-13","","1013","","images/semantic_sequence/creative_activities_semantic/creative_activities_semantic_1.png","0","",""
"","","","","","image-button-response","59","801000","0.0-12.0-1.0-2.0","C0686A9C7AB14B599E535D94201A7FBA","C0686A9C7AB14B599E535D94201A7FBA","df8cd1df-49c0-4380-879f-75a282ab275b","051c06f1-75cc-4548-856d-4923ddaba0dc","{""num_scrambled_semantic"":""8"",""num_scrambled_causal"":""4"",""num_scrambled_schematic"":""4"",""participantId"":""C0686A9C7AB14B599E535D94201A7FBA"",""assignmentId"":""df8cd1df-49c0-4380-879f-75a282ab275b"",""projectId"":""051c06f1-75cc-4548-856d-4923ddaba0dc""}","https://test12345.live/?num_scrambled_semantic=8&num_scrambled_causal=4&num_scrambled_schematic=4&participantId=C0686A9C7AB14B599E535D94201A7FBA&assignmentId=df8cd1df-49c0-4380-879f-75a282ab275b&projectId=051c06f1-75cc-4548-856d-4923ddaba0dc","C0686A9C7AB14B599E535D94201A7FBA-2025-05-15-19-00-13","","null","","[]","null","",""
"","","","","","image-button-response","60","805506","0.0-12.0-1.0-0.1","C0686A9C7AB14B599E535D94201A7FBA","C0686A9C7AB14B599E535D94201A7FBA","df8cd1df-49c0-4380-879f-75a282ab275b","051c06f1-75cc-4548-856d-4923ddaba0dc","{""num_scrambled_semantic"":""8"",""num_scrambled_causal"":""4"",""num_scrambled_schematic"":""4"",""participantId"":""C0686A9C7AB14B599E535D94201A7FBA"",""assignmentId"":""df8cd1df-49c0-4380-879f-75a282ab275b"",""projectId"":""051c06f1-75cc-4548-856d-4923ddaba0dc""}","https://test12345.live/?num_scrambled_semantic=8&num_scrambled_causal=4&num_scrambled_schematic=4&participantId=C0686A9C7AB14B599E535D94201A7FBA&assignmentId=df8cd1df-49c0-4380-879f-75a282ab275b&projectId=051c06f1-75cc-4548-856d-4923ddaba0dc","C0686A9C7AB14B599E535D94201A7FBA-2025-05-15-19-00-13","","null","","images/semantic_sequence/creative_activities_semantic/creative_activities_semantic_2.png","null","",""
"","","","","","image-button-response","61","806369","0.0-12.0-1.0-1.1","C0686A9C7AB14B599E535D94201A7FBA","C0686A9C7AB14B599E535D94201A7FBA","df8cd1df-49c0-4380-879f-75a282ab275b","051c06f1-75cc-4548-856d-4923ddaba0dc","{""num_scrambled_semantic"":""8"",""num_scrambled_causal"":""4"",""num_scrambled_schematic"":""4"",""participantId"":""C0686A9C7AB14B599E535D94201A7FBA"",""assignmentId"":""df8cd1df-49c0-4380-879f-75a282ab275b"",""projectId"":""051c06f1-75cc-4548-856d-4923ddaba0dc""}","https://test12345.live/?num_scrambled_semantic=8&num_scrambled_causal=4&num_scrambled_schematic=4&participantId=C0686A9C7AB14B599E535D94201A7FBA&assignmentId=df8cd1df-49c0-4380-879f-75a282ab275b&projectId=051c06f1-75cc-4548-856d-4923ddaba0dc","C0686A9C7AB14B599E535D94201A7FBA-2025-05-15-19-00-13","","862","","images/semantic_sequence/creative_activities_semantic/creative_activities_semantic_2.png","0","",""
"","","","","","image-button-response","62","808174","0.0-12.0-1.0-2.1","C0686A9C7AB14B599E535D94201A7FBA","C0686A9C7AB14B599E535D94201A7FBA","df8cd1df-49c0-4380-879f-75a282ab275b","051c06f1-75cc-4548-856d-4923ddaba0dc","{""num_scrambled_semantic"":""8"",""num_scrambled_causal"":""4"",""num_scrambled_schematic"":""4"",""participantId"":""C0686A9C7AB14B599E535D94201A7FBA"",""assignmentId"":""df8cd1df-49c0-4380-879f-75a282ab275b"",""projectId"":""051c06f1-75cc-4548-856d-4923ddaba0dc""}","https://test12345.live/?num_scrambled_semantic=8&num_scrambled_causal=4&num_scrambled_schematic=4&participantId=C0686A9C7AB14B599E535D94201A7FBA&assignmentId=df8cd1df-49c0-4380-879f-75a282ab275b&projectId=051c06f1-75cc-4548-856d-4923ddaba0dc","C0686A9C7AB14B599E535D94201A7FBA-2025-05-15-19-00-13","","null","","[]","null","",""
"","","","","","image-button-response","63","812682","0.0-12.0-1.0-0.2","C0686A9C7AB14B599E535D94201A7FBA","C0686A9C7AB14B599E535D94201A7FBA","df8cd1df-49c0-4380-879f-75a282ab275b","051c06f1-75cc-4548-856d-4923ddaba0dc","{""num_scrambled_semantic"":""8"",""num_scrambled_causal"":""4"",""num_scrambled_schematic"":""4"",""participantId"":""C0686A9C7AB14B599E535D94201A7FBA"",""assignmentId"":""df8cd1df-49c0-4380-879f-75a282ab275b"",""projectId"":""051c06f1-75cc-4548-856d-4923ddaba0dc""}","https://test12345.live/?num_scrambled_semantic=8&num_scrambled_causal=4&num_scrambled_schematic=4&participantId=C0686A9C7AB14B599E535D94201A7FBA&assignmentId=df8cd1df-49c0-4380-879f-75a282ab275b&projectId=051c06f1-75cc-4548-856d-4923ddaba0dc","C0686A9C7AB14B599E535D94201A7FBA-2025-05-15-19-00-13","","null","","images/semantic_sequence/creative_activities_semantic/creative_activities_semantic_3.png","null","",""
"","","","","","image-button-response","64","814636","0.0-12.0-1.0-1.2","C0686A9C7AB14B599E535D94201A7FBA","C0686A9C7AB14B599E535D94201A7FBA","df8cd1df-49c0-4380-879f-75a282ab275b","051c06f1-75cc-4548-856d-4923ddaba0dc","{""num_scrambled_semantic"":""8"",""num_scrambled_causal"":""4"",""num_scrambled_schematic"":""4"",""participantId"":""C0686A9C7AB14B599E535D94201A7FBA"",""assignmentId"":""df8cd1df-49c0-4380-879f-75a282ab275b"",""projectId"":""051c06f1-75cc-4548-856d-4923ddaba0dc""}","https://test12345.live/?num_scrambled_semantic=8&num_scrambled_causal=4&num_scrambled_schematic=4&participantId=C0686A9C7AB14B599E535D94201A7FBA&assignmentId=df8cd1df-49c0-4380-879f-75a282ab275b&projectId=051c06f1-75cc-4548-856d-4923ddaba0dc","C0686A9C7AB14B599E535D94201A7FBA-2025-05-15-19-00-13","","1952","","images/semantic_sequence/creative_activities_semantic/creative_activities_semantic_3.png","0","",""
"","","","","","image-button-response","65","816450","0.0-12.0-1.0-2.2","C0686A9C7AB14B599E535D94201A7FBA","C0686A9C7AB14B599E535D94201A7FBA","df8cd1df-49c0-4380-879f-75a282ab275b","051c06f1-75cc-4548-856d-4923ddaba0dc","{""num_scrambled_semantic"":""8"",""num_scrambled_causal"":""4"",""num_scrambled_schematic"":""4"",""participantId"":""C0686A9C7AB14B599E535D94201A7FBA"",""assignmentId"":""df8cd1df-49c0-4380-879f-75a282ab275b"",""projectId"":""051c06f1-75cc-4548-856d-4923ddaba0dc""}","https://test12345.live/?num_scrambled_semantic=8&num_scrambled_causal=4&num_scrambled_schematic=4&participantId=C0686A9C7AB14B599E535D94201A7FBA&assignmentId=df8cd1df-49c0-4380-879f-75a282ab275b&projectId=051c06f1-75cc-4548-856d-4923ddaba0dc","C0686A9C7AB14B599E535D94201A7FBA-2025-05-15-19-00-13","","null","","[]","null","",""
"","","","","","image-button-response","66","820967","0.0-12.0-1.0-0.3","C0686A9C7AB14B599E535D94201A7FBA","C0686A9C7AB14B599E535D94201A7FBA","df8cd1df-49c0-4380-879f-75a282ab275b","051c06f1-75cc-4548-856d-4923ddaba0dc","{""num_scrambled_semantic"":""8"",""num_scrambled_causal"":""4"",""num_scrambled_schematic"":""4"",""participantId"":""C0686A9C7AB14B599E535D94201A7FBA"",""assignmentId"":""df8cd1df-49c0-4380-879f-75a282ab275b"",""projectId"":""051c06f1-75cc-4548-856d-4923ddaba0dc""}","https://test12345.live/?num_scrambled_semantic=8&num_scrambled_causal=4&num_scrambled_schematic=4&participantId=C0686A9C7AB14B599E535D94201A7FBA&assignmentId=df8cd1df-49c0-4380-879f-75a282ab275b&projectId=051c06f1-75cc-4548-856d-4923ddaba0dc","C0686A9C7AB14B599E535D94201A7FBA-2025-05-15-19-00-13","","null","","images/semantic_sequence/creative_activities_semantic/creative_activities_semantic_4.png","null","",""
"","","","","","image-button-response","67","822588","0.0-12.0-1.0-1.3","C0686A9C7AB14B599E535D94201A7FBA","C0686A9C7AB14B599E535D94201A7FBA","df8cd1df-49c0-4380-879f-75a282ab275b","051c06f1-75cc-4548-856d-4923ddaba0dc","{""num_scrambled_semantic"":""8"",""num_scrambled_causal"":""4"",""num_scrambled_schematic"":""4"",""participantId"":""C0686A9C7AB14B599E535D94201A7FBA"",""assignmentId"":""df8cd1df-49c0-4380-879f-75a282ab275b"",""projectId"":""051c06f1-75cc-4548-856d-4923ddaba0dc""}","https://test12345.live/?num_scrambled_semantic=8&num_scrambled_causal=4&num_scrambled_schematic=4&participantId=C0686A9C7AB14B599E535D94201A7FBA&assignmentId=df8cd1df-49c0-4380-879f-75a282ab275b&projectId=051c06f1-75cc-4548-856d-4923ddaba0dc","C0686A9C7AB14B599E535D94201A7FBA-2025-05-15-19-00-13","","1620","","images/semantic_sequence/creative_activities_semantic/creative_activities_semantic_4.png","0","",""
"","","","","","image-button-response","68","824398","0.0-12.0-1.0-2.3","C0686A9C7AB14B599E535D94201A7FBA","C0686A9C7AB14B599E535D94201A7FBA","df8cd1df-49c0-4380-879f-75a282ab275b","051c06f1-75cc-4548-856d-4923ddaba0dc","{""num_scrambled_semantic"":""8"",""num_scrambled_causal"":""4"",""num_scrambled_schematic"":""4"",""participantId"":""C0686A9C7AB14B599E535D94201A7FBA"",""assignmentId"":""df8cd1df-49c0-4380-879f-75a282ab275b"",""projectId"":""051c06f1-75cc-4548-856d-4923ddaba0dc""}","https://test12345.live/?num_scrambled_semantic=8&num_scrambled_causal=4&num_scrambled_schematic=4&participantId=C0686A9C7AB14B599E535D94201A7FBA&assignmentId=df8cd1df-49c0-4380-879f-75a282ab275b&projectId=051c06f1-75cc-4548-856d-4923ddaba0dc","C0686A9C7AB14B599E535D94201A7FBA-2025-05-15-19-00-13","","null","","[]","null","",""
"","","","","","image-button-response","69","828903","0.0-12.0-1.0-0.4","C0686A9C7AB14B599E535D94201A7FBA","C0686A9C7AB14B599E535D94201A7FBA","df8cd1df-49c0-4380-879f-75a282ab275b","051c06f1-75cc-4548-856d-4923ddaba0dc","{""num_scrambled_semantic"":""8"",""num_scrambled_causal"":""4"",""num_scrambled_schematic"":""4"",""participantId"":""C0686A9C7AB14B599E535D94201A7FBA"",""assignmentId"":""df8cd1df-49c0-4380-879f-75a282ab275b"",""projectId"":""051c06f1-75cc-4548-856d-4923ddaba0dc""}","https://test12345.live/?num_scrambled_semantic=8&num_scrambled_causal=4&num_scrambled_schematic=4&participantId=C0686A9C7AB14B599E535D94201A7FBA&assignmentId=df8cd1df-49c0-4380-879f-75a282ab275b&projectId=051c06f1-75cc-4548-856d-4923ddaba0dc","C0686A9C7AB14B599E535D94201A7FBA-2025-05-15-19-00-13","","null","","images/semantic_sequence/creative_activities_semantic/creative_activities_semantic_5.png","null","",""
"","","","","","image-button-response","70","829347","0.0-12.0-1.0-1.4","C0686A9C7AB14B599E535D94201A7FBA","C0686A9C7AB14B599E535D94201A7FBA","df8cd1df-49c0-4380-879f-75a282ab275b","051c06f1-75cc-4548-856d-4923ddaba0dc","{""num_scrambled_semantic"":""8"",""num_scrambled_causal"":""4"",""num_scrambled_schematic"":""4"",""participantId"":""C0686A9C7AB14B599E535D94201A7FBA"",""assignmentId"":""df8cd1df-49c0-4380-879f-75a282ab275b"",""projectId"":""051c06f1-75cc-4548-856d-4923ddaba0dc""}","https://test12345.live/?num_scrambled_semantic=8&num_scrambled_causal=4&num_scrambled_schematic=4&participantId=C0686A9C7AB14B599E535D94201A7FBA&assignmentId=df8cd1df-49c0-4380-879f-75a282ab275b&projectId=051c06f1-75cc-4548-856d-4923ddaba0dc","C0686A9C7AB14B599E535D94201A7FBA-2025-05-15-19-00-13","","442","","images/semantic_sequence/creative_activities_semantic/creative_activities_semantic_5.png","0","",""
"","","","","","image-button-response","71","831160","0.0-12.0-1.0-2.4","C0686A9C7AB14B599E535D94201A7FBA","C0686A9C7AB14B599E535D94201A7FBA","df8cd1df-49c0-4380-879f-75a282ab275b","051c06f1-75cc-4548-856d-4923ddaba0dc","{""num_scrambled_semantic"":""8"",""num_scrambled_causal"":""4"",""num_scrambled_schematic"":""4"",""participantId"":""C0686A9C7AB14B599E535D94201A7FBA"",""assignmentId"":""df8cd1df-49c0-4380-879f-75a282ab275b"",""projectId"":""051c06f1-75cc-4548-856d-4923ddaba0dc""}","https://test12345.live/?num_scrambled_semantic=8&num_scrambled_causal=4&num_scrambled_schematic=4&participantId=C0686A9C7AB14B599E535D94201A7FBA&assignmentId=df8cd1df-49c0-4380-879f-75a282ab275b&projectId=051c06f1-75cc-4548-856d-4923ddaba0dc","C0686A9C7AB14B599E535D94201A7FBA-2025-05-15-19-00-13","","null","","[]","null","",""
"","","","","","image-button-response","72","835670","0.0-12.0-1.0-0.5","C0686A9C7AB14B599E535D94201A7FBA","C0686A9C7AB14B599E535D94201A7FBA","df8cd1df-49c0-4380-879f-75a282ab275b","051c06f1-75cc-4548-856d-4923ddaba0dc","{""num_scrambled_semantic"":""8"",""num_scrambled_causal"":""4"",""num_scrambled_schematic"":""4"",""participantId"":""C0686A9C7AB14B599E535D94201A7FBA"",""assignmentId"":""df8cd1df-49c0-4380-879f-75a282ab275b"",""projectId"":""051c06f1-75cc-4548-856d-4923ddaba0dc""}","https://test12345.live/?num_scrambled_semantic=8&num_scrambled_causal=4&num_scrambled_schematic=4&participantId=C0686A9C7AB14B599E535D94201A7FBA&assignmentId=df8cd1df-49c0-4380-879f-75a282ab275b&projectId=051c06f1-75cc-4548-856d-4923ddaba0dc","C0686A9C7AB14B599E535D94201A7FBA-2025-05-15-19-00-13","","null","","images/semantic_sequence/creative_activities_semantic/creative_activities_semantic_6.png","null","",""
"","","","","","image-button-response","73","837203","0.0-12.0-1.0-1.5","C0686A9C7AB14B599E535D94201A7FBA","C0686A9C7AB14B599E535D94201A7FBA","df8cd1df-49c0-4380-879f-75a282ab275b","051c06f1-75cc-4548-856d-4923ddaba0dc","{""num_scrambled_semantic"":""8"",""num_scrambled_causal"":""4"",""num_scrambled_schematic"":""4"",""participantId"":""C0686A9C7AB14B599E535D94201A7FBA"",""assignmentId"":""df8cd1df-49c0-4380-879f-75a282ab275b"",""projectId"":""051c06f1-75cc-4548-856d-4923ddaba0dc""}","https://test12345.live/?num_scrambled_semantic=8&num_scrambled_causal=4&num_scrambled_schematic=4&participantId=C0686A9C7AB14B599E535D94201A7FBA&assignmentId=df8cd1df-49c0-4380-879f-75a282ab275b&projectId=051c06f1-75cc-4548-856d-4923ddaba0dc","C0686A9C7AB14B599E535D94201A7FBA-2025-05-15-19-00-13","","1531","","images/semantic_sequence/creative_activities_semantic/creative_activities_semantic_6.png","0","",""
"","","","","","image-button-response","74","839018","0.0-12.0-1.0-2.5","C0686A9C7AB14B599E535D94201A7FBA","C0686A9C7AB14B599E535D94201A7FBA","df8cd1df-49c0-4380-879f-75a282ab275b","051c06f1-75cc-4548-856d-4923ddaba0dc","{""num_scrambled_semantic"":""8"",""num_scrambled_causal"":""4"",""num_scrambled_schematic"":""4"",""participantId"":""C0686A9C7AB14B599E535D94201A7FBA"",""assignmentId"":""df8cd1df-49c0-4380-879f-75a282ab275b"",""projectId"":""051c06f1-75cc-4548-856d-4923ddaba0dc""}","https://test12345.live/?num_scrambled_semantic=8&num_scrambled_causal=4&num_scrambled_schematic=4&participantId=C0686A9C7AB14B599E535D94201A7FBA&assignmentId=df8cd1df-49c0-4380-879f-75a282ab275b&projectId=051c06f1-75cc-4548-856d-4923ddaba0dc","C0686A9C7AB14B599E535D94201A7FBA-2025-05-15-19-00-13","","null","","[]","null","",""
"","","","","","image-button-response","75","843533","0.0-12.0-1.0-0.6","C0686A9C7AB14B599E535D94201A7FBA","C0686A9C7AB14B599E535D94201A7FBA","df8cd1df-49c0-4380-879f-75a282ab275b","051c06f1-75cc-4548-856d-4923ddaba0dc","{""num_scrambled_semantic"":""8"",""num_scrambled_causal"":""4"",""num_scrambled_schematic"":""4"",""participantId"":""C0686A9C7AB14B599E535D94201A7FBA"",""assignmentId"":""df8cd1df-49c0-4380-879f-75a282ab275b"",""projectId"":""051c06f1-75cc-4548-856d-4923ddaba0dc""}","https://test12345.live/?num_scrambled_semantic=8&num_scrambled_causal=4&num_scrambled_schematic=4&participantId=C0686A9C7AB14B599E535D94201A7FBA&assignmentId=df8cd1df-49c0-4380-879f-75a282ab275b&projectId=051c06f1-75cc-4548-856d-4923ddaba0dc","C0686A9C7AB14B599E535D94201A7FBA-2025-05-15-19-00-13","","null","","images/semantic_sequence/creative_activities_semantic/creative_activities_semantic_7.png","null","",""
"","","","","","image-button-response","76","844262","0.0-12.0-1.0-1.6","C0686A9C7AB14B599E535D94201A7FBA","C0686A9C7AB14B599E535D94201A7FBA","df8cd1df-49c0-4380-879f-75a282ab275b","051c06f1-75cc-4548-856d-4923ddaba0dc","{""num_scrambled_semantic"":""8"",""num_scrambled_causal"":""4"",""num_scrambled_schematic"":""4"",""participantId"":""C0686A9C7AB14B599E535D94201A7FBA"",""assignmentId"":""df8cd1df-49c0-4380-879f-75a282ab275b"",""projectId"":""051c06f1-75cc-4548-856d-4923ddaba0dc""}","https://test12345.live/?num_scrambled_semantic=8&num_scrambled_causal=4&num_scrambled_schematic=4&participantId=C0686A9C7AB14B599E535D94201A7FBA&assignmentId=df8cd1df-49c0-4380-879f-75a282ab275b&projectId=051c06f1-75cc-4548-856d-4923ddaba0dc","C0686A9C7AB14B599E535D94201A7FBA-2025-05-15-19-00-13","","727","","images/semantic_sequence/creative_activities_semantic/creative_activities_semantic_7.png","0","",""
"","","","","","image-button-response","77","846072","0.0-12.0-1.0-2.6","C0686A9C7AB14B599E535D94201A7FBA","C0686A9C7AB14B599E535D94201A7FBA","df8cd1df-49c0-4380-879f-75a282ab275b","051c06f1-75cc-4548-856d-4923ddaba0dc","{""num_scrambled_semantic"":""8"",""num_scrambled_causal"":""4"",""num_scrambled_schematic"":""4"",""participantId"":""C0686A9C7AB14B599E535D94201A7FBA"",""assignmentId"":""df8cd1df-49c0-4380-879f-75a282ab275b"",""projectId"":""051c06f1-75cc-4548-856d-4923ddaba0dc""}","https://test12345.live/?num_scrambled_semantic=8&num_scrambled_causal=4&num_scrambled_schematic=4&participantId=C0686A9C7AB14B599E535D94201A7FBA&assignmentId=df8cd1df-49c0-4380-879f-75a282ab275b&projectId=051c06f1-75cc-4548-856d-4923ddaba0dc","C0686A9C7AB14B599E535D94201A7FBA-2025-05-15-19-00-13","","null","","[]","null","",""
"","","","","","image-button-response","78","850580","0.0-12.0-1.0-0.7","C0686A9C7AB14B599E535D94201A7FBA","C0686A9C7AB14B599E535D94201A7FBA","df8cd1df-49c0-4380-879f-75a282ab275b","051c06f1-75cc-4548-856d-4923ddaba0dc","{""num_scrambled_semantic"":""8"",""num_scrambled_causal"":""4"",""num_scrambled_schematic"":""4"",""participantId"":""C0686A9C7AB14B599E535D94201A7FBA"",""assignmentId"":""df8cd1df-49c0-4380-879f-75a282ab275b"",""projectId"":""051c06f1-75cc-4548-856d-4923ddaba0dc""}","https://test12345.live/?num_scrambled_semantic=8&num_scrambled_causal=4&num_scrambled_schematic=4&participantId=C0686A9C7AB14B599E535D94201A7FBA&assignmentId=df8cd1df-49c0-4380-879f-75a282ab275b&projectId=051c06f1-75cc-4548-856d-4923ddaba0dc","C0686A9C7AB14B599E535D94201A7FBA-2025-05-15-19-00-13","","null","","images/semantic_sequence/creative_activities_semantic/creative_activities_semantic_8.png","null","",""
"","","","","","image-button-response","79","852563","0.0-12.0-1.0-1.7","C0686A9C7AB14B599E535D94201A7FBA","C0686A9C7AB14B599E535D94201A7FBA","df8cd1df-49c0-4380-879f-75a282ab275b","051c06f1-75cc-4548-856d-4923ddaba0dc","{""num_scrambled_semantic"":""8"",""num_scrambled_causal"":""4"",""num_scrambled_schematic"":""4"",""participantId"":""C0686A9C7AB14B599E535D94201A7FBA"",""assignmentId"":""df8cd1df-49c0-4380-879f-75a282ab275b"",""projectId"":""051c06f1-75cc-4548-856d-4923ddaba0dc""}","https://test12345.live/?num_scrambled_semantic=8&num_scrambled_causal=4&num_scrambled_schematic=4&participantId=C0686A9C7AB14B599E535D94201A7FBA&assignmentId=df8cd1df-49c0-4380-879f-75a282ab275b&projectId=051c06f1-75cc-4548-856d-4923ddaba0dc","C0686A9C7AB14B599E535D94201A7FBA-2025-05-15-19-00-13","","1981","","images/semantic_sequence/creative_activities_semantic/creative_activities_semantic_8.png","0","",""
"","","","","","image-button-response","80","854364","0.0-12.0-1.0-2.7","C0686A9C7AB14B599E535D94201A7FBA","C0686A9C7AB14B599E535D94201A7FBA","df8cd1df-49c0-4380-879f-75a282ab275b","051c06f1-75cc-4548-856d-4923ddaba0dc","{""num_scrambled_semantic"":""8"",""num_scrambled_causal"":""4"",""num_scrambled_schematic"":""4"",""participantId"":""C0686A9C7AB14B599E535D94201A7FBA"",""assignmentId"":""df8cd1df-49c0-4380-879f-75a282ab275b"",""projectId"":""051c06f1-75cc-4548-856d-4923ddaba0dc""}","https://test12345.live/?num_scrambled_semantic=8&num_scrambled_causal=4&num_scrambled_schematic=4&participantId=C0686A9C7AB14B599E535D94201A7FBA&assignmentId=df8cd1df-49c0-4380-879f-75a282ab275b&projectId=051c06f1-75cc-4548-856d-4923ddaba0dc","C0686A9C7AB14B599E535D94201A7FBA-2025-05-15-19-00-13","","null","","[]","null","",""
"","","","","","image-button-response","81","858878","0.0-12.0-1.0-0.8","C0686A9C7AB14B599E535D94201A7FBA","C0686A9C7AB14B599E535D94201A7FBA","df8cd1df-49c0-4380-879f-75a282ab275b","051c06f1-75cc-4548-856d-4923ddaba0dc","{""num_scrambled_semantic"":""8"",""num_scrambled_causal"":""4"",""num_scrambled_schematic"":""4"",""participantId"":""C0686A9C7AB14B599E535D94201A7FBA"",""assignmentId"":""df8cd1df-49c0-4380-879f-75a282ab275b"",""projectId"":""051c06f1-75cc-4548-856d-4923ddaba0dc""}","https://test12345.live/?num_scrambled_semantic=8&num_scrambled_causal=4&num_scrambled_schematic=4&participantId=C0686A9C7AB14B599E535D94201A7FBA&assignmentId=df8cd1df-49c0-4380-879f-75a282ab275b&projectId=051c06f1-75cc-4548-856d-4923ddaba0dc","C0686A9C7AB14B599E535D94201A7FBA-2025-05-15-19-00-13","","null","","images/semantic_sequence/creative_activities_semantic/creative_activities_semantic_9.png","null","",""
"","","","","","image-button-response","82","859685","0.0-12.0-1.0-1.8","C0686A9C7AB14B599E535D94201A7FBA","C0686A9C7AB14B599E535D94201A7FBA","df8cd1df-49c0-4380-879f-75a282ab275b","051c06f1-75cc-4548-856d-4923ddaba0dc","{""num_scrambled_semantic"":""8"",""num_scrambled_causal"":""4"",""num_scrambled_schematic"":""4"",""participantId"":""C0686A9C7AB14B599E535D94201A7FBA"",""assignmentId"":""df8cd1df-49c0-4380-879f-75a282ab275b"",""projectId"":""051c06f1-75cc-4548-856d-4923ddaba0dc""}","https://test12345.live/?num_scrambled_semantic=8&num_scrambled_causal=4&num_scrambled_schematic=4&participantId=C0686A9C7AB14B599E535D94201A7FBA&assignmentId=df8cd1df-49c0-4380-879f-75a282ab275b&projectId=051c06f1-75cc-4548-856d-4923ddaba0dc","C0686A9C7AB14B599E535D94201A7FBA-2025-05-15-19-00-13","","806","","images/semantic_sequence/creative_activities_semantic/creative_activities_semantic_9.png","1","",""
"","","","","","image-button-response","83","861496","0.0-12.0-1.0-2.8","C0686A9C7AB14B599E535D94201A7FBA","C0686A9C7AB14B599E535D94201A7FBA","df8cd1df-49c0-4380-879f-75a282ab275b","051c06f1-75cc-4548-856d-4923ddaba0dc","{""num_scrambled_semantic"":""8"",""num_scrambled_causal"":""4"",""num_scrambled_schematic"":""4"",""participantId"":""C0686A9C7AB14B599E535D94201A7FBA"",""assignmentId"":""df8cd1df-49c0-4380-879f-75a282ab275b"",""projectId"":""051c06f1-75cc-4548-856d-4923ddaba0dc""}","https://test12345.live/?num_scrambled_semantic=8&num_scrambled_causal=4&num_scrambled_schematic=4&participantId=C0686A9C7AB14B599E535D94201A7FBA&assignmentId=df8cd1df-49c0-4380-879f-75a282ab275b&projectId=051c06f1-75cc-4548-856d-4923ddaba0dc","C0686A9C7AB14B599E535D94201A7FBA-2025-05-15-19-00-13","","null","","[]","null","",""
"","","","","","image-button-response","84","866000","0.0-12.0-1.0-0.9","C0686A9C7AB14B599E535D94201A7FBA","C0686A9C7AB14B599E535D94201A7FBA","df8cd1df-49c0-4380-879f-75a282ab275b","051c06f1-75cc-4548-856d-4923ddaba0dc","{""num_scrambled_semantic"":""8"",""num_scrambled_causal"":""4"",""num_scrambled_schematic"":""4"",""participantId"":""C0686A9C7AB14B599E535D94201A7FBA"",""assignmentId"":""df8cd1df-49c0-4380-879f-75a282ab275b"",""projectId"":""051c06f1-75cc-4548-856d-4923ddaba0dc""}","https://test12345.live/?num_scrambled_semantic=8&num_scrambled_causal=4&num_scrambled_schematic=4&participantId=C0686A9C7AB14B599E535D94201A7FBA&assignmentId=df8cd1df-49c0-4380-879f-75a282ab275b&projectId=051c06f1-75cc-4548-856d-4923ddaba0dc","C0686A9C7AB14B599E535D94201A7FBA-2025-05-15-19-00-13","","null","","images/semantic_sequence/creative_activities_semantic/creative_activities_semantic_ten.png","null","",""
"","","","","","image-button-response","85","867365","0.0-12.0-1.0-1.9","C0686A9C7AB14B599E535D94201A7FBA","C0686A9C7AB14B599E535D94201A7FBA","df8cd1df-49c0-4380-879f-75a282ab275b","051c06f1-75cc-4548-856d-4923ddaba0dc","{""num_scrambled_semantic"":""8"",""num_scrambled_causal"":""4"",""num_scrambled_schematic"":""4"",""participantId"":""C0686A9C7AB14B599E535D94201A7FBA"",""assignmentId"":""df8cd1df-49c0-4380-879f-75a282ab275b"",""projectId"":""051c06f1-75cc-4548-856d-4923ddaba0dc""}","https://test12345.live/?num_scrambled_semantic=8&num_scrambled_causal=4&num_scrambled_schematic=4&participantId=C0686A9C7AB14B599E535D94201A7FBA&assignmentId=df8cd1df-49c0-4380-879f-75a282ab275b&projectId=051c06f1-75cc-4548-856d-4923ddaba0dc","C0686A9C7AB14B599E535D94201A7FBA-2025-05-15-19-00-13","","1364","","images/semantic_sequence/creative_activities_semantic/creative_activities_semantic_ten.png","0","",""
"","","","","","image-button-response","86","869176","0.0-12.0-1.0-2.9","C0686A9C7AB14B599E535D94201A7FBA","C0686A9C7AB14B599E535D94201A7FBA","df8cd1df-49c0-4380-879f-75a282ab275b","051c06f1-75cc-4548-856d-4923ddaba0dc","{""num_scrambled_semantic"":""8"",""num_scrambled_causal"":""4"",""num_scrambled_schematic"":""4"",""participantId"":""C0686A9C7AB14B599E535D94201A7FBA"",""assignmentId"":""df8cd1df-49c0-4380-879f-75a282ab275b"",""projectId"":""051c06f1-75cc-4548-856d-4923ddaba0dc""}","https://test12345.live/?num_scrambled_semantic=8&num_scrambled_causal=4&num_scrambled_schematic=4&participantId=C0686A9C7AB14B599E535D94201A7FBA&assignmentId=df8cd1df-49c0-4380-879f-75a282ab275b&projectId=051c06f1-75cc-4548-856d-4923ddaba0dc","C0686A9C7AB14B599E535D94201A7FBA-2025-05-15-19-00-13","","null","","[]","null","",""
"","","","","","html-audio-response","87","893166","0.0-13.0","C0686A9C7AB14B599E535D94201A7FBA","C0686A9C7AB14B599E535D94201A7FBA","df8cd1df-49c0-4380-879f-75a282ab275b","051c06f1-75cc-4548-856d-4923ddaba0dc","{""num_scrambled_semantic"":""8"",""num_scrambled_causal"":""4"",""num_scrambled_schematic"":""4"",""participantId"":""C0686A9C7AB14B599E535D94201A7FBA"",""assignmentId"":""df8cd1df-49c0-4380-879f-75a282ab275b"",""projectId"":""051c06f1-75cc-4548-856d-4923ddaba0dc""}","https://test12345.live/?num_scrambled_semantic=8&num_scrambled_causal=4&num_scrambled_schematic=4&participantId=C0686A9C7AB14B599E535D94201A7FBA&assignmentId=df8cd1df-49c0-4380-879f-75a282ab275b&projectId=051c06f1-75cc-4548-856d-4923ddaba0dc","C0686A9C7AB14B599E535D94201A7FBA-2025-05-15-19-00-13","","23243","","[""<span style=\""color: red; font-size: 24px\""> NOW RECORDING</span><p>Please say out loud all the images you saw, as many as you can remember. The images can be said in any order.</p>""]","","2","creative_activities_semantic"
"","","","","","image-button-response","88","899180","0.0-14.0-0.0","C0686A9C7AB14B599E535D94201A7FBA","C0686A9C7AB14B599E535D94201A7FBA","df8cd1df-49c0-4380-879f-75a282ab275b","051c06f1-75cc-4548-856d-4923ddaba0dc","{""num_scrambled_semantic"":""8"",""num_scrambled_causal"":""4"",""num_scrambled_schematic"":""4"",""participantId"":""C0686A9C7AB14B599E535D94201A7FBA"",""assignmentId"":""df8cd1df-49c0-4380-879f-75a282ab275b"",""projectId"":""051c06f1-75cc-4548-856d-4923ddaba0dc""}","https://test12345.live/?num_scrambled_semantic=8&num_scrambled_causal=4&num_scrambled_schematic=4&participantId=C0686A9C7AB14B599E535D94201A7FBA&assignmentId=df8cd1df-49c0-4380-879f-75a282ab275b&projectId=051c06f1-75cc-4548-856d-4923ddaba0dc","C0686A9C7AB14B599E535D94201A7FBA-2025-05-15-19-00-13","","null","","images/semantic_sequence/maintaining_a_car_semantic/maintaining_a_car_semantic_0.png","null","",""
"","","","","","image-button-response","89","903688","0.0-14.0-1.0-0.0","C0686A9C7AB14B599E535D94201A7FBA","C0686A9C7AB14B599E535D94201A7FBA","df8cd1df-49c0-4380-879f-75a282ab275b","051c06f1-75cc-4548-856d-4923ddaba0dc","{""num_scrambled_semantic"":""8"",""num_scrambled_causal"":""4"",""num_scrambled_schematic"":""4"",""participantId"":""C0686A9C7AB14B599E535D94201A7FBA"",""assignmentId"":""df8cd1df-49c0-4380-879f-75a282ab275b"",""projectId"":""051c06f1-75cc-4548-856d-4923ddaba0dc""}","https://test12345.live/?num_scrambled_semantic=8&num_scrambled_causal=4&num_scrambled_schematic=4&participantId=C0686A9C7AB14B599E535D94201A7FBA&assignmentId=df8cd1df-49c0-4380-879f-75a282ab275b&projectId=051c06f1-75cc-4548-856d-4923ddaba0dc","C0686A9C7AB14B599E535D94201A7FBA-2025-05-15-19-00-13","","null","","images/semantic_sequence/maintaining_a_car_semantic/maintaining_a_car_semantic_2.png","null","",""
"","","","","","image-button-response","90","905456","0.0-14.0-1.0-1.0","C0686A9C7AB14B599E535D94201A7FBA","C0686A9C7AB14B599E535D94201A7FBA","df8cd1df-49c0-4380-879f-75a282ab275b","051c06f1-75cc-4548-856d-4923ddaba0dc","{""num_scrambled_semantic"":""8"",""num_scrambled_causal"":""4"",""num_scrambled_schematic"":""4"",""participantId"":""C0686A9C7AB14B599E535D94201A7FBA"",""assignmentId"":""df8cd1df-49c0-4380-879f-75a282ab275b"",""projectId"":""051c06f1-75cc-4548-856d-4923ddaba0dc""}","https://test12345.live/?num_scrambled_semantic=8&num_scrambled_causal=4&num_scrambled_schematic=4&participantId=C0686A9C7AB14B599E535D94201A7FBA&assignmentId=df8cd1df-49c0-4380-879f-75a282ab275b&projectId=051c06f1-75cc-4548-856d-4923ddaba0dc","C0686A9C7AB14B599E535D94201A7FBA-2025-05-15-19-00-13","","1767","","images/semantic_sequence/maintaining_a_car_semantic/maintaining_a_car_semantic_2.png","0","",""
"","","","","","image-button-response","91","907268","0.0-14.0-1.0-2.0","C0686A9C7AB14B599E535D94201A7FBA","C0686A9C7AB14B599E535D94201A7FBA","df8cd1df-49c0-4380-879f-75a282ab275b","051c06f1-75cc-4548-856d-4923ddaba0dc","{""num_scrambled_semantic"":""8"",""num_scrambled_causal"":""4"",""num_scrambled_schematic"":""4"",""participantId"":""C0686A9C7AB14B599E535D94201A7FBA"",""assignmentId"":""df8cd1df-49c0-4380-879f-75a282ab275b"",""projectId"":""051c06f1-75cc-4548-856d-4923ddaba0dc""}","https://test12345.live/?num_scrambled_semantic=8&num_scrambled_causal=4&num_scrambled_schematic=4&participantId=C0686A9C7AB14B599E535D94201A7FBA&assignmentId=df8cd1df-49c0-4380-879f-75a282ab275b&projectId=051c06f1-75cc-4548-856d-4923ddaba0dc","C0686A9C7AB14B599E535D94201A7FBA-2025-05-15-19-00-13","","null","","[]","null","",""
"","","","","","image-button-response","92","911776","0.0-14.0-1.0-0.1","C0686A9C7AB14B599E535D94201A7FBA","C0686A9C7AB14B599E535D94201A7FBA","df8cd1df-49c0-4380-879f-75a282ab275b","051c06f1-75cc-4548-856d-4923ddaba0dc","{""num_scrambled_semantic"":""8"",""num_scrambled_causal"":""4"",""num_scrambled_schematic"":""4"",""participantId"":""C0686A9C7AB14B599E535D94201A7FBA"",""assignmentId"":""df8cd1df-49c0-4380-879f-75a282ab275b"",""projectId"":""051c06f1-75cc-4548-856d-4923ddaba0dc""}","https://test12345.live/?num_scrambled_semantic=8&num_scrambled_causal=4&num_scrambled_schematic=4&participantId=C0686A9C7AB14B599E535D94201A7FBA&assignmentId=df8cd1df-49c0-4380-879f-75a282ab275b&projectId=051c06f1-75cc-4548-856d-4923ddaba0dc","C0686A9C7AB14B599E535D94201A7FBA-2025-05-15-19-00-13","","null","","images/semantic_sequence/maintaining_a_car_semantic/maintaining_a_car_semantic_3.png","null","",""
"","","","","","image-button-response","93","912341","0.0-14.0-1.0-1.1","C0686A9C7AB14B599E535D94201A7FBA","C0686A9C7AB14B599E535D94201A7FBA","df8cd1df-49c0-4380-879f-75a282ab275b","051c06f1-75cc-4548-856d-4923ddaba0dc","{""num_scrambled_semantic"":""8"",""num_scrambled_causal"":""4"",""num_scrambled_schematic"":""4"",""participantId"":""C0686A9C7AB14B599E535D94201A7FBA"",""assignmentId"":""df8cd1df-49c0-4380-879f-75a282ab275b"",""projectId"":""051c06f1-75cc-4548-856d-4923ddaba0dc""}","https://test12345.live/?num_scrambled_semantic=8&num_scrambled_causal=4&num_scrambled_schematic=4&participantId=C0686A9C7AB14B599E535D94201A7FBA&assignmentId=df8cd1df-49c0-4380-879f-75a282ab275b&projectId=051c06f1-75cc-4548-856d-4923ddaba0dc","C0686A9C7AB14B599E535D94201A7FBA-2025-05-15-19-00-13","","563","","images/semantic_sequence/maintaining_a_car_semantic/maintaining_a_car_semantic_3.png","0","",""
"","","","","","image-button-response","94","914148","0.0-14.0-1.0-2.1","C0686A9C7AB14B599E535D94201A7FBA","C0686A9C7AB14B599E535D94201A7FBA","df8cd1df-49c0-4380-879f-75a282ab275b","051c06f1-75cc-4548-856d-4923ddaba0dc","{""num_scrambled_semantic"":""8"",""num_scrambled_causal"":""4"",""num_scrambled_schematic"":""4"",""participantId"":""C0686A9C7AB14B599E535D94201A7FBA"",""assignmentId"":""df8cd1df-49c0-4380-879f-75a282ab275b"",""projectId"":""051c06f1-75cc-4548-856d-4923ddaba0dc""}","https://test12345.live/?num_scrambled_semantic=8&num_scrambled_causal=4&num_scrambled_schematic=4&participantId=C0686A9C7AB14B599E535D94201A7FBA&assignmentId=df8cd1df-49c0-4380-879f-75a282ab275b&projectId=051c06f1-75cc-4548-856d-4923ddaba0dc","C0686A9C7AB14B599E535D94201A7FBA-2025-05-15-19-00-13","","null","","[]","null","",""
"","","","","","image-button-response","95","918656","0.0-14.0-1.0-0.2","C0686A9C7AB14B599E535D94201A7FBA","C0686A9C7AB14B599E535D94201A7FBA","df8cd1df-49c0-4380-879f-75a282ab275b","051c06f1-75cc-4548-856d-4923ddaba0dc","{""num_scrambled_semantic"":""8"",""num_scrambled_causal"":""4"",""num_scrambled_schematic"":""4"",""participantId"":""C0686A9C7AB14B599E535D94201A7FBA"",""assignmentId"":""df8cd1df-49c0-4380-879f-75a282ab275b"",""projectId"":""051c06f1-75cc-4548-856d-4923ddaba0dc""}","https://test12345.live/?num_scrambled_semantic=8&num_scrambled_causal=4&num_scrambled_schematic=4&participantId=C0686A9C7AB14B599E535D94201A7FBA&assignmentId=df8cd1df-49c0-4380-879f-75a282ab275b&projectId=051c06f1-75cc-4548-856d-4923ddaba0dc","C0686A9C7AB14B599E535D94201A7FBA-2025-05-15-19-00-13","","null","","images/semantic_sequence/maintaining_a_car_semantic/maintaining_a_car_semantic_1.png","null","",""
"","","","","","image-button-response","96","919525","0.0-14.0-1.0-1.2","C0686A9C7AB14B599E535D94201A7FBA","C0686A9C7AB14B599E535D94201A7FBA","df8cd1df-49c0-4380-879f-75a282ab275b","051c06f1-75cc-4548-856d-4923ddaba0dc","{""num_scrambled_semantic"":""8"",""num_scrambled_causal"":""4"",""num_scrambled_schematic"":""4"",""participantId"":""C0686A9C7AB14B599E535D94201A7FBA"",""assignmentId"":""df8cd1df-49c0-4380-879f-75a282ab275b"",""projectId"":""051c06f1-75cc-4548-856d-4923ddaba0dc""}","https://test12345.live/?num_scrambled_semantic=8&num_scrambled_causal=4&num_scrambled_schematic=4&participantId=C0686A9C7AB14B599E535D94201A7FBA&assignmentId=df8cd1df-49c0-4380-879f-75a282ab275b&projectId=051c06f1-75cc-4548-856d-4923ddaba0dc","C0686A9C7AB14B599E535D94201A7FBA-2025-05-15-19-00-13","","867","","images/semantic_sequence/maintaining_a_car_semantic/maintaining_a_car_semantic_1.png","0","",""
"","","","","","image-button-response","97","921330","0.0-14.0-1.0-2.2","C0686A9C7AB14B599E535D94201A7FBA","C0686A9C7AB14B599E535D94201A7FBA","df8cd1df-49c0-4380-879f-75a282ab275b","051c06f1-75cc-4548-856d-4923ddaba0dc","{""num_scrambled_semantic"":""8"",""num_scrambled_causal"":""4"",""num_scrambled_schematic"":""4"",""participantId"":""C0686A9C7AB14B599E535D94201A7FBA"",""assignmentId"":""df8cd1df-49c0-4380-879f-75a282ab275b"",""projectId"":""051c06f1-75cc-4548-856d-4923ddaba0dc""}","https://test12345.live/?num_scrambled_semantic=8&num_scrambled_causal=4&num_scrambled_schematic=4&participantId=C0686A9C7AB14B599E535D94201A7FBA&assignmentId=df8cd1df-49c0-4380-879f-75a282ab275b&projectId=051c06f1-75cc-4548-856d-4923ddaba0dc","C0686A9C7AB14B599E535D94201A7FBA-2025-05-15-19-00-13","","null","","[]","null","",""
"","","","","","image-button-response","98","925844","0.0-14.0-1.0-0.3","C0686A9C7AB14B599E535D94201A7FBA","C0686A9C7AB14B599E535D94201A7FBA","df8cd1df-49c0-4380-879f-75a282ab275b","051c06f1-75cc-4548-856d-4923ddaba0dc","{""num_scrambled_semantic"":""8"",""num_scrambled_causal"":""4"",""num_scrambled_schematic"":""4"",""participantId"":""C0686A9C7AB14B599E535D94201A7FBA"",""assignmentId"":""df8cd1df-49c0-4380-879f-75a282ab275b"",""projectId"":""051c06f1-75cc-4548-856d-4923ddaba0dc""}","https://test12345.live/?num_scrambled_semantic=8&num_scrambled_causal=4&num_scrambled_schematic=4&participantId=C0686A9C7AB14B599E535D94201A7FBA&assignmentId=df8cd1df-49c0-4380-879f-75a282ab275b&projectId=051c06f1-75cc-4548-856d-4923ddaba0dc","C0686A9C7AB14B599E535D94201A7FBA-2025-05-15-19-00-13","","null","","images/semantic_sequence/maintaining_a_car_semantic/maintaining_a_car_semantic_ten.png","null","",""
"","","","","","image-button-response","99","926981","0.0-14.0-1.0-1.3","C0686A9C7AB14B599E535D94201A7FBA","C0686A9C7AB14B599E535D94201A7FBA","df8cd1df-49c0-4380-879f-75a282ab275b","051c06f1-75cc-4548-856d-4923ddaba0dc","{""num_scrambled_semantic"":""8"",""num_scrambled_causal"":""4"",""num_scrambled_schematic"":""4"",""participantId"":""C0686A9C7AB14B599E535D94201A7FBA"",""assignmentId"":""df8cd1df-49c0-4380-879f-75a282ab275b"",""projectId"":""051c06f1-75cc-4548-856d-4923ddaba0dc""}","https://test12345.live/?num_scrambled_semantic=8&num_scrambled_causal=4&num_scrambled_schematic=4&participantId=C0686A9C7AB14B599E535D94201A7FBA&assignmentId=df8cd1df-49c0-4380-879f-75a282ab275b&projectId=051c06f1-75cc-4548-856d-4923ddaba0dc","C0686A9C7AB14B599E535D94201A7FBA-2025-05-15-19-00-13","","1136","","images/semantic_sequence/maintaining_a_car_semantic/maintaining_a_car_semantic_ten.png","0","",""
"","","","","","image-button-response","100","928794","0.0-14.0-1.0-2.3","C0686A9C7AB14B599E535D94201A7FBA","C0686A9C7AB14B599E535D94201A7FBA","df8cd1df-49c0-4380-879f-75a282ab275b","051c06f1-75cc-4548-856d-4923ddaba0dc","{""num_scrambled_semantic"":""8"",""num_scrambled_causal"":""4"",""num_scrambled_schematic"":""4"",""participantId"":""C0686A9C7AB14B599E535D94201A7FBA"",""assignmentId"":""df8cd1df-49c0-4380-879f-75a282ab275b"",""projectId"":""051c06f1-75cc-4548-856d-4923ddaba0dc""}","https://test12345.live/?num_scrambled_semantic=8&num_scrambled_causal=4&num_scrambled_schematic=4&participantId=C0686A9C7AB14B599E535D94201A7FBA&assignmentId=df8cd1df-49c0-4380-879f-75a282ab275b&projectId=051c06f1-75cc-4548-856d-4923ddaba0dc","C0686A9C7AB14B599E535D94201A7FBA-2025-05-15-19-00-13","","null","","[]","null","",""
"","","","","","image-button-response","101","933310","0.0-14.0-1.0-0.4","C0686A9C7AB14B599E535D94201A7FBA","C0686A9C7AB14B599E535D94201A7FBA","df8cd1df-49c0-4380-879f-75a282ab275b","051c06f1-75cc-4548-856d-4923ddaba0dc","{""num_scrambled_semantic"":""8"",""num_scrambled_causal"":""4"",""num_scrambled_schematic"":""4"",""participantId"":""C0686A9C7AB14B599E535D94201A7FBA"",""assignmentId"":""df8cd1df-49c0-4380-879f-75a282ab275b"",""projectId"":""051c06f1-75cc-4548-856d-4923ddaba0dc""}","https://test12345.live/?num_scrambled_semantic=8&num_scrambled_causal=4&num_scrambled_schematic=4&participantId=C0686A9C7AB14B599E535D94201A7FBA&assignmentId=df8cd1df-49c0-4380-879f-75a282ab275b&projectId=051c06f1-75cc-4548-856d-4923ddaba0dc","C0686A9C7AB14B599E535D94201A7FBA-2025-05-15-19-00-13","","null","","images/semantic_sequence/maintaining_a_car_semantic/maintaining_a_car_semantic_9.png","null","",""
"","","","","","image-button-response","102","936737","0.0-14.0-1.0-1.4","C0686A9C7AB14B599E535D94201A7FBA","C0686A9C7AB14B599E535D94201A7FBA","df8cd1df-49c0-4380-879f-75a282ab275b","051c06f1-75cc-4548-856d-4923ddaba0dc","{""num_scrambled_semantic"":""8"",""num_scrambled_causal"":""4"",""num_scrambled_schematic"":""4"",""participantId"":""C0686A9C7AB14B599E535D94201A7FBA"",""assignmentId"":""df8cd1df-49c0-4380-879f-75a282ab275b"",""projectId"":""051c06f1-75cc-4548-856d-4923ddaba0dc""}","https://test12345.live/?num_scrambled_semantic=8&num_scrambled_causal=4&num_scrambled_schematic=4&participantId=C0686A9C7AB14B599E535D94201A7FBA&assignmentId=df8cd1df-49c0-4380-879f-75a282ab275b&projectId=051c06f1-75cc-4548-856d-4923ddaba0dc","C0686A9C7AB14B599E535D94201A7FBA-2025-05-15-19-00-13","","3427","","images/semantic_sequence/maintaining_a_car_semantic/maintaining_a_car_semantic_9.png","0","",""
"","","","","","image-button-response","103","938545","0.0-14.0-1.0-2.4","C0686A9C7AB14B599E535D94201A7FBA","C0686A9C7AB14B599E535D94201A7FBA","df8cd1df-49c0-4380-879f-75a282ab275b","051c06f1-75cc-4548-856d-4923ddaba0dc","{""num_scrambled_semantic"":""8"",""num_scrambled_causal"":""4"",""num_scrambled_schematic"":""4"",""participantId"":""C0686A9C7AB14B599E535D94201A7FBA"",""assignmentId"":""df8cd1df-49c0-4380-879f-75a282ab275b"",""projectId"":""051c06f1-75cc-4548-856d-4923ddaba0dc""}","https://test12345.live/?num_scrambled_semantic=8&num_scrambled_causal=4&num_scrambled_schematic=4&participantId=C0686A9C7AB14B599E535D94201A7FBA&assignmentId=df8cd1df-49c0-4380-879f-75a282ab275b&projectId=051c06f1-75cc-4548-856d-4923ddaba0dc","C0686A9C7AB14B599E535D94201A7FBA-2025-05-15-19-00-13","","null","","[]","null","",""
"","","","","","image-button-response","104","943048","0.0-14.0-1.0-0.5","C0686A9C7AB14B599E535D94201A7FBA","C0686A9C7AB14B599E535D94201A7FBA","df8cd1df-49c0-4380-879f-75a282ab275b","051c06f1-75cc-4548-856d-4923ddaba0dc","{""num_scrambled_semantic"":""8"",""num_scrambled_causal"":""4"",""num_scrambled_schematic"":""4"",""participantId"":""C0686A9C7AB14B599E535D94201A7FBA"",""assignmentId"":""df8cd1df-49c0-4380-879f-75a282ab275b"",""projectId"":""051c06f1-75cc-4548-856d-4923ddaba0dc""}","https://test12345.live/?num_scrambled_semantic=8&num_scrambled_causal=4&num_scrambled_schematic=4&participantId=C0686A9C7AB14B599E535D94201A7FBA&assignmentId=df8cd1df-49c0-4380-879f-75a282ab275b&projectId=051c06f1-75cc-4548-856d-4923ddaba0dc","C0686A9C7AB14B599E535D94201A7FBA-2025-05-15-19-00-13","","null","","images/semantic_sequence/maintaining_a_car_semantic/maintaining_a_car_semantic_5.png","null","",""
"","","","","","image-button-response","105","943726","0.0-14.0-1.0-1.5","C0686A9C7AB14B599E535D94201A7FBA","C0686A9C7AB14B599E535D94201A7FBA","df8cd1df-49c0-4380-879f-75a282ab275b","051c06f1-75cc-4548-856d-4923ddaba0dc","{""num_scrambled_semantic"":""8"",""num_scrambled_causal"":""4"",""num_scrambled_schematic"":""4"",""participantId"":""C0686A9C7AB14B599E535D94201A7FBA"",""assignmentId"":""df8cd1df-49c0-4380-879f-75a282ab275b"",""projectId"":""051c06f1-75cc-4548-856d-4923ddaba0dc""}","https://test12345.live/?num_scrambled_semantic=8&num_scrambled_causal=4&num_scrambled_schematic=4&participantId=C0686A9C7AB14B599E535D94201A7FBA&assignmentId=df8cd1df-49c0-4380-879f-75a282ab275b&projectId=051c06f1-75cc-4548-856d-4923ddaba0dc","C0686A9C7AB14B599E535D94201A7FBA-2025-05-15-19-00-13","","677","","images/semantic_sequence/maintaining_a_car_semantic/maintaining_a_car_semantic_5.png","0","",""
"","","","","","image-button-response","106","945532","0.0-14.0-1.0-2.5","C0686A9C7AB14B599E535D94201A7FBA","C0686A9C7AB14B599E535D94201A7FBA","df8cd1df-49c0-4380-879f-75a282ab275b","051c06f1-75cc-4548-856d-4923ddaba0dc","{""num_scrambled_semantic"":""8"",""num_scrambled_causal"":""4"",""num_scrambled_schematic"":""4"",""participantId"":""C0686A9C7AB14B599E535D94201A7FBA"",""assignmentId"":""df8cd1df-49c0-4380-879f-75a282ab275b"",""projectId"":""051c06f1-75cc-4548-856d-4923ddaba0dc""}","https://test12345.live/?num_scrambled_semantic=8&num_scrambled_causal=4&num_scrambled_schematic=4&participantId=C0686A9C7AB14B599E535D94201A7FBA&assignmentId=df8cd1df-49c0-4380-879f-75a282ab275b&projectId=051c06f1-75cc-4548-856d-4923ddaba0dc","C0686A9C7AB14B599E535D94201A7FBA-2025-05-15-19-00-13","","null","","[]","null","",""
"","","","","","image-button-response","107","950042","0.0-14.0-1.0-0.6","C0686A9C7AB14B599E535D94201A7FBA","C0686A9C7AB14B599E535D94201A7FBA","df8cd1df-49c0-4380-879f-75a282ab275b","051c06f1-75cc-4548-856d-4923ddaba0dc","{""num_scrambled_semantic"":""8"",""num_scrambled_causal"":""4"",""num_scrambled_schematic"":""4"",""participantId"":""C0686A9C7AB14B599E535D94201A7FBA"",""assignmentId"":""df8cd1df-49c0-4380-879f-75a282ab275b"",""projectId"":""051c06f1-75cc-4548-856d-4923ddaba0dc""}","https://test12345.live/?num_scrambled_semantic=8&num_scrambled_causal=4&num_scrambled_schematic=4&participantId=C0686A9C7AB14B599E535D94201A7FBA&assignmentId=df8cd1df-49c0-4380-879f-75a282ab275b&projectId=051c06f1-75cc-4548-856d-4923ddaba0dc","C0686A9C7AB14B599E535D94201A7FBA-2025-05-15-19-00-13","","null","","images/semantic_sequence/maintaining_a_car_semantic/maintaining_a_car_semantic_6.png","null","",""
"","","","","","image-button-response","108","952294","0.0-14.0-1.0-1.6","C0686A9C7AB14B599E535D94201A7FBA","C0686A9C7AB14B599E535D94201A7FBA","df8cd1df-49c0-4380-879f-75a282ab275b","051c06f1-75cc-4548-856d-4923ddaba0dc","{""num_scrambled_semantic"":""8"",""num_scrambled_causal"":""4"",""num_scrambled_schematic"":""4"",""participantId"":""C0686A9C7AB14B599E535D94201A7FBA"",""assignmentId"":""df8cd1df-49c0-4380-879f-75a282ab275b"",""projectId"":""051c06f1-75cc-4548-856d-4923ddaba0dc""}","https://test12345.live/?num_scrambled_semantic=8&num_scrambled_causal=4&num_scrambled_schematic=4&participantId=C0686A9C7AB14B599E535D94201A7FBA&assignmentId=df8cd1df-49c0-4380-879f-75a282ab275b&projectId=051c06f1-75cc-4548-856d-4923ddaba0dc","C0686A9C7AB14B599E535D94201A7FBA-2025-05-15-19-00-13","","2250","","images/semantic_sequence/maintaining_a_car_semantic/maintaining_a_car_semantic_6.png","0","",""
"","","","","","image-button-response","109","954101","0.0-14.0-1.0-2.6","C0686A9C7AB14B599E535D94201A7FBA","C0686A9C7AB14B599E535D94201A7FBA","df8cd1df-49c0-4380-879f-75a282ab275b","051c06f1-75cc-4548-856d-4923ddaba0dc","{""num_scrambled_semantic"":""8"",""num_scrambled_causal"":""4"",""num_scrambled_schematic"":""4"",""participantId"":""C0686A9C7AB14B599E535D94201A7FBA"",""assignmentId"":""df8cd1df-49c0-4380-879f-75a282ab275b"",""projectId"":""051c06f1-75cc-4548-856d-4923ddaba0dc""}","https://test12345.live/?num_scrambled_semantic=8&num_scrambled_causal=4&num_scrambled_schematic=4&participantId=C0686A9C7AB14B599E535D94201A7FBA&assignmentId=df8cd1df-49c0-4380-879f-75a282ab275b&projectId=051c06f1-75cc-4548-856d-4923ddaba0dc","C0686A9C7AB14B599E535D94201A7FBA-2025-05-15-19-00-13","","null","","[]","null","",""
"","","","","","image-button-response","110","958610","0.0-14.0-1.0-0.7","C0686A9C7AB14B599E535D94201A7FBA","C0686A9C7AB14B599E535D94201A7FBA","df8cd1df-49c0-4380-879f-75a282ab275b","051c06f1-75cc-4548-856d-4923ddaba0dc","{""num_scrambled_semantic"":""8"",""num_scrambled_causal"":""4"",""num_scrambled_schematic"":""4"",""participantId"":""C0686A9C7AB14B599E535D94201A7FBA"",""assignmentId"":""df8cd1df-49c0-4380-879f-75a282ab275b"",""projectId"":""051c06f1-75cc-4548-856d-4923ddaba0dc""}","https://test12345.live/?num_scrambled_semantic=8&num_scrambled_causal=4&num_scrambled_schematic=4&participantId=C0686A9C7AB14B599E535D94201A7FBA&assignmentId=df8cd1df-49c0-4380-879f-75a282ab275b&projectId=051c06f1-75cc-4548-856d-4923ddaba0dc","C0686A9C7AB14B599E535D94201A7FBA-2025-05-15-19-00-13","","null","","images/semantic_sequence/maintaining_a_car_semantic/maintaining_a_car_semantic_7.png","null","",""
"","","","","","image-button-response","111","960074","0.0-14.0-1.0-1.7","C0686A9C7AB14B599E535D94201A7FBA","C0686A9C7AB14B599E535D94201A7FBA","df8cd1df-49c0-4380-879f-75a282ab275b","051c06f1-75cc-4548-856d-4923ddaba0dc","{""num_scrambled_semantic"":""8"",""num_scrambled_causal"":""4"",""num_scrambled_schematic"":""4"",""participantId"":""C0686A9C7AB14B599E535D94201A7FBA"",""assignmentId"":""df8cd1df-49c0-4380-879f-75a282ab275b"",""projectId"":""051c06f1-75cc-4548-856d-4923ddaba0dc""}","https://test12345.live/?num_scrambled_semantic=8&num_scrambled_causal=4&num_scrambled_schematic=4&participantId=C0686A9C7AB14B599E535D94201A7FBA&assignmentId=df8cd1df-49c0-4380-879f-75a282ab275b&projectId=051c06f1-75cc-4548-856d-4923ddaba0dc","C0686A9C7AB14B599E535D94201A7FBA-2025-05-15-19-00-13","","1463","","images/semantic_sequence/maintaining_a_car_semantic/maintaining_a_car_semantic_7.png","0","",""
"","","","","","image-button-response","112","961875","0.0-14.0-1.0-2.7","C0686A9C7AB14B599E535D94201A7FBA","C0686A9C7AB14B599E535D94201A7FBA","df8cd1df-49c0-4380-879f-75a282ab275b","051c06f1-75cc-4548-856d-4923ddaba0dc","{""num_scrambled_semantic"":""8"",""num_scrambled_causal"":""4"",""num_scrambled_schematic"":""4"",""participantId"":""C0686A9C7AB14B599E535D94201A7FBA"",""assignmentId"":""df8cd1df-49c0-4380-879f-75a282ab275b"",""projectId"":""051c06f1-75cc-4548-856d-4923ddaba0dc""}","https://test12345.live/?num_scrambled_semantic=8&num_scrambled_causal=4&num_scrambled_schematic=4&participantId=C0686A9C7AB14B599E535D94201A7FBA&assignmentId=df8cd1df-49c0-4380-879f-75a282ab275b&projectId=051c06f1-75cc-4548-856d-4923ddaba0dc","C0686A9C7AB14B599E535D94201A7FBA-2025-05-15-19-00-13","","null","","[]","null","",""
"","","","","","image-button-response","113","966384","0.0-14.0-1.0-0.8","C0686A9C7AB14B599E535D94201A7FBA","C0686A9C7AB14B599E535D94201A7FBA","df8cd1df-49c0-4380-879f-75a282ab275b","051c06f1-75cc-4548-856d-4923ddaba0dc","{""num_scrambled_semantic"":""8"",""num_scrambled_causal"":""4"",""num_scrambled_schematic"":""4"",""participantId"":""C0686A9C7AB14B599E535D94201A7FBA"",""assignmentId"":""df8cd1df-49c0-4380-879f-75a282ab275b"",""projectId"":""051c06f1-75cc-4548-856d-4923ddaba0dc""}","https://test12345.live/?num_scrambled_semantic=8&num_scrambled_causal=4&num_scrambled_schematic=4&participantId=C0686A9C7AB14B599E535D94201A7FBA&assignmentId=df8cd1df-49c0-4380-879f-75a282ab275b&projectId=051c06f1-75cc-4548-856d-4923ddaba0dc","C0686A9C7AB14B599E535D94201A7FBA-2025-05-15-19-00-13","","null","","images/semantic_sequence/maintaining_a_car_semantic/maintaining_a_car_semantic_8.png","null","",""
