"success","timeout","failed_images","failed_audio","failed_video","trial_type","trial_index","time_elapsed","internal_node_id","subject","subject_id","study_id","session_id","urlvar","current_url","audio_id","view_history","rt","device_id","stimulus","response","estimated_stimulus_onset","seq_name"
"true","false","[]","[]","[]","preload","0","5055","0.0-0.0","C083122313ED412FA4EB27591D1A7887","C083122313ED412FA4EB27591D1A7887","0198ba02-09f2-70df-a834-48cb3972f4cc","0198b9d0-29d4-7df3-8625-4b4515841beb","{""num_scrambled_semantic"":""8"",""num_scrambled_causal"":""4"",""num_scrambled_schematic"":""4"",""participantId"":""C083122313ED412FA4EB27591D1A7887"",""assignmentId"":""0198ba02-09f2-70df-a834-48cb3972f4cc"",""projectId"":""0198b9d0-29d4-7df3-8625-4b4515841beb""}","https://test12345.live/?num_scrambled_semantic=8&num_scrambled_causal=4&num_scrambled_schematic=4&participantId=C083122313ED412FA4EB27591D1A7887&assignmentId=0198ba02-09f2-70df-a834-48cb3972f4cc&projectId=0198b9d0-29d4-7df3-8625-4b4515841beb","C083122313ED412FA4EB27591D1A7887-2025-08-17-22-40-41","","","","","","",""
"","","","","","instructions","1","27127","0.0-1.0","C083122313ED412FA4EB27591D1A7887","C083122313ED412FA4EB27591D1A7887","0198ba02-09f2-70df-a834-48cb3972f4cc","0198b9d0-29d4-7df3-8625-4b4515841beb","{""num_scrambled_semantic"":""8"",""num_scrambled_causal"":""4"",""num_scrambled_schematic"":""4"",""participantId"":""C083122313ED412FA4EB27591D1A7887"",""assignmentId"":""0198ba02-09f2-70df-a834-48cb3972f4cc"",""projectId"":""0198b9d0-29d4-7df3-8625-4b4515841beb""}","https://test12345.live/?num_scrambled_semantic=8&num_scrambled_causal=4&num_scrambled_schematic=4&participantId=C083122313ED412FA4EB27591D1A7887&assignmentId=0198ba02-09f2-70df-a834-48cb3972f4cc&projectId=0198b9d0-29d4-7df3-8625-4b4515841beb","C083122313ED412FA4EB27591D1A7887-2025-08-17-22-40-41","[{""page_index"":0,""viewing_time"":22071}]","22071","","","","",""
"","","","","","instructions","2","94131","0.0-2.0","C083122313ED412FA4EB27591D1A7887","C083122313ED412FA4EB27591D1A7887","0198ba02-09f2-70df-a834-48cb3972f4cc","0198b9d0-29d4-7df3-8625-4b4515841beb","{""num_scrambled_semantic"":""8"",""num_scrambled_causal"":""4"",""num_scrambled_schematic"":""4"",""participantId"":""C083122313ED412FA4EB27591D1A7887"",""assignmentId"":""0198ba02-09f2-70df-a834-48cb3972f4cc"",""projectId"":""0198b9d0-29d4-7df3-8625-4b4515841beb""}","https://test12345.live/?num_scrambled_semantic=8&num_scrambled_causal=4&num_scrambled_schematic=4&participantId=C083122313ED412FA4EB27591D1A7887&assignmentId=0198ba02-09f2-70df-a834-48cb3972f4cc&projectId=0198b9d0-29d4-7df3-8625-4b4515841beb","C083122313ED412FA4EB27591D1A7887-2025-08-17-22-40-41","[{""page_index"":0,""viewing_time"":67004}]","67004","","","","",""
"true","","","","","fullscreen","3","98176","0.0-3.0","C083122313ED412FA4EB27591D1A7887","C083122313ED412FA4EB27591D1A7887","0198ba02-09f2-70df-a834-48cb3972f4cc","0198b9d0-29d4-7df3-8625-4b4515841beb","{""num_scrambled_semantic"":""8"",""num_scrambled_causal"":""4"",""num_scrambled_schematic"":""4"",""participantId"":""C083122313ED412FA4EB27591D1A7887"",""assignmentId"":""0198ba02-09f2-70df-a834-48cb3972f4cc"",""projectId"":""0198b9d0-29d4-7df3-8625-4b4515841beb""}","https://test12345.live/?num_scrambled_semantic=8&num_scrambled_causal=4&num_scrambled_schematic=4&participantId=C083122313ED412FA4EB27591D1A7887&assignmentId=0198ba02-09f2-70df-a834-48cb3972f4cc&projectId=0198b9d0-29d4-7df3-8625-4b4515841beb","C083122313ED412FA4EB27591D1A7887-2025-08-17-22-40-41","","3029","","","","",""
"","","","","","initialize-microphone","4","155901","0.0-4.0-0.0","C083122313ED412FA4EB27591D1A7887","C083122313ED412FA4EB27591D1A7887","0198ba02-09f2-70df-a834-48cb3972f4cc","0198b9d0-29d4-7df3-8625-4b4515841beb","{""num_scrambled_semantic"":""8"",""num_scrambled_causal"":""4"",""num_scrambled_schematic"":""4"",""participantId"":""C083122313ED412FA4EB27591D1A7887"",""assignmentId"":""0198ba02-09f2-70df-a834-48cb3972f4cc"",""projectId"":""0198b9d0-29d4-7df3-8625-4b4515841beb""}","https://test12345.live/?num_scrambled_semantic=8&num_scrambled_causal=4&num_scrambled_schematic=4&participantId=C083122313ED412FA4EB27591D1A7887&assignmentId=0198ba02-09f2-70df-a834-48cb3972f4cc&projectId=0198b9d0-29d4-7df3-8625-4b4515841beb","C083122313ED412FA4EB27591D1A7887-2025-08-17-22-40-41","","","31d2b410dd4afc690316ba1fde384fa85e13a93b25f67d92b2ea6188f2c7d04e","","","",""
"","","","","","html-audio-response","5","169809","0.0-4.0-1.0","C083122313ED412FA4EB27591D1A7887","C083122313ED412FA4EB27591D1A7887","0198ba02-09f2-70df-a834-48cb3972f4cc","0198b9d0-29d4-7df3-8625-4b4515841beb","{""num_scrambled_semantic"":""8"",""num_scrambled_causal"":""4"",""num_scrambled_schematic"":""4"",""participantId"":""C083122313ED412FA4EB27591D1A7887"",""assignmentId"":""0198ba02-09f2-70df-a834-48cb3972f4cc"",""projectId"":""0198b9d0-29d4-7df3-8625-4b4515841beb""}","https://test12345.live/?num_scrambled_semantic=8&num_scrambled_causal=4&num_scrambled_schematic=4&participantId=C083122313ED412FA4EB27591D1A7887&assignmentId=0198ba02-09f2-70df-a834-48cb3972f4cc&projectId=0198b9d0-29d4-7df3-8625-4b4515841beb","C083122313ED412FA4EB27591D1A7887-2025-08-17-22-40-41","","3339","","<span style=""color: red; font-size: 24px""> NOW RECORDING</span>
        <p>Please test Microphone</p>","","3",""
"","","","","","html-button-response","6","172030","0.0-4.0-2.0","C083122313ED412FA4EB27591D1A7887","C083122313ED412FA4EB27591D1A7887","0198ba02-09f2-70df-a834-48cb3972f4cc","0198b9d0-29d4-7df3-8625-4b4515841beb","{""num_scrambled_semantic"":""8"",""num_scrambled_causal"":""4"",""num_scrambled_schematic"":""4"",""participantId"":""C083122313ED412FA4EB27591D1A7887"",""assignmentId"":""0198ba02-09f2-70df-a834-48cb3972f4cc"",""projectId"":""0198b9d0-29d4-7df3-8625-4b4515841beb""}","https://test12345.live/?num_scrambled_semantic=8&num_scrambled_causal=4&num_scrambled_schematic=4&participantId=C083122313ED412FA4EB27591D1A7887&assignmentId=0198ba02-09f2-70df-a834-48cb3972f4cc&projectId=0198b9d0-29d4-7df3-8625-4b4515841beb","C083122313ED412FA4EB27591D1A7887-2025-08-17-22-40-41","","2220","","<p style=""font-size:48px; color:red;"">Is Microphone OK?</p>","1","",""
"","","","","","instructions","7","234616","0.0-5.0","C083122313ED412FA4EB27591D1A7887","C083122313ED412FA4EB27591D1A7887","0198ba02-09f2-70df-a834-48cb3972f4cc","0198b9d0-29d4-7df3-8625-4b4515841beb","{""num_scrambled_semantic"":""8"",""num_scrambled_causal"":""4"",""num_scrambled_schematic"":""4"",""participantId"":""C083122313ED412FA4EB27591D1A7887"",""assignmentId"":""0198ba02-09f2-70df-a834-48cb3972f4cc"",""projectId"":""0198b9d0-29d4-7df3-8625-4b4515841beb""}","https://test12345.live/?num_scrambled_semantic=8&num_scrambled_causal=4&num_scrambled_schematic=4&participantId=C083122313ED412FA4EB27591D1A7887&assignmentId=0198ba02-09f2-70df-a834-48cb3972f4cc&projectId=0198b9d0-29d4-7df3-8625-4b4515841beb","C083122313ED412FA4EB27591D1A7887-2025-08-17-22-40-41","[{""page_index"":0,""viewing_time"":15271},{""page_index"":1,""viewing_time"":47314}]","62585","","","","",""
"","","","","","image-button-response","8","240621","0.0-6.0-0.0","C083122313ED412FA4EB27591D1A7887","C083122313ED412FA4EB27591D1A7887","0198ba02-09f2-70df-a834-48cb3972f4cc","0198b9d0-29d4-7df3-8625-4b4515841beb","{""num_scrambled_semantic"":""8"",""num_scrambled_causal"":""4"",""num_scrambled_schematic"":""4"",""participantId"":""C083122313ED412FA4EB27591D1A7887"",""assignmentId"":""0198ba02-09f2-70df-a834-48cb3972f4cc"",""projectId"":""0198b9d0-29d4-7df3-8625-4b4515841beb""}","https://test12345.live/?num_scrambled_semantic=8&num_scrambled_causal=4&num_scrambled_schematic=4&participantId=C083122313ED412FA4EB27591D1A7887&assignmentId=0198ba02-09f2-70df-a834-48cb3972f4cc&projectId=0198b9d0-29d4-7df3-8625-4b4515841beb","C083122313ED412FA4EB27591D1A7887-2025-08-17-22-40-41","","null","","images/instructions/movie_0.png","null","",""
"","","","","","image-button-response","9","245123","0.0-6.0-1.0-0.0","C083122313ED412FA4EB27591D1A7887","C083122313ED412FA4EB27591D1A7887","0198ba02-09f2-70df-a834-48cb3972f4cc","0198b9d0-29d4-7df3-8625-4b4515841beb","{""num_scrambled_semantic"":""8"",""num_scrambled_causal"":""4"",""num_scrambled_schematic"":""4"",""participantId"":""C083122313ED412FA4EB27591D1A7887"",""assignmentId"":""0198ba02-09f2-70df-a834-48cb3972f4cc"",""projectId"":""0198b9d0-29d4-7df3-8625-4b4515841beb""}","https://test12345.live/?num_scrambled_semantic=8&num_scrambled_causal=4&num_scrambled_schematic=4&participantId=C083122313ED412FA4EB27591D1A7887&assignmentId=0198ba02-09f2-70df-a834-48cb3972f4cc&projectId=0198b9d0-29d4-7df3-8625-4b4515841beb","C083122313ED412FA4EB27591D1A7887-2025-08-17-22-40-41","","null","","images/instructions/movie_1.png","null","",""
"","","","","","image-button-response","10","247929","0.0-6.0-1.0-1.0","C083122313ED412FA4EB27591D1A7887","C083122313ED412FA4EB27591D1A7887","0198ba02-09f2-70df-a834-48cb3972f4cc","0198b9d0-29d4-7df3-8625-4b4515841beb","{""num_scrambled_semantic"":""8"",""num_scrambled_causal"":""4"",""num_scrambled_schematic"":""4"",""participantId"":""C083122313ED412FA4EB27591D1A7887"",""assignmentId"":""0198ba02-09f2-70df-a834-48cb3972f4cc"",""projectId"":""0198b9d0-29d4-7df3-8625-4b4515841beb""}","https://test12345.live/?num_scrambled_semantic=8&num_scrambled_causal=4&num_scrambled_schematic=4&participantId=C083122313ED412FA4EB27591D1A7887&assignmentId=0198ba02-09f2-70df-a834-48cb3972f4cc&projectId=0198b9d0-29d4-7df3-8625-4b4515841beb","C083122313ED412FA4EB27591D1A7887-2025-08-17-22-40-41","","2805","","images/instructions/movie_1.png","0","",""
"","","","","","image-button-response","11","253337","0.0-6.0-1.0-2.0","C083122313ED412FA4EB27591D1A7887","C083122313ED412FA4EB27591D1A7887","0198ba02-09f2-70df-a834-48cb3972f4cc","0198b9d0-29d4-7df3-8625-4b4515841beb","{""num_scrambled_semantic"":""8"",""num_scrambled_causal"":""4"",""num_scrambled_schematic"":""4"",""participantId"":""C083122313ED412FA4EB27591D1A7887"",""assignmentId"":""0198ba02-09f2-70df-a834-48cb3972f4cc"",""projectId"":""0198b9d0-29d4-7df3-8625-4b4515841beb""}","https://test12345.live/?num_scrambled_semantic=8&num_scrambled_causal=4&num_scrambled_schematic=4&participantId=C083122313ED412FA4EB27591D1A7887&assignmentId=0198ba02-09f2-70df-a834-48cb3972f4cc&projectId=0198b9d0-29d4-7df3-8625-4b4515841beb","C083122313ED412FA4EB27591D1A7887-2025-08-17-22-40-41","","null","","[]","null","",""
"","","","","","image-button-response","12","257845","0.0-6.0-1.0-0.1","C083122313ED412FA4EB27591D1A7887","C083122313ED412FA4EB27591D1A7887","0198ba02-09f2-70df-a834-48cb3972f4cc","0198b9d0-29d4-7df3-8625-4b4515841beb","{""num_scrambled_semantic"":""8"",""num_scrambled_causal"":""4"",""num_scrambled_schematic"":""4"",""participantId"":""C083122313ED412FA4EB27591D1A7887"",""assignmentId"":""0198ba02-09f2-70df-a834-48cb3972f4cc"",""projectId"":""0198b9d0-29d4-7df3-8625-4b4515841beb""}","https://test12345.live/?num_scrambled_semantic=8&num_scrambled_causal=4&num_scrambled_schematic=4&participantId=C083122313ED412FA4EB27591D1A7887&assignmentId=0198ba02-09f2-70df-a834-48cb3972f4cc&projectId=0198b9d0-29d4-7df3-8625-4b4515841beb","C083122313ED412FA4EB27591D1A7887-2025-08-17-22-40-41","","null","","images/instructions/movie_2.png","null","",""
"","","","","","image-button-response","13","261749","0.0-6.0-1.0-1.1","C083122313ED412FA4EB27591D1A7887","C083122313ED412FA4EB27591D1A7887","0198ba02-09f2-70df-a834-48cb3972f4cc","0198b9d0-29d4-7df3-8625-4b4515841beb","{""num_scrambled_semantic"":""8"",""num_scrambled_causal"":""4"",""num_scrambled_schematic"":""4"",""participantId"":""C083122313ED412FA4EB27591D1A7887"",""assignmentId"":""0198ba02-09f2-70df-a834-48cb3972f4cc"",""projectId"":""0198b9d0-29d4-7df3-8625-4b4515841beb""}","https://test12345.live/?num_scrambled_semantic=8&num_scrambled_causal=4&num_scrambled_schematic=4&participantId=C083122313ED412FA4EB27591D1A7887&assignmentId=0198ba02-09f2-70df-a834-48cb3972f4cc&projectId=0198b9d0-29d4-7df3-8625-4b4515841beb","C083122313ED412FA4EB27591D1A7887-2025-08-17-22-40-41","","3903","","images/instructions/movie_2.png","0","",""
"","","","","","image-button-response","14","267163","0.0-6.0-1.0-2.1","C083122313ED412FA4EB27591D1A7887","C083122313ED412FA4EB27591D1A7887","0198ba02-09f2-70df-a834-48cb3972f4cc","0198b9d0-29d4-7df3-8625-4b4515841beb","{""num_scrambled_semantic"":""8"",""num_scrambled_causal"":""4"",""num_scrambled_schematic"":""4"",""participantId"":""C083122313ED412FA4EB27591D1A7887"",""assignmentId"":""0198ba02-09f2-70df-a834-48cb3972f4cc"",""projectId"":""0198b9d0-29d4-7df3-8625-4b4515841beb""}","https://test12345.live/?num_scrambled_semantic=8&num_scrambled_causal=4&num_scrambled_schematic=4&participantId=C083122313ED412FA4EB27591D1A7887&assignmentId=0198ba02-09f2-70df-a834-48cb3972f4cc&projectId=0198b9d0-29d4-7df3-8625-4b4515841beb","C083122313ED412FA4EB27591D1A7887-2025-08-17-22-40-41","","null","","[]","null","",""
"","","","","","image-button-response","15","271672","0.0-6.0-1.0-0.2","C083122313ED412FA4EB27591D1A7887","C083122313ED412FA4EB27591D1A7887","0198ba02-09f2-70df-a834-48cb3972f4cc","0198b9d0-29d4-7df3-8625-4b4515841beb","{""num_scrambled_semantic"":""8"",""num_scrambled_causal"":""4"",""num_scrambled_schematic"":""4"",""participantId"":""C083122313ED412FA4EB27591D1A7887"",""assignmentId"":""0198ba02-09f2-70df-a834-48cb3972f4cc"",""projectId"":""0198b9d0-29d4-7df3-8625-4b4515841beb""}","https://test12345.live/?num_scrambled_semantic=8&num_scrambled_causal=4&num_scrambled_schematic=4&participantId=C083122313ED412FA4EB27591D1A7887&assignmentId=0198ba02-09f2-70df-a834-48cb3972f4cc&projectId=0198b9d0-29d4-7df3-8625-4b4515841beb","C083122313ED412FA4EB27591D1A7887-2025-08-17-22-40-41","","null","","images/instructions/movie_3.png","null","",""
"","","","","","image-button-response","16","272602","0.0-6.0-1.0-1.2","C083122313ED412FA4EB27591D1A7887","C083122313ED412FA4EB27591D1A7887","0198ba02-09f2-70df-a834-48cb3972f4cc","0198b9d0-29d4-7df3-8625-4b4515841beb","{""num_scrambled_semantic"":""8"",""num_scrambled_causal"":""4"",""num_scrambled_schematic"":""4"",""participantId"":""C083122313ED412FA4EB27591D1A7887"",""assignmentId"":""0198ba02-09f2-70df-a834-48cb3972f4cc"",""projectId"":""0198b9d0-29d4-7df3-8625-4b4515841beb""}","https://test12345.live/?num_scrambled_semantic=8&num_scrambled_causal=4&num_scrambled_schematic=4&participantId=C083122313ED412FA4EB27591D1A7887&assignmentId=0198ba02-09f2-70df-a834-48cb3972f4cc&projectId=0198b9d0-29d4-7df3-8625-4b4515841beb","C083122313ED412FA4EB27591D1A7887-2025-08-17-22-40-41","","928","","images/instructions/movie_3.png","0","",""
"","","","","","image-button-response","17","278017","0.0-6.0-1.0-2.2","C083122313ED412FA4EB27591D1A7887","C083122313ED412FA4EB27591D1A7887","0198ba02-09f2-70df-a834-48cb3972f4cc","0198b9d0-29d4-7df3-8625-4b4515841beb","{""num_scrambled_semantic"":""8"",""num_scrambled_causal"":""4"",""num_scrambled_schematic"":""4"",""participantId"":""C083122313ED412FA4EB27591D1A7887"",""assignmentId"":""0198ba02-09f2-70df-a834-48cb3972f4cc"",""projectId"":""0198b9d0-29d4-7df3-8625-4b4515841beb""}","https://test12345.live/?num_scrambled_semantic=8&num_scrambled_causal=4&num_scrambled_schematic=4&participantId=C083122313ED412FA4EB27591D1A7887&assignmentId=0198ba02-09f2-70df-a834-48cb3972f4cc&projectId=0198b9d0-29d4-7df3-8625-4b4515841beb","C083122313ED412FA4EB27591D1A7887-2025-08-17-22-40-41","","null","","[]","null","",""
"","","","","","image-button-response","18","282519","0.0-6.0-1.0-0.3","C083122313ED412FA4EB27591D1A7887","C083122313ED412FA4EB27591D1A7887","0198ba02-09f2-70df-a834-48cb3972f4cc","0198b9d0-29d4-7df3-8625-4b4515841beb","{""num_scrambled_semantic"":""8"",""num_scrambled_causal"":""4"",""num_scrambled_schematic"":""4"",""participantId"":""C083122313ED412FA4EB27591D1A7887"",""assignmentId"":""0198ba02-09f2-70df-a834-48cb3972f4cc"",""projectId"":""0198b9d0-29d4-7df3-8625-4b4515841beb""}","https://test12345.live/?num_scrambled_semantic=8&num_scrambled_causal=4&num_scrambled_schematic=4&participantId=C083122313ED412FA4EB27591D1A7887&assignmentId=0198ba02-09f2-70df-a834-48cb3972f4cc&projectId=0198b9d0-29d4-7df3-8625-4b4515841beb","C083122313ED412FA4EB27591D1A7887-2025-08-17-22-40-41","","null","","images/instructions/movie_4.png","null","",""
"","","","","","image-button-response","19","283699","0.0-6.0-1.0-1.3","C083122313ED412FA4EB27591D1A7887","C083122313ED412FA4EB27591D1A7887","0198ba02-09f2-70df-a834-48cb3972f4cc","0198b9d0-29d4-7df3-8625-4b4515841beb","{""num_scrambled_semantic"":""8"",""num_scrambled_causal"":""4"",""num_scrambled_schematic"":""4"",""participantId"":""C083122313ED412FA4EB27591D1A7887"",""assignmentId"":""0198ba02-09f2-70df-a834-48cb3972f4cc"",""projectId"":""0198b9d0-29d4-7df3-8625-4b4515841beb""}","https://test12345.live/?num_scrambled_semantic=8&num_scrambled_causal=4&num_scrambled_schematic=4&participantId=C083122313ED412FA4EB27591D1A7887&assignmentId=0198ba02-09f2-70df-a834-48cb3972f4cc&projectId=0198b9d0-29d4-7df3-8625-4b4515841beb","C083122313ED412FA4EB27591D1A7887-2025-08-17-22-40-41","","1179","","images/instructions/movie_4.png","0","",""
"","","","","","image-button-response","20","289114","0.0-6.0-1.0-2.3","C083122313ED412FA4EB27591D1A7887","C083122313ED412FA4EB27591D1A7887","0198ba02-09f2-70df-a834-48cb3972f4cc","0198b9d0-29d4-7df3-8625-4b4515841beb","{""num_scrambled_semantic"":""8"",""num_scrambled_causal"":""4"",""num_scrambled_schematic"":""4"",""participantId"":""C083122313ED412FA4EB27591D1A7887"",""assignmentId"":""0198ba02-09f2-70df-a834-48cb3972f4cc"",""projectId"":""0198b9d0-29d4-7df3-8625-4b4515841beb""}","https://test12345.live/?num_scrambled_semantic=8&num_scrambled_causal=4&num_scrambled_schematic=4&participantId=C083122313ED412FA4EB27591D1A7887&assignmentId=0198ba02-09f2-70df-a834-48cb3972f4cc&projectId=0198b9d0-29d4-7df3-8625-4b4515841beb","C083122313ED412FA4EB27591D1A7887-2025-08-17-22-40-41","","null","","[]","null","",""
"","","","","","instructions","21","309782","0.0-7.0","C083122313ED412FA4EB27591D1A7887","C083122313ED412FA4EB27591D1A7887","0198ba02-09f2-70df-a834-48cb3972f4cc","0198b9d0-29d4-7df3-8625-4b4515841beb","{""num_scrambled_semantic"":""8"",""num_scrambled_causal"":""4"",""num_scrambled_schematic"":""4"",""participantId"":""C083122313ED412FA4EB27591D1A7887"",""assignmentId"":""0198ba02-09f2-70df-a834-48cb3972f4cc"",""projectId"":""0198b9d0-29d4-7df3-8625-4b4515841beb""}","https://test12345.live/?num_scrambled_semantic=8&num_scrambled_causal=4&num_scrambled_schematic=4&participantId=C083122313ED412FA4EB27591D1A7887&assignmentId=0198ba02-09f2-70df-a834-48cb3972f4cc&projectId=0198b9d0-29d4-7df3-8625-4b4515841beb","C083122313ED412FA4EB27591D1A7887-2025-08-17-22-40-41","[{""page_index"":0,""viewing_time"":19406},{""page_index"":1,""viewing_time"":1261}]","20667","","","","",""
"","","","","","html-audio-response","22","338660","0.0-8.0","C083122313ED412FA4EB27591D1A7887","C083122313ED412FA4EB27591D1A7887","0198ba02-09f2-70df-a834-48cb3972f4cc","0198b9d0-29d4-7df3-8625-4b4515841beb","{""num_scrambled_semantic"":""8"",""num_scrambled_causal"":""4"",""num_scrambled_schematic"":""4"",""participantId"":""C083122313ED412FA4EB27591D1A7887"",""assignmentId"":""0198ba02-09f2-70df-a834-48cb3972f4cc"",""projectId"":""0198b9d0-29d4-7df3-8625-4b4515841beb""}","https://test12345.live/?num_scrambled_semantic=8&num_scrambled_causal=4&num_scrambled_schematic=4&participantId=C083122313ED412FA4EB27591D1A7887&assignmentId=0198ba02-09f2-70df-a834-48cb3972f4cc&projectId=0198b9d0-29d4-7df3-8625-4b4515841beb","C083122313ED412FA4EB27591D1A7887-2025-08-17-22-40-41","","12498","","[""<span style=\""color: red; font-size: 24px\""> NOW RECORDING</span><p>Please say out loud all the images you saw, as many as you can remember. The images can be said in any order.</p>""]","","1",""
"","","","","","instructions","23","362933","0.0-9.0","C083122313ED412FA4EB27591D1A7887","C083122313ED412FA4EB27591D1A7887","0198ba02-09f2-70df-a834-48cb3972f4cc","0198b9d0-29d4-7df3-8625-4b4515841beb","{""num_scrambled_semantic"":""8"",""num_scrambled_causal"":""4"",""num_scrambled_schematic"":""4"",""participantId"":""C083122313ED412FA4EB27591D1A7887"",""assignmentId"":""0198ba02-09f2-70df-a834-48cb3972f4cc"",""projectId"":""0198b9d0-29d4-7df3-8625-4b4515841beb""}","https://test12345.live/?num_scrambled_semantic=8&num_scrambled_causal=4&num_scrambled_schematic=4&participantId=C083122313ED412FA4EB27591D1A7887&assignmentId=0198ba02-09f2-70df-a834-48cb3972f4cc&projectId=0198b9d0-29d4-7df3-8625-4b4515841beb","C083122313ED412FA4EB27591D1A7887-2025-08-17-22-40-41","[{""page_index"":0,""viewing_time"":24267}]","24267","","","","",""
"","","","","","image-button-response","24","368942","0.0-10.0-0.0","C083122313ED412FA4EB27591D1A7887","C083122313ED412FA4EB27591D1A7887","0198ba02-09f2-70df-a834-48cb3972f4cc","0198b9d0-29d4-7df3-8625-4b4515841beb","{""num_scrambled_semantic"":""8"",""num_scrambled_causal"":""4"",""num_scrambled_schematic"":""4"",""participantId"":""C083122313ED412FA4EB27591D1A7887"",""assignmentId"":""0198ba02-09f2-70df-a834-48cb3972f4cc"",""projectId"":""0198b9d0-29d4-7df3-8625-4b4515841beb""}","https://test12345.live/?num_scrambled_semantic=8&num_scrambled_causal=4&num_scrambled_schematic=4&participantId=C083122313ED412FA4EB27591D1A7887&assignmentId=0198ba02-09f2-70df-a834-48cb3972f4cc&projectId=0198b9d0-29d4-7df3-8625-4b4515841beb","C083122313ED412FA4EB27591D1A7887-2025-08-17-22-40-41","","null","","images/semantic_sequence/physical_activity_semantic/physical_activity_semantic_0.png","null","",""
"","","","","","image-button-response","25","373448","0.0-10.0-1.0-0.0","C083122313ED412FA4EB27591D1A7887","C083122313ED412FA4EB27591D1A7887","0198ba02-09f2-70df-a834-48cb3972f4cc","0198b9d0-29d4-7df3-8625-4b4515841beb","{""num_scrambled_semantic"":""8"",""num_scrambled_causal"":""4"",""num_scrambled_schematic"":""4"",""participantId"":""C083122313ED412FA4EB27591D1A7887"",""assignmentId"":""0198ba02-09f2-70df-a834-48cb3972f4cc"",""projectId"":""0198b9d0-29d4-7df3-8625-4b4515841beb""}","https://test12345.live/?num_scrambled_semantic=8&num_scrambled_causal=4&num_scrambled_schematic=4&participantId=C083122313ED412FA4EB27591D1A7887&assignmentId=0198ba02-09f2-70df-a834-48cb3972f4cc&projectId=0198b9d0-29d4-7df3-8625-4b4515841beb","C083122313ED412FA4EB27591D1A7887-2025-08-17-22-40-41","","null","","images/semantic_sequence/physical_activity_semantic/physical_activity_semantic_ten.png","null","",""
"","","","","","image-button-response","26","375084","0.0-10.0-1.0-1.0","C083122313ED412FA4EB27591D1A7887","C083122313ED412FA4EB27591D1A7887","0198ba02-09f2-70df-a834-48cb3972f4cc","0198b9d0-29d4-7df3-8625-4b4515841beb","{""num_scrambled_semantic"":""8"",""num_scrambled_causal"":""4"",""num_scrambled_schematic"":""4"",""participantId"":""C083122313ED412FA4EB27591D1A7887"",""assignmentId"":""0198ba02-09f2-70df-a834-48cb3972f4cc"",""projectId"":""0198b9d0-29d4-7df3-8625-4b4515841beb""}","https://test12345.live/?num_scrambled_semantic=8&num_scrambled_causal=4&num_scrambled_schematic=4&participantId=C083122313ED412FA4EB27591D1A7887&assignmentId=0198ba02-09f2-70df-a834-48cb3972f4cc&projectId=0198b9d0-29d4-7df3-8625-4b4515841beb","C083122313ED412FA4EB27591D1A7887-2025-08-17-22-40-41","","1635","","images/semantic_sequence/physical_activity_semantic/physical_activity_semantic_ten.png","0","",""
"","","","","","image-button-response","27","380492","0.0-10.0-1.0-2.0","C083122313ED412FA4EB27591D1A7887","C083122313ED412FA4EB27591D1A7887","0198ba02-09f2-70df-a834-48cb3972f4cc","0198b9d0-29d4-7df3-8625-4b4515841beb","{""num_scrambled_semantic"":""8"",""num_scrambled_causal"":""4"",""num_scrambled_schematic"":""4"",""participantId"":""C083122313ED412FA4EB27591D1A7887"",""assignmentId"":""0198ba02-09f2-70df-a834-48cb3972f4cc"",""projectId"":""0198b9d0-29d4-7df3-8625-4b4515841beb""}","https://test12345.live/?num_scrambled_semantic=8&num_scrambled_causal=4&num_scrambled_schematic=4&participantId=C083122313ED412FA4EB27591D1A7887&assignmentId=0198ba02-09f2-70df-a834-48cb3972f4cc&projectId=0198b9d0-29d4-7df3-8625-4b4515841beb","C083122313ED412FA4EB27591D1A7887-2025-08-17-22-40-41","","null","","[]","null","",""
"","","","","","image-button-response","28","385006","0.0-10.0-1.0-0.1","C083122313ED412FA4EB27591D1A7887","C083122313ED412FA4EB27591D1A7887","0198ba02-09f2-70df-a834-48cb3972f4cc","0198b9d0-29d4-7df3-8625-4b4515841beb","{""num_scrambled_semantic"":""8"",""num_scrambled_causal"":""4"",""num_scrambled_schematic"":""4"",""participantId"":""C083122313ED412FA4EB27591D1A7887"",""assignmentId"":""0198ba02-09f2-70df-a834-48cb3972f4cc"",""projectId"":""0198b9d0-29d4-7df3-8625-4b4515841beb""}","https://test12345.live/?num_scrambled_semantic=8&num_scrambled_causal=4&num_scrambled_schematic=4&participantId=C083122313ED412FA4EB27591D1A7887&assignmentId=0198ba02-09f2-70df-a834-48cb3972f4cc&projectId=0198b9d0-29d4-7df3-8625-4b4515841beb","C083122313ED412FA4EB27591D1A7887-2025-08-17-22-40-41","","null","","images/semantic_sequence/physical_activity_semantic/physical_activity_semantic_8.png","null","",""
"","","","","","image-button-response","29","389022","0.0-10.0-1.0-1.1","C083122313ED412FA4EB27591D1A7887","C083122313ED412FA4EB27591D1A7887","0198ba02-09f2-70df-a834-48cb3972f4cc","0198b9d0-29d4-7df3-8625-4b4515841beb","{""num_scrambled_semantic"":""8"",""num_scrambled_causal"":""4"",""num_scrambled_schematic"":""4"",""participantId"":""C083122313ED412FA4EB27591D1A7887"",""assignmentId"":""0198ba02-09f2-70df-a834-48cb3972f4cc"",""projectId"":""0198b9d0-29d4-7df3-8625-4b4515841beb""}","https://test12345.live/?num_scrambled_semantic=8&num_scrambled_causal=4&num_scrambled_schematic=4&participantId=C083122313ED412FA4EB27591D1A7887&assignmentId=0198ba02-09f2-70df-a834-48cb3972f4cc&projectId=0198b9d0-29d4-7df3-8625-4b4515841beb","C083122313ED412FA4EB27591D1A7887-2025-08-17-22-40-41","","null","","images/semantic_sequence/physical_activity_semantic/physical_activity_semantic_8.png","null","",""
"","","","","","image-button-response","30","394428","0.0-10.0-1.0-2.1","C083122313ED412FA4EB27591D1A7887","C083122313ED412FA4EB27591D1A7887","0198ba02-09f2-70df-a834-48cb3972f4cc","0198b9d0-29d4-7df3-8625-4b4515841beb","{""num_scrambled_semantic"":""8"",""num_scrambled_causal"":""4"",""num_scrambled_schematic"":""4"",""participantId"":""C083122313ED412FA4EB27591D1A7887"",""assignmentId"":""0198ba02-09f2-70df-a834-48cb3972f4cc"",""projectId"":""0198b9d0-29d4-7df3-8625-4b4515841beb""}","https://test12345.live/?num_scrambled_semantic=8&num_scrambled_causal=4&num_scrambled_schematic=4&participantId=C083122313ED412FA4EB27591D1A7887&assignmentId=0198ba02-09f2-70df-a834-48cb3972f4cc&projectId=0198b9d0-29d4-7df3-8625-4b4515841beb","C083122313ED412FA4EB27591D1A7887-2025-08-17-22-40-41","","null","","[]","null","",""
"","","","","","image-button-response","31","398934","0.0-10.0-1.0-0.2","C083122313ED412FA4EB27591D1A7887","C083122313ED412FA4EB27591D1A7887","0198ba02-09f2-70df-a834-48cb3972f4cc","0198b9d0-29d4-7df3-8625-4b4515841beb","{""num_scrambled_semantic"":""8"",""num_scrambled_causal"":""4"",""num_scrambled_schematic"":""4"",""participantId"":""C083122313ED412FA4EB27591D1A7887"",""assignmentId"":""0198ba02-09f2-70df-a834-48cb3972f4cc"",""projectId"":""0198b9d0-29d4-7df3-8625-4b4515841beb""}","https://test12345.live/?num_scrambled_semantic=8&num_scrambled_causal=4&num_scrambled_schematic=4&participantId=C083122313ED412FA4EB27591D1A7887&assignmentId=0198ba02-09f2-70df-a834-48cb3972f4cc&projectId=0198b9d0-29d4-7df3-8625-4b4515841beb","C083122313ED412FA4EB27591D1A7887-2025-08-17-22-40-41","","null","","images/semantic_sequence/physical_activity_semantic/physical_activity_semantic_9.png","null","",""
"","","","","","image-button-response","32","400399","0.0-10.0-1.0-1.2","C083122313ED412FA4EB27591D1A7887","C083122313ED412FA4EB27591D1A7887","0198ba02-09f2-70df-a834-48cb3972f4cc","0198b9d0-29d4-7df3-8625-4b4515841beb","{""num_scrambled_semantic"":""8"",""num_scrambled_causal"":""4"",""num_scrambled_schematic"":""4"",""participantId"":""C083122313ED412FA4EB27591D1A7887"",""assignmentId"":""0198ba02-09f2-70df-a834-48cb3972f4cc"",""projectId"":""0198b9d0-29d4-7df3-8625-4b4515841beb""}","https://test12345.live/?num_scrambled_semantic=8&num_scrambled_causal=4&num_scrambled_schematic=4&participantId=C083122313ED412FA4EB27591D1A7887&assignmentId=0198ba02-09f2-70df-a834-48cb3972f4cc&projectId=0198b9d0-29d4-7df3-8625-4b4515841beb","C083122313ED412FA4EB27591D1A7887-2025-08-17-22-40-41","","1465","","images/semantic_sequence/physical_activity_semantic/physical_activity_semantic_9.png","0","",""
"","","","","","image-button-response","33","405806","0.0-10.0-1.0-2.2","C083122313ED412FA4EB27591D1A7887","C083122313ED412FA4EB27591D1A7887","0198ba02-09f2-70df-a834-48cb3972f4cc","0198b9d0-29d4-7df3-8625-4b4515841beb","{""num_scrambled_semantic"":""8"",""num_scrambled_causal"":""4"",""num_scrambled_schematic"":""4"",""participantId"":""C083122313ED412FA4EB27591D1A7887"",""assignmentId"":""0198ba02-09f2-70df-a834-48cb3972f4cc"",""projectId"":""0198b9d0-29d4-7df3-8625-4b4515841beb""}","https://test12345.live/?num_scrambled_semantic=8&num_scrambled_causal=4&num_scrambled_schematic=4&participantId=C083122313ED412FA4EB27591D1A7887&assignmentId=0198ba02-09f2-70df-a834-48cb3972f4cc&projectId=0198b9d0-29d4-7df3-8625-4b4515841beb","C083122313ED412FA4EB27591D1A7887-2025-08-17-22-40-41","","null","","[]","null","",""
"","","","","","image-button-response","34","410313","0.0-10.0-1.0-0.3","C083122313ED412FA4EB27591D1A7887","C083122313ED412FA4EB27591D1A7887","0198ba02-09f2-70df-a834-48cb3972f4cc","0198b9d0-29d4-7df3-8625-4b4515841beb","{""num_scrambled_semantic"":""8"",""num_scrambled_causal"":""4"",""num_scrambled_schematic"":""4"",""participantId"":""C083122313ED412FA4EB27591D1A7887"",""assignmentId"":""0198ba02-09f2-70df-a834-48cb3972f4cc"",""projectId"":""0198b9d0-29d4-7df3-8625-4b4515841beb""}","https://test12345.live/?num_scrambled_semantic=8&num_scrambled_causal=4&num_scrambled_schematic=4&participantId=C083122313ED412FA4EB27591D1A7887&assignmentId=0198ba02-09f2-70df-a834-48cb3972f4cc&projectId=0198b9d0-29d4-7df3-8625-4b4515841beb","C083122313ED412FA4EB27591D1A7887-2025-08-17-22-40-41","","null","","images/semantic_sequence/physical_activity_semantic/physical_activity_semantic_7.png","null","",""
"","","","","","image-button-response","35","413433","0.0-10.0-1.0-1.3","C083122313ED412FA4EB27591D1A7887","C083122313ED412FA4EB27591D1A7887","0198ba02-09f2-70df-a834-48cb3972f4cc","0198b9d0-29d4-7df3-8625-4b4515841beb","{""num_scrambled_semantic"":""8"",""num_scrambled_causal"":""4"",""num_scrambled_schematic"":""4"",""participantId"":""C083122313ED412FA4EB27591D1A7887"",""assignmentId"":""0198ba02-09f2-70df-a834-48cb3972f4cc"",""projectId"":""0198b9d0-29d4-7df3-8625-4b4515841beb""}","https://test12345.live/?num_scrambled_semantic=8&num_scrambled_causal=4&num_scrambled_schematic=4&participantId=C083122313ED412FA4EB27591D1A7887&assignmentId=0198ba02-09f2-70df-a834-48cb3972f4cc&projectId=0198b9d0-29d4-7df3-8625-4b4515841beb","C083122313ED412FA4EB27591D1A7887-2025-08-17-22-40-41","","3119","","images/semantic_sequence/physical_activity_semantic/physical_activity_semantic_7.png","0","",""
"","","","","","image-button-response","36","418845","0.0-10.0-1.0-2.3","C083122313ED412FA4EB27591D1A7887","C083122313ED412FA4EB27591D1A7887","0198ba02-09f2-70df-a834-48cb3972f4cc","0198b9d0-29d4-7df3-8625-4b4515841beb","{""num_scrambled_semantic"":""8"",""num_scrambled_causal"":""4"",""num_scrambled_schematic"":""4"",""participantId"":""C083122313ED412FA4EB27591D1A7887"",""assignmentId"":""0198ba02-09f2-70df-a834-48cb3972f4cc"",""projectId"":""0198b9d0-29d4-7df3-8625-4b4515841beb""}","https://test12345.live/?num_scrambled_semantic=8&num_scrambled_causal=4&num_scrambled_schematic=4&participantId=C083122313ED412FA4EB27591D1A7887&assignmentId=0198ba02-09f2-70df-a834-48cb3972f4cc&projectId=0198b9d0-29d4-7df3-8625-4b4515841beb","C083122313ED412FA4EB27591D1A7887-2025-08-17-22-40-41","","null","","[]","null","",""
"","","","","","image-button-response","37","423361","0.0-10.0-1.0-0.4","C083122313ED412FA4EB27591D1A7887","C083122313ED412FA4EB27591D1A7887","0198ba02-09f2-70df-a834-48cb3972f4cc","0198b9d0-29d4-7df3-8625-4b4515841beb","{""num_scrambled_semantic"":""8"",""num_scrambled_causal"":""4"",""num_scrambled_schematic"":""4"",""participantId"":""C083122313ED412FA4EB27591D1A7887"",""assignmentId"":""0198ba02-09f2-70df-a834-48cb3972f4cc"",""projectId"":""0198b9d0-29d4-7df3-8625-4b4515841beb""}","https://test12345.live/?num_scrambled_semantic=8&num_scrambled_causal=4&num_scrambled_schematic=4&participantId=C083122313ED412FA4EB27591D1A7887&assignmentId=0198ba02-09f2-70df-a834-48cb3972f4cc&projectId=0198b9d0-29d4-7df3-8625-4b4515841beb","C083122313ED412FA4EB27591D1A7887-2025-08-17-22-40-41","","null","","images/semantic_sequence/physical_activity_semantic/physical_activity_semantic_2.png","null","",""
"","","","","","image-button-response","38","424800","0.0-10.0-1.0-1.4","C083122313ED412FA4EB27591D1A7887","C083122313ED412FA4EB27591D1A7887","0198ba02-09f2-70df-a834-48cb3972f4cc","0198b9d0-29d4-7df3-8625-4b4515841beb","{""num_scrambled_semantic"":""8"",""num_scrambled_causal"":""4"",""num_scrambled_schematic"":""4"",""participantId"":""C083122313ED412FA4EB27591D1A7887"",""assignmentId"":""0198ba02-09f2-70df-a834-48cb3972f4cc"",""projectId"":""0198b9d0-29d4-7df3-8625-4b4515841beb""}","https://test12345.live/?num_scrambled_semantic=8&num_scrambled_causal=4&num_scrambled_schematic=4&participantId=C083122313ED412FA4EB27591D1A7887&assignmentId=0198ba02-09f2-70df-a834-48cb3972f4cc&projectId=0198b9d0-29d4-7df3-8625-4b4515841beb","C083122313ED412FA4EB27591D1A7887-2025-08-17-22-40-41","","1438","","images/semantic_sequence/physical_activity_semantic/physical_activity_semantic_2.png","0","",""
"","","","","","image-button-response","39","430213","0.0-10.0-1.0-2.4","C083122313ED412FA4EB27591D1A7887","C083122313ED412FA4EB27591D1A7887","0198ba02-09f2-70df-a834-48cb3972f4cc","0198b9d0-29d4-7df3-8625-4b4515841beb","{""num_scrambled_semantic"":""8"",""num_scrambled_causal"":""4"",""num_scrambled_schematic"":""4"",""participantId"":""C083122313ED412FA4EB27591D1A7887"",""assignmentId"":""0198ba02-09f2-70df-a834-48cb3972f4cc"",""projectId"":""0198b9d0-29d4-7df3-8625-4b4515841beb""}","https://test12345.live/?num_scrambled_semantic=8&num_scrambled_causal=4&num_scrambled_schematic=4&participantId=C083122313ED412FA4EB27591D1A7887&assignmentId=0198ba02-09f2-70df-a834-48cb3972f4cc&projectId=0198b9d0-29d4-7df3-8625-4b4515841beb","C083122313ED412FA4EB27591D1A7887-2025-08-17-22-40-41","","null","","[]","null","",""
"","","","","","image-button-response","40","434729","0.0-10.0-1.0-0.5","C083122313ED412FA4EB27591D1A7887","C083122313ED412FA4EB27591D1A7887","0198ba02-09f2-70df-a834-48cb3972f4cc","0198b9d0-29d4-7df3-8625-4b4515841beb","{""num_scrambled_semantic"":""8"",""num_scrambled_causal"":""4"",""num_scrambled_schematic"":""4"",""participantId"":""C083122313ED412FA4EB27591D1A7887"",""assignmentId"":""0198ba02-09f2-70df-a834-48cb3972f4cc"",""projectId"":""0198b9d0-29d4-7df3-8625-4b4515841beb""}","https://test12345.live/?num_scrambled_semantic=8&num_scrambled_causal=4&num_scrambled_schematic=4&participantId=C083122313ED412FA4EB27591D1A7887&assignmentId=0198ba02-09f2-70df-a834-48cb3972f4cc&projectId=0198b9d0-29d4-7df3-8625-4b4515841beb","C083122313ED412FA4EB27591D1A7887-2025-08-17-22-40-41","","null","","images/semantic_sequence/physical_activity_semantic/physical_activity_semantic_3.png","null","",""
"","","","","","image-button-response","41","436463","0.0-10.0-1.0-1.5","C083122313ED412FA4EB27591D1A7887","C083122313ED412FA4EB27591D1A7887","0198ba02-09f2-70df-a834-48cb3972f4cc","0198b9d0-29d4-7df3-8625-4b4515841beb","{""num_scrambled_semantic"":""8"",""num_scrambled_causal"":""4"",""num_scrambled_schematic"":""4"",""participantId"":""C083122313ED412FA4EB27591D1A7887"",""assignmentId"":""0198ba02-09f2-70df-a834-48cb3972f4cc"",""projectId"":""0198b9d0-29d4-7df3-8625-4b4515841beb""}","https://test12345.live/?num_scrambled_semantic=8&num_scrambled_causal=4&num_scrambled_schematic=4&participantId=C083122313ED412FA4EB27591D1A7887&assignmentId=0198ba02-09f2-70df-a834-48cb3972f4cc&projectId=0198b9d0-29d4-7df3-8625-4b4515841beb","C083122313ED412FA4EB27591D1A7887-2025-08-17-22-40-41","","1733","","images/semantic_sequence/physical_activity_semantic/physical_activity_semantic_3.png","0","",""
"","","","","","image-button-response","42","441866","0.0-10.0-1.0-2.5","C083122313ED412FA4EB27591D1A7887","C083122313ED412FA4EB27591D1A7887","0198ba02-09f2-70df-a834-48cb3972f4cc","0198b9d0-29d4-7df3-8625-4b4515841beb","{""num_scrambled_semantic"":""8"",""num_scrambled_causal"":""4"",""num_scrambled_schematic"":""4"",""participantId"":""C083122313ED412FA4EB27591D1A7887"",""assignmentId"":""0198ba02-09f2-70df-a834-48cb3972f4cc"",""projectId"":""0198b9d0-29d4-7df3-8625-4b4515841beb""}","https://test12345.live/?num_scrambled_semantic=8&num_scrambled_causal=4&num_scrambled_schematic=4&participantId=C083122313ED412FA4EB27591D1A7887&assignmentId=0198ba02-09f2-70df-a834-48cb3972f4cc&projectId=0198b9d0-29d4-7df3-8625-4b4515841beb","C083122313ED412FA4EB27591D1A7887-2025-08-17-22-40-41","","null","","[]","null","",""
"","","","","","image-button-response","43","446373","0.0-10.0-1.0-0.6","C083122313ED412FA4EB27591D1A7887","C083122313ED412FA4EB27591D1A7887","0198ba02-09f2-70df-a834-48cb3972f4cc","0198b9d0-29d4-7df3-8625-4b4515841beb","{""num_scrambled_semantic"":""8"",""num_scrambled_causal"":""4"",""num_scrambled_schematic"":""4"",""participantId"":""C083122313ED412FA4EB27591D1A7887"",""assignmentId"":""0198ba02-09f2-70df-a834-48cb3972f4cc"",""projectId"":""0198b9d0-29d4-7df3-8625-4b4515841beb""}","https://test12345.live/?num_scrambled_semantic=8&num_scrambled_causal=4&num_scrambled_schematic=4&participantId=C083122313ED412FA4EB27591D1A7887&assignmentId=0198ba02-09f2-70df-a834-48cb3972f4cc&projectId=0198b9d0-29d4-7df3-8625-4b4515841beb","C083122313ED412FA4EB27591D1A7887-2025-08-17-22-40-41","","null","","images/semantic_sequence/physical_activity_semantic/physical_activity_semantic_5.png","null","",""
"","","","","","image-button-response","44","450376","0.0-10.0-1.0-1.6","C083122313ED412FA4EB27591D1A7887","C083122313ED412FA4EB27591D1A7887","0198ba02-09f2-70df-a834-48cb3972f4cc","0198b9d0-29d4-7df3-8625-4b4515841beb","{""num_scrambled_semantic"":""8"",""num_scrambled_causal"":""4"",""num_scrambled_schematic"":""4"",""participantId"":""C083122313ED412FA4EB27591D1A7887"",""assignmentId"":""0198ba02-09f2-70df-a834-48cb3972f4cc"",""projectId"":""0198b9d0-29d4-7df3-8625-4b4515841beb""}","https://test12345.live/?num_scrambled_semantic=8&num_scrambled_causal=4&num_scrambled_schematic=4&participantId=C083122313ED412FA4EB27591D1A7887&assignmentId=0198ba02-09f2-70df-a834-48cb3972f4cc&projectId=0198b9d0-29d4-7df3-8625-4b4515841beb","C083122313ED412FA4EB27591D1A7887-2025-08-17-22-40-41","","null","","images/semantic_sequence/physical_activity_semantic/physical_activity_semantic_5.png","null","",""
"","","","","","image-button-response","45","455792","0.0-10.0-1.0-2.6","C083122313ED412FA4EB27591D1A7887","C083122313ED412FA4EB27591D1A7887","0198ba02-09f2-70df-a834-48cb3972f4cc","0198b9d0-29d4-7df3-8625-4b4515841beb","{""num_scrambled_semantic"":""8"",""num_scrambled_causal"":""4"",""num_scrambled_schematic"":""4"",""participantId"":""C083122313ED412FA4EB27591D1A7887"",""assignmentId"":""0198ba02-09f2-70df-a834-48cb3972f4cc"",""projectId"":""0198b9d0-29d4-7df3-8625-4b4515841beb""}","https://test12345.live/?num_scrambled_semantic=8&num_scrambled_causal=4&num_scrambled_schematic=4&participantId=C083122313ED412FA4EB27591D1A7887&assignmentId=0198ba02-09f2-70df-a834-48cb3972f4cc&projectId=0198b9d0-29d4-7df3-8625-4b4515841beb","C083122313ED412FA4EB27591D1A7887-2025-08-17-22-40-41","","null","","[]","null","",""
"","","","","","image-button-response","46","460301","0.0-10.0-1.0-0.7","C083122313ED412FA4EB27591D1A7887","C083122313ED412FA4EB27591D1A7887","0198ba02-09f2-70df-a834-48cb3972f4cc","0198b9d0-29d4-7df3-8625-4b4515841beb","{""num_scrambled_semantic"":""8"",""num_scrambled_causal"":""4"",""num_scrambled_schematic"":""4"",""participantId"":""C083122313ED412FA4EB27591D1A7887"",""assignmentId"":""0198ba02-09f2-70df-a834-48cb3972f4cc"",""projectId"":""0198b9d0-29d4-7df3-8625-4b4515841beb""}","https://test12345.live/?num_scrambled_semantic=8&num_scrambled_causal=4&num_scrambled_schematic=4&participantId=C083122313ED412FA4EB27591D1A7887&assignmentId=0198ba02-09f2-70df-a834-48cb3972f4cc&projectId=0198b9d0-29d4-7df3-8625-4b4515841beb","C083122313ED412FA4EB27591D1A7887-2025-08-17-22-40-41","","null","","images/semantic_sequence/physical_activity_semantic/physical_activity_semantic_1.png","null","",""
"","","","","","image-button-response","47","461941","0.0-10.0-1.0-1.7","C083122313ED412FA4EB27591D1A7887","C083122313ED412FA4EB27591D1A7887","0198ba02-09f2-70df-a834-48cb3972f4cc","0198b9d0-29d4-7df3-8625-4b4515841beb","{""num_scrambled_semantic"":""8"",""num_scrambled_causal"":""4"",""num_scrambled_schematic"":""4"",""participantId"":""C083122313ED412FA4EB27591D1A7887"",""assignmentId"":""0198ba02-09f2-70df-a834-48cb3972f4cc"",""projectId"":""0198b9d0-29d4-7df3-8625-4b4515841beb""}","https://test12345.live/?num_scrambled_semantic=8&num_scrambled_causal=4&num_scrambled_schematic=4&participantId=C083122313ED412FA4EB27591D1A7887&assignmentId=0198ba02-09f2-70df-a834-48cb3972f4cc&projectId=0198b9d0-29d4-7df3-8625-4b4515841beb","C083122313ED412FA4EB27591D1A7887-2025-08-17-22-40-41","","1638","","images/semantic_sequence/physical_activity_semantic/physical_activity_semantic_1.png","0","",""
"","","","","","image-button-response","48","467354","0.0-10.0-1.0-2.7","C083122313ED412FA4EB27591D1A7887","C083122313ED412FA4EB27591D1A7887","0198ba02-09f2-70df-a834-48cb3972f4cc","0198b9d0-29d4-7df3-8625-4b4515841beb","{""num_scrambled_semantic"":""8"",""num_scrambled_causal"":""4"",""num_scrambled_schematic"":""4"",""participantId"":""C083122313ED412FA4EB27591D1A7887"",""assignmentId"":""0198ba02-09f2-70df-a834-48cb3972f4cc"",""projectId"":""0198b9d0-29d4-7df3-8625-4b4515841beb""}","https://test12345.live/?num_scrambled_semantic=8&num_scrambled_causal=4&num_scrambled_schematic=4&participantId=C083122313ED412FA4EB27591D1A7887&assignmentId=0198ba02-09f2-70df-a834-48cb3972f4cc&projectId=0198b9d0-29d4-7df3-8625-4b4515841beb","C083122313ED412FA4EB27591D1A7887-2025-08-17-22-40-41","","null","","[]","null","",""
"","","","","","image-button-response","49","471867","0.0-10.0-1.0-0.8","C083122313ED412FA4EB27591D1A7887","C083122313ED412FA4EB27591D1A7887","0198ba02-09f2-70df-a834-48cb3972f4cc","0198b9d0-29d4-7df3-8625-4b4515841beb","{""num_scrambled_semantic"":""8"",""num_scrambled_causal"":""4"",""num_scrambled_schematic"":""4"",""participantId"":""C083122313ED412FA4EB27591D1A7887"",""assignmentId"":""0198ba02-09f2-70df-a834-48cb3972f4cc"",""projectId"":""0198b9d0-29d4-7df3-8625-4b4515841beb""}","https://test12345.live/?num_scrambled_semantic=8&num_scrambled_causal=4&num_scrambled_schematic=4&participantId=C083122313ED412FA4EB27591D1A7887&assignmentId=0198ba02-09f2-70df-a834-48cb3972f4cc&projectId=0198b9d0-29d4-7df3-8625-4b4515841beb","C083122313ED412FA4EB27591D1A7887-2025-08-17-22-40-41","","null","","images/semantic_sequence/physical_activity_semantic/physical_activity_semantic_6.png","null","",""
"","","","","","image-button-response","50","475096","0.0-10.0-1.0-1.8","C083122313ED412FA4EB27591D1A7887","C083122313ED412FA4EB27591D1A7887","0198ba02-09f2-70df-a834-48cb3972f4cc","0198b9d0-29d4-7df3-8625-4b4515841beb","{""num_scrambled_semantic"":""8"",""num_scrambled_causal"":""4"",""num_scrambled_schematic"":""4"",""participantId"":""C083122313ED412FA4EB27591D1A7887"",""assignmentId"":""0198ba02-09f2-70df-a834-48cb3972f4cc"",""projectId"":""0198b9d0-29d4-7df3-8625-4b4515841beb""}","https://test12345.live/?num_scrambled_semantic=8&num_scrambled_causal=4&num_scrambled_schematic=4&participantId=C083122313ED412FA4EB27591D1A7887&assignmentId=0198ba02-09f2-70df-a834-48cb3972f4cc&projectId=0198b9d0-29d4-7df3-8625-4b4515841beb","C083122313ED412FA4EB27591D1A7887-2025-08-17-22-40-41","","3229","","images/semantic_sequence/physical_activity_semantic/physical_activity_semantic_6.png","0","",""
"","","","","","image-button-response","51","480499","0.0-10.0-1.0-2.8","C083122313ED412FA4EB27591D1A7887","C083122313ED412FA4EB27591D1A7887","0198ba02-09f2-70df-a834-48cb3972f4cc","0198b9d0-29d4-7df3-8625-4b4515841beb","{""num_scrambled_semantic"":""8"",""num_scrambled_causal"":""4"",""num_scrambled_schematic"":""4"",""participantId"":""C083122313ED412FA4EB27591D1A7887"",""assignmentId"":""0198ba02-09f2-70df-a834-48cb3972f4cc"",""projectId"":""0198b9d0-29d4-7df3-8625-4b4515841beb""}","https://test12345.live/?num_scrambled_semantic=8&num_scrambled_causal=4&num_scrambled_schematic=4&participantId=C083122313ED412FA4EB27591D1A7887&assignmentId=0198ba02-09f2-70df-a834-48cb3972f4cc&projectId=0198b9d0-29d4-7df3-8625-4b4515841beb","C083122313ED412FA4EB27591D1A7887-2025-08-17-22-40-41","","null","","[]","null","",""
"","","","","","image-button-response","52","485004","0.0-10.0-1.0-0.9","C083122313ED412FA4EB27591D1A7887","C083122313ED412FA4EB27591D1A7887","0198ba02-09f2-70df-a834-48cb3972f4cc","0198b9d0-29d4-7df3-8625-4b4515841beb","{""num_scrambled_semantic"":""8"",""num_scrambled_causal"":""4"",""num_scrambled_schematic"":""4"",""participantId"":""C083122313ED412FA4EB27591D1A7887"",""assignmentId"":""0198ba02-09f2-70df-a834-48cb3972f4cc"",""projectId"":""0198b9d0-29d4-7df3-8625-4b4515841beb""}","https://test12345.live/?num_scrambled_semantic=8&num_scrambled_causal=4&num_scrambled_schematic=4&participantId=C083122313ED412FA4EB27591D1A7887&assignmentId=0198ba02-09f2-70df-a834-48cb3972f4cc&projectId=0198b9d0-29d4-7df3-8625-4b4515841beb","C083122313ED412FA4EB27591D1A7887-2025-08-17-22-40-41","","null","","images/semantic_sequence/physical_activity_semantic/physical_activity_semantic_4.png","null","",""
"","","","","","image-button-response","53","489014","0.0-10.0-1.0-1.9","C083122313ED412FA4EB27591D1A7887","C083122313ED412FA4EB27591D1A7887","0198ba02-09f2-70df-a834-48cb3972f4cc","0198b9d0-29d4-7df3-8625-4b4515841beb","{""num_scrambled_semantic"":""8"",""num_scrambled_causal"":""4"",""num_scrambled_schematic"":""4"",""participantId"":""C083122313ED412FA4EB27591D1A7887"",""assignmentId"":""0198ba02-09f2-70df-a834-48cb3972f4cc"",""projectId"":""0198b9d0-29d4-7df3-8625-4b4515841beb""}","https://test12345.live/?num_scrambled_semantic=8&num_scrambled_causal=4&num_scrambled_schematic=4&participantId=C083122313ED412FA4EB27591D1A7887&assignmentId=0198ba02-09f2-70df-a834-48cb3972f4cc&projectId=0198b9d0-29d4-7df3-8625-4b4515841beb","C083122313ED412FA4EB27591D1A7887-2025-08-17-22-40-41","","null","","images/semantic_sequence/physical_activity_semantic/physical_activity_semantic_4.png","null","",""
"","","","","","image-button-response","54","494428","0.0-10.0-1.0-2.9","C083122313ED412FA4EB27591D1A7887","C083122313ED412FA4EB27591D1A7887","0198ba02-09f2-70df-a834-48cb3972f4cc","0198b9d0-29d4-7df3-8625-4b4515841beb","{""num_scrambled_semantic"":""8"",""num_scrambled_causal"":""4"",""num_scrambled_schematic"":""4"",""participantId"":""C083122313ED412FA4EB27591D1A7887"",""assignmentId"":""0198ba02-09f2-70df-a834-48cb3972f4cc"",""projectId"":""0198b9d0-29d4-7df3-8625-4b4515841beb""}","https://test12345.live/?num_scrambled_semantic=8&num_scrambled_causal=4&num_scrambled_schematic=4&participantId=C083122313ED412FA4EB27591D1A7887&assignmentId=0198ba02-09f2-70df-a834-48cb3972f4cc&projectId=0198b9d0-29d4-7df3-8625-4b4515841beb","C083122313ED412FA4EB27591D1A7887-2025-08-17-22-40-41","","null","","[]","null","",""
"","","","","","html-audio-response","55","528511","0.0-11.0","C083122313ED412FA4EB27591D1A7887","C083122313ED412FA4EB27591D1A7887","0198ba02-09f2-70df-a834-48cb3972f4cc","0198b9d0-29d4-7df3-8625-4b4515841beb","{""num_scrambled_semantic"":""8"",""num_scrambled_causal"":""4"",""num_scrambled_schematic"":""4"",""participantId"":""C083122313ED412FA4EB27591D1A7887"",""assignmentId"":""0198ba02-09f2-70df-a834-48cb3972f4cc"",""projectId"":""0198b9d0-29d4-7df3-8625-4b4515841beb""}","https://test12345.live/?num_scrambled_semantic=8&num_scrambled_causal=4&num_scrambled_schematic=4&participantId=C083122313ED412FA4EB27591D1A7887&assignmentId=0198ba02-09f2-70df-a834-48cb3972f4cc&projectId=0198b9d0-29d4-7df3-8625-4b4515841beb","C083122313ED412FA4EB27591D1A7887-2025-08-17-22-40-41","","22503","","[""<span style=\""color: red; font-size: 24px\""> NOW RECORDING</span><p>Please say out loud all the images you saw, as many as you can remember. The images can be said in any order.</p>""]","","1","physical_activity_semantic"
"","","","","","image-button-response","56","534530","0.0-12.0-0.0","C083122313ED412FA4EB27591D1A7887","C083122313ED412FA4EB27591D1A7887","0198ba02-09f2-70df-a834-48cb3972f4cc","0198b9d0-29d4-7df3-8625-4b4515841beb","{""num_scrambled_semantic"":""8"",""num_scrambled_causal"":""4"",""num_scrambled_schematic"":""4"",""participantId"":""C083122313ED412FA4EB27591D1A7887"",""assignmentId"":""0198ba02-09f2-70df-a834-48cb3972f4cc"",""projectId"":""0198b9d0-29d4-7df3-8625-4b4515841beb""}","https://test12345.live/?num_scrambled_semantic=8&num_scrambled_causal=4&num_scrambled_schematic=4&participantId=C083122313ED412FA4EB27591D1A7887&assignmentId=0198ba02-09f2-70df-a834-48cb3972f4cc&projectId=0198b9d0-29d4-7df3-8625-4b4515841beb","C083122313ED412FA4EB27591D1A7887-2025-08-17-22-40-41","","null","","images/causal_sequence/coin_causal/coin_causal_0.png","null","",""
"","","","","","image-button-response","57","539047","0.0-12.0-1.0-0.0","C083122313ED412FA4EB27591D1A7887","C083122313ED412FA4EB27591D1A7887","0198ba02-09f2-70df-a834-48cb3972f4cc","0198b9d0-29d4-7df3-8625-4b4515841beb","{""num_scrambled_semantic"":""8"",""num_scrambled_causal"":""4"",""num_scrambled_schematic"":""4"",""participantId"":""C083122313ED412FA4EB27591D1A7887"",""assignmentId"":""0198ba02-09f2-70df-a834-48cb3972f4cc"",""projectId"":""0198b9d0-29d4-7df3-8625-4b4515841beb""}","https://test12345.live/?num_scrambled_semantic=8&num_scrambled_causal=4&num_scrambled_schematic=4&participantId=C083122313ED412FA4EB27591D1A7887&assignmentId=0198ba02-09f2-70df-a834-48cb3972f4cc&projectId=0198b9d0-29d4-7df3-8625-4b4515841beb","C083122313ED412FA4EB27591D1A7887-2025-08-17-22-40-41","","null","","images/causal_sequence/coin_causal/coin_causal_1.png","null","",""
"","","","","","image-button-response","58","543059","0.0-12.0-1.0-1.0","C083122313ED412FA4EB27591D1A7887","C083122313ED412FA4EB27591D1A7887","0198ba02-09f2-70df-a834-48cb3972f4cc","0198b9d0-29d4-7df3-8625-4b4515841beb","{""num_scrambled_semantic"":""8"",""num_scrambled_causal"":""4"",""num_scrambled_schematic"":""4"",""participantId"":""C083122313ED412FA4EB27591D1A7887"",""assignmentId"":""0198ba02-09f2-70df-a834-48cb3972f4cc"",""projectId"":""0198b9d0-29d4-7df3-8625-4b4515841beb""}","https://test12345.live/?num_scrambled_semantic=8&num_scrambled_causal=4&num_scrambled_schematic=4&participantId=C083122313ED412FA4EB27591D1A7887&assignmentId=0198ba02-09f2-70df-a834-48cb3972f4cc&projectId=0198b9d0-29d4-7df3-8625-4b4515841beb","C083122313ED412FA4EB27591D1A7887-2025-08-17-22-40-41","","null","","images/causal_sequence/coin_causal/coin_causal_1.png","null","",""
"","","","","","image-button-response","59","548465","0.0-12.0-1.0-2.0","C083122313ED412FA4EB27591D1A7887","C083122313ED412FA4EB27591D1A7887","0198ba02-09f2-70df-a834-48cb3972f4cc","0198b9d0-29d4-7df3-8625-4b4515841beb","{""num_scrambled_semantic"":""8"",""num_scrambled_causal"":""4"",""num_scrambled_schematic"":""4"",""participantId"":""C083122313ED412FA4EB27591D1A7887"",""assignmentId"":""0198ba02-09f2-70df-a834-48cb3972f4cc"",""projectId"":""0198b9d0-29d4-7df3-8625-4b4515841beb""}","https://test12345.live/?num_scrambled_semantic=8&num_scrambled_causal=4&num_scrambled_schematic=4&participantId=C083122313ED412FA4EB27591D1A7887&assignmentId=0198ba02-09f2-70df-a834-48cb3972f4cc&projectId=0198b9d0-29d4-7df3-8625-4b4515841beb","C083122313ED412FA4EB27591D1A7887-2025-08-17-22-40-41","","null","","[]","null","",""
"","","","","","image-button-response","60","552980","0.0-12.0-1.0-0.1","C083122313ED412FA4EB27591D1A7887","C083122313ED412FA4EB27591D1A7887","0198ba02-09f2-70df-a834-48cb3972f4cc","0198b9d0-29d4-7df3-8625-4b4515841beb","{""num_scrambled_semantic"":""8"",""num_scrambled_causal"":""4"",""num_scrambled_schematic"":""4"",""participantId"":""C083122313ED412FA4EB27591D1A7887"",""assignmentId"":""0198ba02-09f2-70df-a834-48cb3972f4cc"",""projectId"":""0198b9d0-29d4-7df3-8625-4b4515841beb""}","https://test12345.live/?num_scrambled_semantic=8&num_scrambled_causal=4&num_scrambled_schematic=4&participantId=C083122313ED412FA4EB27591D1A7887&assignmentId=0198ba02-09f2-70df-a834-48cb3972f4cc&projectId=0198b9d0-29d4-7df3-8625-4b4515841beb","C083122313ED412FA4EB27591D1A7887-2025-08-17-22-40-41","","null","","images/causal_sequence/coin_causal/coin_causal_2.png","null","",""
"","","","","","image-button-response","61","556681","0.0-12.0-1.0-1.1","C083122313ED412FA4EB27591D1A7887","C083122313ED412FA4EB27591D1A7887","0198ba02-09f2-70df-a834-48cb3972f4cc","0198b9d0-29d4-7df3-8625-4b4515841beb","{""num_scrambled_semantic"":""8"",""num_scrambled_causal"":""4"",""num_scrambled_schematic"":""4"",""participantId"":""C083122313ED412FA4EB27591D1A7887"",""assignmentId"":""0198ba02-09f2-70df-a834-48cb3972f4cc"",""projectId"":""0198b9d0-29d4-7df3-8625-4b4515841beb""}","https://test12345.live/?num_scrambled_semantic=8&num_scrambled_causal=4&num_scrambled_schematic=4&participantId=C083122313ED412FA4EB27591D1A7887&assignmentId=0198ba02-09f2-70df-a834-48cb3972f4cc&projectId=0198b9d0-29d4-7df3-8625-4b4515841beb","C083122313ED412FA4EB27591D1A7887-2025-08-17-22-40-41","","3699","","images/causal_sequence/coin_causal/coin_causal_2.png","0","",""
"","","","","","image-button-response","62","562098","0.0-12.0-1.0-2.1","C083122313ED412FA4EB27591D1A7887","C083122313ED412FA4EB27591D1A7887","0198ba02-09f2-70df-a834-48cb3972f4cc","0198b9d0-29d4-7df3-8625-4b4515841beb","{""num_scrambled_semantic"":""8"",""num_scrambled_causal"":""4"",""num_scrambled_schematic"":""4"",""participantId"":""C083122313ED412FA4EB27591D1A7887"",""assignmentId"":""0198ba02-09f2-70df-a834-48cb3972f4cc"",""projectId"":""0198b9d0-29d4-7df3-8625-4b4515841beb""}","https://test12345.live/?num_scrambled_semantic=8&num_scrambled_causal=4&num_scrambled_schematic=4&participantId=C083122313ED412FA4EB27591D1A7887&assignmentId=0198ba02-09f2-70df-a834-48cb3972f4cc&projectId=0198b9d0-29d4-7df3-8625-4b4515841beb","C083122313ED412FA4EB27591D1A7887-2025-08-17-22-40-41","","null","","[]","null","",""
"","","","","","image-button-response","63","566612","0.0-12.0-1.0-0.2","C083122313ED412FA4EB27591D1A7887","C083122313ED412FA4EB27591D1A7887","0198ba02-09f2-70df-a834-48cb3972f4cc","0198b9d0-29d4-7df3-8625-4b4515841beb","{""num_scrambled_semantic"":""8"",""num_scrambled_causal"":""4"",""num_scrambled_schematic"":""4"",""participantId"":""C083122313ED412FA4EB27591D1A7887"",""assignmentId"":""0198ba02-09f2-70df-a834-48cb3972f4cc"",""projectId"":""0198b9d0-29d4-7df3-8625-4b4515841beb""}","https://test12345.live/?num_scrambled_semantic=8&num_scrambled_causal=4&num_scrambled_schematic=4&participantId=C083122313ED412FA4EB27591D1A7887&assignmentId=0198ba02-09f2-70df-a834-48cb3972f4cc&projectId=0198b9d0-29d4-7df3-8625-4b4515841beb","C083122313ED412FA4EB27591D1A7887-2025-08-17-22-40-41","","null","","images/causal_sequence/coin_causal/coin_causal_3.png","null","",""
"","","","","","image-button-response","64","568160","0.0-12.0-1.0-1.2","C083122313ED412FA4EB27591D1A7887","C083122313ED412FA4EB27591D1A7887","0198ba02-09f2-70df-a834-48cb3972f4cc","0198b9d0-29d4-7df3-8625-4b4515841beb","{""num_scrambled_semantic"":""8"",""num_scrambled_causal"":""4"",""num_scrambled_schematic"":""4"",""participantId"":""C083122313ED412FA4EB27591D1A7887"",""assignmentId"":""0198ba02-09f2-70df-a834-48cb3972f4cc"",""projectId"":""0198b9d0-29d4-7df3-8625-4b4515841beb""}","https://test12345.live/?num_scrambled_semantic=8&num_scrambled_causal=4&num_scrambled_schematic=4&participantId=C083122313ED412FA4EB27591D1A7887&assignmentId=0198ba02-09f2-70df-a834-48cb3972f4cc&projectId=0198b9d0-29d4-7df3-8625-4b4515841beb","C083122313ED412FA4EB27591D1A7887-2025-08-17-22-40-41","","1547","","images/causal_sequence/coin_causal/coin_causal_3.png","0","",""
"","","","","","image-button-response","65","573572","0.0-12.0-1.0-2.2","C083122313ED412FA4EB27591D1A7887","C083122313ED412FA4EB27591D1A7887","0198ba02-09f2-70df-a834-48cb3972f4cc","0198b9d0-29d4-7df3-8625-4b4515841beb","{""num_scrambled_semantic"":""8"",""num_scrambled_causal"":""4"",""num_scrambled_schematic"":""4"",""participantId"":""C083122313ED412FA4EB27591D1A7887"",""assignmentId"":""0198ba02-09f2-70df-a834-48cb3972f4cc"",""projectId"":""0198b9d0-29d4-7df3-8625-4b4515841beb""}","https://test12345.live/?num_scrambled_semantic=8&num_scrambled_causal=4&num_scrambled_schematic=4&participantId=C083122313ED412FA4EB27591D1A7887&assignmentId=0198ba02-09f2-70df-a834-48cb3972f4cc&projectId=0198b9d0-29d4-7df3-8625-4b4515841beb","C083122313ED412FA4EB27591D1A7887-2025-08-17-22-40-41","","null","","[]","null","",""
"","","","","","image-button-response","66","578077","0.0-12.0-1.0-0.3","C083122313ED412FA4EB27591D1A7887","C083122313ED412FA4EB27591D1A7887","0198ba02-09f2-70df-a834-48cb3972f4cc","0198b9d0-29d4-7df3-8625-4b4515841beb","{""num_scrambled_semantic"":""8"",""num_scrambled_causal"":""4"",""num_scrambled_schematic"":""4"",""participantId"":""C083122313ED412FA4EB27591D1A7887"",""assignmentId"":""0198ba02-09f2-70df-a834-48cb3972f4cc"",""projectId"":""0198b9d0-29d4-7df3-8625-4b4515841beb""}","https://test12345.live/?num_scrambled_semantic=8&num_scrambled_causal=4&num_scrambled_schematic=4&participantId=C083122313ED412FA4EB27591D1A7887&assignmentId=0198ba02-09f2-70df-a834-48cb3972f4cc&projectId=0198b9d0-29d4-7df3-8625-4b4515841beb","C083122313ED412FA4EB27591D1A7887-2025-08-17-22-40-41","","null","","images/causal_sequence/coin_causal/coin_causal_4.png","null","",""
"","","","","","image-button-response","67","580623","0.0-12.0-1.0-1.3","C083122313ED412FA4EB27591D1A7887","C083122313ED412FA4EB27591D1A7887","0198ba02-09f2-70df-a834-48cb3972f4cc","0198b9d0-29d4-7df3-8625-4b4515841beb","{""num_scrambled_semantic"":""8"",""num_scrambled_causal"":""4"",""num_scrambled_schematic"":""4"",""participantId"":""C083122313ED412FA4EB27591D1A7887"",""assignmentId"":""0198ba02-09f2-70df-a834-48cb3972f4cc"",""projectId"":""0198b9d0-29d4-7df3-8625-4b4515841beb""}","https://test12345.live/?num_scrambled_semantic=8&num_scrambled_causal=4&num_scrambled_schematic=4&participantId=C083122313ED412FA4EB27591D1A7887&assignmentId=0198ba02-09f2-70df-a834-48cb3972f4cc&projectId=0198b9d0-29d4-7df3-8625-4b4515841beb","C083122313ED412FA4EB27591D1A7887-2025-08-17-22-40-41","","2546","","images/causal_sequence/coin_causal/coin_causal_4.png","0","",""
"","","","","","image-button-response","68","586037","0.0-12.0-1.0-2.3","C083122313ED412FA4EB27591D1A7887","C083122313ED412FA4EB27591D1A7887","0198ba02-09f2-70df-a834-48cb3972f4cc","0198b9d0-29d4-7df3-8625-4b4515841beb","{""num_scrambled_semantic"":""8"",""num_scrambled_causal"":""4"",""num_scrambled_schematic"":""4"",""participantId"":""C083122313ED412FA4EB27591D1A7887"",""assignmentId"":""0198ba02-09f2-70df-a834-48cb3972f4cc"",""projectId"":""0198b9d0-29d4-7df3-8625-4b4515841beb""}","https://test12345.live/?num_scrambled_semantic=8&num_scrambled_causal=4&num_scrambled_schematic=4&participantId=C083122313ED412FA4EB27591D1A7887&assignmentId=0198ba02-09f2-70df-a834-48cb3972f4cc&projectId=0198b9d0-29d4-7df3-8625-4b4515841beb","C083122313ED412FA4EB27591D1A7887-2025-08-17-22-40-41","","null","","[]","null","",""
"","","","","","image-button-response","69","590551","0.0-12.0-1.0-0.4","C083122313ED412FA4EB27591D1A7887","C083122313ED412FA4EB27591D1A7887","0198ba02-09f2-70df-a834-48cb3972f4cc","0198b9d0-29d4-7df3-8625-4b4515841beb","{""num_scrambled_semantic"":""8"",""num_scrambled_causal"":""4"",""num_scrambled_schematic"":""4"",""participantId"":""C083122313ED412FA4EB27591D1A7887"",""assignmentId"":""0198ba02-09f2-70df-a834-48cb3972f4cc"",""projectId"":""0198b9d0-29d4-7df3-8625-4b4515841beb""}","https://test12345.live/?num_scrambled_semantic=8&num_scrambled_causal=4&num_scrambled_schematic=4&participantId=C083122313ED412FA4EB27591D1A7887&assignmentId=0198ba02-09f2-70df-a834-48cb3972f4cc&projectId=0198b9d0-29d4-7df3-8625-4b4515841beb","C083122313ED412FA4EB27591D1A7887-2025-08-17-22-40-41","","null","","images/causal_sequence/coin_causal/coin_causal_5.png","null","",""
"","","","","","image-button-response","70","592297","0.0-12.0-1.0-1.4","C083122313ED412FA4EB27591D1A7887","C083122313ED412FA4EB27591D1A7887","0198ba02-09f2-70df-a834-48cb3972f4cc","0198b9d0-29d4-7df3-8625-4b4515841beb","{""num_scrambled_semantic"":""8"",""num_scrambled_causal"":""4"",""num_scrambled_schematic"":""4"",""participantId"":""C083122313ED412FA4EB27591D1A7887"",""assignmentId"":""0198ba02-09f2-70df-a834-48cb3972f4cc"",""projectId"":""0198b9d0-29d4-7df3-8625-4b4515841beb""}","https://test12345.live/?num_scrambled_semantic=8&num_scrambled_causal=4&num_scrambled_schematic=4&participantId=C083122313ED412FA4EB27591D1A7887&assignmentId=0198ba02-09f2-70df-a834-48cb3972f4cc&projectId=0198b9d0-29d4-7df3-8625-4b4515841beb","C083122313ED412FA4EB27591D1A7887-2025-08-17-22-40-41","","1745","","images/causal_sequence/coin_causal/coin_causal_5.png","0","",""
"","","","","","image-button-response","71","597700","0.0-12.0-1.0-2.4","C083122313ED412FA4EB27591D1A7887","C083122313ED412FA4EB27591D1A7887","0198ba02-09f2-70df-a834-48cb3972f4cc","0198b9d0-29d4-7df3-8625-4b4515841beb","{""num_scrambled_semantic"":""8"",""num_scrambled_causal"":""4"",""num_scrambled_schematic"":""4"",""participantId"":""C083122313ED412FA4EB27591D1A7887"",""assignmentId"":""0198ba02-09f2-70df-a834-48cb3972f4cc"",""projectId"":""0198b9d0-29d4-7df3-8625-4b4515841beb""}","https://test12345.live/?num_scrambled_semantic=8&num_scrambled_causal=4&num_scrambled_schematic=4&participantId=C083122313ED412FA4EB27591D1A7887&assignmentId=0198ba02-09f2-70df-a834-48cb3972f4cc&projectId=0198b9d0-29d4-7df3-8625-4b4515841beb","C083122313ED412FA4EB27591D1A7887-2025-08-17-22-40-41","","null","","[]","null","",""
"","","","","","image-button-response","72","602207","0.0-12.0-1.0-0.5","C083122313ED412FA4EB27591D1A7887","C083122313ED412FA4EB27591D1A7887","0198ba02-09f2-70df-a834-48cb3972f4cc","0198b9d0-29d4-7df3-8625-4b4515841beb","{""num_scrambled_semantic"":""8"",""num_scrambled_causal"":""4"",""num_scrambled_schematic"":""4"",""participantId"":""C083122313ED412FA4EB27591D1A7887"",""assignmentId"":""0198ba02-09f2-70df-a834-48cb3972f4cc"",""projectId"":""0198b9d0-29d4-7df3-8625-4b4515841beb""}","https://test12345.live/?num_scrambled_semantic=8&num_scrambled_causal=4&num_scrambled_schematic=4&participantId=C083122313ED412FA4EB27591D1A7887&assignmentId=0198ba02-09f2-70df-a834-48cb3972f4cc&projectId=0198b9d0-29d4-7df3-8625-4b4515841beb","C083122313ED412FA4EB27591D1A7887-2025-08-17-22-40-41","","null","","images/causal_sequence/coin_causal/coin_causal_6.png","null","",""
"","","","","","image-button-response","73","603357","0.0-12.0-1.0-1.5","C083122313ED412FA4EB27591D1A7887","C083122313ED412FA4EB27591D1A7887","0198ba02-09f2-70df-a834-48cb3972f4cc","0198b9d0-29d4-7df3-8625-4b4515841beb","{""num_scrambled_semantic"":""8"",""num_scrambled_causal"":""4"",""num_scrambled_schematic"":""4"",""participantId"":""C083122313ED412FA4EB27591D1A7887"",""assignmentId"":""0198ba02-09f2-70df-a834-48cb3972f4cc"",""projectId"":""0198b9d0-29d4-7df3-8625-4b4515841beb""}","https://test12345.live/?num_scrambled_semantic=8&num_scrambled_causal=4&num_scrambled_schematic=4&participantId=C083122313ED412FA4EB27591D1A7887&assignmentId=0198ba02-09f2-70df-a834-48cb3972f4cc&projectId=0198b9d0-29d4-7df3-8625-4b4515841beb","C083122313ED412FA4EB27591D1A7887-2025-08-17-22-40-41","","1149","","images/causal_sequence/coin_causal/coin_causal_6.png","0","",""
"","","","","","image-button-response","74","608770","0.0-12.0-1.0-2.5","C083122313ED412FA4EB27591D1A7887","C083122313ED412FA4EB27591D1A7887","0198ba02-09f2-70df-a834-48cb3972f4cc","0198b9d0-29d4-7df3-8625-4b4515841beb","{""num_scrambled_semantic"":""8"",""num_scrambled_causal"":""4"",""num_scrambled_schematic"":""4"",""participantId"":""C083122313ED412FA4EB27591D1A7887"",""assignmentId"":""0198ba02-09f2-70df-a834-48cb3972f4cc"",""projectId"":""0198b9d0-29d4-7df3-8625-4b4515841beb""}","https://test12345.live/?num_scrambled_semantic=8&num_scrambled_causal=4&num_scrambled_schematic=4&participantId=C083122313ED412FA4EB27591D1A7887&assignmentId=0198ba02-09f2-70df-a834-48cb3972f4cc&projectId=0198b9d0-29d4-7df3-8625-4b4515841beb","C083122313ED412FA4EB27591D1A7887-2025-08-17-22-40-41","","null","","[]","null","",""
"","","","","","image-button-response","75","613277","0.0-12.0-1.0-0.6","C083122313ED412FA4EB27591D1A7887","C083122313ED412FA4EB27591D1A7887","0198ba02-09f2-70df-a834-48cb3972f4cc","0198b9d0-29d4-7df3-8625-4b4515841beb","{""num_scrambled_semantic"":""8"",""num_scrambled_causal"":""4"",""num_scrambled_schematic"":""4"",""participantId"":""C083122313ED412FA4EB27591D1A7887"",""assignmentId"":""0198ba02-09f2-70df-a834-48cb3972f4cc"",""projectId"":""0198b9d0-29d4-7df3-8625-4b4515841beb""}","https://test12345.live/?num_scrambled_semantic=8&num_scrambled_causal=4&num_scrambled_schematic=4&participantId=C083122313ED412FA4EB27591D1A7887&assignmentId=0198ba02-09f2-70df-a834-48cb3972f4cc&projectId=0198b9d0-29d4-7df3-8625-4b4515841beb","C083122313ED412FA4EB27591D1A7887-2025-08-17-22-40-41","","null","","images/causal_sequence/coin_causal/coin_causal_7.png","null","",""
"","","","","","image-button-response","76","615900","0.0-12.0-1.0-1.6","C083122313ED412FA4EB27591D1A7887","C083122313ED412FA4EB27591D1A7887","0198ba02-09f2-70df-a834-48cb3972f4cc","0198b9d0-29d4-7df3-8625-4b4515841beb","{""num_scrambled_semantic"":""8"",""num_scrambled_causal"":""4"",""num_scrambled_schematic"":""4"",""participantId"":""C083122313ED412FA4EB27591D1A7887"",""assignmentId"":""0198ba02-09f2-70df-a834-48cb3972f4cc"",""projectId"":""0198b9d0-29d4-7df3-8625-4b4515841beb""}","https://test12345.live/?num_scrambled_semantic=8&num_scrambled_causal=4&num_scrambled_schematic=4&participantId=C083122313ED412FA4EB27591D1A7887&assignmentId=0198ba02-09f2-70df-a834-48cb3972f4cc&projectId=0198b9d0-29d4-7df3-8625-4b4515841beb","C083122313ED412FA4EB27591D1A7887-2025-08-17-22-40-41","","2622","","images/causal_sequence/coin_causal/coin_causal_7.png","1","",""
"","","","","","image-button-response","77","621310","0.0-12.0-1.0-2.6","C083122313ED412FA4EB27591D1A7887","C083122313ED412FA4EB27591D1A7887","0198ba02-09f2-70df-a834-48cb3972f4cc","0198b9d0-29d4-7df3-8625-4b4515841beb","{""num_scrambled_semantic"":""8"",""num_scrambled_causal"":""4"",""num_scrambled_schematic"":""4"",""participantId"":""C083122313ED412FA4EB27591D1A7887"",""assignmentId"":""0198ba02-09f2-70df-a834-48cb3972f4cc"",""projectId"":""0198b9d0-29d4-7df3-8625-4b4515841beb""}","https://test12345.live/?num_scrambled_semantic=8&num_scrambled_causal=4&num_scrambled_schematic=4&participantId=C083122313ED412FA4EB27591D1A7887&assignmentId=0198ba02-09f2-70df-a834-48cb3972f4cc&projectId=0198b9d0-29d4-7df3-8625-4b4515841beb","C083122313ED412FA4EB27591D1A7887-2025-08-17-22-40-41","","null","","[]","null","",""
"","","","","","image-button-response","78","625820","0.0-12.0-1.0-0.7","C083122313ED412FA4EB27591D1A7887","C083122313ED412FA4EB27591D1A7887","0198ba02-09f2-70df-a834-48cb3972f4cc","0198b9d0-29d4-7df3-8625-4b4515841beb","{""num_scrambled_semantic"":""8"",""num_scrambled_causal"":""4"",""num_scrambled_schematic"":""4"",""participantId"":""C083122313ED412FA4EB27591D1A7887"",""assignmentId"":""0198ba02-09f2-70df-a834-48cb3972f4cc"",""projectId"":""0198b9d0-29d4-7df3-8625-4b4515841beb""}","https://test12345.live/?num_scrambled_semantic=8&num_scrambled_causal=4&num_scrambled_schematic=4&participantId=C083122313ED412FA4EB27591D1A7887&assignmentId=0198ba02-09f2-70df-a834-48cb3972f4cc&projectId=0198b9d0-29d4-7df3-8625-4b4515841beb","C083122313ED412FA4EB27591D1A7887-2025-08-17-22-40-41","","null","","images/causal_sequence/coin_causal/coin_causal_8.png","null","",""
"","","","","","image-button-response","79","629301","0.0-12.0-1.0-1.7","C083122313ED412FA4EB27591D1A7887","C083122313ED412FA4EB27591D1A7887","0198ba02-09f2-70df-a834-48cb3972f4cc","0198b9d0-29d4-7df3-8625-4b4515841beb","{""num_scrambled_semantic"":""8"",""num_scrambled_causal"":""4"",""num_scrambled_schematic"":""4"",""participantId"":""C083122313ED412FA4EB27591D1A7887"",""assignmentId"":""0198ba02-09f2-70df-a834-48cb3972f4cc"",""projectId"":""0198b9d0-29d4-7df3-8625-4b4515841beb""}","https://test12345.live/?num_scrambled_semantic=8&num_scrambled_causal=4&num_scrambled_schematic=4&participantId=C083122313ED412FA4EB27591D1A7887&assignmentId=0198ba02-09f2-70df-a834-48cb3972f4cc&projectId=0198b9d0-29d4-7df3-8625-4b4515841beb","C083122313ED412FA4EB27591D1A7887-2025-08-17-22-40-41","","3480","","images/causal_sequence/coin_causal/coin_causal_8.png","0","",""
"","","","","","image-button-response","80","634715","0.0-12.0-1.0-2.7","C083122313ED412FA4EB27591D1A7887","C083122313ED412FA4EB27591D1A7887","0198ba02-09f2-70df-a834-48cb3972f4cc","0198b9d0-29d4-7df3-8625-4b4515841beb","{""num_scrambled_semantic"":""8"",""num_scrambled_causal"":""4"",""num_scrambled_schematic"":""4"",""participantId"":""C083122313ED412FA4EB27591D1A7887"",""assignmentId"":""0198ba02-09f2-70df-a834-48cb3972f4cc"",""projectId"":""0198b9d0-29d4-7df3-8625-4b4515841beb""}","https://test12345.live/?num_scrambled_semantic=8&num_scrambled_causal=4&num_scrambled_schematic=4&participantId=C083122313ED412FA4EB27591D1A7887&assignmentId=0198ba02-09f2-70df-a834-48cb3972f4cc&projectId=0198b9d0-29d4-7df3-8625-4b4515841beb","C083122313ED412FA4EB27591D1A7887-2025-08-17-22-40-41","","null","","[]","null","",""
"","","","","","image-button-response","81","639229","0.0-12.0-1.0-0.8","C083122313ED412FA4EB27591D1A7887","C083122313ED412FA4EB27591D1A7887","0198ba02-09f2-70df-a834-48cb3972f4cc","0198b9d0-29d4-7df3-8625-4b4515841beb","{""num_scrambled_semantic"":""8"",""num_scrambled_causal"":""4"",""num_scrambled_schematic"":""4"",""participantId"":""C083122313ED412FA4EB27591D1A7887"",""assignmentId"":""0198ba02-09f2-70df-a834-48cb3972f4cc"",""projectId"":""0198b9d0-29d4-7df3-8625-4b4515841beb""}","https://test12345.live/?num_scrambled_semantic=8&num_scrambled_causal=4&num_scrambled_schematic=4&participantId=C083122313ED412FA4EB27591D1A7887&assignmentId=0198ba02-09f2-70df-a834-48cb3972f4cc&projectId=0198b9d0-29d4-7df3-8625-4b4515841beb","C083122313ED412FA4EB27591D1A7887-2025-08-17-22-40-41","","null","","images/causal_sequence/coin_causal/coin_causal_9.png","null","",""
"","","","","","image-button-response","82","641878","0.0-12.0-1.0-1.8","C083122313ED412FA4EB27591D1A7887","C083122313ED412FA4EB27591D1A7887","0198ba02-09f2-70df-a834-48cb3972f4cc","0198b9d0-29d4-7df3-8625-4b4515841beb","{""num_scrambled_semantic"":""8"",""num_scrambled_causal"":""4"",""num_scrambled_schematic"":""4"",""participantId"":""C083122313ED412FA4EB27591D1A7887"",""assignmentId"":""0198ba02-09f2-70df-a834-48cb3972f4cc"",""projectId"":""0198b9d0-29d4-7df3-8625-4b4515841beb""}","https://test12345.live/?num_scrambled_semantic=8&num_scrambled_causal=4&num_scrambled_schematic=4&participantId=C083122313ED412FA4EB27591D1A7887&assignmentId=0198ba02-09f2-70df-a834-48cb3972f4cc&projectId=0198b9d0-29d4-7df3-8625-4b4515841beb","C083122313ED412FA4EB27591D1A7887-2025-08-17-22-40-41","","2648","","images/causal_sequence/coin_causal/coin_causal_9.png","0","",""
"","","","","","image-button-response","83","647287","0.0-12.0-1.0-2.8","C083122313ED412FA4EB27591D1A7887","C083122313ED412FA4EB27591D1A7887","0198ba02-09f2-70df-a834-48cb3972f4cc","0198b9d0-29d4-7df3-8625-4b4515841beb","{""num_scrambled_semantic"":""8"",""num_scrambled_causal"":""4"",""num_scrambled_schematic"":""4"",""participantId"":""C083122313ED412FA4EB27591D1A7887"",""assignmentId"":""0198ba02-09f2-70df-a834-48cb3972f4cc"",""projectId"":""0198b9d0-29d4-7df3-8625-4b4515841beb""}","https://test12345.live/?num_scrambled_semantic=8&num_scrambled_causal=4&num_scrambled_schematic=4&participantId=C083122313ED412FA4EB27591D1A7887&assignmentId=0198ba02-09f2-70df-a834-48cb3972f4cc&projectId=0198b9d0-29d4-7df3-8625-4b4515841beb","C083122313ED412FA4EB27591D1A7887-2025-08-17-22-40-41","","null","","[]","null","",""
"","","","","","image-button-response","84","651804","0.0-12.0-1.0-0.9","C083122313ED412FA4EB27591D1A7887","C083122313ED412FA4EB27591D1A7887","0198ba02-09f2-70df-a834-48cb3972f4cc","0198b9d0-29d4-7df3-8625-4b4515841beb","{""num_scrambled_semantic"":""8"",""num_scrambled_causal"":""4"",""num_scrambled_schematic"":""4"",""participantId"":""C083122313ED412FA4EB27591D1A7887"",""assignmentId"":""0198ba02-09f2-70df-a834-48cb3972f4cc"",""projectId"":""0198b9d0-29d4-7df3-8625-4b4515841beb""}","https://test12345.live/?num_scrambled_semantic=8&num_scrambled_causal=4&num_scrambled_schematic=4&participantId=C083122313ED412FA4EB27591D1A7887&assignmentId=0198ba02-09f2-70df-a834-48cb3972f4cc&projectId=0198b9d0-29d4-7df3-8625-4b4515841beb","C083122313ED412FA4EB27591D1A7887-2025-08-17-22-40-41","","null","","images/causal_sequence/coin_causal/coin_causal_ten.png","null","",""
"","","","","","image-button-response","85","654974","0.0-12.0-1.0-1.9","C083122313ED412FA4EB27591D1A7887","C083122313ED412FA4EB27591D1A7887","0198ba02-09f2-70df-a834-48cb3972f4cc","0198b9d0-29d4-7df3-8625-4b4515841beb","{""num_scrambled_semantic"":""8"",""num_scrambled_causal"":""4"",""num_scrambled_schematic"":""4"",""participantId"":""C083122313ED412FA4EB27591D1A7887"",""assignmentId"":""0198ba02-09f2-70df-a834-48cb3972f4cc"",""projectId"":""0198b9d0-29d4-7df3-8625-4b4515841beb""}","https://test12345.live/?num_scrambled_semantic=8&num_scrambled_causal=4&num_scrambled_schematic=4&participantId=C083122313ED412FA4EB27591D1A7887&assignmentId=0198ba02-09f2-70df-a834-48cb3972f4cc&projectId=0198b9d0-29d4-7df3-8625-4b4515841beb","C083122313ED412FA4EB27591D1A7887-2025-08-17-22-40-41","","3170","","images/causal_sequence/coin_causal/coin_causal_ten.png","0","",""
"","","","","","image-button-response","86","660382","0.0-12.0-1.0-2.9","C083122313ED412FA4EB27591D1A7887","C083122313ED412FA4EB27591D1A7887","0198ba02-09f2-70df-a834-48cb3972f4cc","0198b9d0-29d4-7df3-8625-4b4515841beb","{""num_scrambled_semantic"":""8"",""num_scrambled_causal"":""4"",""num_scrambled_schematic"":""4"",""participantId"":""C083122313ED412FA4EB27591D1A7887"",""assignmentId"":""0198ba02-09f2-70df-a834-48cb3972f4cc"",""projectId"":""0198b9d0-29d4-7df3-8625-4b4515841beb""}","https://test12345.live/?num_scrambled_semantic=8&num_scrambled_causal=4&num_scrambled_schematic=4&participantId=C083122313ED412FA4EB27591D1A7887&assignmentId=0198ba02-09f2-70df-a834-48cb3972f4cc&projectId=0198b9d0-29d4-7df3-8625-4b4515841beb","C083122313ED412FA4EB27591D1A7887-2025-08-17-22-40-41","","null","","[]","null","",""
"","","","","","html-audio-response","87","704040","0.0-13.0","C083122313ED412FA4EB27591D1A7887","C083122313ED412FA4EB27591D1A7887","0198ba02-09f2-70df-a834-48cb3972f4cc","0198b9d0-29d4-7df3-8625-4b4515841beb","{""num_scrambled_semantic"":""8"",""num_scrambled_causal"":""4"",""num_scrambled_schematic"":""4"",""participantId"":""C083122313ED412FA4EB27591D1A7887"",""assignmentId"":""0198ba02-09f2-70df-a834-48cb3972f4cc"",""projectId"":""0198b9d0-29d4-7df3-8625-4b4515841beb""}","https://test12345.live/?num_scrambled_semantic=8&num_scrambled_causal=4&num_scrambled_schematic=4&participantId=C083122313ED412FA4EB27591D1A7887&assignmentId=0198ba02-09f2-70df-a834-48cb3972f4cc&projectId=0198b9d0-29d4-7df3-8625-4b4515841beb","C083122313ED412FA4EB27591D1A7887-2025-08-17-22-40-41","","38896","","[""<span style=\""color: red; font-size: 24px\""> NOW RECORDING</span><p>Please say out loud all the images you saw, as many as you can remember. The images can be said in any order.</p>""]","","1","coin_causal"
"","","","","","image-button-response","88","710062","0.0-14.0-0.0","C083122313ED412FA4EB27591D1A7887","C083122313ED412FA4EB27591D1A7887","0198ba02-09f2-70df-a834-48cb3972f4cc","0198b9d0-29d4-7df3-8625-4b4515841beb","{""num_scrambled_semantic"":""8"",""num_scrambled_causal"":""4"",""num_scrambled_schematic"":""4"",""participantId"":""C083122313ED412FA4EB27591D1A7887"",""assignmentId"":""0198ba02-09f2-70df-a834-48cb3972f4cc"",""projectId"":""0198b9d0-29d4-7df3-8625-4b4515841beb""}","https://test12345.live/?num_scrambled_semantic=8&num_scrambled_causal=4&num_scrambled_schematic=4&participantId=C083122313ED412FA4EB27591D1A7887&assignmentId=0198ba02-09f2-70df-a834-48cb3972f4cc&projectId=0198b9d0-29d4-7df3-8625-4b4515841beb","C083122313ED412FA4EB27591D1A7887-2025-08-17-22-40-41","","null","","images/causal_sequence/package_causal/package_causal_0.png","null","",""
"","","","","","image-button-response","89","714574","0.0-14.0-1.0-0.0","C083122313ED412FA4EB27591D1A7887","C083122313ED412FA4EB27591D1A7887","0198ba02-09f2-70df-a834-48cb3972f4cc","0198b9d0-29d4-7df3-8625-4b4515841beb","{""num_scrambled_semantic"":""8"",""num_scrambled_causal"":""4"",""num_scrambled_schematic"":""4"",""participantId"":""C083122313ED412FA4EB27591D1A7887"",""assignmentId"":""0198ba02-09f2-70df-a834-48cb3972f4cc"",""projectId"":""0198b9d0-29d4-7df3-8625-4b4515841beb""}","https://test12345.live/?num_scrambled_semantic=8&num_scrambled_causal=4&num_scrambled_schematic=4&participantId=C083122313ED412FA4EB27591D1A7887&assignmentId=0198ba02-09f2-70df-a834-48cb3972f4cc&projectId=0198b9d0-29d4-7df3-8625-4b4515841beb","C083122313ED412FA4EB27591D1A7887-2025-08-17-22-40-41","","null","","images/causal_sequence/package_causal/package_causal_2.png","null","",""
"","","","","","image-button-response","90","716372","0.0-14.0-1.0-1.0","C083122313ED412FA4EB27591D1A7887","C083122313ED412FA4EB27591D1A7887","0198ba02-09f2-70df-a834-48cb3972f4cc","0198b9d0-29d4-7df3-8625-4b4515841beb","{""num_scrambled_semantic"":""8"",""num_scrambled_causal"":""4"",""num_scrambled_schematic"":""4"",""participantId"":""C083122313ED412FA4EB27591D1A7887"",""assignmentId"":""0198ba02-09f2-70df-a834-48cb3972f4cc"",""projectId"":""0198b9d0-29d4-7df3-8625-4b4515841beb""}","https://test12345.live/?num_scrambled_semantic=8&num_scrambled_causal=4&num_scrambled_schematic=4&participantId=C083122313ED412FA4EB27591D1A7887&assignmentId=0198ba02-09f2-70df-a834-48cb3972f4cc&projectId=0198b9d0-29d4-7df3-8625-4b4515841beb","C083122313ED412FA4EB27591D1A7887-2025-08-17-22-40-41","","1796","","images/causal_sequence/package_causal/package_causal_2.png","0","",""
"","","","","","image-button-response","91","721785","0.0-14.0-1.0-2.0","C083122313ED412FA4EB27591D1A7887","C083122313ED412FA4EB27591D1A7887","0198ba02-09f2-70df-a834-48cb3972f4cc","0198b9d0-29d4-7df3-8625-4b4515841beb","{""num_scrambled_semantic"":""8"",""num_scrambled_causal"":""4"",""num_scrambled_schematic"":""4"",""participantId"":""C083122313ED412FA4EB27591D1A7887"",""assignmentId"":""0198ba02-09f2-70df-a834-48cb3972f4cc"",""projectId"":""0198b9d0-29d4-7df3-8625-4b4515841beb""}","https://test12345.live/?num_scrambled_semantic=8&num_scrambled_causal=4&num_scrambled_schematic=4&participantId=C083122313ED412FA4EB27591D1A7887&assignmentId=0198ba02-09f2-70df-a834-48cb3972f4cc&projectId=0198b9d0-29d4-7df3-8625-4b4515841beb","C083122313ED412FA4EB27591D1A7887-2025-08-17-22-40-41","","null","","[]","null","",""
"","","","","","image-button-response","92","726303","0.0-14.0-1.0-0.1","C083122313ED412FA4EB27591D1A7887","C083122313ED412FA4EB27591D1A7887","0198ba02-09f2-70df-a834-48cb3972f4cc","0198b9d0-29d4-7df3-8625-4b4515841beb","{""num_scrambled_semantic"":""8"",""num_scrambled_causal"":""4"",""num_scrambled_schematic"":""4"",""participantId"":""C083122313ED412FA4EB27591D1A7887"",""assignmentId"":""0198ba02-09f2-70df-a834-48cb3972f4cc"",""projectId"":""0198b9d0-29d4-7df3-8625-4b4515841beb""}","https://test12345.live/?num_scrambled_semantic=8&num_scrambled_causal=4&num_scrambled_schematic=4&participantId=C083122313ED412FA4EB27591D1A7887&assignmentId=0198ba02-09f2-70df-a834-48cb3972f4cc&projectId=0198b9d0-29d4-7df3-8625-4b4515841beb","C083122313ED412FA4EB27591D1A7887-2025-08-17-22-40-41","","null","","images/causal_sequence/package_causal/package_causal_8.png","null","",""
"","","","","","image-button-response","93","729241","0.0-14.0-1.0-1.1","C083122313ED412FA4EB27591D1A7887","C083122313ED412FA4EB27591D1A7887","0198ba02-09f2-70df-a834-48cb3972f4cc","0198b9d0-29d4-7df3-8625-4b4515841beb","{""num_scrambled_semantic"":""8"",""num_scrambled_causal"":""4"",""num_scrambled_schematic"":""4"",""participantId"":""C083122313ED412FA4EB27591D1A7887"",""assignmentId"":""0198ba02-09f2-70df-a834-48cb3972f4cc"",""projectId"":""0198b9d0-29d4-7df3-8625-4b4515841beb""}","https://test12345.live/?num_scrambled_semantic=8&num_scrambled_causal=4&num_scrambled_schematic=4&participantId=C083122313ED412FA4EB27591D1A7887&assignmentId=0198ba02-09f2-70df-a834-48cb3972f4cc&projectId=0198b9d0-29d4-7df3-8625-4b4515841beb","C083122313ED412FA4EB27591D1A7887-2025-08-17-22-40-41","","2937","","images/causal_sequence/package_causal/package_causal_8.png","0","",""
"","","","","","image-button-response","94","734652","0.0-14.0-1.0-2.1","C083122313ED412FA4EB27591D1A7887","C083122313ED412FA4EB27591D1A7887","0198ba02-09f2-70df-a834-48cb3972f4cc","0198b9d0-29d4-7df3-8625-4b4515841beb","{""num_scrambled_semantic"":""8"",""num_scrambled_causal"":""4"",""num_scrambled_schematic"":""4"",""participantId"":""C083122313ED412FA4EB27591D1A7887"",""assignmentId"":""0198ba02-09f2-70df-a834-48cb3972f4cc"",""projectId"":""0198b9d0-29d4-7df3-8625-4b4515841beb""}","https://test12345.live/?num_scrambled_semantic=8&num_scrambled_causal=4&num_scrambled_schematic=4&participantId=C083122313ED412FA4EB27591D1A7887&assignmentId=0198ba02-09f2-70df-a834-48cb3972f4cc&projectId=0198b9d0-29d4-7df3-8625-4b4515841beb","C083122313ED412FA4EB27591D1A7887-2025-08-17-22-40-41","","null","","[]","null","",""
"","","","","","image-button-response","95","739154","0.0-14.0-1.0-0.2","C083122313ED412FA4EB27591D1A7887","C083122313ED412FA4EB27591D1A7887","0198ba02-09f2-70df-a834-48cb3972f4cc","0198b9d0-29d4-7df3-8625-4b4515841beb","{""num_scrambled_semantic"":""8"",""num_scrambled_causal"":""4"",""num_scrambled_schematic"":""4"",""participantId"":""C083122313ED412FA4EB27591D1A7887"",""assignmentId"":""0198ba02-09f2-70df-a834-48cb3972f4cc"",""projectId"":""0198b9d0-29d4-7df3-8625-4b4515841beb""}","https://test12345.live/?num_scrambled_semantic=8&num_scrambled_causal=4&num_scrambled_schematic=4&participantId=C083122313ED412FA4EB27591D1A7887&assignmentId=0198ba02-09f2-70df-a834-48cb3972f4cc&projectId=0198b9d0-29d4-7df3-8625-4b4515841beb","C083122313ED412FA4EB27591D1A7887-2025-08-17-22-40-41","","null","","images/causal_sequence/package_causal/package_causal_3.png","null","",""
"","","","","","image-button-response","96","740696","0.0-14.0-1.0-1.2","C083122313ED412FA4EB27591D1A7887","C083122313ED412FA4EB27591D1A7887","0198ba02-09f2-70df-a834-48cb3972f4cc","0198b9d0-29d4-7df3-8625-4b4515841beb","{""num_scrambled_semantic"":""8"",""num_scrambled_causal"":""4"",""num_scrambled_schematic"":""4"",""participantId"":""C083122313ED412FA4EB27591D1A7887"",""assignmentId"":""0198ba02-09f2-70df-a834-48cb3972f4cc"",""projectId"":""0198b9d0-29d4-7df3-8625-4b4515841beb""}","https://test12345.live/?num_scrambled_semantic=8&num_scrambled_causal=4&num_scrambled_schematic=4&participantId=C083122313ED412FA4EB27591D1A7887&assignmentId=0198ba02-09f2-70df-a834-48cb3972f4cc&projectId=0198b9d0-29d4-7df3-8625-4b4515841beb","C083122313ED412FA4EB27591D1A7887-2025-08-17-22-40-41","","1542","","images/causal_sequence/package_causal/package_causal_3.png","0","",""
"","","","","","image-button-response","97","746108","0.0-14.0-1.0-2.2","C083122313ED412FA4EB27591D1A7887","C083122313ED412FA4EB27591D1A7887","0198ba02-09f2-70df-a834-48cb3972f4cc","0198b9d0-29d4-7df3-8625-4b4515841beb","{""num_scrambled_semantic"":""8"",""num_scrambled_causal"":""4"",""num_scrambled_schematic"":""4"",""participantId"":""C083122313ED412FA4EB27591D1A7887"",""assignmentId"":""0198ba02-09f2-70df-a834-48cb3972f4cc"",""projectId"":""0198b9d0-29d4-7df3-8625-4b4515841beb""}","https://test12345.live/?num_scrambled_semantic=8&num_scrambled_causal=4&num_scrambled_schematic=4&participantId=C083122313ED412FA4EB27591D1A7887&assignmentId=0198ba02-09f2-70df-a834-48cb3972f4cc&projectId=0198b9d0-29d4-7df3-8625-4b4515841beb","C083122313ED412FA4EB27591D1A7887-2025-08-17-22-40-41","","null","","[]","null","",""
"","","","","","image-button-response","98","750614","0.0-14.0-1.0-0.3","C083122313ED412FA4EB27591D1A7887","C083122313ED412FA4EB27591D1A7887","0198ba02-09f2-70df-a834-48cb3972f4cc","0198b9d0-29d4-7df3-8625-4b4515841beb","{""num_scrambled_semantic"":""8"",""num_scrambled_causal"":""4"",""num_scrambled_schematic"":""4"",""participantId"":""C083122313ED412FA4EB27591D1A7887"",""assignmentId"":""0198ba02-09f2-70df-a834-48cb3972f4cc"",""projectId"":""0198b9d0-29d4-7df3-8625-4b4515841beb""}","https://test12345.live/?num_scrambled_semantic=8&num_scrambled_causal=4&num_scrambled_schematic=4&participantId=C083122313ED412FA4EB27591D1A7887&assignmentId=0198ba02-09f2-70df-a834-48cb3972f4cc&projectId=0198b9d0-29d4-7df3-8625-4b4515841beb","C083122313ED412FA4EB27591D1A7887-2025-08-17-22-40-41","","null","","images/causal_sequence/package_causal/package_causal_4.png","null","",""
"","","","","","image-button-response","99","753115","0.0-14.0-1.0-1.3","C083122313ED412FA4EB27591D1A7887","C083122313ED412FA4EB27591D1A7887","0198ba02-09f2-70df-a834-48cb3972f4cc","0198b9d0-29d4-7df3-8625-4b4515841beb","{""num_scrambled_semantic"":""8"",""num_scrambled_causal"":""4"",""num_scrambled_schematic"":""4"",""participantId"":""C083122313ED412FA4EB27591D1A7887"",""assignmentId"":""0198ba02-09f2-70df-a834-48cb3972f4cc"",""projectId"":""0198b9d0-29d4-7df3-8625-4b4515841beb""}","https://test12345.live/?num_scrambled_semantic=8&num_scrambled_causal=4&num_scrambled_schematic=4&participantId=C083122313ED412FA4EB27591D1A7887&assignmentId=0198ba02-09f2-70df-a834-48cb3972f4cc&projectId=0198b9d0-29d4-7df3-8625-4b4515841beb","C083122313ED412FA4EB27591D1A7887-2025-08-17-22-40-41","","2500","","images/causal_sequence/package_causal/package_causal_4.png","1","",""
"","","","","","image-button-response","100","758531","0.0-14.0-1.0-2.3","C083122313ED412FA4EB27591D1A7887","C083122313ED412FA4EB27591D1A7887","0198ba02-09f2-70df-a834-48cb3972f4cc","0198b9d0-29d4-7df3-8625-4b4515841beb","{""num_scrambled_semantic"":""8"",""num_scrambled_causal"":""4"",""num_scrambled_schematic"":""4"",""participantId"":""C083122313ED412FA4EB27591D1A7887"",""assignmentId"":""0198ba02-09f2-70df-a834-48cb3972f4cc"",""projectId"":""0198b9d0-29d4-7df3-8625-4b4515841beb""}","https://test12345.live/?num_scrambled_semantic=8&num_scrambled_causal=4&num_scrambled_schematic=4&participantId=C083122313ED412FA4EB27591D1A7887&assignmentId=0198ba02-09f2-70df-a834-48cb3972f4cc&projectId=0198b9d0-29d4-7df3-8625-4b4515841beb","C083122313ED412FA4EB27591D1A7887-2025-08-17-22-40-41","","null","","[]","null","",""
"","","","","","image-button-response","101","763047","0.0-14.0-1.0-0.4","C083122313ED412FA4EB27591D1A7887","C083122313ED412FA4EB27591D1A7887","0198ba02-09f2-70df-a834-48cb3972f4cc","0198b9d0-29d4-7df3-8625-4b4515841beb","{""num_scrambled_semantic"":""8"",""num_scrambled_causal"":""4"",""num_scrambled_schematic"":""4"",""participantId"":""C083122313ED412FA4EB27591D1A7887"",""assignmentId"":""0198ba02-09f2-70df-a834-48cb3972f4cc"",""projectId"":""0198b9d0-29d4-7df3-8625-4b4515841beb""}","https://test12345.live/?num_scrambled_semantic=8&num_scrambled_causal=4&num_scrambled_schematic=4&participantId=C083122313ED412FA4EB27591D1A7887&assignmentId=0198ba02-09f2-70df-a834-48cb3972f4cc&projectId=0198b9d0-29d4-7df3-8625-4b4515841beb","C083122313ED412FA4EB27591D1A7887-2025-08-17-22-40-41","","null","","images/causal_sequence/package_causal/package_causal_1.png","null","",""
"","","","","","image-button-response","102","765534","0.0-14.0-1.0-1.4","C083122313ED412FA4EB27591D1A7887","C083122313ED412FA4EB27591D1A7887","0198ba02-09f2-70df-a834-48cb3972f4cc","0198b9d0-29d4-7df3-8625-4b4515841beb","{""num_scrambled_semantic"":""8"",""num_scrambled_causal"":""4"",""num_scrambled_schematic"":""4"",""participantId"":""C083122313ED412FA4EB27591D1A7887"",""assignmentId"":""0198ba02-09f2-70df-a834-48cb3972f4cc"",""projectId"":""0198b9d0-29d4-7df3-8625-4b4515841beb""}","https://test12345.live/?num_scrambled_semantic=8&num_scrambled_causal=4&num_scrambled_schematic=4&participantId=C083122313ED412FA4EB27591D1A7887&assignmentId=0198ba02-09f2-70df-a834-48cb3972f4cc&projectId=0198b9d0-29d4-7df3-8625-4b4515841beb","C083122313ED412FA4EB27591D1A7887-2025-08-17-22-40-41","","2486","","images/causal_sequence/package_causal/package_causal_1.png","0","",""
"","","","","","image-button-response","103","770940","0.0-14.0-1.0-2.4","C083122313ED412FA4EB27591D1A7887","C083122313ED412FA4EB27591D1A7887","0198ba02-09f2-70df-a834-48cb3972f4cc","0198b9d0-29d4-7df3-8625-4b4515841beb","{""num_scrambled_semantic"":""8"",""num_scrambled_causal"":""4"",""num_scrambled_schematic"":""4"",""participantId"":""C083122313ED412FA4EB27591D1A7887"",""assignmentId"":""0198ba02-09f2-70df-a834-48cb3972f4cc"",""projectId"":""0198b9d0-29d4-7df3-8625-4b4515841beb""}","https://test12345.live/?num_scrambled_semantic=8&num_scrambled_causal=4&num_scrambled_schematic=4&participantId=C083122313ED412FA4EB27591D1A7887&assignmentId=0198ba02-09f2-70df-a834-48cb3972f4cc&projectId=0198b9d0-29d4-7df3-8625-4b4515841beb","C083122313ED412FA4EB27591D1A7887-2025-08-17-22-40-41","","null","","[]","null","",""
"","","","","","image-button-response","104","775447","0.0-14.0-1.0-0.5","C083122313ED412FA4EB27591D1A7887","C083122313ED412FA4EB27591D1A7887","0198ba02-09f2-70df-a834-48cb3972f4cc","0198b9d0-29d4-7df3-8625-4b4515841beb","{""num_scrambled_semantic"":""8"",""num_scrambled_causal"":""4"",""num_scrambled_schematic"":""4"",""participantId"":""C083122313ED412FA4EB27591D1A7887"",""assignmentId"":""0198ba02-09f2-70df-a834-48cb3972f4cc"",""projectId"":""0198b9d0-29d4-7df3-8625-4b4515841beb""}","https://test12345.live/?num_scrambled_semantic=8&num_scrambled_causal=4&num_scrambled_schematic=4&participantId=C083122313ED412FA4EB27591D1A7887&assignmentId=0198ba02-09f2-70df-a834-48cb3972f4cc&projectId=0198b9d0-29d4-7df3-8625-4b4515841beb","C083122313ED412FA4EB27591D1A7887-2025-08-17-22-40-41","","null","","images/causal_sequence/package_causal/package_causal_5.png","null","",""
"","","","","","image-button-response","105","777571","0.0-14.0-1.0-1.5","C083122313ED412FA4EB27591D1A7887","C083122313ED412FA4EB27591D1A7887","0198ba02-09f2-70df-a834-48cb3972f4cc","0198b9d0-29d4-7df3-8625-4b4515841beb","{""num_scrambled_semantic"":""8"",""num_scrambled_causal"":""4"",""num_scrambled_schematic"":""4"",""participantId"":""C083122313ED412FA4EB27591D1A7887"",""assignmentId"":""0198ba02-09f2-70df-a834-48cb3972f4cc"",""projectId"":""0198b9d0-29d4-7df3-8625-4b4515841beb""}","https://test12345.live/?num_scrambled_semantic=8&num_scrambled_causal=4&num_scrambled_schematic=4&participantId=C083122313ED412FA4EB27591D1A7887&assignmentId=0198ba02-09f2-70df-a834-48cb3972f4cc&projectId=0198b9d0-29d4-7df3-8625-4b4515841beb","C083122313ED412FA4EB27591D1A7887-2025-08-17-22-40-41","","2124","","images/causal_sequence/package_causal/package_causal_5.png","0","",""
"","","","","","image-button-response","106","782973","0.0-14.0-1.0-2.5","C083122313ED412FA4EB27591D1A7887","C083122313ED412FA4EB27591D1A7887","0198ba02-09f2-70df-a834-48cb3972f4cc","0198b9d0-29d4-7df3-8625-4b4515841beb","{""num_scrambled_semantic"":""8"",""num_scrambled_causal"":""4"",""num_scrambled_schematic"":""4"",""participantId"":""C083122313ED412FA4EB27591D1A7887"",""assignmentId"":""0198ba02-09f2-70df-a834-48cb3972f4cc"",""projectId"":""0198b9d0-29d4-7df3-8625-4b4515841beb""}","https://test12345.live/?num_scrambled_semantic=8&num_scrambled_causal=4&num_scrambled_schematic=4&participantId=C083122313ED412FA4EB27591D1A7887&assignmentId=0198ba02-09f2-70df-a834-48cb3972f4cc&projectId=0198b9d0-29d4-7df3-8625-4b4515841beb","C083122313ED412FA4EB27591D1A7887-2025-08-17-22-40-41","","null","","[]","null","",""
"","","","","","image-button-response","107","787489","0.0-14.0-1.0-0.6","C083122313ED412FA4EB27591D1A7887","C083122313ED412FA4EB27591D1A7887","0198ba02-09f2-70df-a834-48cb3972f4cc","0198b9d0-29d4-7df3-8625-4b4515841beb","{""num_scrambled_semantic"":""8"",""num_scrambled_causal"":""4"",""num_scrambled_schematic"":""4"",""participantId"":""C083122313ED412FA4EB27591D1A7887"",""assignmentId"":""0198ba02-09f2-70df-a834-48cb3972f4cc"",""projectId"":""0198b9d0-29d4-7df3-8625-4b4515841beb""}","https://test12345.live/?num_scrambled_semantic=8&num_scrambled_causal=4&num_scrambled_schematic=4&participantId=C083122313ED412FA4EB27591D1A7887&assignmentId=0198ba02-09f2-70df-a834-48cb3972f4cc&projectId=0198b9d0-29d4-7df3-8625-4b4515841beb","C083122313ED412FA4EB27591D1A7887-2025-08-17-22-40-41","","null","","images/causal_sequence/package_causal/package_causal_7.png","null","",""
"","","","","","image-button-response","108","789952","0.0-14.0-1.0-1.6","C083122313ED412FA4EB27591D1A7887","C083122313ED412FA4EB27591D1A7887","0198ba02-09f2-70df-a834-48cb3972f4cc","0198b9d0-29d4-7df3-8625-4b4515841beb","{""num_scrambled_semantic"":""8"",""num_scrambled_causal"":""4"",""num_scrambled_schematic"":""4"",""participantId"":""C083122313ED412FA4EB27591D1A7887"",""assignmentId"":""0198ba02-09f2-70df-a834-48cb3972f4cc"",""projectId"":""0198b9d0-29d4-7df3-8625-4b4515841beb""}","https://test12345.live/?num_scrambled_semantic=8&num_scrambled_causal=4&num_scrambled_schematic=4&participantId=C083122313ED412FA4EB27591D1A7887&assignmentId=0198ba02-09f2-70df-a834-48cb3972f4cc&projectId=0198b9d0-29d4-7df3-8625-4b4515841beb","C083122313ED412FA4EB27591D1A7887-2025-08-17-22-40-41","","2462","","images/causal_sequence/package_causal/package_causal_7.png","0","",""
"","","","","","image-button-response","109","795365","0.0-14.0-1.0-2.6","C083122313ED412FA4EB27591D1A7887","C083122313ED412FA4EB27591D1A7887","0198ba02-09f2-70df-a834-48cb3972f4cc","0198b9d0-29d4-7df3-8625-4b4515841beb","{""num_scrambled_semantic"":""8"",""num_scrambled_causal"":""4"",""num_scrambled_schematic"":""4"",""participantId"":""C083122313ED412FA4EB27591D1A7887"",""assignmentId"":""0198ba02-09f2-70df-a834-48cb3972f4cc"",""projectId"":""0198b9d0-29d4-7df3-8625-4b4515841beb""}","https://test12345.live/?num_scrambled_semantic=8&num_scrambled_causal=4&num_scrambled_schematic=4&participantId=C083122313ED412FA4EB27591D1A7887&assignmentId=0198ba02-09f2-70df-a834-48cb3972f4cc&projectId=0198b9d0-29d4-7df3-8625-4b4515841beb","C083122313ED412FA4EB27591D1A7887-2025-08-17-22-40-41","","null","","[]","null","",""
"","","","","","image-button-response","110","799880","0.0-14.0-1.0-0.7","C083122313ED412FA4EB27591D1A7887","C083122313ED412FA4EB27591D1A7887","0198ba02-09f2-70df-a834-48cb3972f4cc","0198b9d0-29d4-7df3-8625-4b4515841beb","{""num_scrambled_semantic"":""8"",""num_scrambled_causal"":""4"",""num_scrambled_schematic"":""4"",""participantId"":""C083122313ED412FA4EB27591D1A7887"",""assignmentId"":""0198ba02-09f2-70df-a834-48cb3972f4cc"",""projectId"":""0198b9d0-29d4-7df3-8625-4b4515841beb""}","https://test12345.live/?num_scrambled_semantic=8&num_scrambled_causal=4&num_scrambled_schematic=4&participantId=C083122313ED412FA4EB27591D1A7887&assignmentId=0198ba02-09f2-70df-a834-48cb3972f4cc&projectId=0198b9d0-29d4-7df3-8625-4b4515841beb","C083122313ED412FA4EB27591D1A7887-2025-08-17-22-40-41","","null","","images/causal_sequence/package_causal/package_causal_6.png","null","",""
"","","","","","image-button-response","111","801911","0.0-14.0-1.0-1.7","C083122313ED412FA4EB27591D1A7887","C083122313ED412FA4EB27591D1A7887","0198ba02-09f2-70df-a834-48cb3972f4cc","0198b9d0-29d4-7df3-8625-4b4515841beb","{""num_scrambled_semantic"":""8"",""num_scrambled_causal"":""4"",""num_scrambled_schematic"":""4"",""participantId"":""C083122313ED412FA4EB27591D1A7887"",""assignmentId"":""0198ba02-09f2-70df-a834-48cb3972f4cc"",""projectId"":""0198b9d0-29d4-7df3-8625-4b4515841beb""}","https://test12345.live/?num_scrambled_semantic=8&num_scrambled_causal=4&num_scrambled_schematic=4&participantId=C083122313ED412FA4EB27591D1A7887&assignmentId=0198ba02-09f2-70df-a834-48cb3972f4cc&projectId=0198b9d0-29d4-7df3-8625-4b4515841beb","C083122313ED412FA4EB27591D1A7887-2025-08-17-22-40-41","","2030","","images/causal_sequence/package_causal/package_causal_6.png","0","",""
"","","","","","image-button-response","112","807314","0.0-14.0-1.0-2.7","C083122313ED412FA4EB27591D1A7887","C083122313ED412FA4EB27591D1A7887","0198ba02-09f2-70df-a834-48cb3972f4cc","0198b9d0-29d4-7df3-8625-4b4515841beb","{""num_scrambled_semantic"":""8"",""num_scrambled_causal"":""4"",""num_scrambled_schematic"":""4"",""participantId"":""C083122313ED412FA4EB27591D1A7887"",""assignmentId"":""0198ba02-09f2-70df-a834-48cb3972f4cc"",""projectId"":""0198b9d0-29d4-7df3-8625-4b4515841beb""}","https://test12345.live/?num_scrambled_semantic=8&num_scrambled_causal=4&num_scrambled_schematic=4&participantId=C083122313ED412FA4EB27591D1A7887&assignmentId=0198ba02-09f2-70df-a834-48cb3972f4cc&projectId=0198b9d0-29d4-7df3-8625-4b4515841beb","C083122313ED412FA4EB27591D1A7887-2025-08-17-22-40-41","","null","","[]","null","",""
"","","","","","image-button-response","113","811826","0.0-14.0-1.0-0.8","C083122313ED412FA4EB27591D1A7887","C083122313ED412FA4EB27591D1A7887","0198ba02-09f2-70df-a834-48cb3972f4cc","0198b9d0-29d4-7df3-8625-4b4515841beb","{""num_scrambled_semantic"":""8"",""num_scrambled_causal"":""4"",""num_scrambled_schematic"":""4"",""participantId"":""C083122313ED412FA4EB27591D1A7887"",""assignmentId"":""0198ba02-09f2-70df-a834-48cb3972f4cc"",""projectId"":""0198b9d0-29d4-7df3-8625-4b4515841beb""}","https://test12345.live/?num_scrambled_semantic=8&num_scrambled_causal=4&num_scrambled_schematic=4&participantId=C083122313ED412FA4EB27591D1A7887&assignmentId=0198ba02-09f2-70df-a834-48cb3972f4cc&projectId=0198b9d0-29d4-7df3-8625-4b4515841beb","C083122313ED412FA4EB27591D1A7887-2025-08-17-22-40-41","","null","","images/causal_sequence/package_causal/package_causal_9.png","null","",""
"","","","","","image-button-response","114","814017","0.0-14.0-1.0-1.8","C083122313ED412FA4EB27591D1A7887","C083122313ED412FA4EB27591D1A7887","0198ba02-09f2-70df-a834-48cb3972f4cc","0198b9d0-29d4-7df3-8625-4b4515841beb","{""num_scrambled_semantic"":""8"",""num_scrambled_causal"":""4"",""num_scrambled_schematic"":""4"",""participantId"":""C083122313ED412FA4EB27591D1A7887"",""assignmentId"":""0198ba02-09f2-70df-a834-48cb3972f4cc"",""projectId"":""0198b9d0-29d4-7df3-8625-4b4515841beb""}","https://test12345.live/?num_scrambled_semantic=8&num_scrambled_causal=4&num_scrambled_schematic=4&participantId=C083122313ED412FA4EB27591D1A7887&assignmentId=0198ba02-09f2-70df-a834-48cb3972f4cc&projectId=0198b9d0-29d4-7df3-8625-4b4515841beb","C083122313ED412FA4EB27591D1A7887-2025-08-17-22-40-41","","2190","","images/causal_sequence/package_causal/package_causal_9.png","0","",""
