"success","timeout","failed_images","failed_audio","failed_video","trial_type","trial_index","time_elapsed","internal_node_id","subject","subject_id","study_id","session_id","urlvar","current_url","audio_id","view_history","rt","device_id","stimulus","response","estimated_stimulus_onset","seq_name"
"true","false","[]","[]","[]","preload","0","6846","0.0-0.0","C083122313ED412FA4EB27591D1A7887","C083122313ED412FA4EB27591D1A7887","f29bfd1c-fc27-478d-9d1b-8c3cea931b52","051c06f1-75cc-4548-856d-4923ddaba0dc","{""num_scrambled_semantic"":""8"",""num_scrambled_causal"":""4"",""num_scrambled_schematic"":""4"",""participantId"":""C083122313ED412FA4EB27591D1A7887"",""assignmentId"":""f29bfd1c-fc27-478d-9d1b-8c3cea931b52"",""projectId"":""051c06f1-75cc-4548-856d-4923ddaba0dc""}","https://test12345.live/?num_scrambled_semantic=8&num_scrambled_causal=4&num_scrambled_schematic=4&participantId=C083122313ED412FA4EB27591D1A7887&assignmentId=f29bfd1c-fc27-478d-9d1b-8c3cea931b52&projectId=051c06f1-75cc-4548-856d-4923ddaba0dc","C083122313ED412FA4EB27591D1A7887-2025-05-15-19-40-29","","","","","","",""
"","","","","","instructions","1","116666","0.0-1.0","C083122313ED412FA4EB27591D1A7887","C083122313ED412FA4EB27591D1A7887","f29bfd1c-fc27-478d-9d1b-8c3cea931b52","051c06f1-75cc-4548-856d-4923ddaba0dc","{""num_scrambled_semantic"":""8"",""num_scrambled_causal"":""4"",""num_scrambled_schematic"":""4"",""participantId"":""C083122313ED412FA4EB27591D1A7887"",""assignmentId"":""f29bfd1c-fc27-478d-9d1b-8c3cea931b52"",""projectId"":""051c06f1-75cc-4548-856d-4923ddaba0dc""}","https://test12345.live/?num_scrambled_semantic=8&num_scrambled_causal=4&num_scrambled_schematic=4&participantId=C083122313ED412FA4EB27591D1A7887&assignmentId=f29bfd1c-fc27-478d-9d1b-8c3cea931b52&projectId=051c06f1-75cc-4548-856d-4923ddaba0dc","C083122313ED412FA4EB27591D1A7887-2025-05-15-19-40-29","[{""page_index"":0,""viewing_time"":109819}]","109819","","","","",""
"","","","","","instructions","2","132604","0.0-2.0","C083122313ED412FA4EB27591D1A7887","C083122313ED412FA4EB27591D1A7887","f29bfd1c-fc27-478d-9d1b-8c3cea931b52","051c06f1-75cc-4548-856d-4923ddaba0dc","{""num_scrambled_semantic"":""8"",""num_scrambled_causal"":""4"",""num_scrambled_schematic"":""4"",""participantId"":""C083122313ED412FA4EB27591D1A7887"",""assignmentId"":""f29bfd1c-fc27-478d-9d1b-8c3cea931b52"",""projectId"":""051c06f1-75cc-4548-856d-4923ddaba0dc""}","https://test12345.live/?num_scrambled_semantic=8&num_scrambled_causal=4&num_scrambled_schematic=4&participantId=C083122313ED412FA4EB27591D1A7887&assignmentId=f29bfd1c-fc27-478d-9d1b-8c3cea931b52&projectId=051c06f1-75cc-4548-856d-4923ddaba0dc","C083122313ED412FA4EB27591D1A7887-2025-05-15-19-40-29","[{""page_index"":0,""viewing_time"":15937}]","15937","","","","",""
"true","","","","","fullscreen","3","137440","0.0-3.0","C083122313ED412FA4EB27591D1A7887","C083122313ED412FA4EB27591D1A7887","f29bfd1c-fc27-478d-9d1b-8c3cea931b52","051c06f1-75cc-4548-856d-4923ddaba0dc","{""num_scrambled_semantic"":""8"",""num_scrambled_causal"":""4"",""num_scrambled_schematic"":""4"",""participantId"":""C083122313ED412FA4EB27591D1A7887"",""assignmentId"":""f29bfd1c-fc27-478d-9d1b-8c3cea931b52"",""projectId"":""051c06f1-75cc-4548-856d-4923ddaba0dc""}","https://test12345.live/?num_scrambled_semantic=8&num_scrambled_causal=4&num_scrambled_schematic=4&participantId=C083122313ED412FA4EB27591D1A7887&assignmentId=f29bfd1c-fc27-478d-9d1b-8c3cea931b52&projectId=051c06f1-75cc-4548-856d-4923ddaba0dc","C083122313ED412FA4EB27591D1A7887-2025-05-15-19-40-29","","3815","","","","",""
"","","","","","initialize-microphone","4","149327","0.0-4.0-0.0","C083122313ED412FA4EB27591D1A7887","C083122313ED412FA4EB27591D1A7887","f29bfd1c-fc27-478d-9d1b-8c3cea931b52","051c06f1-75cc-4548-856d-4923ddaba0dc","{""num_scrambled_semantic"":""8"",""num_scrambled_causal"":""4"",""num_scrambled_schematic"":""4"",""participantId"":""C083122313ED412FA4EB27591D1A7887"",""assignmentId"":""f29bfd1c-fc27-478d-9d1b-8c3cea931b52"",""projectId"":""051c06f1-75cc-4548-856d-4923ddaba0dc""}","https://test12345.live/?num_scrambled_semantic=8&num_scrambled_causal=4&num_scrambled_schematic=4&participantId=C083122313ED412FA4EB27591D1A7887&assignmentId=f29bfd1c-fc27-478d-9d1b-8c3cea931b52&projectId=051c06f1-75cc-4548-856d-4923ddaba0dc","C083122313ED412FA4EB27591D1A7887-2025-05-15-19-40-29","","","c3c0e259ae5932d4c327cf2765f31d7bd13dff0bcd977f93fcfa810ab9d85cd5","","","",""
"","","","","","html-audio-response","5","166888","0.0-4.0-1.0","C083122313ED412FA4EB27591D1A7887","C083122313ED412FA4EB27591D1A7887","f29bfd1c-fc27-478d-9d1b-8c3cea931b52","051c06f1-75cc-4548-856d-4923ddaba0dc","{""num_scrambled_semantic"":""8"",""num_scrambled_causal"":""4"",""num_scrambled_schematic"":""4"",""participantId"":""C083122313ED412FA4EB27591D1A7887"",""assignmentId"":""f29bfd1c-fc27-478d-9d1b-8c3cea931b52"",""projectId"":""051c06f1-75cc-4548-856d-4923ddaba0dc""}","https://test12345.live/?num_scrambled_semantic=8&num_scrambled_causal=4&num_scrambled_schematic=4&participantId=C083122313ED412FA4EB27591D1A7887&assignmentId=f29bfd1c-fc27-478d-9d1b-8c3cea931b52&projectId=051c06f1-75cc-4548-856d-4923ddaba0dc","C083122313ED412FA4EB27591D1A7887-2025-05-15-19-40-29","","7894","","<span style=""color: red; font-size: 24px""> NOW RECORDING</span>
        <p>Please test Microphone</p>","","7",""
"","","","","","html-button-response","6","169492","0.0-4.0-2.0","C083122313ED412FA4EB27591D1A7887","C083122313ED412FA4EB27591D1A7887","f29bfd1c-fc27-478d-9d1b-8c3cea931b52","051c06f1-75cc-4548-856d-4923ddaba0dc","{""num_scrambled_semantic"":""8"",""num_scrambled_causal"":""4"",""num_scrambled_schematic"":""4"",""participantId"":""C083122313ED412FA4EB27591D1A7887"",""assignmentId"":""f29bfd1c-fc27-478d-9d1b-8c3cea931b52"",""projectId"":""051c06f1-75cc-4548-856d-4923ddaba0dc""}","https://test12345.live/?num_scrambled_semantic=8&num_scrambled_causal=4&num_scrambled_schematic=4&participantId=C083122313ED412FA4EB27591D1A7887&assignmentId=f29bfd1c-fc27-478d-9d1b-8c3cea931b52&projectId=051c06f1-75cc-4548-856d-4923ddaba0dc","C083122313ED412FA4EB27591D1A7887-2025-05-15-19-40-29","","2601","","<p style=""font-size:48px; color:red;"">Is Microphone OK?</p>","1","",""
"","","","","","instructions","7","193884","0.0-5.0","C083122313ED412FA4EB27591D1A7887","C083122313ED412FA4EB27591D1A7887","f29bfd1c-fc27-478d-9d1b-8c3cea931b52","051c06f1-75cc-4548-856d-4923ddaba0dc","{""num_scrambled_semantic"":""8"",""num_scrambled_causal"":""4"",""num_scrambled_schematic"":""4"",""participantId"":""C083122313ED412FA4EB27591D1A7887"",""assignmentId"":""f29bfd1c-fc27-478d-9d1b-8c3cea931b52"",""projectId"":""051c06f1-75cc-4548-856d-4923ddaba0dc""}","https://test12345.live/?num_scrambled_semantic=8&num_scrambled_causal=4&num_scrambled_schematic=4&participantId=C083122313ED412FA4EB27591D1A7887&assignmentId=f29bfd1c-fc27-478d-9d1b-8c3cea931b52&projectId=051c06f1-75cc-4548-856d-4923ddaba0dc","C083122313ED412FA4EB27591D1A7887-2025-05-15-19-40-29","[{""page_index"":0,""viewing_time"":5489},{""page_index"":1,""viewing_time"":18902}]","24391","","","","",""
"","","","","","image-button-response","8","199913","0.0-6.0-0.0","C083122313ED412FA4EB27591D1A7887","C083122313ED412FA4EB27591D1A7887","f29bfd1c-fc27-478d-9d1b-8c3cea931b52","051c06f1-75cc-4548-856d-4923ddaba0dc","{""num_scrambled_semantic"":""8"",""num_scrambled_causal"":""4"",""num_scrambled_schematic"":""4"",""participantId"":""C083122313ED412FA4EB27591D1A7887"",""assignmentId"":""f29bfd1c-fc27-478d-9d1b-8c3cea931b52"",""projectId"":""051c06f1-75cc-4548-856d-4923ddaba0dc""}","https://test12345.live/?num_scrambled_semantic=8&num_scrambled_causal=4&num_scrambled_schematic=4&participantId=C083122313ED412FA4EB27591D1A7887&assignmentId=f29bfd1c-fc27-478d-9d1b-8c3cea931b52&projectId=051c06f1-75cc-4548-856d-4923ddaba0dc","C083122313ED412FA4EB27591D1A7887-2025-05-15-19-40-29","","null","","images/instructions/movie_0.png","null","",""
"","","","","","image-button-response","9","204429","0.0-6.0-1.0-0.0","C083122313ED412FA4EB27591D1A7887","C083122313ED412FA4EB27591D1A7887","f29bfd1c-fc27-478d-9d1b-8c3cea931b52","051c06f1-75cc-4548-856d-4923ddaba0dc","{""num_scrambled_semantic"":""8"",""num_scrambled_causal"":""4"",""num_scrambled_schematic"":""4"",""participantId"":""C083122313ED412FA4EB27591D1A7887"",""assignmentId"":""f29bfd1c-fc27-478d-9d1b-8c3cea931b52"",""projectId"":""051c06f1-75cc-4548-856d-4923ddaba0dc""}","https://test12345.live/?num_scrambled_semantic=8&num_scrambled_causal=4&num_scrambled_schematic=4&participantId=C083122313ED412FA4EB27591D1A7887&assignmentId=f29bfd1c-fc27-478d-9d1b-8c3cea931b52&projectId=051c06f1-75cc-4548-856d-4923ddaba0dc","C083122313ED412FA4EB27591D1A7887-2025-05-15-19-40-29","","null","","images/instructions/movie_1.png","null","",""
"","","","","","image-button-response","10","207810","0.0-6.0-1.0-1.0","C083122313ED412FA4EB27591D1A7887","C083122313ED412FA4EB27591D1A7887","f29bfd1c-fc27-478d-9d1b-8c3cea931b52","051c06f1-75cc-4548-856d-4923ddaba0dc","{""num_scrambled_semantic"":""8"",""num_scrambled_causal"":""4"",""num_scrambled_schematic"":""4"",""participantId"":""C083122313ED412FA4EB27591D1A7887"",""assignmentId"":""f29bfd1c-fc27-478d-9d1b-8c3cea931b52"",""projectId"":""051c06f1-75cc-4548-856d-4923ddaba0dc""}","https://test12345.live/?num_scrambled_semantic=8&num_scrambled_causal=4&num_scrambled_schematic=4&participantId=C083122313ED412FA4EB27591D1A7887&assignmentId=f29bfd1c-fc27-478d-9d1b-8c3cea931b52&projectId=051c06f1-75cc-4548-856d-4923ddaba0dc","C083122313ED412FA4EB27591D1A7887-2025-05-15-19-40-29","","3377","","images/instructions/movie_1.png","0","",""
"","","","","","image-button-response","11","209622","0.0-6.0-1.0-2.0","C083122313ED412FA4EB27591D1A7887","C083122313ED412FA4EB27591D1A7887","f29bfd1c-fc27-478d-9d1b-8c3cea931b52","051c06f1-75cc-4548-856d-4923ddaba0dc","{""num_scrambled_semantic"":""8"",""num_scrambled_causal"":""4"",""num_scrambled_schematic"":""4"",""participantId"":""C083122313ED412FA4EB27591D1A7887"",""assignmentId"":""f29bfd1c-fc27-478d-9d1b-8c3cea931b52"",""projectId"":""051c06f1-75cc-4548-856d-4923ddaba0dc""}","https://test12345.live/?num_scrambled_semantic=8&num_scrambled_causal=4&num_scrambled_schematic=4&participantId=C083122313ED412FA4EB27591D1A7887&assignmentId=f29bfd1c-fc27-478d-9d1b-8c3cea931b52&projectId=051c06f1-75cc-4548-856d-4923ddaba0dc","C083122313ED412FA4EB27591D1A7887-2025-05-15-19-40-29","","null","","[]","null","",""
"","","","","","image-button-response","12","214136","0.0-6.0-1.0-0.1","C083122313ED412FA4EB27591D1A7887","C083122313ED412FA4EB27591D1A7887","f29bfd1c-fc27-478d-9d1b-8c3cea931b52","051c06f1-75cc-4548-856d-4923ddaba0dc","{""num_scrambled_semantic"":""8"",""num_scrambled_causal"":""4"",""num_scrambled_schematic"":""4"",""participantId"":""C083122313ED412FA4EB27591D1A7887"",""assignmentId"":""f29bfd1c-fc27-478d-9d1b-8c3cea931b52"",""projectId"":""051c06f1-75cc-4548-856d-4923ddaba0dc""}","https://test12345.live/?num_scrambled_semantic=8&num_scrambled_causal=4&num_scrambled_schematic=4&participantId=C083122313ED412FA4EB27591D1A7887&assignmentId=f29bfd1c-fc27-478d-9d1b-8c3cea931b52&projectId=051c06f1-75cc-4548-856d-4923ddaba0dc","C083122313ED412FA4EB27591D1A7887-2025-05-15-19-40-29","","null","","images/instructions/movie_2.png","null","",""
"","","","","","image-button-response","13","218150","0.0-6.0-1.0-1.1","C083122313ED412FA4EB27591D1A7887","C083122313ED412FA4EB27591D1A7887","f29bfd1c-fc27-478d-9d1b-8c3cea931b52","051c06f1-75cc-4548-856d-4923ddaba0dc","{""num_scrambled_semantic"":""8"",""num_scrambled_causal"":""4"",""num_scrambled_schematic"":""4"",""participantId"":""C083122313ED412FA4EB27591D1A7887"",""assignmentId"":""f29bfd1c-fc27-478d-9d1b-8c3cea931b52"",""projectId"":""051c06f1-75cc-4548-856d-4923ddaba0dc""}","https://test12345.live/?num_scrambled_semantic=8&num_scrambled_causal=4&num_scrambled_schematic=4&participantId=C083122313ED412FA4EB27591D1A7887&assignmentId=f29bfd1c-fc27-478d-9d1b-8c3cea931b52&projectId=051c06f1-75cc-4548-856d-4923ddaba0dc","C083122313ED412FA4EB27591D1A7887-2025-05-15-19-40-29","","null","","images/instructions/movie_2.png","null","",""
"","","","","","image-button-response","14","219964","0.0-6.0-1.0-2.1","C083122313ED412FA4EB27591D1A7887","C083122313ED412FA4EB27591D1A7887","f29bfd1c-fc27-478d-9d1b-8c3cea931b52","051c06f1-75cc-4548-856d-4923ddaba0dc","{""num_scrambled_semantic"":""8"",""num_scrambled_causal"":""4"",""num_scrambled_schematic"":""4"",""participantId"":""C083122313ED412FA4EB27591D1A7887"",""assignmentId"":""f29bfd1c-fc27-478d-9d1b-8c3cea931b52"",""projectId"":""051c06f1-75cc-4548-856d-4923ddaba0dc""}","https://test12345.live/?num_scrambled_semantic=8&num_scrambled_causal=4&num_scrambled_schematic=4&participantId=C083122313ED412FA4EB27591D1A7887&assignmentId=f29bfd1c-fc27-478d-9d1b-8c3cea931b52&projectId=051c06f1-75cc-4548-856d-4923ddaba0dc","C083122313ED412FA4EB27591D1A7887-2025-05-15-19-40-29","","null","","[]","null","",""
"","","","","","image-button-response","15","224471","0.0-6.0-1.0-0.2","C083122313ED412FA4EB27591D1A7887","C083122313ED412FA4EB27591D1A7887","f29bfd1c-fc27-478d-9d1b-8c3cea931b52","051c06f1-75cc-4548-856d-4923ddaba0dc","{""num_scrambled_semantic"":""8"",""num_scrambled_causal"":""4"",""num_scrambled_schematic"":""4"",""participantId"":""C083122313ED412FA4EB27591D1A7887"",""assignmentId"":""f29bfd1c-fc27-478d-9d1b-8c3cea931b52"",""projectId"":""051c06f1-75cc-4548-856d-4923ddaba0dc""}","https://test12345.live/?num_scrambled_semantic=8&num_scrambled_causal=4&num_scrambled_schematic=4&participantId=C083122313ED412FA4EB27591D1A7887&assignmentId=f29bfd1c-fc27-478d-9d1b-8c3cea931b52&projectId=051c06f1-75cc-4548-856d-4923ddaba0dc","C083122313ED412FA4EB27591D1A7887-2025-05-15-19-40-29","","null","","images/instructions/movie_3.png","null","",""
"","","","","","image-button-response","16","225656","0.0-6.0-1.0-1.2","C083122313ED412FA4EB27591D1A7887","C083122313ED412FA4EB27591D1A7887","f29bfd1c-fc27-478d-9d1b-8c3cea931b52","051c06f1-75cc-4548-856d-4923ddaba0dc","{""num_scrambled_semantic"":""8"",""num_scrambled_causal"":""4"",""num_scrambled_schematic"":""4"",""participantId"":""C083122313ED412FA4EB27591D1A7887"",""assignmentId"":""f29bfd1c-fc27-478d-9d1b-8c3cea931b52"",""projectId"":""051c06f1-75cc-4548-856d-4923ddaba0dc""}","https://test12345.live/?num_scrambled_semantic=8&num_scrambled_causal=4&num_scrambled_schematic=4&participantId=C083122313ED412FA4EB27591D1A7887&assignmentId=f29bfd1c-fc27-478d-9d1b-8c3cea931b52&projectId=051c06f1-75cc-4548-856d-4923ddaba0dc","C083122313ED412FA4EB27591D1A7887-2025-05-15-19-40-29","","1183","","images/instructions/movie_3.png","0","",""
"","","","","","image-button-response","17","227463","0.0-6.0-1.0-2.2","C083122313ED412FA4EB27591D1A7887","C083122313ED412FA4EB27591D1A7887","f29bfd1c-fc27-478d-9d1b-8c3cea931b52","051c06f1-75cc-4548-856d-4923ddaba0dc","{""num_scrambled_semantic"":""8"",""num_scrambled_causal"":""4"",""num_scrambled_schematic"":""4"",""participantId"":""C083122313ED412FA4EB27591D1A7887"",""assignmentId"":""f29bfd1c-fc27-478d-9d1b-8c3cea931b52"",""projectId"":""051c06f1-75cc-4548-856d-4923ddaba0dc""}","https://test12345.live/?num_scrambled_semantic=8&num_scrambled_causal=4&num_scrambled_schematic=4&participantId=C083122313ED412FA4EB27591D1A7887&assignmentId=f29bfd1c-fc27-478d-9d1b-8c3cea931b52&projectId=051c06f1-75cc-4548-856d-4923ddaba0dc","C083122313ED412FA4EB27591D1A7887-2025-05-15-19-40-29","","null","","[]","null","",""
"","","","","","image-button-response","18","231969","0.0-6.0-1.0-0.3","C083122313ED412FA4EB27591D1A7887","C083122313ED412FA4EB27591D1A7887","f29bfd1c-fc27-478d-9d1b-8c3cea931b52","051c06f1-75cc-4548-856d-4923ddaba0dc","{""num_scrambled_semantic"":""8"",""num_scrambled_causal"":""4"",""num_scrambled_schematic"":""4"",""participantId"":""C083122313ED412FA4EB27591D1A7887"",""assignmentId"":""f29bfd1c-fc27-478d-9d1b-8c3cea931b52"",""projectId"":""051c06f1-75cc-4548-856d-4923ddaba0dc""}","https://test12345.live/?num_scrambled_semantic=8&num_scrambled_causal=4&num_scrambled_schematic=4&participantId=C083122313ED412FA4EB27591D1A7887&assignmentId=f29bfd1c-fc27-478d-9d1b-8c3cea931b52&projectId=051c06f1-75cc-4548-856d-4923ddaba0dc","C083122313ED412FA4EB27591D1A7887-2025-05-15-19-40-29","","null","","images/instructions/movie_4.png","null","",""
"","","","","","image-button-response","19","233371","0.0-6.0-1.0-1.3","C083122313ED412FA4EB27591D1A7887","C083122313ED412FA4EB27591D1A7887","f29bfd1c-fc27-478d-9d1b-8c3cea931b52","051c06f1-75cc-4548-856d-4923ddaba0dc","{""num_scrambled_semantic"":""8"",""num_scrambled_causal"":""4"",""num_scrambled_schematic"":""4"",""participantId"":""C083122313ED412FA4EB27591D1A7887"",""assignmentId"":""f29bfd1c-fc27-478d-9d1b-8c3cea931b52"",""projectId"":""051c06f1-75cc-4548-856d-4923ddaba0dc""}","https://test12345.live/?num_scrambled_semantic=8&num_scrambled_causal=4&num_scrambled_schematic=4&participantId=C083122313ED412FA4EB27591D1A7887&assignmentId=f29bfd1c-fc27-478d-9d1b-8c3cea931b52&projectId=051c06f1-75cc-4548-856d-4923ddaba0dc","C083122313ED412FA4EB27591D1A7887-2025-05-15-19-40-29","","1401","","images/instructions/movie_4.png","0","",""
"","","","","","image-button-response","20","235174","0.0-6.0-1.0-2.3","C083122313ED412FA4EB27591D1A7887","C083122313ED412FA4EB27591D1A7887","f29bfd1c-fc27-478d-9d1b-8c3cea931b52","051c06f1-75cc-4548-856d-4923ddaba0dc","{""num_scrambled_semantic"":""8"",""num_scrambled_causal"":""4"",""num_scrambled_schematic"":""4"",""participantId"":""C083122313ED412FA4EB27591D1A7887"",""assignmentId"":""f29bfd1c-fc27-478d-9d1b-8c3cea931b52"",""projectId"":""051c06f1-75cc-4548-856d-4923ddaba0dc""}","https://test12345.live/?num_scrambled_semantic=8&num_scrambled_causal=4&num_scrambled_schematic=4&participantId=C083122313ED412FA4EB27591D1A7887&assignmentId=f29bfd1c-fc27-478d-9d1b-8c3cea931b52&projectId=051c06f1-75cc-4548-856d-4923ddaba0dc","C083122313ED412FA4EB27591D1A7887-2025-05-15-19-40-29","","null","","[]","null","",""
"","","","","","instructions","21","245489","0.0-7.0","C083122313ED412FA4EB27591D1A7887","C083122313ED412FA4EB27591D1A7887","f29bfd1c-fc27-478d-9d1b-8c3cea931b52","051c06f1-75cc-4548-856d-4923ddaba0dc","{""num_scrambled_semantic"":""8"",""num_scrambled_causal"":""4"",""num_scrambled_schematic"":""4"",""participantId"":""C083122313ED412FA4EB27591D1A7887"",""assignmentId"":""f29bfd1c-fc27-478d-9d1b-8c3cea931b52"",""projectId"":""051c06f1-75cc-4548-856d-4923ddaba0dc""}","https://test12345.live/?num_scrambled_semantic=8&num_scrambled_causal=4&num_scrambled_schematic=4&participantId=C083122313ED412FA4EB27591D1A7887&assignmentId=f29bfd1c-fc27-478d-9d1b-8c3cea931b52&projectId=051c06f1-75cc-4548-856d-4923ddaba0dc","C083122313ED412FA4EB27591D1A7887-2025-05-15-19-40-29","[{""page_index"":0,""viewing_time"":9108},{""page_index"":1,""viewing_time"":1207}]","10315","","","","",""
"","","","","","html-audio-response","22","278831","0.0-8.0","C083122313ED412FA4EB27591D1A7887","C083122313ED412FA4EB27591D1A7887","f29bfd1c-fc27-478d-9d1b-8c3cea931b52","051c06f1-75cc-4548-856d-4923ddaba0dc","{""num_scrambled_semantic"":""8"",""num_scrambled_causal"":""4"",""num_scrambled_schematic"":""4"",""participantId"":""C083122313ED412FA4EB27591D1A7887"",""assignmentId"":""f29bfd1c-fc27-478d-9d1b-8c3cea931b52"",""projectId"":""051c06f1-75cc-4548-856d-4923ddaba0dc""}","https://test12345.live/?num_scrambled_semantic=8&num_scrambled_causal=4&num_scrambled_schematic=4&participantId=C083122313ED412FA4EB27591D1A7887&assignmentId=f29bfd1c-fc27-478d-9d1b-8c3cea931b52&projectId=051c06f1-75cc-4548-856d-4923ddaba0dc","C083122313ED412FA4EB27591D1A7887-2025-05-15-19-40-29","","17692","","[""<span style=\""color: red; font-size: 24px\""> NOW RECORDING</span><p>Please say out loud all the images you saw, as many as you can remember. The images can be said in any order.</p>""]","","2",""
"","","","","","instructions","23","280252","0.0-9.0","C083122313ED412FA4EB27591D1A7887","C083122313ED412FA4EB27591D1A7887","f29bfd1c-fc27-478d-9d1b-8c3cea931b52","051c06f1-75cc-4548-856d-4923ddaba0dc","{""num_scrambled_semantic"":""8"",""num_scrambled_causal"":""4"",""num_scrambled_schematic"":""4"",""participantId"":""C083122313ED412FA4EB27591D1A7887"",""assignmentId"":""f29bfd1c-fc27-478d-9d1b-8c3cea931b52"",""projectId"":""051c06f1-75cc-4548-856d-4923ddaba0dc""}","https://test12345.live/?num_scrambled_semantic=8&num_scrambled_causal=4&num_scrambled_schematic=4&participantId=C083122313ED412FA4EB27591D1A7887&assignmentId=f29bfd1c-fc27-478d-9d1b-8c3cea931b52&projectId=051c06f1-75cc-4548-856d-4923ddaba0dc","C083122313ED412FA4EB27591D1A7887-2025-05-15-19-40-29","[{""page_index"":0,""viewing_time"":1413}]","1413","","","","",""
"","","","","","image-button-response","24","286269","0.0-10.0-0.0","C083122313ED412FA4EB27591D1A7887","C083122313ED412FA4EB27591D1A7887","f29bfd1c-fc27-478d-9d1b-8c3cea931b52","051c06f1-75cc-4548-856d-4923ddaba0dc","{""num_scrambled_semantic"":""8"",""num_scrambled_causal"":""4"",""num_scrambled_schematic"":""4"",""participantId"":""C083122313ED412FA4EB27591D1A7887"",""assignmentId"":""f29bfd1c-fc27-478d-9d1b-8c3cea931b52"",""projectId"":""051c06f1-75cc-4548-856d-4923ddaba0dc""}","https://test12345.live/?num_scrambled_semantic=8&num_scrambled_causal=4&num_scrambled_schematic=4&participantId=C083122313ED412FA4EB27591D1A7887&assignmentId=f29bfd1c-fc27-478d-9d1b-8c3cea931b52&projectId=051c06f1-75cc-4548-856d-4923ddaba0dc","C083122313ED412FA4EB27591D1A7887-2025-05-15-19-40-29","","null","","images/semantic_sequence/using_technology_semantic/using_technology_semantic_0.png","null","",""
"","","","","","image-button-response","25","290772","0.0-10.0-1.0-0.0","C083122313ED412FA4EB27591D1A7887","C083122313ED412FA4EB27591D1A7887","f29bfd1c-fc27-478d-9d1b-8c3cea931b52","051c06f1-75cc-4548-856d-4923ddaba0dc","{""num_scrambled_semantic"":""8"",""num_scrambled_causal"":""4"",""num_scrambled_schematic"":""4"",""participantId"":""C083122313ED412FA4EB27591D1A7887"",""assignmentId"":""f29bfd1c-fc27-478d-9d1b-8c3cea931b52"",""projectId"":""051c06f1-75cc-4548-856d-4923ddaba0dc""}","https://test12345.live/?num_scrambled_semantic=8&num_scrambled_causal=4&num_scrambled_schematic=4&participantId=C083122313ED412FA4EB27591D1A7887&assignmentId=f29bfd1c-fc27-478d-9d1b-8c3cea931b52&projectId=051c06f1-75cc-4548-856d-4923ddaba0dc","C083122313ED412FA4EB27591D1A7887-2025-05-15-19-40-29","","null","","images/semantic_sequence/using_technology_semantic/using_technology_semantic_1.png","null","",""
"","","","","","image-button-response","26","291906","0.0-10.0-1.0-1.0","C083122313ED412FA4EB27591D1A7887","C083122313ED412FA4EB27591D1A7887","f29bfd1c-fc27-478d-9d1b-8c3cea931b52","051c06f1-75cc-4548-856d-4923ddaba0dc","{""num_scrambled_semantic"":""8"",""num_scrambled_causal"":""4"",""num_scrambled_schematic"":""4"",""participantId"":""C083122313ED412FA4EB27591D1A7887"",""assignmentId"":""f29bfd1c-fc27-478d-9d1b-8c3cea931b52"",""projectId"":""051c06f1-75cc-4548-856d-4923ddaba0dc""}","https://test12345.live/?num_scrambled_semantic=8&num_scrambled_causal=4&num_scrambled_schematic=4&participantId=C083122313ED412FA4EB27591D1A7887&assignmentId=f29bfd1c-fc27-478d-9d1b-8c3cea931b52&projectId=051c06f1-75cc-4548-856d-4923ddaba0dc","C083122313ED412FA4EB27591D1A7887-2025-05-15-19-40-29","","1132","","images/semantic_sequence/using_technology_semantic/using_technology_semantic_1.png","0","",""
"","","","","","image-button-response","27","293720","0.0-10.0-1.0-2.0","C083122313ED412FA4EB27591D1A7887","C083122313ED412FA4EB27591D1A7887","f29bfd1c-fc27-478d-9d1b-8c3cea931b52","051c06f1-75cc-4548-856d-4923ddaba0dc","{""num_scrambled_semantic"":""8"",""num_scrambled_causal"":""4"",""num_scrambled_schematic"":""4"",""participantId"":""C083122313ED412FA4EB27591D1A7887"",""assignmentId"":""f29bfd1c-fc27-478d-9d1b-8c3cea931b52"",""projectId"":""051c06f1-75cc-4548-856d-4923ddaba0dc""}","https://test12345.live/?num_scrambled_semantic=8&num_scrambled_causal=4&num_scrambled_schematic=4&participantId=C083122313ED412FA4EB27591D1A7887&assignmentId=f29bfd1c-fc27-478d-9d1b-8c3cea931b52&projectId=051c06f1-75cc-4548-856d-4923ddaba0dc","C083122313ED412FA4EB27591D1A7887-2025-05-15-19-40-29","","null","","[]","null","",""
"","","","","","image-button-response","28","298222","0.0-10.0-1.0-0.1","C083122313ED412FA4EB27591D1A7887","C083122313ED412FA4EB27591D1A7887","f29bfd1c-fc27-478d-9d1b-8c3cea931b52","051c06f1-75cc-4548-856d-4923ddaba0dc","{""num_scrambled_semantic"":""8"",""num_scrambled_causal"":""4"",""num_scrambled_schematic"":""4"",""participantId"":""C083122313ED412FA4EB27591D1A7887"",""assignmentId"":""f29bfd1c-fc27-478d-9d1b-8c3cea931b52"",""projectId"":""051c06f1-75cc-4548-856d-4923ddaba0dc""}","https://test12345.live/?num_scrambled_semantic=8&num_scrambled_causal=4&num_scrambled_schematic=4&participantId=C083122313ED412FA4EB27591D1A7887&assignmentId=f29bfd1c-fc27-478d-9d1b-8c3cea931b52&projectId=051c06f1-75cc-4548-856d-4923ddaba0dc","C083122313ED412FA4EB27591D1A7887-2025-05-15-19-40-29","","null","","images/semantic_sequence/using_technology_semantic/using_technology_semantic_2.png","null","",""
"","","","","","image-button-response","29","299641","0.0-10.0-1.0-1.1","C083122313ED412FA4EB27591D1A7887","C083122313ED412FA4EB27591D1A7887","f29bfd1c-fc27-478d-9d1b-8c3cea931b52","051c06f1-75cc-4548-856d-4923ddaba0dc","{""num_scrambled_semantic"":""8"",""num_scrambled_causal"":""4"",""num_scrambled_schematic"":""4"",""participantId"":""C083122313ED412FA4EB27591D1A7887"",""assignmentId"":""f29bfd1c-fc27-478d-9d1b-8c3cea931b52"",""projectId"":""051c06f1-75cc-4548-856d-4923ddaba0dc""}","https://test12345.live/?num_scrambled_semantic=8&num_scrambled_causal=4&num_scrambled_schematic=4&participantId=C083122313ED412FA4EB27591D1A7887&assignmentId=f29bfd1c-fc27-478d-9d1b-8c3cea931b52&projectId=051c06f1-75cc-4548-856d-4923ddaba0dc","C083122313ED412FA4EB27591D1A7887-2025-05-15-19-40-29","","1417","","images/semantic_sequence/using_technology_semantic/using_technology_semantic_2.png","0","",""
"","","","","","image-button-response","30","301454","0.0-10.0-1.0-2.1","C083122313ED412FA4EB27591D1A7887","C083122313ED412FA4EB27591D1A7887","f29bfd1c-fc27-478d-9d1b-8c3cea931b52","051c06f1-75cc-4548-856d-4923ddaba0dc","{""num_scrambled_semantic"":""8"",""num_scrambled_causal"":""4"",""num_scrambled_schematic"":""4"",""participantId"":""C083122313ED412FA4EB27591D1A7887"",""assignmentId"":""f29bfd1c-fc27-478d-9d1b-8c3cea931b52"",""projectId"":""051c06f1-75cc-4548-856d-4923ddaba0dc""}","https://test12345.live/?num_scrambled_semantic=8&num_scrambled_causal=4&num_scrambled_schematic=4&participantId=C083122313ED412FA4EB27591D1A7887&assignmentId=f29bfd1c-fc27-478d-9d1b-8c3cea931b52&projectId=051c06f1-75cc-4548-856d-4923ddaba0dc","C083122313ED412FA4EB27591D1A7887-2025-05-15-19-40-29","","null","","[]","null","",""
"","","","","","image-button-response","31","305965","0.0-10.0-1.0-0.2","C083122313ED412FA4EB27591D1A7887","C083122313ED412FA4EB27591D1A7887","f29bfd1c-fc27-478d-9d1b-8c3cea931b52","051c06f1-75cc-4548-856d-4923ddaba0dc","{""num_scrambled_semantic"":""8"",""num_scrambled_causal"":""4"",""num_scrambled_schematic"":""4"",""participantId"":""C083122313ED412FA4EB27591D1A7887"",""assignmentId"":""f29bfd1c-fc27-478d-9d1b-8c3cea931b52"",""projectId"":""051c06f1-75cc-4548-856d-4923ddaba0dc""}","https://test12345.live/?num_scrambled_semantic=8&num_scrambled_causal=4&num_scrambled_schematic=4&participantId=C083122313ED412FA4EB27591D1A7887&assignmentId=f29bfd1c-fc27-478d-9d1b-8c3cea931b52&projectId=051c06f1-75cc-4548-856d-4923ddaba0dc","C083122313ED412FA4EB27591D1A7887-2025-05-15-19-40-29","","null","","images/semantic_sequence/using_technology_semantic/using_technology_semantic_3.png","null","",""
"","","","","","image-button-response","32","307121","0.0-10.0-1.0-1.2","C083122313ED412FA4EB27591D1A7887","C083122313ED412FA4EB27591D1A7887","f29bfd1c-fc27-478d-9d1b-8c3cea931b52","051c06f1-75cc-4548-856d-4923ddaba0dc","{""num_scrambled_semantic"":""8"",""num_scrambled_causal"":""4"",""num_scrambled_schematic"":""4"",""participantId"":""C083122313ED412FA4EB27591D1A7887"",""assignmentId"":""f29bfd1c-fc27-478d-9d1b-8c3cea931b52"",""projectId"":""051c06f1-75cc-4548-856d-4923ddaba0dc""}","https://test12345.live/?num_scrambled_semantic=8&num_scrambled_causal=4&num_scrambled_schematic=4&participantId=C083122313ED412FA4EB27591D1A7887&assignmentId=f29bfd1c-fc27-478d-9d1b-8c3cea931b52&projectId=051c06f1-75cc-4548-856d-4923ddaba0dc","C083122313ED412FA4EB27591D1A7887-2025-05-15-19-40-29","","1154","","images/semantic_sequence/using_technology_semantic/using_technology_semantic_3.png","0","",""
"","","","","","image-button-response","33","308924","0.0-10.0-1.0-2.2","C083122313ED412FA4EB27591D1A7887","C083122313ED412FA4EB27591D1A7887","f29bfd1c-fc27-478d-9d1b-8c3cea931b52","051c06f1-75cc-4548-856d-4923ddaba0dc","{""num_scrambled_semantic"":""8"",""num_scrambled_causal"":""4"",""num_scrambled_schematic"":""4"",""participantId"":""C083122313ED412FA4EB27591D1A7887"",""assignmentId"":""f29bfd1c-fc27-478d-9d1b-8c3cea931b52"",""projectId"":""051c06f1-75cc-4548-856d-4923ddaba0dc""}","https://test12345.live/?num_scrambled_semantic=8&num_scrambled_causal=4&num_scrambled_schematic=4&participantId=C083122313ED412FA4EB27591D1A7887&assignmentId=f29bfd1c-fc27-478d-9d1b-8c3cea931b52&projectId=051c06f1-75cc-4548-856d-4923ddaba0dc","C083122313ED412FA4EB27591D1A7887-2025-05-15-19-40-29","","null","","[]","null","",""
"","","","","","image-button-response","34","313441","0.0-10.0-1.0-0.3","C083122313ED412FA4EB27591D1A7887","C083122313ED412FA4EB27591D1A7887","f29bfd1c-fc27-478d-9d1b-8c3cea931b52","051c06f1-75cc-4548-856d-4923ddaba0dc","{""num_scrambled_semantic"":""8"",""num_scrambled_causal"":""4"",""num_scrambled_schematic"":""4"",""participantId"":""C083122313ED412FA4EB27591D1A7887"",""assignmentId"":""f29bfd1c-fc27-478d-9d1b-8c3cea931b52"",""projectId"":""051c06f1-75cc-4548-856d-4923ddaba0dc""}","https://test12345.live/?num_scrambled_semantic=8&num_scrambled_causal=4&num_scrambled_schematic=4&participantId=C083122313ED412FA4EB27591D1A7887&assignmentId=f29bfd1c-fc27-478d-9d1b-8c3cea931b52&projectId=051c06f1-75cc-4548-856d-4923ddaba0dc","C083122313ED412FA4EB27591D1A7887-2025-05-15-19-40-29","","null","","images/semantic_sequence/using_technology_semantic/using_technology_semantic_4.png","null","",""
"","","","","","image-button-response","35","314689","0.0-10.0-1.0-1.3","C083122313ED412FA4EB27591D1A7887","C083122313ED412FA4EB27591D1A7887","f29bfd1c-fc27-478d-9d1b-8c3cea931b52","051c06f1-75cc-4548-856d-4923ddaba0dc","{""num_scrambled_semantic"":""8"",""num_scrambled_causal"":""4"",""num_scrambled_schematic"":""4"",""participantId"":""C083122313ED412FA4EB27591D1A7887"",""assignmentId"":""f29bfd1c-fc27-478d-9d1b-8c3cea931b52"",""projectId"":""051c06f1-75cc-4548-856d-4923ddaba0dc""}","https://test12345.live/?num_scrambled_semantic=8&num_scrambled_causal=4&num_scrambled_schematic=4&participantId=C083122313ED412FA4EB27591D1A7887&assignmentId=f29bfd1c-fc27-478d-9d1b-8c3cea931b52&projectId=051c06f1-75cc-4548-856d-4923ddaba0dc","C083122313ED412FA4EB27591D1A7887-2025-05-15-19-40-29","","1246","","images/semantic_sequence/using_technology_semantic/using_technology_semantic_4.png","0","",""
"","","","","","image-button-response","36","316499","0.0-10.0-1.0-2.3","C083122313ED412FA4EB27591D1A7887","C083122313ED412FA4EB27591D1A7887","f29bfd1c-fc27-478d-9d1b-8c3cea931b52","051c06f1-75cc-4548-856d-4923ddaba0dc","{""num_scrambled_semantic"":""8"",""num_scrambled_causal"":""4"",""num_scrambled_schematic"":""4"",""participantId"":""C083122313ED412FA4EB27591D1A7887"",""assignmentId"":""f29bfd1c-fc27-478d-9d1b-8c3cea931b52"",""projectId"":""051c06f1-75cc-4548-856d-4923ddaba0dc""}","https://test12345.live/?num_scrambled_semantic=8&num_scrambled_causal=4&num_scrambled_schematic=4&participantId=C083122313ED412FA4EB27591D1A7887&assignmentId=f29bfd1c-fc27-478d-9d1b-8c3cea931b52&projectId=051c06f1-75cc-4548-856d-4923ddaba0dc","C083122313ED412FA4EB27591D1A7887-2025-05-15-19-40-29","","null","","[]","null","",""
"","","","","","image-button-response","37","321016","0.0-10.0-1.0-0.4","C083122313ED412FA4EB27591D1A7887","C083122313ED412FA4EB27591D1A7887","f29bfd1c-fc27-478d-9d1b-8c3cea931b52","051c06f1-75cc-4548-856d-4923ddaba0dc","{""num_scrambled_semantic"":""8"",""num_scrambled_causal"":""4"",""num_scrambled_schematic"":""4"",""participantId"":""C083122313ED412FA4EB27591D1A7887"",""assignmentId"":""f29bfd1c-fc27-478d-9d1b-8c3cea931b52"",""projectId"":""051c06f1-75cc-4548-856d-4923ddaba0dc""}","https://test12345.live/?num_scrambled_semantic=8&num_scrambled_causal=4&num_scrambled_schematic=4&participantId=C083122313ED412FA4EB27591D1A7887&assignmentId=f29bfd1c-fc27-478d-9d1b-8c3cea931b52&projectId=051c06f1-75cc-4548-856d-4923ddaba0dc","C083122313ED412FA4EB27591D1A7887-2025-05-15-19-40-29","","null","","images/semantic_sequence/using_technology_semantic/using_technology_semantic_5.png","null","",""
"","","","","","image-button-response","38","322022","0.0-10.0-1.0-1.4","C083122313ED412FA4EB27591D1A7887","C083122313ED412FA4EB27591D1A7887","f29bfd1c-fc27-478d-9d1b-8c3cea931b52","051c06f1-75cc-4548-856d-4923ddaba0dc","{""num_scrambled_semantic"":""8"",""num_scrambled_causal"":""4"",""num_scrambled_schematic"":""4"",""participantId"":""C083122313ED412FA4EB27591D1A7887"",""assignmentId"":""f29bfd1c-fc27-478d-9d1b-8c3cea931b52"",""projectId"":""051c06f1-75cc-4548-856d-4923ddaba0dc""}","https://test12345.live/?num_scrambled_semantic=8&num_scrambled_causal=4&num_scrambled_schematic=4&participantId=C083122313ED412FA4EB27591D1A7887&assignmentId=f29bfd1c-fc27-478d-9d1b-8c3cea931b52&projectId=051c06f1-75cc-4548-856d-4923ddaba0dc","C083122313ED412FA4EB27591D1A7887-2025-05-15-19-40-29","","1005","","images/semantic_sequence/using_technology_semantic/using_technology_semantic_5.png","0","",""
"","","","","","image-button-response","39","323834","0.0-10.0-1.0-2.4","C083122313ED412FA4EB27591D1A7887","C083122313ED412FA4EB27591D1A7887","f29bfd1c-fc27-478d-9d1b-8c3cea931b52","051c06f1-75cc-4548-856d-4923ddaba0dc","{""num_scrambled_semantic"":""8"",""num_scrambled_causal"":""4"",""num_scrambled_schematic"":""4"",""participantId"":""C083122313ED412FA4EB27591D1A7887"",""assignmentId"":""f29bfd1c-fc27-478d-9d1b-8c3cea931b52"",""projectId"":""051c06f1-75cc-4548-856d-4923ddaba0dc""}","https://test12345.live/?num_scrambled_semantic=8&num_scrambled_causal=4&num_scrambled_schematic=4&participantId=C083122313ED412FA4EB27591D1A7887&assignmentId=f29bfd1c-fc27-478d-9d1b-8c3cea931b52&projectId=051c06f1-75cc-4548-856d-4923ddaba0dc","C083122313ED412FA4EB27591D1A7887-2025-05-15-19-40-29","","null","","[]","null","",""
"","","","","","image-button-response","40","328336","0.0-10.0-1.0-0.5","C083122313ED412FA4EB27591D1A7887","C083122313ED412FA4EB27591D1A7887","f29bfd1c-fc27-478d-9d1b-8c3cea931b52","051c06f1-75cc-4548-856d-4923ddaba0dc","{""num_scrambled_semantic"":""8"",""num_scrambled_causal"":""4"",""num_scrambled_schematic"":""4"",""participantId"":""C083122313ED412FA4EB27591D1A7887"",""assignmentId"":""f29bfd1c-fc27-478d-9d1b-8c3cea931b52"",""projectId"":""051c06f1-75cc-4548-856d-4923ddaba0dc""}","https://test12345.live/?num_scrambled_semantic=8&num_scrambled_causal=4&num_scrambled_schematic=4&participantId=C083122313ED412FA4EB27591D1A7887&assignmentId=f29bfd1c-fc27-478d-9d1b-8c3cea931b52&projectId=051c06f1-75cc-4548-856d-4923ddaba0dc","C083122313ED412FA4EB27591D1A7887-2025-05-15-19-40-29","","null","","images/semantic_sequence/using_technology_semantic/using_technology_semantic_6.png","null","",""
"","","","","","image-button-response","41","329101","0.0-10.0-1.0-1.5","C083122313ED412FA4EB27591D1A7887","C083122313ED412FA4EB27591D1A7887","f29bfd1c-fc27-478d-9d1b-8c3cea931b52","051c06f1-75cc-4548-856d-4923ddaba0dc","{""num_scrambled_semantic"":""8"",""num_scrambled_causal"":""4"",""num_scrambled_schematic"":""4"",""participantId"":""C083122313ED412FA4EB27591D1A7887"",""assignmentId"":""f29bfd1c-fc27-478d-9d1b-8c3cea931b52"",""projectId"":""051c06f1-75cc-4548-856d-4923ddaba0dc""}","https://test12345.live/?num_scrambled_semantic=8&num_scrambled_causal=4&num_scrambled_schematic=4&participantId=C083122313ED412FA4EB27591D1A7887&assignmentId=f29bfd1c-fc27-478d-9d1b-8c3cea931b52&projectId=051c06f1-75cc-4548-856d-4923ddaba0dc","C083122313ED412FA4EB27591D1A7887-2025-05-15-19-40-29","","762","","images/semantic_sequence/using_technology_semantic/using_technology_semantic_6.png","0","",""
"","","","","","image-button-response","42","330916","0.0-10.0-1.0-2.5","C083122313ED412FA4EB27591D1A7887","C083122313ED412FA4EB27591D1A7887","f29bfd1c-fc27-478d-9d1b-8c3cea931b52","051c06f1-75cc-4548-856d-4923ddaba0dc","{""num_scrambled_semantic"":""8"",""num_scrambled_causal"":""4"",""num_scrambled_schematic"":""4"",""participantId"":""C083122313ED412FA4EB27591D1A7887"",""assignmentId"":""f29bfd1c-fc27-478d-9d1b-8c3cea931b52"",""projectId"":""051c06f1-75cc-4548-856d-4923ddaba0dc""}","https://test12345.live/?num_scrambled_semantic=8&num_scrambled_causal=4&num_scrambled_schematic=4&participantId=C083122313ED412FA4EB27591D1A7887&assignmentId=f29bfd1c-fc27-478d-9d1b-8c3cea931b52&projectId=051c06f1-75cc-4548-856d-4923ddaba0dc","C083122313ED412FA4EB27591D1A7887-2025-05-15-19-40-29","","null","","[]","null","",""
"","","","","","image-button-response","43","335434","0.0-10.0-1.0-0.6","C083122313ED412FA4EB27591D1A7887","C083122313ED412FA4EB27591D1A7887","f29bfd1c-fc27-478d-9d1b-8c3cea931b52","051c06f1-75cc-4548-856d-4923ddaba0dc","{""num_scrambled_semantic"":""8"",""num_scrambled_causal"":""4"",""num_scrambled_schematic"":""4"",""participantId"":""C083122313ED412FA4EB27591D1A7887"",""assignmentId"":""f29bfd1c-fc27-478d-9d1b-8c3cea931b52"",""projectId"":""051c06f1-75cc-4548-856d-4923ddaba0dc""}","https://test12345.live/?num_scrambled_semantic=8&num_scrambled_causal=4&num_scrambled_schematic=4&participantId=C083122313ED412FA4EB27591D1A7887&assignmentId=f29bfd1c-fc27-478d-9d1b-8c3cea931b52&projectId=051c06f1-75cc-4548-856d-4923ddaba0dc","C083122313ED412FA4EB27591D1A7887-2025-05-15-19-40-29","","null","","images/semantic_sequence/using_technology_semantic/using_technology_semantic_7.png","null","",""
"","","","","","image-button-response","44","336241","0.0-10.0-1.0-1.6","C083122313ED412FA4EB27591D1A7887","C083122313ED412FA4EB27591D1A7887","f29bfd1c-fc27-478d-9d1b-8c3cea931b52","051c06f1-75cc-4548-856d-4923ddaba0dc","{""num_scrambled_semantic"":""8"",""num_scrambled_causal"":""4"",""num_scrambled_schematic"":""4"",""participantId"":""C083122313ED412FA4EB27591D1A7887"",""assignmentId"":""f29bfd1c-fc27-478d-9d1b-8c3cea931b52"",""projectId"":""051c06f1-75cc-4548-856d-4923ddaba0dc""}","https://test12345.live/?num_scrambled_semantic=8&num_scrambled_causal=4&num_scrambled_schematic=4&participantId=C083122313ED412FA4EB27591D1A7887&assignmentId=f29bfd1c-fc27-478d-9d1b-8c3cea931b52&projectId=051c06f1-75cc-4548-856d-4923ddaba0dc","C083122313ED412FA4EB27591D1A7887-2025-05-15-19-40-29","","805","","images/semantic_sequence/using_technology_semantic/using_technology_semantic_7.png","0","",""
"","","","","","image-button-response","45","338056","0.0-10.0-1.0-2.6","C083122313ED412FA4EB27591D1A7887","C083122313ED412FA4EB27591D1A7887","f29bfd1c-fc27-478d-9d1b-8c3cea931b52","051c06f1-75cc-4548-856d-4923ddaba0dc","{""num_scrambled_semantic"":""8"",""num_scrambled_causal"":""4"",""num_scrambled_schematic"":""4"",""participantId"":""C083122313ED412FA4EB27591D1A7887"",""assignmentId"":""f29bfd1c-fc27-478d-9d1b-8c3cea931b52"",""projectId"":""051c06f1-75cc-4548-856d-4923ddaba0dc""}","https://test12345.live/?num_scrambled_semantic=8&num_scrambled_causal=4&num_scrambled_schematic=4&participantId=C083122313ED412FA4EB27591D1A7887&assignmentId=f29bfd1c-fc27-478d-9d1b-8c3cea931b52&projectId=051c06f1-75cc-4548-856d-4923ddaba0dc","C083122313ED412FA4EB27591D1A7887-2025-05-15-19-40-29","","null","","[]","null","",""
"","","","","","image-button-response","46","342566","0.0-10.0-1.0-0.7","C083122313ED412FA4EB27591D1A7887","C083122313ED412FA4EB27591D1A7887","f29bfd1c-fc27-478d-9d1b-8c3cea931b52","051c06f1-75cc-4548-856d-4923ddaba0dc","{""num_scrambled_semantic"":""8"",""num_scrambled_causal"":""4"",""num_scrambled_schematic"":""4"",""participantId"":""C083122313ED412FA4EB27591D1A7887"",""assignmentId"":""f29bfd1c-fc27-478d-9d1b-8c3cea931b52"",""projectId"":""051c06f1-75cc-4548-856d-4923ddaba0dc""}","https://test12345.live/?num_scrambled_semantic=8&num_scrambled_causal=4&num_scrambled_schematic=4&participantId=C083122313ED412FA4EB27591D1A7887&assignmentId=f29bfd1c-fc27-478d-9d1b-8c3cea931b52&projectId=051c06f1-75cc-4548-856d-4923ddaba0dc","C083122313ED412FA4EB27591D1A7887-2025-05-15-19-40-29","","null","","images/semantic_sequence/using_technology_semantic/using_technology_semantic_8.png","null","",""
"","","","","","image-button-response","47","344802","0.0-10.0-1.0-1.7","C083122313ED412FA4EB27591D1A7887","C083122313ED412FA4EB27591D1A7887","f29bfd1c-fc27-478d-9d1b-8c3cea931b52","051c06f1-75cc-4548-856d-4923ddaba0dc","{""num_scrambled_semantic"":""8"",""num_scrambled_causal"":""4"",""num_scrambled_schematic"":""4"",""participantId"":""C083122313ED412FA4EB27591D1A7887"",""assignmentId"":""f29bfd1c-fc27-478d-9d1b-8c3cea931b52"",""projectId"":""051c06f1-75cc-4548-856d-4923ddaba0dc""}","https://test12345.live/?num_scrambled_semantic=8&num_scrambled_causal=4&num_scrambled_schematic=4&participantId=C083122313ED412FA4EB27591D1A7887&assignmentId=f29bfd1c-fc27-478d-9d1b-8c3cea931b52&projectId=051c06f1-75cc-4548-856d-4923ddaba0dc","C083122313ED412FA4EB27591D1A7887-2025-05-15-19-40-29","","2234","","images/semantic_sequence/using_technology_semantic/using_technology_semantic_8.png","0","",""
"","","","","","image-button-response","48","346611","0.0-10.0-1.0-2.7","C083122313ED412FA4EB27591D1A7887","C083122313ED412FA4EB27591D1A7887","f29bfd1c-fc27-478d-9d1b-8c3cea931b52","051c06f1-75cc-4548-856d-4923ddaba0dc","{""num_scrambled_semantic"":""8"",""num_scrambled_causal"":""4"",""num_scrambled_schematic"":""4"",""participantId"":""C083122313ED412FA4EB27591D1A7887"",""assignmentId"":""f29bfd1c-fc27-478d-9d1b-8c3cea931b52"",""projectId"":""051c06f1-75cc-4548-856d-4923ddaba0dc""}","https://test12345.live/?num_scrambled_semantic=8&num_scrambled_causal=4&num_scrambled_schematic=4&participantId=C083122313ED412FA4EB27591D1A7887&assignmentId=f29bfd1c-fc27-478d-9d1b-8c3cea931b52&projectId=051c06f1-75cc-4548-856d-4923ddaba0dc","C083122313ED412FA4EB27591D1A7887-2025-05-15-19-40-29","","null","","[]","null","",""
"","","","","","image-button-response","49","351122","0.0-10.0-1.0-0.8","C083122313ED412FA4EB27591D1A7887","C083122313ED412FA4EB27591D1A7887","f29bfd1c-fc27-478d-9d1b-8c3cea931b52","051c06f1-75cc-4548-856d-4923ddaba0dc","{""num_scrambled_semantic"":""8"",""num_scrambled_causal"":""4"",""num_scrambled_schematic"":""4"",""participantId"":""C083122313ED412FA4EB27591D1A7887"",""assignmentId"":""f29bfd1c-fc27-478d-9d1b-8c3cea931b52"",""projectId"":""051c06f1-75cc-4548-856d-4923ddaba0dc""}","https://test12345.live/?num_scrambled_semantic=8&num_scrambled_causal=4&num_scrambled_schematic=4&participantId=C083122313ED412FA4EB27591D1A7887&assignmentId=f29bfd1c-fc27-478d-9d1b-8c3cea931b52&projectId=051c06f1-75cc-4548-856d-4923ddaba0dc","C083122313ED412FA4EB27591D1A7887-2025-05-15-19-40-29","","null","","images/semantic_sequence/using_technology_semantic/using_technology_semantic_9.png","null","",""
"","","","","","image-button-response","50","351769","0.0-10.0-1.0-1.8","C083122313ED412FA4EB27591D1A7887","C083122313ED412FA4EB27591D1A7887","f29bfd1c-fc27-478d-9d1b-8c3cea931b52","051c06f1-75cc-4548-856d-4923ddaba0dc","{""num_scrambled_semantic"":""8"",""num_scrambled_causal"":""4"",""num_scrambled_schematic"":""4"",""participantId"":""C083122313ED412FA4EB27591D1A7887"",""assignmentId"":""f29bfd1c-fc27-478d-9d1b-8c3cea931b52"",""projectId"":""051c06f1-75cc-4548-856d-4923ddaba0dc""}","https://test12345.live/?num_scrambled_semantic=8&num_scrambled_causal=4&num_scrambled_schematic=4&participantId=C083122313ED412FA4EB27591D1A7887&assignmentId=f29bfd1c-fc27-478d-9d1b-8c3cea931b52&projectId=051c06f1-75cc-4548-856d-4923ddaba0dc","C083122313ED412FA4EB27591D1A7887-2025-05-15-19-40-29","","646","","images/semantic_sequence/using_technology_semantic/using_technology_semantic_9.png","0","",""
"","","","","","image-button-response","51","353584","0.0-10.0-1.0-2.8","C083122313ED412FA4EB27591D1A7887","C083122313ED412FA4EB27591D1A7887","f29bfd1c-fc27-478d-9d1b-8c3cea931b52","051c06f1-75cc-4548-856d-4923ddaba0dc","{""num_scrambled_semantic"":""8"",""num_scrambled_causal"":""4"",""num_scrambled_schematic"":""4"",""participantId"":""C083122313ED412FA4EB27591D1A7887"",""assignmentId"":""f29bfd1c-fc27-478d-9d1b-8c3cea931b52"",""projectId"":""051c06f1-75cc-4548-856d-4923ddaba0dc""}","https://test12345.live/?num_scrambled_semantic=8&num_scrambled_causal=4&num_scrambled_schematic=4&participantId=C083122313ED412FA4EB27591D1A7887&assignmentId=f29bfd1c-fc27-478d-9d1b-8c3cea931b52&projectId=051c06f1-75cc-4548-856d-4923ddaba0dc","C083122313ED412FA4EB27591D1A7887-2025-05-15-19-40-29","","null","","[]","null","",""
"","","","","","image-button-response","52","358090","0.0-10.0-1.0-0.9","C083122313ED412FA4EB27591D1A7887","C083122313ED412FA4EB27591D1A7887","f29bfd1c-fc27-478d-9d1b-8c3cea931b52","051c06f1-75cc-4548-856d-4923ddaba0dc","{""num_scrambled_semantic"":""8"",""num_scrambled_causal"":""4"",""num_scrambled_schematic"":""4"",""participantId"":""C083122313ED412FA4EB27591D1A7887"",""assignmentId"":""f29bfd1c-fc27-478d-9d1b-8c3cea931b52"",""projectId"":""051c06f1-75cc-4548-856d-4923ddaba0dc""}","https://test12345.live/?num_scrambled_semantic=8&num_scrambled_causal=4&num_scrambled_schematic=4&participantId=C083122313ED412FA4EB27591D1A7887&assignmentId=f29bfd1c-fc27-478d-9d1b-8c3cea931b52&projectId=051c06f1-75cc-4548-856d-4923ddaba0dc","C083122313ED412FA4EB27591D1A7887-2025-05-15-19-40-29","","null","","images/semantic_sequence/using_technology_semantic/using_technology_semantic_ten.png","null","",""
"","","","","","image-button-response","53","359023","0.0-10.0-1.0-1.9","C083122313ED412FA4EB27591D1A7887","C083122313ED412FA4EB27591D1A7887","f29bfd1c-fc27-478d-9d1b-8c3cea931b52","051c06f1-75cc-4548-856d-4923ddaba0dc","{""num_scrambled_semantic"":""8"",""num_scrambled_causal"":""4"",""num_scrambled_schematic"":""4"",""participantId"":""C083122313ED412FA4EB27591D1A7887"",""assignmentId"":""f29bfd1c-fc27-478d-9d1b-8c3cea931b52"",""projectId"":""051c06f1-75cc-4548-856d-4923ddaba0dc""}","https://test12345.live/?num_scrambled_semantic=8&num_scrambled_causal=4&num_scrambled_schematic=4&participantId=C083122313ED412FA4EB27591D1A7887&assignmentId=f29bfd1c-fc27-478d-9d1b-8c3cea931b52&projectId=051c06f1-75cc-4548-856d-4923ddaba0dc","C083122313ED412FA4EB27591D1A7887-2025-05-15-19-40-29","","931","","images/semantic_sequence/using_technology_semantic/using_technology_semantic_ten.png","0","",""
"","","","","","image-button-response","54","360839","0.0-10.0-1.0-2.9","C083122313ED412FA4EB27591D1A7887","C083122313ED412FA4EB27591D1A7887","f29bfd1c-fc27-478d-9d1b-8c3cea931b52","051c06f1-75cc-4548-856d-4923ddaba0dc","{""num_scrambled_semantic"":""8"",""num_scrambled_causal"":""4"",""num_scrambled_schematic"":""4"",""participantId"":""C083122313ED412FA4EB27591D1A7887"",""assignmentId"":""f29bfd1c-fc27-478d-9d1b-8c3cea931b52"",""projectId"":""051c06f1-75cc-4548-856d-4923ddaba0dc""}","https://test12345.live/?num_scrambled_semantic=8&num_scrambled_causal=4&num_scrambled_schematic=4&participantId=C083122313ED412FA4EB27591D1A7887&assignmentId=f29bfd1c-fc27-478d-9d1b-8c3cea931b52&projectId=051c06f1-75cc-4548-856d-4923ddaba0dc","C083122313ED412FA4EB27591D1A7887-2025-05-15-19-40-29","","null","","[]","null","",""
"","","","","","html-audio-response","55","384942","0.0-11.0","C083122313ED412FA4EB27591D1A7887","C083122313ED412FA4EB27591D1A7887","f29bfd1c-fc27-478d-9d1b-8c3cea931b52","051c06f1-75cc-4548-856d-4923ddaba0dc","{""num_scrambled_semantic"":""8"",""num_scrambled_causal"":""4"",""num_scrambled_schematic"":""4"",""participantId"":""C083122313ED412FA4EB27591D1A7887"",""assignmentId"":""f29bfd1c-fc27-478d-9d1b-8c3cea931b52"",""projectId"":""051c06f1-75cc-4548-856d-4923ddaba0dc""}","https://test12345.live/?num_scrambled_semantic=8&num_scrambled_causal=4&num_scrambled_schematic=4&participantId=C083122313ED412FA4EB27591D1A7887&assignmentId=f29bfd1c-fc27-478d-9d1b-8c3cea931b52&projectId=051c06f1-75cc-4548-856d-4923ddaba0dc","C083122313ED412FA4EB27591D1A7887-2025-05-15-19-40-29","","22190","","[""<span style=\""color: red; font-size: 24px\""> NOW RECORDING</span><p>Please say out loud all the images you saw, as many as you can remember. The images can be said in any order.</p>""]","","2","using_technology_semantic"
"","","","","","image-button-response","56","390969","0.0-12.0-0.0","C083122313ED412FA4EB27591D1A7887","C083122313ED412FA4EB27591D1A7887","f29bfd1c-fc27-478d-9d1b-8c3cea931b52","051c06f1-75cc-4548-856d-4923ddaba0dc","{""num_scrambled_semantic"":""8"",""num_scrambled_causal"":""4"",""num_scrambled_schematic"":""4"",""participantId"":""C083122313ED412FA4EB27591D1A7887"",""assignmentId"":""f29bfd1c-fc27-478d-9d1b-8c3cea931b52"",""projectId"":""051c06f1-75cc-4548-856d-4923ddaba0dc""}","https://test12345.live/?num_scrambled_semantic=8&num_scrambled_causal=4&num_scrambled_schematic=4&participantId=C083122313ED412FA4EB27591D1A7887&assignmentId=f29bfd1c-fc27-478d-9d1b-8c3cea931b52&projectId=051c06f1-75cc-4548-856d-4923ddaba0dc","C083122313ED412FA4EB27591D1A7887-2025-05-15-19-40-29","","null","","images/schematic_sequence/dinner_party_scheme/dinner_party_scheme_0.png","null","",""
"","","","","","image-button-response","57","395472","0.0-12.0-1.0-0.0","C083122313ED412FA4EB27591D1A7887","C083122313ED412FA4EB27591D1A7887","f29bfd1c-fc27-478d-9d1b-8c3cea931b52","051c06f1-75cc-4548-856d-4923ddaba0dc","{""num_scrambled_semantic"":""8"",""num_scrambled_causal"":""4"",""num_scrambled_schematic"":""4"",""participantId"":""C083122313ED412FA4EB27591D1A7887"",""assignmentId"":""f29bfd1c-fc27-478d-9d1b-8c3cea931b52"",""projectId"":""051c06f1-75cc-4548-856d-4923ddaba0dc""}","https://test12345.live/?num_scrambled_semantic=8&num_scrambled_causal=4&num_scrambled_schematic=4&participantId=C083122313ED412FA4EB27591D1A7887&assignmentId=f29bfd1c-fc27-478d-9d1b-8c3cea931b52&projectId=051c06f1-75cc-4548-856d-4923ddaba0dc","C083122313ED412FA4EB27591D1A7887-2025-05-15-19-40-29","","null","","images/schematic_sequence/dinner_party_scheme/dinner_party_scheme_4.png","null","",""
"","","","","","image-button-response","58","397060","0.0-12.0-1.0-1.0","C083122313ED412FA4EB27591D1A7887","C083122313ED412FA4EB27591D1A7887","f29bfd1c-fc27-478d-9d1b-8c3cea931b52","051c06f1-75cc-4548-856d-4923ddaba0dc","{""num_scrambled_semantic"":""8"",""num_scrambled_causal"":""4"",""num_scrambled_schematic"":""4"",""participantId"":""C083122313ED412FA4EB27591D1A7887"",""assignmentId"":""f29bfd1c-fc27-478d-9d1b-8c3cea931b52"",""projectId"":""051c06f1-75cc-4548-856d-4923ddaba0dc""}","https://test12345.live/?num_scrambled_semantic=8&num_scrambled_causal=4&num_scrambled_schematic=4&participantId=C083122313ED412FA4EB27591D1A7887&assignmentId=f29bfd1c-fc27-478d-9d1b-8c3cea931b52&projectId=051c06f1-75cc-4548-856d-4923ddaba0dc","C083122313ED412FA4EB27591D1A7887-2025-05-15-19-40-29","","1584","","images/schematic_sequence/dinner_party_scheme/dinner_party_scheme_4.png","0","",""
"","","","","","image-button-response","59","398864","0.0-12.0-1.0-2.0","C083122313ED412FA4EB27591D1A7887","C083122313ED412FA4EB27591D1A7887","f29bfd1c-fc27-478d-9d1b-8c3cea931b52","051c06f1-75cc-4548-856d-4923ddaba0dc","{""num_scrambled_semantic"":""8"",""num_scrambled_causal"":""4"",""num_scrambled_schematic"":""4"",""participantId"":""C083122313ED412FA4EB27591D1A7887"",""assignmentId"":""f29bfd1c-fc27-478d-9d1b-8c3cea931b52"",""projectId"":""051c06f1-75cc-4548-856d-4923ddaba0dc""}","https://test12345.live/?num_scrambled_semantic=8&num_scrambled_causal=4&num_scrambled_schematic=4&participantId=C083122313ED412FA4EB27591D1A7887&assignmentId=f29bfd1c-fc27-478d-9d1b-8c3cea931b52&projectId=051c06f1-75cc-4548-856d-4923ddaba0dc","C083122313ED412FA4EB27591D1A7887-2025-05-15-19-40-29","","null","","[]","null","",""
"","","","","","image-button-response","60","403370","0.0-12.0-1.0-0.1","C083122313ED412FA4EB27591D1A7887","C083122313ED412FA4EB27591D1A7887","f29bfd1c-fc27-478d-9d1b-8c3cea931b52","051c06f1-75cc-4548-856d-4923ddaba0dc","{""num_scrambled_semantic"":""8"",""num_scrambled_causal"":""4"",""num_scrambled_schematic"":""4"",""participantId"":""C083122313ED412FA4EB27591D1A7887"",""assignmentId"":""f29bfd1c-fc27-478d-9d1b-8c3cea931b52"",""projectId"":""051c06f1-75cc-4548-856d-4923ddaba0dc""}","https://test12345.live/?num_scrambled_semantic=8&num_scrambled_causal=4&num_scrambled_schematic=4&participantId=C083122313ED412FA4EB27591D1A7887&assignmentId=f29bfd1c-fc27-478d-9d1b-8c3cea931b52&projectId=051c06f1-75cc-4548-856d-4923ddaba0dc","C083122313ED412FA4EB27591D1A7887-2025-05-15-19-40-29","","null","","images/schematic_sequence/dinner_party_scheme/dinner_party_scheme_1.png","null","",""
"","","","","","image-button-response","61","404141","0.0-12.0-1.0-1.1","C083122313ED412FA4EB27591D1A7887","C083122313ED412FA4EB27591D1A7887","f29bfd1c-fc27-478d-9d1b-8c3cea931b52","051c06f1-75cc-4548-856d-4923ddaba0dc","{""num_scrambled_semantic"":""8"",""num_scrambled_causal"":""4"",""num_scrambled_schematic"":""4"",""participantId"":""C083122313ED412FA4EB27591D1A7887"",""assignmentId"":""f29bfd1c-fc27-478d-9d1b-8c3cea931b52"",""projectId"":""051c06f1-75cc-4548-856d-4923ddaba0dc""}","https://test12345.live/?num_scrambled_semantic=8&num_scrambled_causal=4&num_scrambled_schematic=4&participantId=C083122313ED412FA4EB27591D1A7887&assignmentId=f29bfd1c-fc27-478d-9d1b-8c3cea931b52&projectId=051c06f1-75cc-4548-856d-4923ddaba0dc","C083122313ED412FA4EB27591D1A7887-2025-05-15-19-40-29","","769","","images/schematic_sequence/dinner_party_scheme/dinner_party_scheme_1.png","0","",""
"","","","","","image-button-response","62","405943","0.0-12.0-1.0-2.1","C083122313ED412FA4EB27591D1A7887","C083122313ED412FA4EB27591D1A7887","f29bfd1c-fc27-478d-9d1b-8c3cea931b52","051c06f1-75cc-4548-856d-4923ddaba0dc","{""num_scrambled_semantic"":""8"",""num_scrambled_causal"":""4"",""num_scrambled_schematic"":""4"",""participantId"":""C083122313ED412FA4EB27591D1A7887"",""assignmentId"":""f29bfd1c-fc27-478d-9d1b-8c3cea931b52"",""projectId"":""051c06f1-75cc-4548-856d-4923ddaba0dc""}","https://test12345.live/?num_scrambled_semantic=8&num_scrambled_causal=4&num_scrambled_schematic=4&participantId=C083122313ED412FA4EB27591D1A7887&assignmentId=f29bfd1c-fc27-478d-9d1b-8c3cea931b52&projectId=051c06f1-75cc-4548-856d-4923ddaba0dc","C083122313ED412FA4EB27591D1A7887-2025-05-15-19-40-29","","null","","[]","null","",""
"","","","","","image-button-response","63","410457","0.0-12.0-1.0-0.2","C083122313ED412FA4EB27591D1A7887","C083122313ED412FA4EB27591D1A7887","f29bfd1c-fc27-478d-9d1b-8c3cea931b52","051c06f1-75cc-4548-856d-4923ddaba0dc","{""num_scrambled_semantic"":""8"",""num_scrambled_causal"":""4"",""num_scrambled_schematic"":""4"",""participantId"":""C083122313ED412FA4EB27591D1A7887"",""assignmentId"":""f29bfd1c-fc27-478d-9d1b-8c3cea931b52"",""projectId"":""051c06f1-75cc-4548-856d-4923ddaba0dc""}","https://test12345.live/?num_scrambled_semantic=8&num_scrambled_causal=4&num_scrambled_schematic=4&participantId=C083122313ED412FA4EB27591D1A7887&assignmentId=f29bfd1c-fc27-478d-9d1b-8c3cea931b52&projectId=051c06f1-75cc-4548-856d-4923ddaba0dc","C083122313ED412FA4EB27591D1A7887-2025-05-15-19-40-29","","null","","images/schematic_sequence/dinner_party_scheme/dinner_party_scheme_ten.png","null","",""
"","","","","","image-button-response","64","411592","0.0-12.0-1.0-1.2","C083122313ED412FA4EB27591D1A7887","C083122313ED412FA4EB27591D1A7887","f29bfd1c-fc27-478d-9d1b-8c3cea931b52","051c06f1-75cc-4548-856d-4923ddaba0dc","{""num_scrambled_semantic"":""8"",""num_scrambled_causal"":""4"",""num_scrambled_schematic"":""4"",""participantId"":""C083122313ED412FA4EB27591D1A7887"",""assignmentId"":""f29bfd1c-fc27-478d-9d1b-8c3cea931b52"",""projectId"":""051c06f1-75cc-4548-856d-4923ddaba0dc""}","https://test12345.live/?num_scrambled_semantic=8&num_scrambled_causal=4&num_scrambled_schematic=4&participantId=C083122313ED412FA4EB27591D1A7887&assignmentId=f29bfd1c-fc27-478d-9d1b-8c3cea931b52&projectId=051c06f1-75cc-4548-856d-4923ddaba0dc","C083122313ED412FA4EB27591D1A7887-2025-05-15-19-40-29","","1133","","images/schematic_sequence/dinner_party_scheme/dinner_party_scheme_ten.png","0","",""
"","","","","","image-button-response","65","413410","0.0-12.0-1.0-2.2","C083122313ED412FA4EB27591D1A7887","C083122313ED412FA4EB27591D1A7887","f29bfd1c-fc27-478d-9d1b-8c3cea931b52","051c06f1-75cc-4548-856d-4923ddaba0dc","{""num_scrambled_semantic"":""8"",""num_scrambled_causal"":""4"",""num_scrambled_schematic"":""4"",""participantId"":""C083122313ED412FA4EB27591D1A7887"",""assignmentId"":""f29bfd1c-fc27-478d-9d1b-8c3cea931b52"",""projectId"":""051c06f1-75cc-4548-856d-4923ddaba0dc""}","https://test12345.live/?num_scrambled_semantic=8&num_scrambled_causal=4&num_scrambled_schematic=4&participantId=C083122313ED412FA4EB27591D1A7887&assignmentId=f29bfd1c-fc27-478d-9d1b-8c3cea931b52&projectId=051c06f1-75cc-4548-856d-4923ddaba0dc","C083122313ED412FA4EB27591D1A7887-2025-05-15-19-40-29","","null","","[]","null","",""
"","","","","","image-button-response","66","417915","0.0-12.0-1.0-0.3","C083122313ED412FA4EB27591D1A7887","C083122313ED412FA4EB27591D1A7887","f29bfd1c-fc27-478d-9d1b-8c3cea931b52","051c06f1-75cc-4548-856d-4923ddaba0dc","{""num_scrambled_semantic"":""8"",""num_scrambled_causal"":""4"",""num_scrambled_schematic"":""4"",""participantId"":""C083122313ED412FA4EB27591D1A7887"",""assignmentId"":""f29bfd1c-fc27-478d-9d1b-8c3cea931b52"",""projectId"":""051c06f1-75cc-4548-856d-4923ddaba0dc""}","https://test12345.live/?num_scrambled_semantic=8&num_scrambled_causal=4&num_scrambled_schematic=4&participantId=C083122313ED412FA4EB27591D1A7887&assignmentId=f29bfd1c-fc27-478d-9d1b-8c3cea931b52&projectId=051c06f1-75cc-4548-856d-4923ddaba0dc","C083122313ED412FA4EB27591D1A7887-2025-05-15-19-40-29","","null","","images/schematic_sequence/dinner_party_scheme/dinner_party_scheme_2.png","null","",""
"","","","","","image-button-response","67","419356","0.0-12.0-1.0-1.3","C083122313ED412FA4EB27591D1A7887","C083122313ED412FA4EB27591D1A7887","f29bfd1c-fc27-478d-9d1b-8c3cea931b52","051c06f1-75cc-4548-856d-4923ddaba0dc","{""num_scrambled_semantic"":""8"",""num_scrambled_causal"":""4"",""num_scrambled_schematic"":""4"",""participantId"":""C083122313ED412FA4EB27591D1A7887"",""assignmentId"":""f29bfd1c-fc27-478d-9d1b-8c3cea931b52"",""projectId"":""051c06f1-75cc-4548-856d-4923ddaba0dc""}","https://test12345.live/?num_scrambled_semantic=8&num_scrambled_causal=4&num_scrambled_schematic=4&participantId=C083122313ED412FA4EB27591D1A7887&assignmentId=f29bfd1c-fc27-478d-9d1b-8c3cea931b52&projectId=051c06f1-75cc-4548-856d-4923ddaba0dc","C083122313ED412FA4EB27591D1A7887-2025-05-15-19-40-29","","1439","","images/schematic_sequence/dinner_party_scheme/dinner_party_scheme_2.png","0","",""
"","","","","","image-button-response","68","421173","0.0-12.0-1.0-2.3","C083122313ED412FA4EB27591D1A7887","C083122313ED412FA4EB27591D1A7887","f29bfd1c-fc27-478d-9d1b-8c3cea931b52","051c06f1-75cc-4548-856d-4923ddaba0dc","{""num_scrambled_semantic"":""8"",""num_scrambled_causal"":""4"",""num_scrambled_schematic"":""4"",""participantId"":""C083122313ED412FA4EB27591D1A7887"",""assignmentId"":""f29bfd1c-fc27-478d-9d1b-8c3cea931b52"",""projectId"":""051c06f1-75cc-4548-856d-4923ddaba0dc""}","https://test12345.live/?num_scrambled_semantic=8&num_scrambled_causal=4&num_scrambled_schematic=4&participantId=C083122313ED412FA4EB27591D1A7887&assignmentId=f29bfd1c-fc27-478d-9d1b-8c3cea931b52&projectId=051c06f1-75cc-4548-856d-4923ddaba0dc","C083122313ED412FA4EB27591D1A7887-2025-05-15-19-40-29","","null","","[]","null","",""
"","","","","","image-button-response","69","425683","0.0-12.0-1.0-0.4","C083122313ED412FA4EB27591D1A7887","C083122313ED412FA4EB27591D1A7887","f29bfd1c-fc27-478d-9d1b-8c3cea931b52","051c06f1-75cc-4548-856d-4923ddaba0dc","{""num_scrambled_semantic"":""8"",""num_scrambled_causal"":""4"",""num_scrambled_schematic"":""4"",""participantId"":""C083122313ED412FA4EB27591D1A7887"",""assignmentId"":""f29bfd1c-fc27-478d-9d1b-8c3cea931b52"",""projectId"":""051c06f1-75cc-4548-856d-4923ddaba0dc""}","https://test12345.live/?num_scrambled_semantic=8&num_scrambled_causal=4&num_scrambled_schematic=4&participantId=C083122313ED412FA4EB27591D1A7887&assignmentId=f29bfd1c-fc27-478d-9d1b-8c3cea931b52&projectId=051c06f1-75cc-4548-856d-4923ddaba0dc","C083122313ED412FA4EB27591D1A7887-2025-05-15-19-40-29","","null","","images/schematic_sequence/dinner_party_scheme/dinner_party_scheme_7.png","null","",""
"","","","","","image-button-response","70","426822","0.0-12.0-1.0-1.4","C083122313ED412FA4EB27591D1A7887","C083122313ED412FA4EB27591D1A7887","f29bfd1c-fc27-478d-9d1b-8c3cea931b52","051c06f1-75cc-4548-856d-4923ddaba0dc","{""num_scrambled_semantic"":""8"",""num_scrambled_causal"":""4"",""num_scrambled_schematic"":""4"",""participantId"":""C083122313ED412FA4EB27591D1A7887"",""assignmentId"":""f29bfd1c-fc27-478d-9d1b-8c3cea931b52"",""projectId"":""051c06f1-75cc-4548-856d-4923ddaba0dc""}","https://test12345.live/?num_scrambled_semantic=8&num_scrambled_causal=4&num_scrambled_schematic=4&participantId=C083122313ED412FA4EB27591D1A7887&assignmentId=f29bfd1c-fc27-478d-9d1b-8c3cea931b52&projectId=051c06f1-75cc-4548-856d-4923ddaba0dc","C083122313ED412FA4EB27591D1A7887-2025-05-15-19-40-29","","1137","","images/schematic_sequence/dinner_party_scheme/dinner_party_scheme_7.png","0","",""
"","","","","","image-button-response","71","428632","0.0-12.0-1.0-2.4","C083122313ED412FA4EB27591D1A7887","C083122313ED412FA4EB27591D1A7887","f29bfd1c-fc27-478d-9d1b-8c3cea931b52","051c06f1-75cc-4548-856d-4923ddaba0dc","{""num_scrambled_semantic"":""8"",""num_scrambled_causal"":""4"",""num_scrambled_schematic"":""4"",""participantId"":""C083122313ED412FA4EB27591D1A7887"",""assignmentId"":""f29bfd1c-fc27-478d-9d1b-8c3cea931b52"",""projectId"":""051c06f1-75cc-4548-856d-4923ddaba0dc""}","https://test12345.live/?num_scrambled_semantic=8&num_scrambled_causal=4&num_scrambled_schematic=4&participantId=C083122313ED412FA4EB27591D1A7887&assignmentId=f29bfd1c-fc27-478d-9d1b-8c3cea931b52&projectId=051c06f1-75cc-4548-856d-4923ddaba0dc","C083122313ED412FA4EB27591D1A7887-2025-05-15-19-40-29","","null","","[]","null","",""
"","","","","","image-button-response","72","433138","0.0-12.0-1.0-0.5","C083122313ED412FA4EB27591D1A7887","C083122313ED412FA4EB27591D1A7887","f29bfd1c-fc27-478d-9d1b-8c3cea931b52","051c06f1-75cc-4548-856d-4923ddaba0dc","{""num_scrambled_semantic"":""8"",""num_scrambled_causal"":""4"",""num_scrambled_schematic"":""4"",""participantId"":""C083122313ED412FA4EB27591D1A7887"",""assignmentId"":""f29bfd1c-fc27-478d-9d1b-8c3cea931b52"",""projectId"":""051c06f1-75cc-4548-856d-4923ddaba0dc""}","https://test12345.live/?num_scrambled_semantic=8&num_scrambled_causal=4&num_scrambled_schematic=4&participantId=C083122313ED412FA4EB27591D1A7887&assignmentId=f29bfd1c-fc27-478d-9d1b-8c3cea931b52&projectId=051c06f1-75cc-4548-856d-4923ddaba0dc","C083122313ED412FA4EB27591D1A7887-2025-05-15-19-40-29","","null","","images/schematic_sequence/dinner_party_scheme/dinner_party_scheme_3.png","null","",""
"","","","","","image-button-response","73","436202","0.0-12.0-1.0-1.5","C083122313ED412FA4EB27591D1A7887","C083122313ED412FA4EB27591D1A7887","f29bfd1c-fc27-478d-9d1b-8c3cea931b52","051c06f1-75cc-4548-856d-4923ddaba0dc","{""num_scrambled_semantic"":""8"",""num_scrambled_causal"":""4"",""num_scrambled_schematic"":""4"",""participantId"":""C083122313ED412FA4EB27591D1A7887"",""assignmentId"":""f29bfd1c-fc27-478d-9d1b-8c3cea931b52"",""projectId"":""051c06f1-75cc-4548-856d-4923ddaba0dc""}","https://test12345.live/?num_scrambled_semantic=8&num_scrambled_causal=4&num_scrambled_schematic=4&participantId=C083122313ED412FA4EB27591D1A7887&assignmentId=f29bfd1c-fc27-478d-9d1b-8c3cea931b52&projectId=051c06f1-75cc-4548-856d-4923ddaba0dc","C083122313ED412FA4EB27591D1A7887-2025-05-15-19-40-29","","3062","","images/schematic_sequence/dinner_party_scheme/dinner_party_scheme_3.png","0","",""
"","","","","","image-button-response","74","438012","0.0-12.0-1.0-2.5","C083122313ED412FA4EB27591D1A7887","C083122313ED412FA4EB27591D1A7887","f29bfd1c-fc27-478d-9d1b-8c3cea931b52","051c06f1-75cc-4548-856d-4923ddaba0dc","{""num_scrambled_semantic"":""8"",""num_scrambled_causal"":""4"",""num_scrambled_schematic"":""4"",""participantId"":""C083122313ED412FA4EB27591D1A7887"",""assignmentId"":""f29bfd1c-fc27-478d-9d1b-8c3cea931b52"",""projectId"":""051c06f1-75cc-4548-856d-4923ddaba0dc""}","https://test12345.live/?num_scrambled_semantic=8&num_scrambled_causal=4&num_scrambled_schematic=4&participantId=C083122313ED412FA4EB27591D1A7887&assignmentId=f29bfd1c-fc27-478d-9d1b-8c3cea931b52&projectId=051c06f1-75cc-4548-856d-4923ddaba0dc","C083122313ED412FA4EB27591D1A7887-2025-05-15-19-40-29","","null","","[]","null","",""
"","","","","","image-button-response","75","442529","0.0-12.0-1.0-0.6","C083122313ED412FA4EB27591D1A7887","C083122313ED412FA4EB27591D1A7887","f29bfd1c-fc27-478d-9d1b-8c3cea931b52","051c06f1-75cc-4548-856d-4923ddaba0dc","{""num_scrambled_semantic"":""8"",""num_scrambled_causal"":""4"",""num_scrambled_schematic"":""4"",""participantId"":""C083122313ED412FA4EB27591D1A7887"",""assignmentId"":""f29bfd1c-fc27-478d-9d1b-8c3cea931b52"",""projectId"":""051c06f1-75cc-4548-856d-4923ddaba0dc""}","https://test12345.live/?num_scrambled_semantic=8&num_scrambled_causal=4&num_scrambled_schematic=4&participantId=C083122313ED412FA4EB27591D1A7887&assignmentId=f29bfd1c-fc27-478d-9d1b-8c3cea931b52&projectId=051c06f1-75cc-4548-856d-4923ddaba0dc","C083122313ED412FA4EB27591D1A7887-2025-05-15-19-40-29","","null","","images/schematic_sequence/dinner_party_scheme/dinner_party_scheme_8.png","null","",""
"","","","","","image-button-response","76","444286","0.0-12.0-1.0-1.6","C083122313ED412FA4EB27591D1A7887","C083122313ED412FA4EB27591D1A7887","f29bfd1c-fc27-478d-9d1b-8c3cea931b52","051c06f1-75cc-4548-856d-4923ddaba0dc","{""num_scrambled_semantic"":""8"",""num_scrambled_causal"":""4"",""num_scrambled_schematic"":""4"",""participantId"":""C083122313ED412FA4EB27591D1A7887"",""assignmentId"":""f29bfd1c-fc27-478d-9d1b-8c3cea931b52"",""projectId"":""051c06f1-75cc-4548-856d-4923ddaba0dc""}","https://test12345.live/?num_scrambled_semantic=8&num_scrambled_causal=4&num_scrambled_schematic=4&participantId=C083122313ED412FA4EB27591D1A7887&assignmentId=f29bfd1c-fc27-478d-9d1b-8c3cea931b52&projectId=051c06f1-75cc-4548-856d-4923ddaba0dc","C083122313ED412FA4EB27591D1A7887-2025-05-15-19-40-29","","1754","","images/schematic_sequence/dinner_party_scheme/dinner_party_scheme_8.png","0","",""
"","","","","","image-button-response","77","446094","0.0-12.0-1.0-2.6","C083122313ED412FA4EB27591D1A7887","C083122313ED412FA4EB27591D1A7887","f29bfd1c-fc27-478d-9d1b-8c3cea931b52","051c06f1-75cc-4548-856d-4923ddaba0dc","{""num_scrambled_semantic"":""8"",""num_scrambled_causal"":""4"",""num_scrambled_schematic"":""4"",""participantId"":""C083122313ED412FA4EB27591D1A7887"",""assignmentId"":""f29bfd1c-fc27-478d-9d1b-8c3cea931b52"",""projectId"":""051c06f1-75cc-4548-856d-4923ddaba0dc""}","https://test12345.live/?num_scrambled_semantic=8&num_scrambled_causal=4&num_scrambled_schematic=4&participantId=C083122313ED412FA4EB27591D1A7887&assignmentId=f29bfd1c-fc27-478d-9d1b-8c3cea931b52&projectId=051c06f1-75cc-4548-856d-4923ddaba0dc","C083122313ED412FA4EB27591D1A7887-2025-05-15-19-40-29","","null","","[]","null","",""
"","","","","","image-button-response","78","450606","0.0-12.0-1.0-0.7","C083122313ED412FA4EB27591D1A7887","C083122313ED412FA4EB27591D1A7887","f29bfd1c-fc27-478d-9d1b-8c3cea931b52","051c06f1-75cc-4548-856d-4923ddaba0dc","{""num_scrambled_semantic"":""8"",""num_scrambled_causal"":""4"",""num_scrambled_schematic"":""4"",""participantId"":""C083122313ED412FA4EB27591D1A7887"",""assignmentId"":""f29bfd1c-fc27-478d-9d1b-8c3cea931b52"",""projectId"":""051c06f1-75cc-4548-856d-4923ddaba0dc""}","https://test12345.live/?num_scrambled_semantic=8&num_scrambled_causal=4&num_scrambled_schematic=4&participantId=C083122313ED412FA4EB27591D1A7887&assignmentId=f29bfd1c-fc27-478d-9d1b-8c3cea931b52&projectId=051c06f1-75cc-4548-856d-4923ddaba0dc","C083122313ED412FA4EB27591D1A7887-2025-05-15-19-40-29","","null","","images/schematic_sequence/dinner_party_scheme/dinner_party_scheme_5.png","null","",""
"","","","","","image-button-response","79","453901","0.0-12.0-1.0-1.7","C083122313ED412FA4EB27591D1A7887","C083122313ED412FA4EB27591D1A7887","f29bfd1c-fc27-478d-9d1b-8c3cea931b52","051c06f1-75cc-4548-856d-4923ddaba0dc","{""num_scrambled_semantic"":""8"",""num_scrambled_causal"":""4"",""num_scrambled_schematic"":""4"",""participantId"":""C083122313ED412FA4EB27591D1A7887"",""assignmentId"":""f29bfd1c-fc27-478d-9d1b-8c3cea931b52"",""projectId"":""051c06f1-75cc-4548-856d-4923ddaba0dc""}","https://test12345.live/?num_scrambled_semantic=8&num_scrambled_causal=4&num_scrambled_schematic=4&participantId=C083122313ED412FA4EB27591D1A7887&assignmentId=f29bfd1c-fc27-478d-9d1b-8c3cea931b52&projectId=051c06f1-75cc-4548-856d-4923ddaba0dc","C083122313ED412FA4EB27591D1A7887-2025-05-15-19-40-29","","3292","","images/schematic_sequence/dinner_party_scheme/dinner_party_scheme_5.png","0","",""
"","","","","","image-button-response","80","455715","0.0-12.0-1.0-2.7","C083122313ED412FA4EB27591D1A7887","C083122313ED412FA4EB27591D1A7887","f29bfd1c-fc27-478d-9d1b-8c3cea931b52","051c06f1-75cc-4548-856d-4923ddaba0dc","{""num_scrambled_semantic"":""8"",""num_scrambled_causal"":""4"",""num_scrambled_schematic"":""4"",""participantId"":""C083122313ED412FA4EB27591D1A7887"",""assignmentId"":""f29bfd1c-fc27-478d-9d1b-8c3cea931b52"",""projectId"":""051c06f1-75cc-4548-856d-4923ddaba0dc""}","https://test12345.live/?num_scrambled_semantic=8&num_scrambled_causal=4&num_scrambled_schematic=4&participantId=C083122313ED412FA4EB27591D1A7887&assignmentId=f29bfd1c-fc27-478d-9d1b-8c3cea931b52&projectId=051c06f1-75cc-4548-856d-4923ddaba0dc","C083122313ED412FA4EB27591D1A7887-2025-05-15-19-40-29","","null","","[]","null","",""
"","","","","","image-button-response","81","460221","0.0-12.0-1.0-0.8","C083122313ED412FA4EB27591D1A7887","C083122313ED412FA4EB27591D1A7887","f29bfd1c-fc27-478d-9d1b-8c3cea931b52","051c06f1-75cc-4548-856d-4923ddaba0dc","{""num_scrambled_semantic"":""8"",""num_scrambled_causal"":""4"",""num_scrambled_schematic"":""4"",""participantId"":""C083122313ED412FA4EB27591D1A7887"",""assignmentId"":""f29bfd1c-fc27-478d-9d1b-8c3cea931b52"",""projectId"":""051c06f1-75cc-4548-856d-4923ddaba0dc""}","https://test12345.live/?num_scrambled_semantic=8&num_scrambled_causal=4&num_scrambled_schematic=4&participantId=C083122313ED412FA4EB27591D1A7887&assignmentId=f29bfd1c-fc27-478d-9d1b-8c3cea931b52&projectId=051c06f1-75cc-4548-856d-4923ddaba0dc","C083122313ED412FA4EB27591D1A7887-2025-05-15-19-40-29","","null","","images/schematic_sequence/dinner_party_scheme/dinner_party_scheme_9.png","null","",""
"","","","","","image-button-response","82","461222","0.0-12.0-1.0-1.8","C083122313ED412FA4EB27591D1A7887","C083122313ED412FA4EB27591D1A7887","f29bfd1c-fc27-478d-9d1b-8c3cea931b52","051c06f1-75cc-4548-856d-4923ddaba0dc","{""num_scrambled_semantic"":""8"",""num_scrambled_causal"":""4"",""num_scrambled_schematic"":""4"",""participantId"":""C083122313ED412FA4EB27591D1A7887"",""assignmentId"":""f29bfd1c-fc27-478d-9d1b-8c3cea931b52"",""projectId"":""051c06f1-75cc-4548-856d-4923ddaba0dc""}","https://test12345.live/?num_scrambled_semantic=8&num_scrambled_causal=4&num_scrambled_schematic=4&participantId=C083122313ED412FA4EB27591D1A7887&assignmentId=f29bfd1c-fc27-478d-9d1b-8c3cea931b52&projectId=051c06f1-75cc-4548-856d-4923ddaba0dc","C083122313ED412FA4EB27591D1A7887-2025-05-15-19-40-29","","1000","","images/schematic_sequence/dinner_party_scheme/dinner_party_scheme_9.png","0","",""
"","","","","","image-button-response","83","463035","0.0-12.0-1.0-2.8","C083122313ED412FA4EB27591D1A7887","C083122313ED412FA4EB27591D1A7887","f29bfd1c-fc27-478d-9d1b-8c3cea931b52","051c06f1-75cc-4548-856d-4923ddaba0dc","{""num_scrambled_semantic"":""8"",""num_scrambled_causal"":""4"",""num_scrambled_schematic"":""4"",""participantId"":""C083122313ED412FA4EB27591D1A7887"",""assignmentId"":""f29bfd1c-fc27-478d-9d1b-8c3cea931b52"",""projectId"":""051c06f1-75cc-4548-856d-4923ddaba0dc""}","https://test12345.live/?num_scrambled_semantic=8&num_scrambled_causal=4&num_scrambled_schematic=4&participantId=C083122313ED412FA4EB27591D1A7887&assignmentId=f29bfd1c-fc27-478d-9d1b-8c3cea931b52&projectId=051c06f1-75cc-4548-856d-4923ddaba0dc","C083122313ED412FA4EB27591D1A7887-2025-05-15-19-40-29","","null","","[]","null","",""
"","","","","","image-button-response","84","467550","0.0-12.0-1.0-0.9","C083122313ED412FA4EB27591D1A7887","C083122313ED412FA4EB27591D1A7887","f29bfd1c-fc27-478d-9d1b-8c3cea931b52","051c06f1-75cc-4548-856d-4923ddaba0dc","{""num_scrambled_semantic"":""8"",""num_scrambled_causal"":""4"",""num_scrambled_schematic"":""4"",""participantId"":""C083122313ED412FA4EB27591D1A7887"",""assignmentId"":""f29bfd1c-fc27-478d-9d1b-8c3cea931b52"",""projectId"":""051c06f1-75cc-4548-856d-4923ddaba0dc""}","https://test12345.live/?num_scrambled_semantic=8&num_scrambled_causal=4&num_scrambled_schematic=4&participantId=C083122313ED412FA4EB27591D1A7887&assignmentId=f29bfd1c-fc27-478d-9d1b-8c3cea931b52&projectId=051c06f1-75cc-4548-856d-4923ddaba0dc","C083122313ED412FA4EB27591D1A7887-2025-05-15-19-40-29","","null","","images/schematic_sequence/dinner_party_scheme/dinner_party_scheme_6.png","null","",""
"","","","","","image-button-response","85","469856","0.0-12.0-1.0-1.9","C083122313ED412FA4EB27591D1A7887","C083122313ED412FA4EB27591D1A7887","f29bfd1c-fc27-478d-9d1b-8c3cea931b52","051c06f1-75cc-4548-856d-4923ddaba0dc","{""num_scrambled_semantic"":""8"",""num_scrambled_causal"":""4"",""num_scrambled_schematic"":""4"",""participantId"":""C083122313ED412FA4EB27591D1A7887"",""assignmentId"":""f29bfd1c-fc27-478d-9d1b-8c3cea931b52"",""projectId"":""051c06f1-75cc-4548-856d-4923ddaba0dc""}","https://test12345.live/?num_scrambled_semantic=8&num_scrambled_causal=4&num_scrambled_schematic=4&participantId=C083122313ED412FA4EB27591D1A7887&assignmentId=f29bfd1c-fc27-478d-9d1b-8c3cea931b52&projectId=051c06f1-75cc-4548-856d-4923ddaba0dc","C083122313ED412FA4EB27591D1A7887-2025-05-15-19-40-29","","2304","","images/schematic_sequence/dinner_party_scheme/dinner_party_scheme_6.png","0","",""
"","","","","","image-button-response","86","471670","0.0-12.0-1.0-2.9","C083122313ED412FA4EB27591D1A7887","C083122313ED412FA4EB27591D1A7887","f29bfd1c-fc27-478d-9d1b-8c3cea931b52","051c06f1-75cc-4548-856d-4923ddaba0dc","{""num_scrambled_semantic"":""8"",""num_scrambled_causal"":""4"",""num_scrambled_schematic"":""4"",""participantId"":""C083122313ED412FA4EB27591D1A7887"",""assignmentId"":""f29bfd1c-fc27-478d-9d1b-8c3cea931b52"",""projectId"":""051c06f1-75cc-4548-856d-4923ddaba0dc""}","https://test12345.live/?num_scrambled_semantic=8&num_scrambled_causal=4&num_scrambled_schematic=4&participantId=C083122313ED412FA4EB27591D1A7887&assignmentId=f29bfd1c-fc27-478d-9d1b-8c3cea931b52&projectId=051c06f1-75cc-4548-856d-4923ddaba0dc","C083122313ED412FA4EB27591D1A7887-2025-05-15-19-40-29","","null","","[]","null","",""
"","","","","","html-audio-response","87","506172","0.0-13.0","C083122313ED412FA4EB27591D1A7887","C083122313ED412FA4EB27591D1A7887","f29bfd1c-fc27-478d-9d1b-8c3cea931b52","051c06f1-75cc-4548-856d-4923ddaba0dc","{""num_scrambled_semantic"":""8"",""num_scrambled_causal"":""4"",""num_scrambled_schematic"":""4"",""participantId"":""C083122313ED412FA4EB27591D1A7887"",""assignmentId"":""f29bfd1c-fc27-478d-9d1b-8c3cea931b52"",""projectId"":""051c06f1-75cc-4548-856d-4923ddaba0dc""}","https://test12345.live/?num_scrambled_semantic=8&num_scrambled_causal=4&num_scrambled_schematic=4&participantId=C083122313ED412FA4EB27591D1A7887&assignmentId=f29bfd1c-fc27-478d-9d1b-8c3cea931b52&projectId=051c06f1-75cc-4548-856d-4923ddaba0dc","C083122313ED412FA4EB27591D1A7887-2025-05-15-19-40-29","","33384","","[""<span style=\""color: red; font-size: 24px\""> NOW RECORDING</span><p>Please say out loud all the images you saw, as many as you can remember. The images can be said in any order.</p>""]","","2","dinner_party_scheme"
"","","","","","image-button-response","88","512190","0.0-14.0-0.0","C083122313ED412FA4EB27591D1A7887","C083122313ED412FA4EB27591D1A7887","f29bfd1c-fc27-478d-9d1b-8c3cea931b52","051c06f1-75cc-4548-856d-4923ddaba0dc","{""num_scrambled_semantic"":""8"",""num_scrambled_causal"":""4"",""num_scrambled_schematic"":""4"",""participantId"":""C083122313ED412FA4EB27591D1A7887"",""assignmentId"":""f29bfd1c-fc27-478d-9d1b-8c3cea931b52"",""projectId"":""051c06f1-75cc-4548-856d-4923ddaba0dc""}","https://test12345.live/?num_scrambled_semantic=8&num_scrambled_causal=4&num_scrambled_schematic=4&participantId=C083122313ED412FA4EB27591D1A7887&assignmentId=f29bfd1c-fc27-478d-9d1b-8c3cea931b52&projectId=051c06f1-75cc-4548-856d-4923ddaba0dc","C083122313ED412FA4EB27591D1A7887-2025-05-15-19-40-29","","null","","images/schematic_sequence/hotel_scheme/hotel_scheme_0.png","null","",""
"","","","","","image-button-response","89","516702","0.0-14.0-1.0-0.0","C083122313ED412FA4EB27591D1A7887","C083122313ED412FA4EB27591D1A7887","f29bfd1c-fc27-478d-9d1b-8c3cea931b52","051c06f1-75cc-4548-856d-4923ddaba0dc","{""num_scrambled_semantic"":""8"",""num_scrambled_causal"":""4"",""num_scrambled_schematic"":""4"",""participantId"":""C083122313ED412FA4EB27591D1A7887"",""assignmentId"":""f29bfd1c-fc27-478d-9d1b-8c3cea931b52"",""projectId"":""051c06f1-75cc-4548-856d-4923ddaba0dc""}","https://test12345.live/?num_scrambled_semantic=8&num_scrambled_causal=4&num_scrambled_schematic=4&participantId=C083122313ED412FA4EB27591D1A7887&assignmentId=f29bfd1c-fc27-478d-9d1b-8c3cea931b52&projectId=051c06f1-75cc-4548-856d-4923ddaba0dc","C083122313ED412FA4EB27591D1A7887-2025-05-15-19-40-29","","null","","images/schematic_sequence/hotel_scheme/hotel_scheme_1.png","null","",""
"","","","","","image-button-response","90","520708","0.0-14.0-1.0-1.0","C083122313ED412FA4EB27591D1A7887","C083122313ED412FA4EB27591D1A7887","f29bfd1c-fc27-478d-9d1b-8c3cea931b52","051c06f1-75cc-4548-856d-4923ddaba0dc","{""num_scrambled_semantic"":""8"",""num_scrambled_causal"":""4"",""num_scrambled_schematic"":""4"",""participantId"":""C083122313ED412FA4EB27591D1A7887"",""assignmentId"":""f29bfd1c-fc27-478d-9d1b-8c3cea931b52"",""projectId"":""051c06f1-75cc-4548-856d-4923ddaba0dc""}","https://test12345.live/?num_scrambled_semantic=8&num_scrambled_causal=4&num_scrambled_schematic=4&participantId=C083122313ED412FA4EB27591D1A7887&assignmentId=f29bfd1c-fc27-478d-9d1b-8c3cea931b52&projectId=051c06f1-75cc-4548-856d-4923ddaba0dc","C083122313ED412FA4EB27591D1A7887-2025-05-15-19-40-29","","null","","images/schematic_sequence/hotel_scheme/hotel_scheme_1.png","null","",""
"","","","","","image-button-response","91","522515","0.0-14.0-1.0-2.0","C083122313ED412FA4EB27591D1A7887","C083122313ED412FA4EB27591D1A7887","f29bfd1c-fc27-478d-9d1b-8c3cea931b52","051c06f1-75cc-4548-856d-4923ddaba0dc","{""num_scrambled_semantic"":""8"",""num_scrambled_causal"":""4"",""num_scrambled_schematic"":""4"",""participantId"":""C083122313ED412FA4EB27591D1A7887"",""assignmentId"":""f29bfd1c-fc27-478d-9d1b-8c3cea931b52"",""projectId"":""051c06f1-75cc-4548-856d-4923ddaba0dc""}","https://test12345.live/?num_scrambled_semantic=8&num_scrambled_causal=4&num_scrambled_schematic=4&participantId=C083122313ED412FA4EB27591D1A7887&assignmentId=f29bfd1c-fc27-478d-9d1b-8c3cea931b52&projectId=051c06f1-75cc-4548-856d-4923ddaba0dc","C083122313ED412FA4EB27591D1A7887-2025-05-15-19-40-29","","null","","[]","null","",""
"","","","","","image-button-response","92","527025","0.0-14.0-1.0-0.1","C083122313ED412FA4EB27591D1A7887","C083122313ED412FA4EB27591D1A7887","f29bfd1c-fc27-478d-9d1b-8c3cea931b52","051c06f1-75cc-4548-856d-4923ddaba0dc","{""num_scrambled_semantic"":""8"",""num_scrambled_causal"":""4"",""num_scrambled_schematic"":""4"",""participantId"":""C083122313ED412FA4EB27591D1A7887"",""assignmentId"":""f29bfd1c-fc27-478d-9d1b-8c3cea931b52"",""projectId"":""051c06f1-75cc-4548-856d-4923ddaba0dc""}","https://test12345.live/?num_scrambled_semantic=8&num_scrambled_causal=4&num_scrambled_schematic=4&participantId=C083122313ED412FA4EB27591D1A7887&assignmentId=f29bfd1c-fc27-478d-9d1b-8c3cea931b52&projectId=051c06f1-75cc-4548-856d-4923ddaba0dc","C083122313ED412FA4EB27591D1A7887-2025-05-15-19-40-29","","null","","images/schematic_sequence/hotel_scheme/hotel_scheme_2.png","null","",""
"","","","","","image-button-response","93","529841","0.0-14.0-1.0-1.1","C083122313ED412FA4EB27591D1A7887","C083122313ED412FA4EB27591D1A7887","f29bfd1c-fc27-478d-9d1b-8c3cea931b52","051c06f1-75cc-4548-856d-4923ddaba0dc","{""num_scrambled_semantic"":""8"",""num_scrambled_causal"":""4"",""num_scrambled_schematic"":""4"",""participantId"":""C083122313ED412FA4EB27591D1A7887"",""assignmentId"":""f29bfd1c-fc27-478d-9d1b-8c3cea931b52"",""projectId"":""051c06f1-75cc-4548-856d-4923ddaba0dc""}","https://test12345.live/?num_scrambled_semantic=8&num_scrambled_causal=4&num_scrambled_schematic=4&participantId=C083122313ED412FA4EB27591D1A7887&assignmentId=f29bfd1c-fc27-478d-9d1b-8c3cea931b52&projectId=051c06f1-75cc-4548-856d-4923ddaba0dc","C083122313ED412FA4EB27591D1A7887-2025-05-15-19-40-29","","2814","","images/schematic_sequence/hotel_scheme/hotel_scheme_2.png","0","",""
"","","","","","image-button-response","94","531648","0.0-14.0-1.0-2.1","C083122313ED412FA4EB27591D1A7887","C083122313ED412FA4EB27591D1A7887","f29bfd1c-fc27-478d-9d1b-8c3cea931b52","051c06f1-75cc-4548-856d-4923ddaba0dc","{""num_scrambled_semantic"":""8"",""num_scrambled_causal"":""4"",""num_scrambled_schematic"":""4"",""participantId"":""C083122313ED412FA4EB27591D1A7887"",""assignmentId"":""f29bfd1c-fc27-478d-9d1b-8c3cea931b52"",""projectId"":""051c06f1-75cc-4548-856d-4923ddaba0dc""}","https://test12345.live/?num_scrambled_semantic=8&num_scrambled_causal=4&num_scrambled_schematic=4&participantId=C083122313ED412FA4EB27591D1A7887&assignmentId=f29bfd1c-fc27-478d-9d1b-8c3cea931b52&projectId=051c06f1-75cc-4548-856d-4923ddaba0dc","C083122313ED412FA4EB27591D1A7887-2025-05-15-19-40-29","","null","","[]","null","",""
"","","","","","image-button-response","95","536166","0.0-14.0-1.0-0.2","C083122313ED412FA4EB27591D1A7887","C083122313ED412FA4EB27591D1A7887","f29bfd1c-fc27-478d-9d1b-8c3cea931b52","051c06f1-75cc-4548-856d-4923ddaba0dc","{""num_scrambled_semantic"":""8"",""num_scrambled_causal"":""4"",""num_scrambled_schematic"":""4"",""participantId"":""C083122313ED412FA4EB27591D1A7887"",""assignmentId"":""f29bfd1c-fc27-478d-9d1b-8c3cea931b52"",""projectId"":""051c06f1-75cc-4548-856d-4923ddaba0dc""}","https://test12345.live/?num_scrambled_semantic=8&num_scrambled_causal=4&num_scrambled_schematic=4&participantId=C083122313ED412FA4EB27591D1A7887&assignmentId=f29bfd1c-fc27-478d-9d1b-8c3cea931b52&projectId=051c06f1-75cc-4548-856d-4923ddaba0dc","C083122313ED412FA4EB27591D1A7887-2025-05-15-19-40-29","","null","","images/schematic_sequence/hotel_scheme/hotel_scheme_3.png","null","",""
"","","","","","image-button-response","96","538959","0.0-14.0-1.0-1.2","C083122313ED412FA4EB27591D1A7887","C083122313ED412FA4EB27591D1A7887","f29bfd1c-fc27-478d-9d1b-8c3cea931b52","051c06f1-75cc-4548-856d-4923ddaba0dc","{""num_scrambled_semantic"":""8"",""num_scrambled_causal"":""4"",""num_scrambled_schematic"":""4"",""participantId"":""C083122313ED412FA4EB27591D1A7887"",""assignmentId"":""f29bfd1c-fc27-478d-9d1b-8c3cea931b52"",""projectId"":""051c06f1-75cc-4548-856d-4923ddaba0dc""}","https://test12345.live/?num_scrambled_semantic=8&num_scrambled_causal=4&num_scrambled_schematic=4&participantId=C083122313ED412FA4EB27591D1A7887&assignmentId=f29bfd1c-fc27-478d-9d1b-8c3cea931b52&projectId=051c06f1-75cc-4548-856d-4923ddaba0dc","C083122313ED412FA4EB27591D1A7887-2025-05-15-19-40-29","","2792","","images/schematic_sequence/hotel_scheme/hotel_scheme_3.png","0","",""
"","","","","","image-button-response","97","540762","0.0-14.0-1.0-2.2","C083122313ED412FA4EB27591D1A7887","C083122313ED412FA4EB27591D1A7887","f29bfd1c-fc27-478d-9d1b-8c3cea931b52","051c06f1-75cc-4548-856d-4923ddaba0dc","{""num_scrambled_semantic"":""8"",""num_scrambled_causal"":""4"",""num_scrambled_schematic"":""4"",""participantId"":""C083122313ED412FA4EB27591D1A7887"",""assignmentId"":""f29bfd1c-fc27-478d-9d1b-8c3cea931b52"",""projectId"":""051c06f1-75cc-4548-856d-4923ddaba0dc""}","https://test12345.live/?num_scrambled_semantic=8&num_scrambled_causal=4&num_scrambled_schematic=4&participantId=C083122313ED412FA4EB27591D1A7887&assignmentId=f29bfd1c-fc27-478d-9d1b-8c3cea931b52&projectId=051c06f1-75cc-4548-856d-4923ddaba0dc","C083122313ED412FA4EB27591D1A7887-2025-05-15-19-40-29","","null","","[]","null","",""
"","","","","","image-button-response","98","545270","0.0-14.0-1.0-0.3","C083122313ED412FA4EB27591D1A7887","C083122313ED412FA4EB27591D1A7887","f29bfd1c-fc27-478d-9d1b-8c3cea931b52","051c06f1-75cc-4548-856d-4923ddaba0dc","{""num_scrambled_semantic"":""8"",""num_scrambled_causal"":""4"",""num_scrambled_schematic"":""4"",""participantId"":""C083122313ED412FA4EB27591D1A7887"",""assignmentId"":""f29bfd1c-fc27-478d-9d1b-8c3cea931b52"",""projectId"":""051c06f1-75cc-4548-856d-4923ddaba0dc""}","https://test12345.live/?num_scrambled_semantic=8&num_scrambled_causal=4&num_scrambled_schematic=4&participantId=C083122313ED412FA4EB27591D1A7887&assignmentId=f29bfd1c-fc27-478d-9d1b-8c3cea931b52&projectId=051c06f1-75cc-4548-856d-4923ddaba0dc","C083122313ED412FA4EB27591D1A7887-2025-05-15-19-40-29","","null","","images/schematic_sequence/hotel_scheme/hotel_scheme_4.png","null","",""
"","","","","","image-button-response","99","548302","0.0-14.0-1.0-1.3","C083122313ED412FA4EB27591D1A7887","C083122313ED412FA4EB27591D1A7887","f29bfd1c-fc27-478d-9d1b-8c3cea931b52","051c06f1-75cc-4548-856d-4923ddaba0dc","{""num_scrambled_semantic"":""8"",""num_scrambled_causal"":""4"",""num_scrambled_schematic"":""4"",""participantId"":""C083122313ED412FA4EB27591D1A7887"",""assignmentId"":""f29bfd1c-fc27-478d-9d1b-8c3cea931b52"",""projectId"":""051c06f1-75cc-4548-856d-4923ddaba0dc""}","https://test12345.live/?num_scrambled_semantic=8&num_scrambled_causal=4&num_scrambled_schematic=4&participantId=C083122313ED412FA4EB27591D1A7887&assignmentId=f29bfd1c-fc27-478d-9d1b-8c3cea931b52&projectId=051c06f1-75cc-4548-856d-4923ddaba0dc","C083122313ED412FA4EB27591D1A7887-2025-05-15-19-40-29","","3031","","images/schematic_sequence/hotel_scheme/hotel_scheme_4.png","1","",""
"","","","","","image-button-response","100","550119","0.0-14.0-1.0-2.3","C083122313ED412FA4EB27591D1A7887","C083122313ED412FA4EB27591D1A7887","f29bfd1c-fc27-478d-9d1b-8c3cea931b52","051c06f1-75cc-4548-856d-4923ddaba0dc","{""num_scrambled_semantic"":""8"",""num_scrambled_causal"":""4"",""num_scrambled_schematic"":""4"",""participantId"":""C083122313ED412FA4EB27591D1A7887"",""assignmentId"":""f29bfd1c-fc27-478d-9d1b-8c3cea931b52"",""projectId"":""051c06f1-75cc-4548-856d-4923ddaba0dc""}","https://test12345.live/?num_scrambled_semantic=8&num_scrambled_causal=4&num_scrambled_schematic=4&participantId=C083122313ED412FA4EB27591D1A7887&assignmentId=f29bfd1c-fc27-478d-9d1b-8c3cea931b52&projectId=051c06f1-75cc-4548-856d-4923ddaba0dc","C083122313ED412FA4EB27591D1A7887-2025-05-15-19-40-29","","null","","[]","null","",""
"","","","","","image-button-response","101","554633","0.0-14.0-1.0-0.4","C083122313ED412FA4EB27591D1A7887","C083122313ED412FA4EB27591D1A7887","f29bfd1c-fc27-478d-9d1b-8c3cea931b52","051c06f1-75cc-4548-856d-4923ddaba0dc","{""num_scrambled_semantic"":""8"",""num_scrambled_causal"":""4"",""num_scrambled_schematic"":""4"",""participantId"":""C083122313ED412FA4EB27591D1A7887"",""assignmentId"":""f29bfd1c-fc27-478d-9d1b-8c3cea931b52"",""projectId"":""051c06f1-75cc-4548-856d-4923ddaba0dc""}","https://test12345.live/?num_scrambled_semantic=8&num_scrambled_causal=4&num_scrambled_schematic=4&participantId=C083122313ED412FA4EB27591D1A7887&assignmentId=f29bfd1c-fc27-478d-9d1b-8c3cea931b52&projectId=051c06f1-75cc-4548-856d-4923ddaba0dc","C083122313ED412FA4EB27591D1A7887-2025-05-15-19-40-29","","null","","images/schematic_sequence/hotel_scheme/hotel_scheme_5.png","null","",""
"","","","","","image-button-response","102","557616","0.0-14.0-1.0-1.4","C083122313ED412FA4EB27591D1A7887","C083122313ED412FA4EB27591D1A7887","f29bfd1c-fc27-478d-9d1b-8c3cea931b52","051c06f1-75cc-4548-856d-4923ddaba0dc","{""num_scrambled_semantic"":""8"",""num_scrambled_causal"":""4"",""num_scrambled_schematic"":""4"",""participantId"":""C083122313ED412FA4EB27591D1A7887"",""assignmentId"":""f29bfd1c-fc27-478d-9d1b-8c3cea931b52"",""projectId"":""051c06f1-75cc-4548-856d-4923ddaba0dc""}","https://test12345.live/?num_scrambled_semantic=8&num_scrambled_causal=4&num_scrambled_schematic=4&participantId=C083122313ED412FA4EB27591D1A7887&assignmentId=f29bfd1c-fc27-478d-9d1b-8c3cea931b52&projectId=051c06f1-75cc-4548-856d-4923ddaba0dc","C083122313ED412FA4EB27591D1A7887-2025-05-15-19-40-29","","2981","","images/schematic_sequence/hotel_scheme/hotel_scheme_5.png","0","",""
"","","","","","image-button-response","103","559434","0.0-14.0-1.0-2.4","C083122313ED412FA4EB27591D1A7887","C083122313ED412FA4EB27591D1A7887","f29bfd1c-fc27-478d-9d1b-8c3cea931b52","051c06f1-75cc-4548-856d-4923ddaba0dc","{""num_scrambled_semantic"":""8"",""num_scrambled_causal"":""4"",""num_scrambled_schematic"":""4"",""participantId"":""C083122313ED412FA4EB27591D1A7887"",""assignmentId"":""f29bfd1c-fc27-478d-9d1b-8c3cea931b52"",""projectId"":""051c06f1-75cc-4548-856d-4923ddaba0dc""}","https://test12345.live/?num_scrambled_semantic=8&num_scrambled_causal=4&num_scrambled_schematic=4&participantId=C083122313ED412FA4EB27591D1A7887&assignmentId=f29bfd1c-fc27-478d-9d1b-8c3cea931b52&projectId=051c06f1-75cc-4548-856d-4923ddaba0dc","C083122313ED412FA4EB27591D1A7887-2025-05-15-19-40-29","","null","","[]","null","",""
"","","","","","image-button-response","104","563944","0.0-14.0-1.0-0.5","C083122313ED412FA4EB27591D1A7887","C083122313ED412FA4EB27591D1A7887","f29bfd1c-fc27-478d-9d1b-8c3cea931b52","051c06f1-75cc-4548-856d-4923ddaba0dc","{""num_scrambled_semantic"":""8"",""num_scrambled_causal"":""4"",""num_scrambled_schematic"":""4"",""participantId"":""C083122313ED412FA4EB27591D1A7887"",""assignmentId"":""f29bfd1c-fc27-478d-9d1b-8c3cea931b52"",""projectId"":""051c06f1-75cc-4548-856d-4923ddaba0dc""}","https://test12345.live/?num_scrambled_semantic=8&num_scrambled_causal=4&num_scrambled_schematic=4&participantId=C083122313ED412FA4EB27591D1A7887&assignmentId=f29bfd1c-fc27-478d-9d1b-8c3cea931b52&projectId=051c06f1-75cc-4548-856d-4923ddaba0dc","C083122313ED412FA4EB27591D1A7887-2025-05-15-19-40-29","","null","","images/schematic_sequence/hotel_scheme/hotel_scheme_6.png","null","",""
"","","","","","image-button-response","105","564891","0.0-14.0-1.0-1.5","C083122313ED412FA4EB27591D1A7887","C083122313ED412FA4EB27591D1A7887","f29bfd1c-fc27-478d-9d1b-8c3cea931b52","051c06f1-75cc-4548-856d-4923ddaba0dc","{""num_scrambled_semantic"":""8"",""num_scrambled_causal"":""4"",""num_scrambled_schematic"":""4"",""participantId"":""C083122313ED412FA4EB27591D1A7887"",""assignmentId"":""f29bfd1c-fc27-478d-9d1b-8c3cea931b52"",""projectId"":""051c06f1-75cc-4548-856d-4923ddaba0dc""}","https://test12345.live/?num_scrambled_semantic=8&num_scrambled_causal=4&num_scrambled_schematic=4&participantId=C083122313ED412FA4EB27591D1A7887&assignmentId=f29bfd1c-fc27-478d-9d1b-8c3cea931b52&projectId=051c06f1-75cc-4548-856d-4923ddaba0dc","C083122313ED412FA4EB27591D1A7887-2025-05-15-19-40-29","","945","","images/schematic_sequence/hotel_scheme/hotel_scheme_6.png","0","",""
"","","","","","image-button-response","106","566702","0.0-14.0-1.0-2.5","C083122313ED412FA4EB27591D1A7887","C083122313ED412FA4EB27591D1A7887","f29bfd1c-fc27-478d-9d1b-8c3cea931b52","051c06f1-75cc-4548-856d-4923ddaba0dc","{""num_scrambled_semantic"":""8"",""num_scrambled_causal"":""4"",""num_scrambled_schematic"":""4"",""participantId"":""C083122313ED412FA4EB27591D1A7887"",""assignmentId"":""f29bfd1c-fc27-478d-9d1b-8c3cea931b52"",""projectId"":""051c06f1-75cc-4548-856d-4923ddaba0dc""}","https://test12345.live/?num_scrambled_semantic=8&num_scrambled_causal=4&num_scrambled_schematic=4&participantId=C083122313ED412FA4EB27591D1A7887&assignmentId=f29bfd1c-fc27-478d-9d1b-8c3cea931b52&projectId=051c06f1-75cc-4548-856d-4923ddaba0dc","C083122313ED412FA4EB27591D1A7887-2025-05-15-19-40-29","","null","","[]","null","",""
"","","","","","image-button-response","107","571208","0.0-14.0-1.0-0.6","C083122313ED412FA4EB27591D1A7887","C083122313ED412FA4EB27591D1A7887","f29bfd1c-fc27-478d-9d1b-8c3cea931b52","051c06f1-75cc-4548-856d-4923ddaba0dc","{""num_scrambled_semantic"":""8"",""num_scrambled_causal"":""4"",""num_scrambled_schematic"":""4"",""participantId"":""C083122313ED412FA4EB27591D1A7887"",""assignmentId"":""f29bfd1c-fc27-478d-9d1b-8c3cea931b52"",""projectId"":""051c06f1-75cc-4548-856d-4923ddaba0dc""}","https://test12345.live/?num_scrambled_semantic=8&num_scrambled_causal=4&num_scrambled_schematic=4&participantId=C083122313ED412FA4EB27591D1A7887&assignmentId=f29bfd1c-fc27-478d-9d1b-8c3cea931b52&projectId=051c06f1-75cc-4548-856d-4923ddaba0dc","C083122313ED412FA4EB27591D1A7887-2025-05-15-19-40-29","","null","","images/schematic_sequence/hotel_scheme/hotel_scheme_7.png","null","",""
"","","","","","image-button-response","108","572450","0.0-14.0-1.0-1.6","C083122313ED412FA4EB27591D1A7887","C083122313ED412FA4EB27591D1A7887","f29bfd1c-fc27-478d-9d1b-8c3cea931b52","051c06f1-75cc-4548-856d-4923ddaba0dc","{""num_scrambled_semantic"":""8"",""num_scrambled_causal"":""4"",""num_scrambled_schematic"":""4"",""participantId"":""C083122313ED412FA4EB27591D1A7887"",""assignmentId"":""f29bfd1c-fc27-478d-9d1b-8c3cea931b52"",""projectId"":""051c06f1-75cc-4548-856d-4923ddaba0dc""}","https://test12345.live/?num_scrambled_semantic=8&num_scrambled_causal=4&num_scrambled_schematic=4&participantId=C083122313ED412FA4EB27591D1A7887&assignmentId=f29bfd1c-fc27-478d-9d1b-8c3cea931b52&projectId=051c06f1-75cc-4548-856d-4923ddaba0dc","C083122313ED412FA4EB27591D1A7887-2025-05-15-19-40-29","","1239","","images/schematic_sequence/hotel_scheme/hotel_scheme_7.png","0","",""
"","","","","","image-button-response","109","574256","0.0-14.0-1.0-2.6","C083122313ED412FA4EB27591D1A7887","C083122313ED412FA4EB27591D1A7887","f29bfd1c-fc27-478d-9d1b-8c3cea931b52","051c06f1-75cc-4548-856d-4923ddaba0dc","{""num_scrambled_semantic"":""8"",""num_scrambled_causal"":""4"",""num_scrambled_schematic"":""4"",""participantId"":""C083122313ED412FA4EB27591D1A7887"",""assignmentId"":""f29bfd1c-fc27-478d-9d1b-8c3cea931b52"",""projectId"":""051c06f1-75cc-4548-856d-4923ddaba0dc""}","https://test12345.live/?num_scrambled_semantic=8&num_scrambled_causal=4&num_scrambled_schematic=4&participantId=C083122313ED412FA4EB27591D1A7887&assignmentId=f29bfd1c-fc27-478d-9d1b-8c3cea931b52&projectId=051c06f1-75cc-4548-856d-4923ddaba0dc","C083122313ED412FA4EB27591D1A7887-2025-05-15-19-40-29","","null","","[]","null","",""
"","","","","","image-button-response","110","578763","0.0-14.0-1.0-0.7","C083122313ED412FA4EB27591D1A7887","C083122313ED412FA4EB27591D1A7887","f29bfd1c-fc27-478d-9d1b-8c3cea931b52","051c06f1-75cc-4548-856d-4923ddaba0dc","{""num_scrambled_semantic"":""8"",""num_scrambled_causal"":""4"",""num_scrambled_schematic"":""4"",""participantId"":""C083122313ED412FA4EB27591D1A7887"",""assignmentId"":""f29bfd1c-fc27-478d-9d1b-8c3cea931b52"",""projectId"":""051c06f1-75cc-4548-856d-4923ddaba0dc""}","https://test12345.live/?num_scrambled_semantic=8&num_scrambled_causal=4&num_scrambled_schematic=4&participantId=C083122313ED412FA4EB27591D1A7887&assignmentId=f29bfd1c-fc27-478d-9d1b-8c3cea931b52&projectId=051c06f1-75cc-4548-856d-4923ddaba0dc","C083122313ED412FA4EB27591D1A7887-2025-05-15-19-40-29","","null","","images/schematic_sequence/hotel_scheme/hotel_scheme_8.png","null","",""
"","","","","","image-button-response","111","582572","0.0-14.0-1.0-1.7","C083122313ED412FA4EB27591D1A7887","C083122313ED412FA4EB27591D1A7887","f29bfd1c-fc27-478d-9d1b-8c3cea931b52","051c06f1-75cc-4548-856d-4923ddaba0dc","{""num_scrambled_semantic"":""8"",""num_scrambled_causal"":""4"",""num_scrambled_schematic"":""4"",""participantId"":""C083122313ED412FA4EB27591D1A7887"",""assignmentId"":""f29bfd1c-fc27-478d-9d1b-8c3cea931b52"",""projectId"":""051c06f1-75cc-4548-856d-4923ddaba0dc""}","https://test12345.live/?num_scrambled_semantic=8&num_scrambled_causal=4&num_scrambled_schematic=4&participantId=C083122313ED412FA4EB27591D1A7887&assignmentId=f29bfd1c-fc27-478d-9d1b-8c3cea931b52&projectId=051c06f1-75cc-4548-856d-4923ddaba0dc","C083122313ED412FA4EB27591D1A7887-2025-05-15-19-40-29","","3807","","images/schematic_sequence/hotel_scheme/hotel_scheme_8.png","0","",""
"","","","","","image-button-response","112","584389","0.0-14.0-1.0-2.7","C083122313ED412FA4EB27591D1A7887","C083122313ED412FA4EB27591D1A7887","f29bfd1c-fc27-478d-9d1b-8c3cea931b52","051c06f1-75cc-4548-856d-4923ddaba0dc","{""num_scrambled_semantic"":""8"",""num_scrambled_causal"":""4"",""num_scrambled_schematic"":""4"",""participantId"":""C083122313ED412FA4EB27591D1A7887"",""assignmentId"":""f29bfd1c-fc27-478d-9d1b-8c3cea931b52"",""projectId"":""051c06f1-75cc-4548-856d-4923ddaba0dc""}","https://test12345.live/?num_scrambled_semantic=8&num_scrambled_causal=4&num_scrambled_schematic=4&participantId=C083122313ED412FA4EB27591D1A7887&assignmentId=f29bfd1c-fc27-478d-9d1b-8c3cea931b52&projectId=051c06f1-75cc-4548-856d-4923ddaba0dc","C083122313ED412FA4EB27591D1A7887-2025-05-15-19-40-29","","null","","[]","null","",""
"","","","","","image-button-response","113","588894","0.0-14.0-1.0-0.8","C083122313ED412FA4EB27591D1A7887","C083122313ED412FA4EB27591D1A7887","f29bfd1c-fc27-478d-9d1b-8c3cea931b52","051c06f1-75cc-4548-856d-4923ddaba0dc","{""num_scrambled_semantic"":""8"",""num_scrambled_causal"":""4"",""num_scrambled_schematic"":""4"",""participantId"":""C083122313ED412FA4EB27591D1A7887"",""assignmentId"":""f29bfd1c-fc27-478d-9d1b-8c3cea931b52"",""projectId"":""051c06f1-75cc-4548-856d-4923ddaba0dc""}","https://test12345.live/?num_scrambled_semantic=8&num_scrambled_causal=4&num_scrambled_schematic=4&participantId=C083122313ED412FA4EB27591D1A7887&assignmentId=f29bfd1c-fc27-478d-9d1b-8c3cea931b52&projectId=051c06f1-75cc-4548-856d-4923ddaba0dc","C083122313ED412FA4EB27591D1A7887-2025-05-15-19-40-29","","null","","images/schematic_sequence/hotel_scheme/hotel_scheme_9.png","null","",""
"","","","","","image-button-response","114","589932","0.0-14.0-1.0-1.8","C083122313ED412FA4EB27591D1A7887","C083122313ED412FA4EB27591D1A7887","f29bfd1c-fc27-478d-9d1b-8c3cea931b52","051c06f1-75cc-4548-856d-4923ddaba0dc","{""num_scrambled_semantic"":""8"",""num_scrambled_causal"":""4"",""num_scrambled_schematic"":""4"",""participantId"":""C083122313ED412FA4EB27591D1A7887"",""assignmentId"":""f29bfd1c-fc27-478d-9d1b-8c3cea931b52"",""projectId"":""051c06f1-75cc-4548-856d-4923ddaba0dc""}","https://test12345.live/?num_scrambled_semantic=8&num_scrambled_causal=4&num_scrambled_schematic=4&participantId=C083122313ED412FA4EB27591D1A7887&assignmentId=f29bfd1c-fc27-478d-9d1b-8c3cea931b52&projectId=051c06f1-75cc-4548-856d-4923ddaba0dc","C083122313ED412FA4EB27591D1A7887-2025-05-15-19-40-29","","1037","","images/schematic_sequence/hotel_scheme/hotel_scheme_9.png","0","",""
