"success","timeout","failed_images","failed_audio","failed_video","trial_type","trial_index","time_elapsed","internal_node_id","subject","subject_id","study_id","session_id","urlvar","current_url","audio_id","view_history","rt","device_id","stimulus","response","estimated_stimulus_onset","seq_name"
"true","false","[]","[]","[]","preload","0","31318","0.0-0.0","C083122313ED412FA4EB27591D1A7887","C083122313ED412FA4EB27591D1A7887","25263165-e019-40b6-938f-9813b31e44f3","a6b6d205-fa41-4c5b-a7a5-7fc4b51b0cea","{""num_scrambled_semantic"":""8"",""num_scrambled_causal"":""4"",""num_scrambled_schematic"":""4"",""participantId"":""C083122313ED412FA4EB27591D1A7887"",""assignmentId"":""25263165-e019-40b6-938f-9813b31e44f3"",""projectId"":""a6b6d205-fa41-4c5b-a7a5-7fc4b51b0cea""}","https://test12345.live/?num_scrambled_semantic=8&num_scrambled_causal=4&num_scrambled_schematic=4&participantId=C083122313ED412FA4EB27591D1A7887&assignmentId=25263165-e019-40b6-938f-9813b31e44f3&projectId=a6b6d205-fa41-4c5b-a7a5-7fc4b51b0cea","C083122313ED412FA4EB27591D1A7887-2025-05-27-18-28-40","","","","","","",""
"","","","","","instructions","1","68181","0.0-1.0","C083122313ED412FA4EB27591D1A7887","C083122313ED412FA4EB27591D1A7887","25263165-e019-40b6-938f-9813b31e44f3","a6b6d205-fa41-4c5b-a7a5-7fc4b51b0cea","{""num_scrambled_semantic"":""8"",""num_scrambled_causal"":""4"",""num_scrambled_schematic"":""4"",""participantId"":""C083122313ED412FA4EB27591D1A7887"",""assignmentId"":""25263165-e019-40b6-938f-9813b31e44f3"",""projectId"":""a6b6d205-fa41-4c5b-a7a5-7fc4b51b0cea""}","https://test12345.live/?num_scrambled_semantic=8&num_scrambled_causal=4&num_scrambled_schematic=4&participantId=C083122313ED412FA4EB27591D1A7887&assignmentId=25263165-e019-40b6-938f-9813b31e44f3&projectId=a6b6d205-fa41-4c5b-a7a5-7fc4b51b0cea","C083122313ED412FA4EB27591D1A7887-2025-05-27-18-28-40","[{""page_index"":0,""viewing_time"":36861}]","36862","","","","",""
"","","","","","instructions","2","73545","0.0-2.0","C083122313ED412FA4EB27591D1A7887","C083122313ED412FA4EB27591D1A7887","25263165-e019-40b6-938f-9813b31e44f3","a6b6d205-fa41-4c5b-a7a5-7fc4b51b0cea","{""num_scrambled_semantic"":""8"",""num_scrambled_causal"":""4"",""num_scrambled_schematic"":""4"",""participantId"":""C083122313ED412FA4EB27591D1A7887"",""assignmentId"":""25263165-e019-40b6-938f-9813b31e44f3"",""projectId"":""a6b6d205-fa41-4c5b-a7a5-7fc4b51b0cea""}","https://test12345.live/?num_scrambled_semantic=8&num_scrambled_causal=4&num_scrambled_schematic=4&participantId=C083122313ED412FA4EB27591D1A7887&assignmentId=25263165-e019-40b6-938f-9813b31e44f3&projectId=a6b6d205-fa41-4c5b-a7a5-7fc4b51b0cea","C083122313ED412FA4EB27591D1A7887-2025-05-27-18-28-40","[{""page_index"":0,""viewing_time"":5361}]","5362","","","","",""
"true","","","","","fullscreen","3","77186","0.0-3.0","C083122313ED412FA4EB27591D1A7887","C083122313ED412FA4EB27591D1A7887","25263165-e019-40b6-938f-9813b31e44f3","a6b6d205-fa41-4c5b-a7a5-7fc4b51b0cea","{""num_scrambled_semantic"":""8"",""num_scrambled_causal"":""4"",""num_scrambled_schematic"":""4"",""participantId"":""C083122313ED412FA4EB27591D1A7887"",""assignmentId"":""25263165-e019-40b6-938f-9813b31e44f3"",""projectId"":""a6b6d205-fa41-4c5b-a7a5-7fc4b51b0cea""}","https://test12345.live/?num_scrambled_semantic=8&num_scrambled_causal=4&num_scrambled_schematic=4&participantId=C083122313ED412FA4EB27591D1A7887&assignmentId=25263165-e019-40b6-938f-9813b31e44f3&projectId=a6b6d205-fa41-4c5b-a7a5-7fc4b51b0cea","C083122313ED412FA4EB27591D1A7887-2025-05-27-18-28-40","","2630","","","","",""
"","","","","","initialize-microphone","4","84939","0.0-4.0-0.0","C083122313ED412FA4EB27591D1A7887","C083122313ED412FA4EB27591D1A7887","25263165-e019-40b6-938f-9813b31e44f3","a6b6d205-fa41-4c5b-a7a5-7fc4b51b0cea","{""num_scrambled_semantic"":""8"",""num_scrambled_causal"":""4"",""num_scrambled_schematic"":""4"",""participantId"":""C083122313ED412FA4EB27591D1A7887"",""assignmentId"":""25263165-e019-40b6-938f-9813b31e44f3"",""projectId"":""a6b6d205-fa41-4c5b-a7a5-7fc4b51b0cea""}","https://test12345.live/?num_scrambled_semantic=8&num_scrambled_causal=4&num_scrambled_schematic=4&participantId=C083122313ED412FA4EB27591D1A7887&assignmentId=25263165-e019-40b6-938f-9813b31e44f3&projectId=a6b6d205-fa41-4c5b-a7a5-7fc4b51b0cea","C083122313ED412FA4EB27591D1A7887-2025-05-27-18-28-40","","","c3c0e259ae5932d4c327cf2765f31d7bd13dff0bcd977f93fcfa810ab9d85cd5","","","",""
"","","","","","html-audio-response","5","95996","0.0-4.0-1.0","C083122313ED412FA4EB27591D1A7887","C083122313ED412FA4EB27591D1A7887","25263165-e019-40b6-938f-9813b31e44f3","a6b6d205-fa41-4c5b-a7a5-7fc4b51b0cea","{""num_scrambled_semantic"":""8"",""num_scrambled_causal"":""4"",""num_scrambled_schematic"":""4"",""participantId"":""C083122313ED412FA4EB27591D1A7887"",""assignmentId"":""25263165-e019-40b6-938f-9813b31e44f3"",""projectId"":""a6b6d205-fa41-4c5b-a7a5-7fc4b51b0cea""}","https://test12345.live/?num_scrambled_semantic=8&num_scrambled_causal=4&num_scrambled_schematic=4&participantId=C083122313ED412FA4EB27591D1A7887&assignmentId=25263165-e019-40b6-938f-9813b31e44f3&projectId=a6b6d205-fa41-4c5b-a7a5-7fc4b51b0cea","C083122313ED412FA4EB27591D1A7887-2025-05-27-18-28-40","","4315","","<span style=""color: red; font-size: 24px""> NOW RECORDING</span>
        <p>Please test Microphone</p>","","7",""
"","","","","","html-button-response","6","98257","0.0-4.0-2.0","C083122313ED412FA4EB27591D1A7887","C083122313ED412FA4EB27591D1A7887","25263165-e019-40b6-938f-9813b31e44f3","a6b6d205-fa41-4c5b-a7a5-7fc4b51b0cea","{""num_scrambled_semantic"":""8"",""num_scrambled_causal"":""4"",""num_scrambled_schematic"":""4"",""participantId"":""C083122313ED412FA4EB27591D1A7887"",""assignmentId"":""25263165-e019-40b6-938f-9813b31e44f3"",""projectId"":""a6b6d205-fa41-4c5b-a7a5-7fc4b51b0cea""}","https://test12345.live/?num_scrambled_semantic=8&num_scrambled_causal=4&num_scrambled_schematic=4&participantId=C083122313ED412FA4EB27591D1A7887&assignmentId=25263165-e019-40b6-938f-9813b31e44f3&projectId=a6b6d205-fa41-4c5b-a7a5-7fc4b51b0cea","C083122313ED412FA4EB27591D1A7887-2025-05-27-18-28-40","","2259","","<p style=""font-size:48px; color:red;"">Is Microphone OK?</p>","1","",""
"","","","","","instructions","7","114272","0.0-5.0","C083122313ED412FA4EB27591D1A7887","C083122313ED412FA4EB27591D1A7887","25263165-e019-40b6-938f-9813b31e44f3","a6b6d205-fa41-4c5b-a7a5-7fc4b51b0cea","{""num_scrambled_semantic"":""8"",""num_scrambled_causal"":""4"",""num_scrambled_schematic"":""4"",""participantId"":""C083122313ED412FA4EB27591D1A7887"",""assignmentId"":""25263165-e019-40b6-938f-9813b31e44f3"",""projectId"":""a6b6d205-fa41-4c5b-a7a5-7fc4b51b0cea""}","https://test12345.live/?num_scrambled_semantic=8&num_scrambled_causal=4&num_scrambled_schematic=4&participantId=C083122313ED412FA4EB27591D1A7887&assignmentId=25263165-e019-40b6-938f-9813b31e44f3&projectId=a6b6d205-fa41-4c5b-a7a5-7fc4b51b0cea","C083122313ED412FA4EB27591D1A7887-2025-05-27-18-28-40","[{""page_index"":0,""viewing_time"":8784},{""page_index"":1,""viewing_time"":7229}]","16013","","","","",""
"","","","","","image-button-response","8","120295","0.0-6.0-0.0","C083122313ED412FA4EB27591D1A7887","C083122313ED412FA4EB27591D1A7887","25263165-e019-40b6-938f-9813b31e44f3","a6b6d205-fa41-4c5b-a7a5-7fc4b51b0cea","{""num_scrambled_semantic"":""8"",""num_scrambled_causal"":""4"",""num_scrambled_schematic"":""4"",""participantId"":""C083122313ED412FA4EB27591D1A7887"",""assignmentId"":""25263165-e019-40b6-938f-9813b31e44f3"",""projectId"":""a6b6d205-fa41-4c5b-a7a5-7fc4b51b0cea""}","https://test12345.live/?num_scrambled_semantic=8&num_scrambled_causal=4&num_scrambled_schematic=4&participantId=C083122313ED412FA4EB27591D1A7887&assignmentId=25263165-e019-40b6-938f-9813b31e44f3&projectId=a6b6d205-fa41-4c5b-a7a5-7fc4b51b0cea","C083122313ED412FA4EB27591D1A7887-2025-05-27-18-28-40","","null","","images/instructions/movie_0.png","null","",""
"","","","","","image-button-response","9","124807","0.0-6.0-1.0-0.0","C083122313ED412FA4EB27591D1A7887","C083122313ED412FA4EB27591D1A7887","25263165-e019-40b6-938f-9813b31e44f3","a6b6d205-fa41-4c5b-a7a5-7fc4b51b0cea","{""num_scrambled_semantic"":""8"",""num_scrambled_causal"":""4"",""num_scrambled_schematic"":""4"",""participantId"":""C083122313ED412FA4EB27591D1A7887"",""assignmentId"":""25263165-e019-40b6-938f-9813b31e44f3"",""projectId"":""a6b6d205-fa41-4c5b-a7a5-7fc4b51b0cea""}","https://test12345.live/?num_scrambled_semantic=8&num_scrambled_causal=4&num_scrambled_schematic=4&participantId=C083122313ED412FA4EB27591D1A7887&assignmentId=25263165-e019-40b6-938f-9813b31e44f3&projectId=a6b6d205-fa41-4c5b-a7a5-7fc4b51b0cea","C083122313ED412FA4EB27591D1A7887-2025-05-27-18-28-40","","null","","images/instructions/movie_1.png","null","",""
"","","","","","image-button-response","10","128814","0.0-6.0-1.0-1.0","C083122313ED412FA4EB27591D1A7887","C083122313ED412FA4EB27591D1A7887","25263165-e019-40b6-938f-9813b31e44f3","a6b6d205-fa41-4c5b-a7a5-7fc4b51b0cea","{""num_scrambled_semantic"":""8"",""num_scrambled_causal"":""4"",""num_scrambled_schematic"":""4"",""participantId"":""C083122313ED412FA4EB27591D1A7887"",""assignmentId"":""25263165-e019-40b6-938f-9813b31e44f3"",""projectId"":""a6b6d205-fa41-4c5b-a7a5-7fc4b51b0cea""}","https://test12345.live/?num_scrambled_semantic=8&num_scrambled_causal=4&num_scrambled_schematic=4&participantId=C083122313ED412FA4EB27591D1A7887&assignmentId=25263165-e019-40b6-938f-9813b31e44f3&projectId=a6b6d205-fa41-4c5b-a7a5-7fc4b51b0cea","C083122313ED412FA4EB27591D1A7887-2025-05-27-18-28-40","","null","","images/instructions/movie_1.png","null","",""
"","","","","","image-button-response","11","130620","0.0-6.0-1.0-2.0","C083122313ED412FA4EB27591D1A7887","C083122313ED412FA4EB27591D1A7887","25263165-e019-40b6-938f-9813b31e44f3","a6b6d205-fa41-4c5b-a7a5-7fc4b51b0cea","{""num_scrambled_semantic"":""8"",""num_scrambled_causal"":""4"",""num_scrambled_schematic"":""4"",""participantId"":""C083122313ED412FA4EB27591D1A7887"",""assignmentId"":""25263165-e019-40b6-938f-9813b31e44f3"",""projectId"":""a6b6d205-fa41-4c5b-a7a5-7fc4b51b0cea""}","https://test12345.live/?num_scrambled_semantic=8&num_scrambled_causal=4&num_scrambled_schematic=4&participantId=C083122313ED412FA4EB27591D1A7887&assignmentId=25263165-e019-40b6-938f-9813b31e44f3&projectId=a6b6d205-fa41-4c5b-a7a5-7fc4b51b0cea","C083122313ED412FA4EB27591D1A7887-2025-05-27-18-28-40","","null","","[]","null","",""
"","","","","","image-button-response","12","135130","0.0-6.0-1.0-0.1","C083122313ED412FA4EB27591D1A7887","C083122313ED412FA4EB27591D1A7887","25263165-e019-40b6-938f-9813b31e44f3","a6b6d205-fa41-4c5b-a7a5-7fc4b51b0cea","{""num_scrambled_semantic"":""8"",""num_scrambled_causal"":""4"",""num_scrambled_schematic"":""4"",""participantId"":""C083122313ED412FA4EB27591D1A7887"",""assignmentId"":""25263165-e019-40b6-938f-9813b31e44f3"",""projectId"":""a6b6d205-fa41-4c5b-a7a5-7fc4b51b0cea""}","https://test12345.live/?num_scrambled_semantic=8&num_scrambled_causal=4&num_scrambled_schematic=4&participantId=C083122313ED412FA4EB27591D1A7887&assignmentId=25263165-e019-40b6-938f-9813b31e44f3&projectId=a6b6d205-fa41-4c5b-a7a5-7fc4b51b0cea","C083122313ED412FA4EB27591D1A7887-2025-05-27-18-28-40","","null","","images/instructions/movie_2.png","null","",""
"","","","","","image-button-response","13","138863","0.0-6.0-1.0-1.1","C083122313ED412FA4EB27591D1A7887","C083122313ED412FA4EB27591D1A7887","25263165-e019-40b6-938f-9813b31e44f3","a6b6d205-fa41-4c5b-a7a5-7fc4b51b0cea","{""num_scrambled_semantic"":""8"",""num_scrambled_causal"":""4"",""num_scrambled_schematic"":""4"",""participantId"":""C083122313ED412FA4EB27591D1A7887"",""assignmentId"":""25263165-e019-40b6-938f-9813b31e44f3"",""projectId"":""a6b6d205-fa41-4c5b-a7a5-7fc4b51b0cea""}","https://test12345.live/?num_scrambled_semantic=8&num_scrambled_causal=4&num_scrambled_schematic=4&participantId=C083122313ED412FA4EB27591D1A7887&assignmentId=25263165-e019-40b6-938f-9813b31e44f3&projectId=a6b6d205-fa41-4c5b-a7a5-7fc4b51b0cea","C083122313ED412FA4EB27591D1A7887-2025-05-27-18-28-40","","3731","","images/instructions/movie_2.png","0","",""
"","","","","","image-button-response","14","140672","0.0-6.0-1.0-2.1","C083122313ED412FA4EB27591D1A7887","C083122313ED412FA4EB27591D1A7887","25263165-e019-40b6-938f-9813b31e44f3","a6b6d205-fa41-4c5b-a7a5-7fc4b51b0cea","{""num_scrambled_semantic"":""8"",""num_scrambled_causal"":""4"",""num_scrambled_schematic"":""4"",""participantId"":""C083122313ED412FA4EB27591D1A7887"",""assignmentId"":""25263165-e019-40b6-938f-9813b31e44f3"",""projectId"":""a6b6d205-fa41-4c5b-a7a5-7fc4b51b0cea""}","https://test12345.live/?num_scrambled_semantic=8&num_scrambled_causal=4&num_scrambled_schematic=4&participantId=C083122313ED412FA4EB27591D1A7887&assignmentId=25263165-e019-40b6-938f-9813b31e44f3&projectId=a6b6d205-fa41-4c5b-a7a5-7fc4b51b0cea","C083122313ED412FA4EB27591D1A7887-2025-05-27-18-28-40","","null","","[]","null","",""
"","","","","","image-button-response","15","145181","0.0-6.0-1.0-0.2","C083122313ED412FA4EB27591D1A7887","C083122313ED412FA4EB27591D1A7887","25263165-e019-40b6-938f-9813b31e44f3","a6b6d205-fa41-4c5b-a7a5-7fc4b51b0cea","{""num_scrambled_semantic"":""8"",""num_scrambled_causal"":""4"",""num_scrambled_schematic"":""4"",""participantId"":""C083122313ED412FA4EB27591D1A7887"",""assignmentId"":""25263165-e019-40b6-938f-9813b31e44f3"",""projectId"":""a6b6d205-fa41-4c5b-a7a5-7fc4b51b0cea""}","https://test12345.live/?num_scrambled_semantic=8&num_scrambled_causal=4&num_scrambled_schematic=4&participantId=C083122313ED412FA4EB27591D1A7887&assignmentId=25263165-e019-40b6-938f-9813b31e44f3&projectId=a6b6d205-fa41-4c5b-a7a5-7fc4b51b0cea","C083122313ED412FA4EB27591D1A7887-2025-05-27-18-28-40","","null","","images/instructions/movie_3.png","null","",""
"","","","","","image-button-response","16","147727","0.0-6.0-1.0-1.2","C083122313ED412FA4EB27591D1A7887","C083122313ED412FA4EB27591D1A7887","25263165-e019-40b6-938f-9813b31e44f3","a6b6d205-fa41-4c5b-a7a5-7fc4b51b0cea","{""num_scrambled_semantic"":""8"",""num_scrambled_causal"":""4"",""num_scrambled_schematic"":""4"",""participantId"":""C083122313ED412FA4EB27591D1A7887"",""assignmentId"":""25263165-e019-40b6-938f-9813b31e44f3"",""projectId"":""a6b6d205-fa41-4c5b-a7a5-7fc4b51b0cea""}","https://test12345.live/?num_scrambled_semantic=8&num_scrambled_causal=4&num_scrambled_schematic=4&participantId=C083122313ED412FA4EB27591D1A7887&assignmentId=25263165-e019-40b6-938f-9813b31e44f3&projectId=a6b6d205-fa41-4c5b-a7a5-7fc4b51b0cea","C083122313ED412FA4EB27591D1A7887-2025-05-27-18-28-40","","2544","","images/instructions/movie_3.png","0","",""
"","","","","","image-button-response","17","149545","0.0-6.0-1.0-2.2","C083122313ED412FA4EB27591D1A7887","C083122313ED412FA4EB27591D1A7887","25263165-e019-40b6-938f-9813b31e44f3","a6b6d205-fa41-4c5b-a7a5-7fc4b51b0cea","{""num_scrambled_semantic"":""8"",""num_scrambled_causal"":""4"",""num_scrambled_schematic"":""4"",""participantId"":""C083122313ED412FA4EB27591D1A7887"",""assignmentId"":""25263165-e019-40b6-938f-9813b31e44f3"",""projectId"":""a6b6d205-fa41-4c5b-a7a5-7fc4b51b0cea""}","https://test12345.live/?num_scrambled_semantic=8&num_scrambled_causal=4&num_scrambled_schematic=4&participantId=C083122313ED412FA4EB27591D1A7887&assignmentId=25263165-e019-40b6-938f-9813b31e44f3&projectId=a6b6d205-fa41-4c5b-a7a5-7fc4b51b0cea","C083122313ED412FA4EB27591D1A7887-2025-05-27-18-28-40","","null","","[]","null","",""
"","","","","","image-button-response","18","154050","0.0-6.0-1.0-0.3","C083122313ED412FA4EB27591D1A7887","C083122313ED412FA4EB27591D1A7887","25263165-e019-40b6-938f-9813b31e44f3","a6b6d205-fa41-4c5b-a7a5-7fc4b51b0cea","{""num_scrambled_semantic"":""8"",""num_scrambled_causal"":""4"",""num_scrambled_schematic"":""4"",""participantId"":""C083122313ED412FA4EB27591D1A7887"",""assignmentId"":""25263165-e019-40b6-938f-9813b31e44f3"",""projectId"":""a6b6d205-fa41-4c5b-a7a5-7fc4b51b0cea""}","https://test12345.live/?num_scrambled_semantic=8&num_scrambled_causal=4&num_scrambled_schematic=4&participantId=C083122313ED412FA4EB27591D1A7887&assignmentId=25263165-e019-40b6-938f-9813b31e44f3&projectId=a6b6d205-fa41-4c5b-a7a5-7fc4b51b0cea","C083122313ED412FA4EB27591D1A7887-2025-05-27-18-28-40","","null","","images/instructions/movie_4.png","null","",""
"","","","","","image-button-response","19","156530","0.0-6.0-1.0-1.3","C083122313ED412FA4EB27591D1A7887","C083122313ED412FA4EB27591D1A7887","25263165-e019-40b6-938f-9813b31e44f3","a6b6d205-fa41-4c5b-a7a5-7fc4b51b0cea","{""num_scrambled_semantic"":""8"",""num_scrambled_causal"":""4"",""num_scrambled_schematic"":""4"",""participantId"":""C083122313ED412FA4EB27591D1A7887"",""assignmentId"":""25263165-e019-40b6-938f-9813b31e44f3"",""projectId"":""a6b6d205-fa41-4c5b-a7a5-7fc4b51b0cea""}","https://test12345.live/?num_scrambled_semantic=8&num_scrambled_causal=4&num_scrambled_schematic=4&participantId=C083122313ED412FA4EB27591D1A7887&assignmentId=25263165-e019-40b6-938f-9813b31e44f3&projectId=a6b6d205-fa41-4c5b-a7a5-7fc4b51b0cea","C083122313ED412FA4EB27591D1A7887-2025-05-27-18-28-40","","2479","","images/instructions/movie_4.png","0","",""
"","","","","","image-button-response","20","158344","0.0-6.0-1.0-2.3","C083122313ED412FA4EB27591D1A7887","C083122313ED412FA4EB27591D1A7887","25263165-e019-40b6-938f-9813b31e44f3","a6b6d205-fa41-4c5b-a7a5-7fc4b51b0cea","{""num_scrambled_semantic"":""8"",""num_scrambled_causal"":""4"",""num_scrambled_schematic"":""4"",""participantId"":""C083122313ED412FA4EB27591D1A7887"",""assignmentId"":""25263165-e019-40b6-938f-9813b31e44f3"",""projectId"":""a6b6d205-fa41-4c5b-a7a5-7fc4b51b0cea""}","https://test12345.live/?num_scrambled_semantic=8&num_scrambled_causal=4&num_scrambled_schematic=4&participantId=C083122313ED412FA4EB27591D1A7887&assignmentId=25263165-e019-40b6-938f-9813b31e44f3&projectId=a6b6d205-fa41-4c5b-a7a5-7fc4b51b0cea","C083122313ED412FA4EB27591D1A7887-2025-05-27-18-28-40","","null","","[]","null","",""
"","","","","","instructions","21","180177","0.0-7.0","C083122313ED412FA4EB27591D1A7887","C083122313ED412FA4EB27591D1A7887","25263165-e019-40b6-938f-9813b31e44f3","a6b6d205-fa41-4c5b-a7a5-7fc4b51b0cea","{""num_scrambled_semantic"":""8"",""num_scrambled_causal"":""4"",""num_scrambled_schematic"":""4"",""participantId"":""C083122313ED412FA4EB27591D1A7887"",""assignmentId"":""25263165-e019-40b6-938f-9813b31e44f3"",""projectId"":""a6b6d205-fa41-4c5b-a7a5-7fc4b51b0cea""}","https://test12345.live/?num_scrambled_semantic=8&num_scrambled_causal=4&num_scrambled_schematic=4&participantId=C083122313ED412FA4EB27591D1A7887&assignmentId=25263165-e019-40b6-938f-9813b31e44f3&projectId=a6b6d205-fa41-4c5b-a7a5-7fc4b51b0cea","C083122313ED412FA4EB27591D1A7887-2025-05-27-18-28-40","[{""page_index"":0,""viewing_time"":19683},{""page_index"":1,""viewing_time"":2150}]","21833","","","","",""
"","","","","","html-audio-response","22","228654","0.0-8.0","C083122313ED412FA4EB27591D1A7887","C083122313ED412FA4EB27591D1A7887","25263165-e019-40b6-938f-9813b31e44f3","a6b6d205-fa41-4c5b-a7a5-7fc4b51b0cea","{""num_scrambled_semantic"":""8"",""num_scrambled_causal"":""4"",""num_scrambled_schematic"":""4"",""participantId"":""C083122313ED412FA4EB27591D1A7887"",""assignmentId"":""25263165-e019-40b6-938f-9813b31e44f3"",""projectId"":""a6b6d205-fa41-4c5b-a7a5-7fc4b51b0cea""}","https://test12345.live/?num_scrambled_semantic=8&num_scrambled_causal=4&num_scrambled_schematic=4&participantId=C083122313ED412FA4EB27591D1A7887&assignmentId=25263165-e019-40b6-938f-9813b31e44f3&projectId=a6b6d205-fa41-4c5b-a7a5-7fc4b51b0cea","C083122313ED412FA4EB27591D1A7887-2025-05-27-18-28-40","","21870","","[""<span style=\""color: red; font-size: 24px\""> NOW RECORDING</span><p>Please say out loud all the images you saw in the exact order you saw them. Try to recall as many images as you can, but remember: getting the order right is more important than the number of images you recall.</p>""]","","2",""
"","","","","","instructions","23","233061","0.0-9.0","C083122313ED412FA4EB27591D1A7887","C083122313ED412FA4EB27591D1A7887","25263165-e019-40b6-938f-9813b31e44f3","a6b6d205-fa41-4c5b-a7a5-7fc4b51b0cea","{""num_scrambled_semantic"":""8"",""num_scrambled_causal"":""4"",""num_scrambled_schematic"":""4"",""participantId"":""C083122313ED412FA4EB27591D1A7887"",""assignmentId"":""25263165-e019-40b6-938f-9813b31e44f3"",""projectId"":""a6b6d205-fa41-4c5b-a7a5-7fc4b51b0cea""}","https://test12345.live/?num_scrambled_semantic=8&num_scrambled_causal=4&num_scrambled_schematic=4&participantId=C083122313ED412FA4EB27591D1A7887&assignmentId=25263165-e019-40b6-938f-9813b31e44f3&projectId=a6b6d205-fa41-4c5b-a7a5-7fc4b51b0cea","C083122313ED412FA4EB27591D1A7887-2025-05-27-18-28-40","[{""page_index"":0,""viewing_time"":4387}]","4387","","","","",""
"","","","","","image-button-response","24","239065","0.0-10.0-0.0","C083122313ED412FA4EB27591D1A7887","C083122313ED412FA4EB27591D1A7887","25263165-e019-40b6-938f-9813b31e44f3","a6b6d205-fa41-4c5b-a7a5-7fc4b51b0cea","{""num_scrambled_semantic"":""8"",""num_scrambled_causal"":""4"",""num_scrambled_schematic"":""4"",""participantId"":""C083122313ED412FA4EB27591D1A7887"",""assignmentId"":""25263165-e019-40b6-938f-9813b31e44f3"",""projectId"":""a6b6d205-fa41-4c5b-a7a5-7fc4b51b0cea""}","https://test12345.live/?num_scrambled_semantic=8&num_scrambled_causal=4&num_scrambled_schematic=4&participantId=C083122313ED412FA4EB27591D1A7887&assignmentId=25263165-e019-40b6-938f-9813b31e44f3&projectId=a6b6d205-fa41-4c5b-a7a5-7fc4b51b0cea","C083122313ED412FA4EB27591D1A7887-2025-05-27-18-28-40","","null","","images/semantic_sequence/self_care_activities_semantic/self_care_activities_semantic_0.png","null","",""
"","","","","","image-button-response","25","243580","0.0-10.0-1.0-0.0","C083122313ED412FA4EB27591D1A7887","C083122313ED412FA4EB27591D1A7887","25263165-e019-40b6-938f-9813b31e44f3","a6b6d205-fa41-4c5b-a7a5-7fc4b51b0cea","{""num_scrambled_semantic"":""8"",""num_scrambled_causal"":""4"",""num_scrambled_schematic"":""4"",""participantId"":""C083122313ED412FA4EB27591D1A7887"",""assignmentId"":""25263165-e019-40b6-938f-9813b31e44f3"",""projectId"":""a6b6d205-fa41-4c5b-a7a5-7fc4b51b0cea""}","https://test12345.live/?num_scrambled_semantic=8&num_scrambled_causal=4&num_scrambled_schematic=4&participantId=C083122313ED412FA4EB27591D1A7887&assignmentId=25263165-e019-40b6-938f-9813b31e44f3&projectId=a6b6d205-fa41-4c5b-a7a5-7fc4b51b0cea","C083122313ED412FA4EB27591D1A7887-2025-05-27-18-28-40","","null","","images/semantic_sequence/self_care_activities_semantic/self_care_activities_semantic_1.png","null","",""
"","","","","","image-button-response","26","246326","0.0-10.0-1.0-1.0","C083122313ED412FA4EB27591D1A7887","C083122313ED412FA4EB27591D1A7887","25263165-e019-40b6-938f-9813b31e44f3","a6b6d205-fa41-4c5b-a7a5-7fc4b51b0cea","{""num_scrambled_semantic"":""8"",""num_scrambled_causal"":""4"",""num_scrambled_schematic"":""4"",""participantId"":""C083122313ED412FA4EB27591D1A7887"",""assignmentId"":""25263165-e019-40b6-938f-9813b31e44f3"",""projectId"":""a6b6d205-fa41-4c5b-a7a5-7fc4b51b0cea""}","https://test12345.live/?num_scrambled_semantic=8&num_scrambled_causal=4&num_scrambled_schematic=4&participantId=C083122313ED412FA4EB27591D1A7887&assignmentId=25263165-e019-40b6-938f-9813b31e44f3&projectId=a6b6d205-fa41-4c5b-a7a5-7fc4b51b0cea","C083122313ED412FA4EB27591D1A7887-2025-05-27-18-28-40","","2744","","images/semantic_sequence/self_care_activities_semantic/self_care_activities_semantic_1.png","0","",""
"","","","","","image-button-response","27","248134","0.0-10.0-1.0-2.0","C083122313ED412FA4EB27591D1A7887","C083122313ED412FA4EB27591D1A7887","25263165-e019-40b6-938f-9813b31e44f3","a6b6d205-fa41-4c5b-a7a5-7fc4b51b0cea","{""num_scrambled_semantic"":""8"",""num_scrambled_causal"":""4"",""num_scrambled_schematic"":""4"",""participantId"":""C083122313ED412FA4EB27591D1A7887"",""assignmentId"":""25263165-e019-40b6-938f-9813b31e44f3"",""projectId"":""a6b6d205-fa41-4c5b-a7a5-7fc4b51b0cea""}","https://test12345.live/?num_scrambled_semantic=8&num_scrambled_causal=4&num_scrambled_schematic=4&participantId=C083122313ED412FA4EB27591D1A7887&assignmentId=25263165-e019-40b6-938f-9813b31e44f3&projectId=a6b6d205-fa41-4c5b-a7a5-7fc4b51b0cea","C083122313ED412FA4EB27591D1A7887-2025-05-27-18-28-40","","null","","[]","null","",""
"","","","","","image-button-response","28","252651","0.0-10.0-1.0-0.1","C083122313ED412FA4EB27591D1A7887","C083122313ED412FA4EB27591D1A7887","25263165-e019-40b6-938f-9813b31e44f3","a6b6d205-fa41-4c5b-a7a5-7fc4b51b0cea","{""num_scrambled_semantic"":""8"",""num_scrambled_causal"":""4"",""num_scrambled_schematic"":""4"",""participantId"":""C083122313ED412FA4EB27591D1A7887"",""assignmentId"":""25263165-e019-40b6-938f-9813b31e44f3"",""projectId"":""a6b6d205-fa41-4c5b-a7a5-7fc4b51b0cea""}","https://test12345.live/?num_scrambled_semantic=8&num_scrambled_causal=4&num_scrambled_schematic=4&participantId=C083122313ED412FA4EB27591D1A7887&assignmentId=25263165-e019-40b6-938f-9813b31e44f3&projectId=a6b6d205-fa41-4c5b-a7a5-7fc4b51b0cea","C083122313ED412FA4EB27591D1A7887-2025-05-27-18-28-40","","null","","images/semantic_sequence/self_care_activities_semantic/self_care_activities_semantic_9.png","null","",""
"","","","","","image-button-response","29","256657","0.0-10.0-1.0-1.1","C083122313ED412FA4EB27591D1A7887","C083122313ED412FA4EB27591D1A7887","25263165-e019-40b6-938f-9813b31e44f3","a6b6d205-fa41-4c5b-a7a5-7fc4b51b0cea","{""num_scrambled_semantic"":""8"",""num_scrambled_causal"":""4"",""num_scrambled_schematic"":""4"",""participantId"":""C083122313ED412FA4EB27591D1A7887"",""assignmentId"":""25263165-e019-40b6-938f-9813b31e44f3"",""projectId"":""a6b6d205-fa41-4c5b-a7a5-7fc4b51b0cea""}","https://test12345.live/?num_scrambled_semantic=8&num_scrambled_causal=4&num_scrambled_schematic=4&participantId=C083122313ED412FA4EB27591D1A7887&assignmentId=25263165-e019-40b6-938f-9813b31e44f3&projectId=a6b6d205-fa41-4c5b-a7a5-7fc4b51b0cea","C083122313ED412FA4EB27591D1A7887-2025-05-27-18-28-40","","null","","images/semantic_sequence/self_care_activities_semantic/self_care_activities_semantic_9.png","null","",""
"","","","","","image-button-response","30","258470","0.0-10.0-1.0-2.1","C083122313ED412FA4EB27591D1A7887","C083122313ED412FA4EB27591D1A7887","25263165-e019-40b6-938f-9813b31e44f3","a6b6d205-fa41-4c5b-a7a5-7fc4b51b0cea","{""num_scrambled_semantic"":""8"",""num_scrambled_causal"":""4"",""num_scrambled_schematic"":""4"",""participantId"":""C083122313ED412FA4EB27591D1A7887"",""assignmentId"":""25263165-e019-40b6-938f-9813b31e44f3"",""projectId"":""a6b6d205-fa41-4c5b-a7a5-7fc4b51b0cea""}","https://test12345.live/?num_scrambled_semantic=8&num_scrambled_causal=4&num_scrambled_schematic=4&participantId=C083122313ED412FA4EB27591D1A7887&assignmentId=25263165-e019-40b6-938f-9813b31e44f3&projectId=a6b6d205-fa41-4c5b-a7a5-7fc4b51b0cea","C083122313ED412FA4EB27591D1A7887-2025-05-27-18-28-40","","null","","[]","null","",""
"","","","","","image-button-response","31","262985","0.0-10.0-1.0-0.2","C083122313ED412FA4EB27591D1A7887","C083122313ED412FA4EB27591D1A7887","25263165-e019-40b6-938f-9813b31e44f3","a6b6d205-fa41-4c5b-a7a5-7fc4b51b0cea","{""num_scrambled_semantic"":""8"",""num_scrambled_causal"":""4"",""num_scrambled_schematic"":""4"",""participantId"":""C083122313ED412FA4EB27591D1A7887"",""assignmentId"":""25263165-e019-40b6-938f-9813b31e44f3"",""projectId"":""a6b6d205-fa41-4c5b-a7a5-7fc4b51b0cea""}","https://test12345.live/?num_scrambled_semantic=8&num_scrambled_causal=4&num_scrambled_schematic=4&participantId=C083122313ED412FA4EB27591D1A7887&assignmentId=25263165-e019-40b6-938f-9813b31e44f3&projectId=a6b6d205-fa41-4c5b-a7a5-7fc4b51b0cea","C083122313ED412FA4EB27591D1A7887-2025-05-27-18-28-40","","null","","images/semantic_sequence/self_care_activities_semantic/self_care_activities_semantic_8.png","null","",""
"","","","","","image-button-response","32","265508","0.0-10.0-1.0-1.2","C083122313ED412FA4EB27591D1A7887","C083122313ED412FA4EB27591D1A7887","25263165-e019-40b6-938f-9813b31e44f3","a6b6d205-fa41-4c5b-a7a5-7fc4b51b0cea","{""num_scrambled_semantic"":""8"",""num_scrambled_causal"":""4"",""num_scrambled_schematic"":""4"",""participantId"":""C083122313ED412FA4EB27591D1A7887"",""assignmentId"":""25263165-e019-40b6-938f-9813b31e44f3"",""projectId"":""a6b6d205-fa41-4c5b-a7a5-7fc4b51b0cea""}","https://test12345.live/?num_scrambled_semantic=8&num_scrambled_causal=4&num_scrambled_schematic=4&participantId=C083122313ED412FA4EB27591D1A7887&assignmentId=25263165-e019-40b6-938f-9813b31e44f3&projectId=a6b6d205-fa41-4c5b-a7a5-7fc4b51b0cea","C083122313ED412FA4EB27591D1A7887-2025-05-27-18-28-40","","2521","","images/semantic_sequence/self_care_activities_semantic/self_care_activities_semantic_8.png","0","",""
"","","","","","image-button-response","33","267319","0.0-10.0-1.0-2.2","C083122313ED412FA4EB27591D1A7887","C083122313ED412FA4EB27591D1A7887","25263165-e019-40b6-938f-9813b31e44f3","a6b6d205-fa41-4c5b-a7a5-7fc4b51b0cea","{""num_scrambled_semantic"":""8"",""num_scrambled_causal"":""4"",""num_scrambled_schematic"":""4"",""participantId"":""C083122313ED412FA4EB27591D1A7887"",""assignmentId"":""25263165-e019-40b6-938f-9813b31e44f3"",""projectId"":""a6b6d205-fa41-4c5b-a7a5-7fc4b51b0cea""}","https://test12345.live/?num_scrambled_semantic=8&num_scrambled_causal=4&num_scrambled_schematic=4&participantId=C083122313ED412FA4EB27591D1A7887&assignmentId=25263165-e019-40b6-938f-9813b31e44f3&projectId=a6b6d205-fa41-4c5b-a7a5-7fc4b51b0cea","C083122313ED412FA4EB27591D1A7887-2025-05-27-18-28-40","","null","","[]","null","",""
"","","","","","image-button-response","34","271834","0.0-10.0-1.0-0.3","C083122313ED412FA4EB27591D1A7887","C083122313ED412FA4EB27591D1A7887","25263165-e019-40b6-938f-9813b31e44f3","a6b6d205-fa41-4c5b-a7a5-7fc4b51b0cea","{""num_scrambled_semantic"":""8"",""num_scrambled_causal"":""4"",""num_scrambled_schematic"":""4"",""participantId"":""C083122313ED412FA4EB27591D1A7887"",""assignmentId"":""25263165-e019-40b6-938f-9813b31e44f3"",""projectId"":""a6b6d205-fa41-4c5b-a7a5-7fc4b51b0cea""}","https://test12345.live/?num_scrambled_semantic=8&num_scrambled_causal=4&num_scrambled_schematic=4&participantId=C083122313ED412FA4EB27591D1A7887&assignmentId=25263165-e019-40b6-938f-9813b31e44f3&projectId=a6b6d205-fa41-4c5b-a7a5-7fc4b51b0cea","C083122313ED412FA4EB27591D1A7887-2025-05-27-18-28-40","","null","","images/semantic_sequence/self_care_activities_semantic/self_care_activities_semantic_ten.png","null","",""
"","","","","","image-button-response","35","272663","0.0-10.0-1.0-1.3","C083122313ED412FA4EB27591D1A7887","C083122313ED412FA4EB27591D1A7887","25263165-e019-40b6-938f-9813b31e44f3","a6b6d205-fa41-4c5b-a7a5-7fc4b51b0cea","{""num_scrambled_semantic"":""8"",""num_scrambled_causal"":""4"",""num_scrambled_schematic"":""4"",""participantId"":""C083122313ED412FA4EB27591D1A7887"",""assignmentId"":""25263165-e019-40b6-938f-9813b31e44f3"",""projectId"":""a6b6d205-fa41-4c5b-a7a5-7fc4b51b0cea""}","https://test12345.live/?num_scrambled_semantic=8&num_scrambled_causal=4&num_scrambled_schematic=4&participantId=C083122313ED412FA4EB27591D1A7887&assignmentId=25263165-e019-40b6-938f-9813b31e44f3&projectId=a6b6d205-fa41-4c5b-a7a5-7fc4b51b0cea","C083122313ED412FA4EB27591D1A7887-2025-05-27-18-28-40","","827","","images/semantic_sequence/self_care_activities_semantic/self_care_activities_semantic_ten.png","0","",""
"","","","","","image-button-response","36","274467","0.0-10.0-1.0-2.3","C083122313ED412FA4EB27591D1A7887","C083122313ED412FA4EB27591D1A7887","25263165-e019-40b6-938f-9813b31e44f3","a6b6d205-fa41-4c5b-a7a5-7fc4b51b0cea","{""num_scrambled_semantic"":""8"",""num_scrambled_causal"":""4"",""num_scrambled_schematic"":""4"",""participantId"":""C083122313ED412FA4EB27591D1A7887"",""assignmentId"":""25263165-e019-40b6-938f-9813b31e44f3"",""projectId"":""a6b6d205-fa41-4c5b-a7a5-7fc4b51b0cea""}","https://test12345.live/?num_scrambled_semantic=8&num_scrambled_causal=4&num_scrambled_schematic=4&participantId=C083122313ED412FA4EB27591D1A7887&assignmentId=25263165-e019-40b6-938f-9813b31e44f3&projectId=a6b6d205-fa41-4c5b-a7a5-7fc4b51b0cea","C083122313ED412FA4EB27591D1A7887-2025-05-27-18-28-40","","null","","[]","null","",""
"","","","","","image-button-response","37","278982","0.0-10.0-1.0-0.4","C083122313ED412FA4EB27591D1A7887","C083122313ED412FA4EB27591D1A7887","25263165-e019-40b6-938f-9813b31e44f3","a6b6d205-fa41-4c5b-a7a5-7fc4b51b0cea","{""num_scrambled_semantic"":""8"",""num_scrambled_causal"":""4"",""num_scrambled_schematic"":""4"",""participantId"":""C083122313ED412FA4EB27591D1A7887"",""assignmentId"":""25263165-e019-40b6-938f-9813b31e44f3"",""projectId"":""a6b6d205-fa41-4c5b-a7a5-7fc4b51b0cea""}","https://test12345.live/?num_scrambled_semantic=8&num_scrambled_causal=4&num_scrambled_schematic=4&participantId=C083122313ED412FA4EB27591D1A7887&assignmentId=25263165-e019-40b6-938f-9813b31e44f3&projectId=a6b6d205-fa41-4c5b-a7a5-7fc4b51b0cea","C083122313ED412FA4EB27591D1A7887-2025-05-27-18-28-40","","null","","images/semantic_sequence/self_care_activities_semantic/self_care_activities_semantic_7.png","null","",""
"","","","","","image-button-response","38","281596","0.0-10.0-1.0-1.4","C083122313ED412FA4EB27591D1A7887","C083122313ED412FA4EB27591D1A7887","25263165-e019-40b6-938f-9813b31e44f3","a6b6d205-fa41-4c5b-a7a5-7fc4b51b0cea","{""num_scrambled_semantic"":""8"",""num_scrambled_causal"":""4"",""num_scrambled_schematic"":""4"",""participantId"":""C083122313ED412FA4EB27591D1A7887"",""assignmentId"":""25263165-e019-40b6-938f-9813b31e44f3"",""projectId"":""a6b6d205-fa41-4c5b-a7a5-7fc4b51b0cea""}","https://test12345.live/?num_scrambled_semantic=8&num_scrambled_causal=4&num_scrambled_schematic=4&participantId=C083122313ED412FA4EB27591D1A7887&assignmentId=25263165-e019-40b6-938f-9813b31e44f3&projectId=a6b6d205-fa41-4c5b-a7a5-7fc4b51b0cea","C083122313ED412FA4EB27591D1A7887-2025-05-27-18-28-40","","2612","","images/semantic_sequence/self_care_activities_semantic/self_care_activities_semantic_7.png","0","",""
"","","","","","image-button-response","39","283411","0.0-10.0-1.0-2.4","C083122313ED412FA4EB27591D1A7887","C083122313ED412FA4EB27591D1A7887","25263165-e019-40b6-938f-9813b31e44f3","a6b6d205-fa41-4c5b-a7a5-7fc4b51b0cea","{""num_scrambled_semantic"":""8"",""num_scrambled_causal"":""4"",""num_scrambled_schematic"":""4"",""participantId"":""C083122313ED412FA4EB27591D1A7887"",""assignmentId"":""25263165-e019-40b6-938f-9813b31e44f3"",""projectId"":""a6b6d205-fa41-4c5b-a7a5-7fc4b51b0cea""}","https://test12345.live/?num_scrambled_semantic=8&num_scrambled_causal=4&num_scrambled_schematic=4&participantId=C083122313ED412FA4EB27591D1A7887&assignmentId=25263165-e019-40b6-938f-9813b31e44f3&projectId=a6b6d205-fa41-4c5b-a7a5-7fc4b51b0cea","C083122313ED412FA4EB27591D1A7887-2025-05-27-18-28-40","","null","","[]","null","",""
"","","","","","image-button-response","40","287925","0.0-10.0-1.0-0.5","C083122313ED412FA4EB27591D1A7887","C083122313ED412FA4EB27591D1A7887","25263165-e019-40b6-938f-9813b31e44f3","a6b6d205-fa41-4c5b-a7a5-7fc4b51b0cea","{""num_scrambled_semantic"":""8"",""num_scrambled_causal"":""4"",""num_scrambled_schematic"":""4"",""participantId"":""C083122313ED412FA4EB27591D1A7887"",""assignmentId"":""25263165-e019-40b6-938f-9813b31e44f3"",""projectId"":""a6b6d205-fa41-4c5b-a7a5-7fc4b51b0cea""}","https://test12345.live/?num_scrambled_semantic=8&num_scrambled_causal=4&num_scrambled_schematic=4&participantId=C083122313ED412FA4EB27591D1A7887&assignmentId=25263165-e019-40b6-938f-9813b31e44f3&projectId=a6b6d205-fa41-4c5b-a7a5-7fc4b51b0cea","C083122313ED412FA4EB27591D1A7887-2025-05-27-18-28-40","","null","","images/semantic_sequence/self_care_activities_semantic/self_care_activities_semantic_6.png","null","",""
"","","","","","image-button-response","41","290190","0.0-10.0-1.0-1.5","C083122313ED412FA4EB27591D1A7887","C083122313ED412FA4EB27591D1A7887","25263165-e019-40b6-938f-9813b31e44f3","a6b6d205-fa41-4c5b-a7a5-7fc4b51b0cea","{""num_scrambled_semantic"":""8"",""num_scrambled_causal"":""4"",""num_scrambled_schematic"":""4"",""participantId"":""C083122313ED412FA4EB27591D1A7887"",""assignmentId"":""25263165-e019-40b6-938f-9813b31e44f3"",""projectId"":""a6b6d205-fa41-4c5b-a7a5-7fc4b51b0cea""}","https://test12345.live/?num_scrambled_semantic=8&num_scrambled_causal=4&num_scrambled_schematic=4&participantId=C083122313ED412FA4EB27591D1A7887&assignmentId=25263165-e019-40b6-938f-9813b31e44f3&projectId=a6b6d205-fa41-4c5b-a7a5-7fc4b51b0cea","C083122313ED412FA4EB27591D1A7887-2025-05-27-18-28-40","","2262","","images/semantic_sequence/self_care_activities_semantic/self_care_activities_semantic_6.png","1","",""
"","","","","","image-button-response","42","291998","0.0-10.0-1.0-2.5","C083122313ED412FA4EB27591D1A7887","C083122313ED412FA4EB27591D1A7887","25263165-e019-40b6-938f-9813b31e44f3","a6b6d205-fa41-4c5b-a7a5-7fc4b51b0cea","{""num_scrambled_semantic"":""8"",""num_scrambled_causal"":""4"",""num_scrambled_schematic"":""4"",""participantId"":""C083122313ED412FA4EB27591D1A7887"",""assignmentId"":""25263165-e019-40b6-938f-9813b31e44f3"",""projectId"":""a6b6d205-fa41-4c5b-a7a5-7fc4b51b0cea""}","https://test12345.live/?num_scrambled_semantic=8&num_scrambled_causal=4&num_scrambled_schematic=4&participantId=C083122313ED412FA4EB27591D1A7887&assignmentId=25263165-e019-40b6-938f-9813b31e44f3&projectId=a6b6d205-fa41-4c5b-a7a5-7fc4b51b0cea","C083122313ED412FA4EB27591D1A7887-2025-05-27-18-28-40","","null","","[]","null","",""
"","","","","","image-button-response","43","296509","0.0-10.0-1.0-0.6","C083122313ED412FA4EB27591D1A7887","C083122313ED412FA4EB27591D1A7887","25263165-e019-40b6-938f-9813b31e44f3","a6b6d205-fa41-4c5b-a7a5-7fc4b51b0cea","{""num_scrambled_semantic"":""8"",""num_scrambled_causal"":""4"",""num_scrambled_schematic"":""4"",""participantId"":""C083122313ED412FA4EB27591D1A7887"",""assignmentId"":""25263165-e019-40b6-938f-9813b31e44f3"",""projectId"":""a6b6d205-fa41-4c5b-a7a5-7fc4b51b0cea""}","https://test12345.live/?num_scrambled_semantic=8&num_scrambled_causal=4&num_scrambled_schematic=4&participantId=C083122313ED412FA4EB27591D1A7887&assignmentId=25263165-e019-40b6-938f-9813b31e44f3&projectId=a6b6d205-fa41-4c5b-a7a5-7fc4b51b0cea","C083122313ED412FA4EB27591D1A7887-2025-05-27-18-28-40","","null","","images/semantic_sequence/self_care_activities_semantic/self_care_activities_semantic_5.png","null","",""
"","","","","","image-button-response","44","300528","0.0-10.0-1.0-1.6","C083122313ED412FA4EB27591D1A7887","C083122313ED412FA4EB27591D1A7887","25263165-e019-40b6-938f-9813b31e44f3","a6b6d205-fa41-4c5b-a7a5-7fc4b51b0cea","{""num_scrambled_semantic"":""8"",""num_scrambled_causal"":""4"",""num_scrambled_schematic"":""4"",""participantId"":""C083122313ED412FA4EB27591D1A7887"",""assignmentId"":""25263165-e019-40b6-938f-9813b31e44f3"",""projectId"":""a6b6d205-fa41-4c5b-a7a5-7fc4b51b0cea""}","https://test12345.live/?num_scrambled_semantic=8&num_scrambled_causal=4&num_scrambled_schematic=4&participantId=C083122313ED412FA4EB27591D1A7887&assignmentId=25263165-e019-40b6-938f-9813b31e44f3&projectId=a6b6d205-fa41-4c5b-a7a5-7fc4b51b0cea","C083122313ED412FA4EB27591D1A7887-2025-05-27-18-28-40","","null","","images/semantic_sequence/self_care_activities_semantic/self_care_activities_semantic_5.png","null","",""
"","","","","","image-button-response","45","302345","0.0-10.0-1.0-2.6","C083122313ED412FA4EB27591D1A7887","C083122313ED412FA4EB27591D1A7887","25263165-e019-40b6-938f-9813b31e44f3","a6b6d205-fa41-4c5b-a7a5-7fc4b51b0cea","{""num_scrambled_semantic"":""8"",""num_scrambled_causal"":""4"",""num_scrambled_schematic"":""4"",""participantId"":""C083122313ED412FA4EB27591D1A7887"",""assignmentId"":""25263165-e019-40b6-938f-9813b31e44f3"",""projectId"":""a6b6d205-fa41-4c5b-a7a5-7fc4b51b0cea""}","https://test12345.live/?num_scrambled_semantic=8&num_scrambled_causal=4&num_scrambled_schematic=4&participantId=C083122313ED412FA4EB27591D1A7887&assignmentId=25263165-e019-40b6-938f-9813b31e44f3&projectId=a6b6d205-fa41-4c5b-a7a5-7fc4b51b0cea","C083122313ED412FA4EB27591D1A7887-2025-05-27-18-28-40","","null","","[]","null","",""
"","","","","","image-button-response","46","306856","0.0-10.0-1.0-0.7","C083122313ED412FA4EB27591D1A7887","C083122313ED412FA4EB27591D1A7887","25263165-e019-40b6-938f-9813b31e44f3","a6b6d205-fa41-4c5b-a7a5-7fc4b51b0cea","{""num_scrambled_semantic"":""8"",""num_scrambled_causal"":""4"",""num_scrambled_schematic"":""4"",""participantId"":""C083122313ED412FA4EB27591D1A7887"",""assignmentId"":""25263165-e019-40b6-938f-9813b31e44f3"",""projectId"":""a6b6d205-fa41-4c5b-a7a5-7fc4b51b0cea""}","https://test12345.live/?num_scrambled_semantic=8&num_scrambled_causal=4&num_scrambled_schematic=4&participantId=C083122313ED412FA4EB27591D1A7887&assignmentId=25263165-e019-40b6-938f-9813b31e44f3&projectId=a6b6d205-fa41-4c5b-a7a5-7fc4b51b0cea","C083122313ED412FA4EB27591D1A7887-2025-05-27-18-28-40","","null","","images/semantic_sequence/self_care_activities_semantic/self_care_activities_semantic_2.png","null","",""
"","","","","","image-button-response","47","307641","0.0-10.0-1.0-1.7","C083122313ED412FA4EB27591D1A7887","C083122313ED412FA4EB27591D1A7887","25263165-e019-40b6-938f-9813b31e44f3","a6b6d205-fa41-4c5b-a7a5-7fc4b51b0cea","{""num_scrambled_semantic"":""8"",""num_scrambled_causal"":""4"",""num_scrambled_schematic"":""4"",""participantId"":""C083122313ED412FA4EB27591D1A7887"",""assignmentId"":""25263165-e019-40b6-938f-9813b31e44f3"",""projectId"":""a6b6d205-fa41-4c5b-a7a5-7fc4b51b0cea""}","https://test12345.live/?num_scrambled_semantic=8&num_scrambled_causal=4&num_scrambled_schematic=4&participantId=C083122313ED412FA4EB27591D1A7887&assignmentId=25263165-e019-40b6-938f-9813b31e44f3&projectId=a6b6d205-fa41-4c5b-a7a5-7fc4b51b0cea","C083122313ED412FA4EB27591D1A7887-2025-05-27-18-28-40","","782","","images/semantic_sequence/self_care_activities_semantic/self_care_activities_semantic_2.png","0","",""
"","","","","","image-button-response","48","309458","0.0-10.0-1.0-2.7","C083122313ED412FA4EB27591D1A7887","C083122313ED412FA4EB27591D1A7887","25263165-e019-40b6-938f-9813b31e44f3","a6b6d205-fa41-4c5b-a7a5-7fc4b51b0cea","{""num_scrambled_semantic"":""8"",""num_scrambled_causal"":""4"",""num_scrambled_schematic"":""4"",""participantId"":""C083122313ED412FA4EB27591D1A7887"",""assignmentId"":""25263165-e019-40b6-938f-9813b31e44f3"",""projectId"":""a6b6d205-fa41-4c5b-a7a5-7fc4b51b0cea""}","https://test12345.live/?num_scrambled_semantic=8&num_scrambled_causal=4&num_scrambled_schematic=4&participantId=C083122313ED412FA4EB27591D1A7887&assignmentId=25263165-e019-40b6-938f-9813b31e44f3&projectId=a6b6d205-fa41-4c5b-a7a5-7fc4b51b0cea","C083122313ED412FA4EB27591D1A7887-2025-05-27-18-28-40","","null","","[]","null","",""
"","","","","","image-button-response","49","313968","0.0-10.0-1.0-0.8","C083122313ED412FA4EB27591D1A7887","C083122313ED412FA4EB27591D1A7887","25263165-e019-40b6-938f-9813b31e44f3","a6b6d205-fa41-4c5b-a7a5-7fc4b51b0cea","{""num_scrambled_semantic"":""8"",""num_scrambled_causal"":""4"",""num_scrambled_schematic"":""4"",""participantId"":""C083122313ED412FA4EB27591D1A7887"",""assignmentId"":""25263165-e019-40b6-938f-9813b31e44f3"",""projectId"":""a6b6d205-fa41-4c5b-a7a5-7fc4b51b0cea""}","https://test12345.live/?num_scrambled_semantic=8&num_scrambled_causal=4&num_scrambled_schematic=4&participantId=C083122313ED412FA4EB27591D1A7887&assignmentId=25263165-e019-40b6-938f-9813b31e44f3&projectId=a6b6d205-fa41-4c5b-a7a5-7fc4b51b0cea","C083122313ED412FA4EB27591D1A7887-2025-05-27-18-28-40","","null","","images/semantic_sequence/self_care_activities_semantic/self_care_activities_semantic_4.png","null","",""
"","","","","","image-button-response","50","316406","0.0-10.0-1.0-1.8","C083122313ED412FA4EB27591D1A7887","C083122313ED412FA4EB27591D1A7887","25263165-e019-40b6-938f-9813b31e44f3","a6b6d205-fa41-4c5b-a7a5-7fc4b51b0cea","{""num_scrambled_semantic"":""8"",""num_scrambled_causal"":""4"",""num_scrambled_schematic"":""4"",""participantId"":""C083122313ED412FA4EB27591D1A7887"",""assignmentId"":""25263165-e019-40b6-938f-9813b31e44f3"",""projectId"":""a6b6d205-fa41-4c5b-a7a5-7fc4b51b0cea""}","https://test12345.live/?num_scrambled_semantic=8&num_scrambled_causal=4&num_scrambled_schematic=4&participantId=C083122313ED412FA4EB27591D1A7887&assignmentId=25263165-e019-40b6-938f-9813b31e44f3&projectId=a6b6d205-fa41-4c5b-a7a5-7fc4b51b0cea","C083122313ED412FA4EB27591D1A7887-2025-05-27-18-28-40","","2436","","images/semantic_sequence/self_care_activities_semantic/self_care_activities_semantic_4.png","0","",""
"","","","","","image-button-response","51","318221","0.0-10.0-1.0-2.8","C083122313ED412FA4EB27591D1A7887","C083122313ED412FA4EB27591D1A7887","25263165-e019-40b6-938f-9813b31e44f3","a6b6d205-fa41-4c5b-a7a5-7fc4b51b0cea","{""num_scrambled_semantic"":""8"",""num_scrambled_causal"":""4"",""num_scrambled_schematic"":""4"",""participantId"":""C083122313ED412FA4EB27591D1A7887"",""assignmentId"":""25263165-e019-40b6-938f-9813b31e44f3"",""projectId"":""a6b6d205-fa41-4c5b-a7a5-7fc4b51b0cea""}","https://test12345.live/?num_scrambled_semantic=8&num_scrambled_causal=4&num_scrambled_schematic=4&participantId=C083122313ED412FA4EB27591D1A7887&assignmentId=25263165-e019-40b6-938f-9813b31e44f3&projectId=a6b6d205-fa41-4c5b-a7a5-7fc4b51b0cea","C083122313ED412FA4EB27591D1A7887-2025-05-27-18-28-40","","null","","[]","null","",""
"","","","","","image-button-response","52","322725","0.0-10.0-1.0-0.9","C083122313ED412FA4EB27591D1A7887","C083122313ED412FA4EB27591D1A7887","25263165-e019-40b6-938f-9813b31e44f3","a6b6d205-fa41-4c5b-a7a5-7fc4b51b0cea","{""num_scrambled_semantic"":""8"",""num_scrambled_causal"":""4"",""num_scrambled_schematic"":""4"",""participantId"":""C083122313ED412FA4EB27591D1A7887"",""assignmentId"":""25263165-e019-40b6-938f-9813b31e44f3"",""projectId"":""a6b6d205-fa41-4c5b-a7a5-7fc4b51b0cea""}","https://test12345.live/?num_scrambled_semantic=8&num_scrambled_causal=4&num_scrambled_schematic=4&participantId=C083122313ED412FA4EB27591D1A7887&assignmentId=25263165-e019-40b6-938f-9813b31e44f3&projectId=a6b6d205-fa41-4c5b-a7a5-7fc4b51b0cea","C083122313ED412FA4EB27591D1A7887-2025-05-27-18-28-40","","null","","images/semantic_sequence/self_care_activities_semantic/self_care_activities_semantic_3.png","null","",""
"","","","","","image-button-response","53","326556","0.0-10.0-1.0-1.9","C083122313ED412FA4EB27591D1A7887","C083122313ED412FA4EB27591D1A7887","25263165-e019-40b6-938f-9813b31e44f3","a6b6d205-fa41-4c5b-a7a5-7fc4b51b0cea","{""num_scrambled_semantic"":""8"",""num_scrambled_causal"":""4"",""num_scrambled_schematic"":""4"",""participantId"":""C083122313ED412FA4EB27591D1A7887"",""assignmentId"":""25263165-e019-40b6-938f-9813b31e44f3"",""projectId"":""a6b6d205-fa41-4c5b-a7a5-7fc4b51b0cea""}","https://test12345.live/?num_scrambled_semantic=8&num_scrambled_causal=4&num_scrambled_schematic=4&participantId=C083122313ED412FA4EB27591D1A7887&assignmentId=25263165-e019-40b6-938f-9813b31e44f3&projectId=a6b6d205-fa41-4c5b-a7a5-7fc4b51b0cea","C083122313ED412FA4EB27591D1A7887-2025-05-27-18-28-40","","3830","","images/semantic_sequence/self_care_activities_semantic/self_care_activities_semantic_3.png","0","",""
"","","","","","image-button-response","54","328364","0.0-10.0-1.0-2.9","C083122313ED412FA4EB27591D1A7887","C083122313ED412FA4EB27591D1A7887","25263165-e019-40b6-938f-9813b31e44f3","a6b6d205-fa41-4c5b-a7a5-7fc4b51b0cea","{""num_scrambled_semantic"":""8"",""num_scrambled_causal"":""4"",""num_scrambled_schematic"":""4"",""participantId"":""C083122313ED412FA4EB27591D1A7887"",""assignmentId"":""25263165-e019-40b6-938f-9813b31e44f3"",""projectId"":""a6b6d205-fa41-4c5b-a7a5-7fc4b51b0cea""}","https://test12345.live/?num_scrambled_semantic=8&num_scrambled_causal=4&num_scrambled_schematic=4&participantId=C083122313ED412FA4EB27591D1A7887&assignmentId=25263165-e019-40b6-938f-9813b31e44f3&projectId=a6b6d205-fa41-4c5b-a7a5-7fc4b51b0cea","C083122313ED412FA4EB27591D1A7887-2025-05-27-18-28-40","","null","","[]","null","",""
"","","","","","html-audio-response","55","369657","0.0-11.0","C083122313ED412FA4EB27591D1A7887","C083122313ED412FA4EB27591D1A7887","25263165-e019-40b6-938f-9813b31e44f3","a6b6d205-fa41-4c5b-a7a5-7fc4b51b0cea","{""num_scrambled_semantic"":""8"",""num_scrambled_causal"":""4"",""num_scrambled_schematic"":""4"",""participantId"":""C083122313ED412FA4EB27591D1A7887"",""assignmentId"":""25263165-e019-40b6-938f-9813b31e44f3"",""projectId"":""a6b6d205-fa41-4c5b-a7a5-7fc4b51b0cea""}","https://test12345.live/?num_scrambled_semantic=8&num_scrambled_causal=4&num_scrambled_schematic=4&participantId=C083122313ED412FA4EB27591D1A7887&assignmentId=25263165-e019-40b6-938f-9813b31e44f3&projectId=a6b6d205-fa41-4c5b-a7a5-7fc4b51b0cea","C083122313ED412FA4EB27591D1A7887-2025-05-27-18-28-40","","21445","","[""<span style=\""color: red; font-size: 24px\""> NOW RECORDING</span><p>Please say out loud all the images you saw, in the exact order you saw them. Try to recall as many images as you can, but remember: getting the order right is more important than the number of images you recall.</p>""]","","2","self_care_activities_semantic"
"","","","","","image-button-response","56","375682","0.0-12.0-0.0","C083122313ED412FA4EB27591D1A7887","C083122313ED412FA4EB27591D1A7887","25263165-e019-40b6-938f-9813b31e44f3","a6b6d205-fa41-4c5b-a7a5-7fc4b51b0cea","{""num_scrambled_semantic"":""8"",""num_scrambled_causal"":""4"",""num_scrambled_schematic"":""4"",""participantId"":""C083122313ED412FA4EB27591D1A7887"",""assignmentId"":""25263165-e019-40b6-938f-9813b31e44f3"",""projectId"":""a6b6d205-fa41-4c5b-a7a5-7fc4b51b0cea""}","https://test12345.live/?num_scrambled_semantic=8&num_scrambled_causal=4&num_scrambled_schematic=4&participantId=C083122313ED412FA4EB27591D1A7887&assignmentId=25263165-e019-40b6-938f-9813b31e44f3&projectId=a6b6d205-fa41-4c5b-a7a5-7fc4b51b0cea","C083122313ED412FA4EB27591D1A7887-2025-05-27-18-28-40","","null","","images/causal_sequence/saving_a_cat_causal/saving_a_cat_causal_0.png","null","",""
"","","","","","image-button-response","57","380195","0.0-12.0-1.0-0.0","C083122313ED412FA4EB27591D1A7887","C083122313ED412FA4EB27591D1A7887","25263165-e019-40b6-938f-9813b31e44f3","a6b6d205-fa41-4c5b-a7a5-7fc4b51b0cea","{""num_scrambled_semantic"":""8"",""num_scrambled_causal"":""4"",""num_scrambled_schematic"":""4"",""participantId"":""C083122313ED412FA4EB27591D1A7887"",""assignmentId"":""25263165-e019-40b6-938f-9813b31e44f3"",""projectId"":""a6b6d205-fa41-4c5b-a7a5-7fc4b51b0cea""}","https://test12345.live/?num_scrambled_semantic=8&num_scrambled_causal=4&num_scrambled_schematic=4&participantId=C083122313ED412FA4EB27591D1A7887&assignmentId=25263165-e019-40b6-938f-9813b31e44f3&projectId=a6b6d205-fa41-4c5b-a7a5-7fc4b51b0cea","C083122313ED412FA4EB27591D1A7887-2025-05-27-18-28-40","","null","","images/causal_sequence/saving_a_cat_causal/saving_a_cat_causal_4.png","null","",""
"","","","","","image-button-response","58","382408","0.0-12.0-1.0-1.0","C083122313ED412FA4EB27591D1A7887","C083122313ED412FA4EB27591D1A7887","25263165-e019-40b6-938f-9813b31e44f3","a6b6d205-fa41-4c5b-a7a5-7fc4b51b0cea","{""num_scrambled_semantic"":""8"",""num_scrambled_causal"":""4"",""num_scrambled_schematic"":""4"",""participantId"":""C083122313ED412FA4EB27591D1A7887"",""assignmentId"":""25263165-e019-40b6-938f-9813b31e44f3"",""projectId"":""a6b6d205-fa41-4c5b-a7a5-7fc4b51b0cea""}","https://test12345.live/?num_scrambled_semantic=8&num_scrambled_causal=4&num_scrambled_schematic=4&participantId=C083122313ED412FA4EB27591D1A7887&assignmentId=25263165-e019-40b6-938f-9813b31e44f3&projectId=a6b6d205-fa41-4c5b-a7a5-7fc4b51b0cea","C083122313ED412FA4EB27591D1A7887-2025-05-27-18-28-40","","2211","","images/causal_sequence/saving_a_cat_causal/saving_a_cat_causal_4.png","0","",""
"","","","","","image-button-response","59","384216","0.0-12.0-1.0-2.0","C083122313ED412FA4EB27591D1A7887","C083122313ED412FA4EB27591D1A7887","25263165-e019-40b6-938f-9813b31e44f3","a6b6d205-fa41-4c5b-a7a5-7fc4b51b0cea","{""num_scrambled_semantic"":""8"",""num_scrambled_causal"":""4"",""num_scrambled_schematic"":""4"",""participantId"":""C083122313ED412FA4EB27591D1A7887"",""assignmentId"":""25263165-e019-40b6-938f-9813b31e44f3"",""projectId"":""a6b6d205-fa41-4c5b-a7a5-7fc4b51b0cea""}","https://test12345.live/?num_scrambled_semantic=8&num_scrambled_causal=4&num_scrambled_schematic=4&participantId=C083122313ED412FA4EB27591D1A7887&assignmentId=25263165-e019-40b6-938f-9813b31e44f3&projectId=a6b6d205-fa41-4c5b-a7a5-7fc4b51b0cea","C083122313ED412FA4EB27591D1A7887-2025-05-27-18-28-40","","null","","[]","null","",""
"","","","","","image-button-response","60","388725","0.0-12.0-1.0-0.1","C083122313ED412FA4EB27591D1A7887","C083122313ED412FA4EB27591D1A7887","25263165-e019-40b6-938f-9813b31e44f3","a6b6d205-fa41-4c5b-a7a5-7fc4b51b0cea","{""num_scrambled_semantic"":""8"",""num_scrambled_causal"":""4"",""num_scrambled_schematic"":""4"",""participantId"":""C083122313ED412FA4EB27591D1A7887"",""assignmentId"":""25263165-e019-40b6-938f-9813b31e44f3"",""projectId"":""a6b6d205-fa41-4c5b-a7a5-7fc4b51b0cea""}","https://test12345.live/?num_scrambled_semantic=8&num_scrambled_causal=4&num_scrambled_schematic=4&participantId=C083122313ED412FA4EB27591D1A7887&assignmentId=25263165-e019-40b6-938f-9813b31e44f3&projectId=a6b6d205-fa41-4c5b-a7a5-7fc4b51b0cea","C083122313ED412FA4EB27591D1A7887-2025-05-27-18-28-40","","null","","images/causal_sequence/saving_a_cat_causal/saving_a_cat_causal_6.png","null","",""
"","","","","","image-button-response","61","392322","0.0-12.0-1.0-1.1","C083122313ED412FA4EB27591D1A7887","C083122313ED412FA4EB27591D1A7887","25263165-e019-40b6-938f-9813b31e44f3","a6b6d205-fa41-4c5b-a7a5-7fc4b51b0cea","{""num_scrambled_semantic"":""8"",""num_scrambled_causal"":""4"",""num_scrambled_schematic"":""4"",""participantId"":""C083122313ED412FA4EB27591D1A7887"",""assignmentId"":""25263165-e019-40b6-938f-9813b31e44f3"",""projectId"":""a6b6d205-fa41-4c5b-a7a5-7fc4b51b0cea""}","https://test12345.live/?num_scrambled_semantic=8&num_scrambled_causal=4&num_scrambled_schematic=4&participantId=C083122313ED412FA4EB27591D1A7887&assignmentId=25263165-e019-40b6-938f-9813b31e44f3&projectId=a6b6d205-fa41-4c5b-a7a5-7fc4b51b0cea","C083122313ED412FA4EB27591D1A7887-2025-05-27-18-28-40","","3596","","images/causal_sequence/saving_a_cat_causal/saving_a_cat_causal_6.png","0","",""
"","","","","","image-button-response","62","394138","0.0-12.0-1.0-2.1","C083122313ED412FA4EB27591D1A7887","C083122313ED412FA4EB27591D1A7887","25263165-e019-40b6-938f-9813b31e44f3","a6b6d205-fa41-4c5b-a7a5-7fc4b51b0cea","{""num_scrambled_semantic"":""8"",""num_scrambled_causal"":""4"",""num_scrambled_schematic"":""4"",""participantId"":""C083122313ED412FA4EB27591D1A7887"",""assignmentId"":""25263165-e019-40b6-938f-9813b31e44f3"",""projectId"":""a6b6d205-fa41-4c5b-a7a5-7fc4b51b0cea""}","https://test12345.live/?num_scrambled_semantic=8&num_scrambled_causal=4&num_scrambled_schematic=4&participantId=C083122313ED412FA4EB27591D1A7887&assignmentId=25263165-e019-40b6-938f-9813b31e44f3&projectId=a6b6d205-fa41-4c5b-a7a5-7fc4b51b0cea","C083122313ED412FA4EB27591D1A7887-2025-05-27-18-28-40","","null","","[]","null","",""
"","","","","","image-button-response","63","398651","0.0-12.0-1.0-0.2","C083122313ED412FA4EB27591D1A7887","C083122313ED412FA4EB27591D1A7887","25263165-e019-40b6-938f-9813b31e44f3","a6b6d205-fa41-4c5b-a7a5-7fc4b51b0cea","{""num_scrambled_semantic"":""8"",""num_scrambled_causal"":""4"",""num_scrambled_schematic"":""4"",""participantId"":""C083122313ED412FA4EB27591D1A7887"",""assignmentId"":""25263165-e019-40b6-938f-9813b31e44f3"",""projectId"":""a6b6d205-fa41-4c5b-a7a5-7fc4b51b0cea""}","https://test12345.live/?num_scrambled_semantic=8&num_scrambled_causal=4&num_scrambled_schematic=4&participantId=C083122313ED412FA4EB27591D1A7887&assignmentId=25263165-e019-40b6-938f-9813b31e44f3&projectId=a6b6d205-fa41-4c5b-a7a5-7fc4b51b0cea","C083122313ED412FA4EB27591D1A7887-2025-05-27-18-28-40","","null","","images/causal_sequence/saving_a_cat_causal/saving_a_cat_causal_ten.png","null","",""
"","","","","","image-button-response","64","401654","0.0-12.0-1.0-1.2","C083122313ED412FA4EB27591D1A7887","C083122313ED412FA4EB27591D1A7887","25263165-e019-40b6-938f-9813b31e44f3","a6b6d205-fa41-4c5b-a7a5-7fc4b51b0cea","{""num_scrambled_semantic"":""8"",""num_scrambled_causal"":""4"",""num_scrambled_schematic"":""4"",""participantId"":""C083122313ED412FA4EB27591D1A7887"",""assignmentId"":""25263165-e019-40b6-938f-9813b31e44f3"",""projectId"":""a6b6d205-fa41-4c5b-a7a5-7fc4b51b0cea""}","https://test12345.live/?num_scrambled_semantic=8&num_scrambled_causal=4&num_scrambled_schematic=4&participantId=C083122313ED412FA4EB27591D1A7887&assignmentId=25263165-e019-40b6-938f-9813b31e44f3&projectId=a6b6d205-fa41-4c5b-a7a5-7fc4b51b0cea","C083122313ED412FA4EB27591D1A7887-2025-05-27-18-28-40","","3001","","images/causal_sequence/saving_a_cat_causal/saving_a_cat_causal_ten.png","0","",""
"","","","","","image-button-response","65","403459","0.0-12.0-1.0-2.2","C083122313ED412FA4EB27591D1A7887","C083122313ED412FA4EB27591D1A7887","25263165-e019-40b6-938f-9813b31e44f3","a6b6d205-fa41-4c5b-a7a5-7fc4b51b0cea","{""num_scrambled_semantic"":""8"",""num_scrambled_causal"":""4"",""num_scrambled_schematic"":""4"",""participantId"":""C083122313ED412FA4EB27591D1A7887"",""assignmentId"":""25263165-e019-40b6-938f-9813b31e44f3"",""projectId"":""a6b6d205-fa41-4c5b-a7a5-7fc4b51b0cea""}","https://test12345.live/?num_scrambled_semantic=8&num_scrambled_causal=4&num_scrambled_schematic=4&participantId=C083122313ED412FA4EB27591D1A7887&assignmentId=25263165-e019-40b6-938f-9813b31e44f3&projectId=a6b6d205-fa41-4c5b-a7a5-7fc4b51b0cea","C083122313ED412FA4EB27591D1A7887-2025-05-27-18-28-40","","null","","[]","null","",""
"","","","","","image-button-response","66","407968","0.0-12.0-1.0-0.3","C083122313ED412FA4EB27591D1A7887","C083122313ED412FA4EB27591D1A7887","25263165-e019-40b6-938f-9813b31e44f3","a6b6d205-fa41-4c5b-a7a5-7fc4b51b0cea","{""num_scrambled_semantic"":""8"",""num_scrambled_causal"":""4"",""num_scrambled_schematic"":""4"",""participantId"":""C083122313ED412FA4EB27591D1A7887"",""assignmentId"":""25263165-e019-40b6-938f-9813b31e44f3"",""projectId"":""a6b6d205-fa41-4c5b-a7a5-7fc4b51b0cea""}","https://test12345.live/?num_scrambled_semantic=8&num_scrambled_causal=4&num_scrambled_schematic=4&participantId=C083122313ED412FA4EB27591D1A7887&assignmentId=25263165-e019-40b6-938f-9813b31e44f3&projectId=a6b6d205-fa41-4c5b-a7a5-7fc4b51b0cea","C083122313ED412FA4EB27591D1A7887-2025-05-27-18-28-40","","null","","images/causal_sequence/saving_a_cat_causal/saving_a_cat_causal_3.png","null","",""
"","","","","","image-button-response","67","411538","0.0-12.0-1.0-1.3","C083122313ED412FA4EB27591D1A7887","C083122313ED412FA4EB27591D1A7887","25263165-e019-40b6-938f-9813b31e44f3","a6b6d205-fa41-4c5b-a7a5-7fc4b51b0cea","{""num_scrambled_semantic"":""8"",""num_scrambled_causal"":""4"",""num_scrambled_schematic"":""4"",""participantId"":""C083122313ED412FA4EB27591D1A7887"",""assignmentId"":""25263165-e019-40b6-938f-9813b31e44f3"",""projectId"":""a6b6d205-fa41-4c5b-a7a5-7fc4b51b0cea""}","https://test12345.live/?num_scrambled_semantic=8&num_scrambled_causal=4&num_scrambled_schematic=4&participantId=C083122313ED412FA4EB27591D1A7887&assignmentId=25263165-e019-40b6-938f-9813b31e44f3&projectId=a6b6d205-fa41-4c5b-a7a5-7fc4b51b0cea","C083122313ED412FA4EB27591D1A7887-2025-05-27-18-28-40","","3568","","images/causal_sequence/saving_a_cat_causal/saving_a_cat_causal_3.png","1","",""
"","","","","","image-button-response","68","413345","0.0-12.0-1.0-2.3","C083122313ED412FA4EB27591D1A7887","C083122313ED412FA4EB27591D1A7887","25263165-e019-40b6-938f-9813b31e44f3","a6b6d205-fa41-4c5b-a7a5-7fc4b51b0cea","{""num_scrambled_semantic"":""8"",""num_scrambled_causal"":""4"",""num_scrambled_schematic"":""4"",""participantId"":""C083122313ED412FA4EB27591D1A7887"",""assignmentId"":""25263165-e019-40b6-938f-9813b31e44f3"",""projectId"":""a6b6d205-fa41-4c5b-a7a5-7fc4b51b0cea""}","https://test12345.live/?num_scrambled_semantic=8&num_scrambled_causal=4&num_scrambled_schematic=4&participantId=C083122313ED412FA4EB27591D1A7887&assignmentId=25263165-e019-40b6-938f-9813b31e44f3&projectId=a6b6d205-fa41-4c5b-a7a5-7fc4b51b0cea","C083122313ED412FA4EB27591D1A7887-2025-05-27-18-28-40","","null","","[]","null","",""
"","","","","","image-button-response","69","417851","0.0-12.0-1.0-0.4","C083122313ED412FA4EB27591D1A7887","C083122313ED412FA4EB27591D1A7887","25263165-e019-40b6-938f-9813b31e44f3","a6b6d205-fa41-4c5b-a7a5-7fc4b51b0cea","{""num_scrambled_semantic"":""8"",""num_scrambled_causal"":""4"",""num_scrambled_schematic"":""4"",""participantId"":""C083122313ED412FA4EB27591D1A7887"",""assignmentId"":""25263165-e019-40b6-938f-9813b31e44f3"",""projectId"":""a6b6d205-fa41-4c5b-a7a5-7fc4b51b0cea""}","https://test12345.live/?num_scrambled_semantic=8&num_scrambled_causal=4&num_scrambled_schematic=4&participantId=C083122313ED412FA4EB27591D1A7887&assignmentId=25263165-e019-40b6-938f-9813b31e44f3&projectId=a6b6d205-fa41-4c5b-a7a5-7fc4b51b0cea","C083122313ED412FA4EB27591D1A7887-2025-05-27-18-28-40","","null","","images/causal_sequence/saving_a_cat_causal/saving_a_cat_causal_8.png","null","",""
"","","","","","image-button-response","70","421211","0.0-12.0-1.0-1.4","C083122313ED412FA4EB27591D1A7887","C083122313ED412FA4EB27591D1A7887","25263165-e019-40b6-938f-9813b31e44f3","a6b6d205-fa41-4c5b-a7a5-7fc4b51b0cea","{""num_scrambled_semantic"":""8"",""num_scrambled_causal"":""4"",""num_scrambled_schematic"":""4"",""participantId"":""C083122313ED412FA4EB27591D1A7887"",""assignmentId"":""25263165-e019-40b6-938f-9813b31e44f3"",""projectId"":""a6b6d205-fa41-4c5b-a7a5-7fc4b51b0cea""}","https://test12345.live/?num_scrambled_semantic=8&num_scrambled_causal=4&num_scrambled_schematic=4&participantId=C083122313ED412FA4EB27591D1A7887&assignmentId=25263165-e019-40b6-938f-9813b31e44f3&projectId=a6b6d205-fa41-4c5b-a7a5-7fc4b51b0cea","C083122313ED412FA4EB27591D1A7887-2025-05-27-18-28-40","","3359","","images/causal_sequence/saving_a_cat_causal/saving_a_cat_causal_8.png","0","",""
"","","","","","image-button-response","71","423025","0.0-12.0-1.0-2.4","C083122313ED412FA4EB27591D1A7887","C083122313ED412FA4EB27591D1A7887","25263165-e019-40b6-938f-9813b31e44f3","a6b6d205-fa41-4c5b-a7a5-7fc4b51b0cea","{""num_scrambled_semantic"":""8"",""num_scrambled_causal"":""4"",""num_scrambled_schematic"":""4"",""participantId"":""C083122313ED412FA4EB27591D1A7887"",""assignmentId"":""25263165-e019-40b6-938f-9813b31e44f3"",""projectId"":""a6b6d205-fa41-4c5b-a7a5-7fc4b51b0cea""}","https://test12345.live/?num_scrambled_semantic=8&num_scrambled_causal=4&num_scrambled_schematic=4&participantId=C083122313ED412FA4EB27591D1A7887&assignmentId=25263165-e019-40b6-938f-9813b31e44f3&projectId=a6b6d205-fa41-4c5b-a7a5-7fc4b51b0cea","C083122313ED412FA4EB27591D1A7887-2025-05-27-18-28-40","","null","","[]","null","",""
"","","","","","image-button-response","72","427541","0.0-12.0-1.0-0.5","C083122313ED412FA4EB27591D1A7887","C083122313ED412FA4EB27591D1A7887","25263165-e019-40b6-938f-9813b31e44f3","a6b6d205-fa41-4c5b-a7a5-7fc4b51b0cea","{""num_scrambled_semantic"":""8"",""num_scrambled_causal"":""4"",""num_scrambled_schematic"":""4"",""participantId"":""C083122313ED412FA4EB27591D1A7887"",""assignmentId"":""25263165-e019-40b6-938f-9813b31e44f3"",""projectId"":""a6b6d205-fa41-4c5b-a7a5-7fc4b51b0cea""}","https://test12345.live/?num_scrambled_semantic=8&num_scrambled_causal=4&num_scrambled_schematic=4&participantId=C083122313ED412FA4EB27591D1A7887&assignmentId=25263165-e019-40b6-938f-9813b31e44f3&projectId=a6b6d205-fa41-4c5b-a7a5-7fc4b51b0cea","C083122313ED412FA4EB27591D1A7887-2025-05-27-18-28-40","","null","","images/causal_sequence/saving_a_cat_causal/saving_a_cat_causal_2.png","null","",""
"","","","","","image-button-response","73","428891","0.0-12.0-1.0-1.5","C083122313ED412FA4EB27591D1A7887","C083122313ED412FA4EB27591D1A7887","25263165-e019-40b6-938f-9813b31e44f3","a6b6d205-fa41-4c5b-a7a5-7fc4b51b0cea","{""num_scrambled_semantic"":""8"",""num_scrambled_causal"":""4"",""num_scrambled_schematic"":""4"",""participantId"":""C083122313ED412FA4EB27591D1A7887"",""assignmentId"":""25263165-e019-40b6-938f-9813b31e44f3"",""projectId"":""a6b6d205-fa41-4c5b-a7a5-7fc4b51b0cea""}","https://test12345.live/?num_scrambled_semantic=8&num_scrambled_causal=4&num_scrambled_schematic=4&participantId=C083122313ED412FA4EB27591D1A7887&assignmentId=25263165-e019-40b6-938f-9813b31e44f3&projectId=a6b6d205-fa41-4c5b-a7a5-7fc4b51b0cea","C083122313ED412FA4EB27591D1A7887-2025-05-27-18-28-40","","1349","","images/causal_sequence/saving_a_cat_causal/saving_a_cat_causal_2.png","1","",""
"","","","","","image-button-response","74","430695","0.0-12.0-1.0-2.5","C083122313ED412FA4EB27591D1A7887","C083122313ED412FA4EB27591D1A7887","25263165-e019-40b6-938f-9813b31e44f3","a6b6d205-fa41-4c5b-a7a5-7fc4b51b0cea","{""num_scrambled_semantic"":""8"",""num_scrambled_causal"":""4"",""num_scrambled_schematic"":""4"",""participantId"":""C083122313ED412FA4EB27591D1A7887"",""assignmentId"":""25263165-e019-40b6-938f-9813b31e44f3"",""projectId"":""a6b6d205-fa41-4c5b-a7a5-7fc4b51b0cea""}","https://test12345.live/?num_scrambled_semantic=8&num_scrambled_causal=4&num_scrambled_schematic=4&participantId=C083122313ED412FA4EB27591D1A7887&assignmentId=25263165-e019-40b6-938f-9813b31e44f3&projectId=a6b6d205-fa41-4c5b-a7a5-7fc4b51b0cea","C083122313ED412FA4EB27591D1A7887-2025-05-27-18-28-40","","null","","[]","null","",""
"","","","","","image-button-response","75","435206","0.0-12.0-1.0-0.6","C083122313ED412FA4EB27591D1A7887","C083122313ED412FA4EB27591D1A7887","25263165-e019-40b6-938f-9813b31e44f3","a6b6d205-fa41-4c5b-a7a5-7fc4b51b0cea","{""num_scrambled_semantic"":""8"",""num_scrambled_causal"":""4"",""num_scrambled_schematic"":""4"",""participantId"":""C083122313ED412FA4EB27591D1A7887"",""assignmentId"":""25263165-e019-40b6-938f-9813b31e44f3"",""projectId"":""a6b6d205-fa41-4c5b-a7a5-7fc4b51b0cea""}","https://test12345.live/?num_scrambled_semantic=8&num_scrambled_causal=4&num_scrambled_schematic=4&participantId=C083122313ED412FA4EB27591D1A7887&assignmentId=25263165-e019-40b6-938f-9813b31e44f3&projectId=a6b6d205-fa41-4c5b-a7a5-7fc4b51b0cea","C083122313ED412FA4EB27591D1A7887-2025-05-27-18-28-40","","null","","images/causal_sequence/saving_a_cat_causal/saving_a_cat_causal_1.png","null","",""
"","","","","","image-button-response","76","439222","0.0-12.0-1.0-1.6","C083122313ED412FA4EB27591D1A7887","C083122313ED412FA4EB27591D1A7887","25263165-e019-40b6-938f-9813b31e44f3","a6b6d205-fa41-4c5b-a7a5-7fc4b51b0cea","{""num_scrambled_semantic"":""8"",""num_scrambled_causal"":""4"",""num_scrambled_schematic"":""4"",""participantId"":""C083122313ED412FA4EB27591D1A7887"",""assignmentId"":""25263165-e019-40b6-938f-9813b31e44f3"",""projectId"":""a6b6d205-fa41-4c5b-a7a5-7fc4b51b0cea""}","https://test12345.live/?num_scrambled_semantic=8&num_scrambled_causal=4&num_scrambled_schematic=4&participantId=C083122313ED412FA4EB27591D1A7887&assignmentId=25263165-e019-40b6-938f-9813b31e44f3&projectId=a6b6d205-fa41-4c5b-a7a5-7fc4b51b0cea","C083122313ED412FA4EB27591D1A7887-2025-05-27-18-28-40","","null","","images/causal_sequence/saving_a_cat_causal/saving_a_cat_causal_1.png","null","",""
"","","","","","image-button-response","77","441035","0.0-12.0-1.0-2.6","C083122313ED412FA4EB27591D1A7887","C083122313ED412FA4EB27591D1A7887","25263165-e019-40b6-938f-9813b31e44f3","a6b6d205-fa41-4c5b-a7a5-7fc4b51b0cea","{""num_scrambled_semantic"":""8"",""num_scrambled_causal"":""4"",""num_scrambled_schematic"":""4"",""participantId"":""C083122313ED412FA4EB27591D1A7887"",""assignmentId"":""25263165-e019-40b6-938f-9813b31e44f3"",""projectId"":""a6b6d205-fa41-4c5b-a7a5-7fc4b51b0cea""}","https://test12345.live/?num_scrambled_semantic=8&num_scrambled_causal=4&num_scrambled_schematic=4&participantId=C083122313ED412FA4EB27591D1A7887&assignmentId=25263165-e019-40b6-938f-9813b31e44f3&projectId=a6b6d205-fa41-4c5b-a7a5-7fc4b51b0cea","C083122313ED412FA4EB27591D1A7887-2025-05-27-18-28-40","","null","","[]","null","",""
"","","","","","image-button-response","78","445541","0.0-12.0-1.0-0.7","C083122313ED412FA4EB27591D1A7887","C083122313ED412FA4EB27591D1A7887","25263165-e019-40b6-938f-9813b31e44f3","a6b6d205-fa41-4c5b-a7a5-7fc4b51b0cea","{""num_scrambled_semantic"":""8"",""num_scrambled_causal"":""4"",""num_scrambled_schematic"":""4"",""participantId"":""C083122313ED412FA4EB27591D1A7887"",""assignmentId"":""25263165-e019-40b6-938f-9813b31e44f3"",""projectId"":""a6b6d205-fa41-4c5b-a7a5-7fc4b51b0cea""}","https://test12345.live/?num_scrambled_semantic=8&num_scrambled_causal=4&num_scrambled_schematic=4&participantId=C083122313ED412FA4EB27591D1A7887&assignmentId=25263165-e019-40b6-938f-9813b31e44f3&projectId=a6b6d205-fa41-4c5b-a7a5-7fc4b51b0cea","C083122313ED412FA4EB27591D1A7887-2025-05-27-18-28-40","","null","","images/causal_sequence/saving_a_cat_causal/saving_a_cat_causal_7.png","null","",""
"","","","","","image-button-response","79","449550","0.0-12.0-1.0-1.7","C083122313ED412FA4EB27591D1A7887","C083122313ED412FA4EB27591D1A7887","25263165-e019-40b6-938f-9813b31e44f3","a6b6d205-fa41-4c5b-a7a5-7fc4b51b0cea","{""num_scrambled_semantic"":""8"",""num_scrambled_causal"":""4"",""num_scrambled_schematic"":""4"",""participantId"":""C083122313ED412FA4EB27591D1A7887"",""assignmentId"":""25263165-e019-40b6-938f-9813b31e44f3"",""projectId"":""a6b6d205-fa41-4c5b-a7a5-7fc4b51b0cea""}","https://test12345.live/?num_scrambled_semantic=8&num_scrambled_causal=4&num_scrambled_schematic=4&participantId=C083122313ED412FA4EB27591D1A7887&assignmentId=25263165-e019-40b6-938f-9813b31e44f3&projectId=a6b6d205-fa41-4c5b-a7a5-7fc4b51b0cea","C083122313ED412FA4EB27591D1A7887-2025-05-27-18-28-40","","null","","images/causal_sequence/saving_a_cat_causal/saving_a_cat_causal_7.png","null","",""
"","","","","","image-button-response","80","451364","0.0-12.0-1.0-2.7","C083122313ED412FA4EB27591D1A7887","C083122313ED412FA4EB27591D1A7887","25263165-e019-40b6-938f-9813b31e44f3","a6b6d205-fa41-4c5b-a7a5-7fc4b51b0cea","{""num_scrambled_semantic"":""8"",""num_scrambled_causal"":""4"",""num_scrambled_schematic"":""4"",""participantId"":""C083122313ED412FA4EB27591D1A7887"",""assignmentId"":""25263165-e019-40b6-938f-9813b31e44f3"",""projectId"":""a6b6d205-fa41-4c5b-a7a5-7fc4b51b0cea""}","https://test12345.live/?num_scrambled_semantic=8&num_scrambled_causal=4&num_scrambled_schematic=4&participantId=C083122313ED412FA4EB27591D1A7887&assignmentId=25263165-e019-40b6-938f-9813b31e44f3&projectId=a6b6d205-fa41-4c5b-a7a5-7fc4b51b0cea","C083122313ED412FA4EB27591D1A7887-2025-05-27-18-28-40","","null","","[]","null","",""
"","","","","","image-button-response","81","455872","0.0-12.0-1.0-0.8","C083122313ED412FA4EB27591D1A7887","C083122313ED412FA4EB27591D1A7887","25263165-e019-40b6-938f-9813b31e44f3","a6b6d205-fa41-4c5b-a7a5-7fc4b51b0cea","{""num_scrambled_semantic"":""8"",""num_scrambled_causal"":""4"",""num_scrambled_schematic"":""4"",""participantId"":""C083122313ED412FA4EB27591D1A7887"",""assignmentId"":""25263165-e019-40b6-938f-9813b31e44f3"",""projectId"":""a6b6d205-fa41-4c5b-a7a5-7fc4b51b0cea""}","https://test12345.live/?num_scrambled_semantic=8&num_scrambled_causal=4&num_scrambled_schematic=4&participantId=C083122313ED412FA4EB27591D1A7887&assignmentId=25263165-e019-40b6-938f-9813b31e44f3&projectId=a6b6d205-fa41-4c5b-a7a5-7fc4b51b0cea","C083122313ED412FA4EB27591D1A7887-2025-05-27-18-28-40","","null","","images/causal_sequence/saving_a_cat_causal/saving_a_cat_causal_5.png","null","",""
"","","","","","image-button-response","82","458808","0.0-12.0-1.0-1.8","C083122313ED412FA4EB27591D1A7887","C083122313ED412FA4EB27591D1A7887","25263165-e019-40b6-938f-9813b31e44f3","a6b6d205-fa41-4c5b-a7a5-7fc4b51b0cea","{""num_scrambled_semantic"":""8"",""num_scrambled_causal"":""4"",""num_scrambled_schematic"":""4"",""participantId"":""C083122313ED412FA4EB27591D1A7887"",""assignmentId"":""25263165-e019-40b6-938f-9813b31e44f3"",""projectId"":""a6b6d205-fa41-4c5b-a7a5-7fc4b51b0cea""}","https://test12345.live/?num_scrambled_semantic=8&num_scrambled_causal=4&num_scrambled_schematic=4&participantId=C083122313ED412FA4EB27591D1A7887&assignmentId=25263165-e019-40b6-938f-9813b31e44f3&projectId=a6b6d205-fa41-4c5b-a7a5-7fc4b51b0cea","C083122313ED412FA4EB27591D1A7887-2025-05-27-18-28-40","","2933","","images/causal_sequence/saving_a_cat_causal/saving_a_cat_causal_5.png","0","",""
"","","","","","image-button-response","83","460614","0.0-12.0-1.0-2.8","C083122313ED412FA4EB27591D1A7887","C083122313ED412FA4EB27591D1A7887","25263165-e019-40b6-938f-9813b31e44f3","a6b6d205-fa41-4c5b-a7a5-7fc4b51b0cea","{""num_scrambled_semantic"":""8"",""num_scrambled_causal"":""4"",""num_scrambled_schematic"":""4"",""participantId"":""C083122313ED412FA4EB27591D1A7887"",""assignmentId"":""25263165-e019-40b6-938f-9813b31e44f3"",""projectId"":""a6b6d205-fa41-4c5b-a7a5-7fc4b51b0cea""}","https://test12345.live/?num_scrambled_semantic=8&num_scrambled_causal=4&num_scrambled_schematic=4&participantId=C083122313ED412FA4EB27591D1A7887&assignmentId=25263165-e019-40b6-938f-9813b31e44f3&projectId=a6b6d205-fa41-4c5b-a7a5-7fc4b51b0cea","C083122313ED412FA4EB27591D1A7887-2025-05-27-18-28-40","","null","","[]","null","",""
"","","","","","image-button-response","84","465125","0.0-12.0-1.0-0.9","C083122313ED412FA4EB27591D1A7887","C083122313ED412FA4EB27591D1A7887","25263165-e019-40b6-938f-9813b31e44f3","a6b6d205-fa41-4c5b-a7a5-7fc4b51b0cea","{""num_scrambled_semantic"":""8"",""num_scrambled_causal"":""4"",""num_scrambled_schematic"":""4"",""participantId"":""C083122313ED412FA4EB27591D1A7887"",""assignmentId"":""25263165-e019-40b6-938f-9813b31e44f3"",""projectId"":""a6b6d205-fa41-4c5b-a7a5-7fc4b51b0cea""}","https://test12345.live/?num_scrambled_semantic=8&num_scrambled_causal=4&num_scrambled_schematic=4&participantId=C083122313ED412FA4EB27591D1A7887&assignmentId=25263165-e019-40b6-938f-9813b31e44f3&projectId=a6b6d205-fa41-4c5b-a7a5-7fc4b51b0cea","C083122313ED412FA4EB27591D1A7887-2025-05-27-18-28-40","","null","","images/causal_sequence/saving_a_cat_causal/saving_a_cat_causal_9.png","null","",""
"","","","","","image-button-response","85","467541","0.0-12.0-1.0-1.9","C083122313ED412FA4EB27591D1A7887","C083122313ED412FA4EB27591D1A7887","25263165-e019-40b6-938f-9813b31e44f3","a6b6d205-fa41-4c5b-a7a5-7fc4b51b0cea","{""num_scrambled_semantic"":""8"",""num_scrambled_causal"":""4"",""num_scrambled_schematic"":""4"",""participantId"":""C083122313ED412FA4EB27591D1A7887"",""assignmentId"":""25263165-e019-40b6-938f-9813b31e44f3"",""projectId"":""a6b6d205-fa41-4c5b-a7a5-7fc4b51b0cea""}","https://test12345.live/?num_scrambled_semantic=8&num_scrambled_causal=4&num_scrambled_schematic=4&participantId=C083122313ED412FA4EB27591D1A7887&assignmentId=25263165-e019-40b6-938f-9813b31e44f3&projectId=a6b6d205-fa41-4c5b-a7a5-7fc4b51b0cea","C083122313ED412FA4EB27591D1A7887-2025-05-27-18-28-40","","2415","","images/causal_sequence/saving_a_cat_causal/saving_a_cat_causal_9.png","0","",""
"","","","","","image-button-response","86","469345","0.0-12.0-1.0-2.9","C083122313ED412FA4EB27591D1A7887","C083122313ED412FA4EB27591D1A7887","25263165-e019-40b6-938f-9813b31e44f3","a6b6d205-fa41-4c5b-a7a5-7fc4b51b0cea","{""num_scrambled_semantic"":""8"",""num_scrambled_causal"":""4"",""num_scrambled_schematic"":""4"",""participantId"":""C083122313ED412FA4EB27591D1A7887"",""assignmentId"":""25263165-e019-40b6-938f-9813b31e44f3"",""projectId"":""a6b6d205-fa41-4c5b-a7a5-7fc4b51b0cea""}","https://test12345.live/?num_scrambled_semantic=8&num_scrambled_causal=4&num_scrambled_schematic=4&participantId=C083122313ED412FA4EB27591D1A7887&assignmentId=25263165-e019-40b6-938f-9813b31e44f3&projectId=a6b6d205-fa41-4c5b-a7a5-7fc4b51b0cea","C083122313ED412FA4EB27591D1A7887-2025-05-27-18-28-40","","null","","[]","null","",""
"","","","","","html-audio-response","87","520282","0.0-13.0","C083122313ED412FA4EB27591D1A7887","C083122313ED412FA4EB27591D1A7887","25263165-e019-40b6-938f-9813b31e44f3","a6b6d205-fa41-4c5b-a7a5-7fc4b51b0cea","{""num_scrambled_semantic"":""8"",""num_scrambled_causal"":""4"",""num_scrambled_schematic"":""4"",""participantId"":""C083122313ED412FA4EB27591D1A7887"",""assignmentId"":""25263165-e019-40b6-938f-9813b31e44f3"",""projectId"":""a6b6d205-fa41-4c5b-a7a5-7fc4b51b0cea""}","https://test12345.live/?num_scrambled_semantic=8&num_scrambled_causal=4&num_scrambled_schematic=4&participantId=C083122313ED412FA4EB27591D1A7887&assignmentId=25263165-e019-40b6-938f-9813b31e44f3&projectId=a6b6d205-fa41-4c5b-a7a5-7fc4b51b0cea","C083122313ED412FA4EB27591D1A7887-2025-05-27-18-28-40","","42920","","[""<span style=\""color: red; font-size: 24px\""> NOW RECORDING</span><p>Please say out loud all the images you saw, in the exact order you saw them. Try to recall as many images as you can, but remember: getting the order right is more important than the number of images you recall.</p>""]","","2","saving_a_cat_causal"
"","","","","","image-button-response","88","526311","0.0-14.0-0.0","C083122313ED412FA4EB27591D1A7887","C083122313ED412FA4EB27591D1A7887","25263165-e019-40b6-938f-9813b31e44f3","a6b6d205-fa41-4c5b-a7a5-7fc4b51b0cea","{""num_scrambled_semantic"":""8"",""num_scrambled_causal"":""4"",""num_scrambled_schematic"":""4"",""participantId"":""C083122313ED412FA4EB27591D1A7887"",""assignmentId"":""25263165-e019-40b6-938f-9813b31e44f3"",""projectId"":""a6b6d205-fa41-4c5b-a7a5-7fc4b51b0cea""}","https://test12345.live/?num_scrambled_semantic=8&num_scrambled_causal=4&num_scrambled_schematic=4&participantId=C083122313ED412FA4EB27591D1A7887&assignmentId=25263165-e019-40b6-938f-9813b31e44f3&projectId=a6b6d205-fa41-4c5b-a7a5-7fc4b51b0cea","C083122313ED412FA4EB27591D1A7887-2025-05-27-18-28-40","","null","","images/semantic_sequence/maintaining_a_car_semantic/maintaining_a_car_semantic_0.png","null","",""
"","","","","","image-button-response","89","530820","0.0-14.0-1.0-0.0","C083122313ED412FA4EB27591D1A7887","C083122313ED412FA4EB27591D1A7887","25263165-e019-40b6-938f-9813b31e44f3","a6b6d205-fa41-4c5b-a7a5-7fc4b51b0cea","{""num_scrambled_semantic"":""8"",""num_scrambled_causal"":""4"",""num_scrambled_schematic"":""4"",""participantId"":""C083122313ED412FA4EB27591D1A7887"",""assignmentId"":""25263165-e019-40b6-938f-9813b31e44f3"",""projectId"":""a6b6d205-fa41-4c5b-a7a5-7fc4b51b0cea""}","https://test12345.live/?num_scrambled_semantic=8&num_scrambled_causal=4&num_scrambled_schematic=4&participantId=C083122313ED412FA4EB27591D1A7887&assignmentId=25263165-e019-40b6-938f-9813b31e44f3&projectId=a6b6d205-fa41-4c5b-a7a5-7fc4b51b0cea","C083122313ED412FA4EB27591D1A7887-2025-05-27-18-28-40","","null","","images/semantic_sequence/maintaining_a_car_semantic/maintaining_a_car_semantic_1.png","null","",""
"","","","","","image-button-response","90","534442","0.0-14.0-1.0-1.0","C083122313ED412FA4EB27591D1A7887","C083122313ED412FA4EB27591D1A7887","25263165-e019-40b6-938f-9813b31e44f3","a6b6d205-fa41-4c5b-a7a5-7fc4b51b0cea","{""num_scrambled_semantic"":""8"",""num_scrambled_causal"":""4"",""num_scrambled_schematic"":""4"",""participantId"":""C083122313ED412FA4EB27591D1A7887"",""assignmentId"":""25263165-e019-40b6-938f-9813b31e44f3"",""projectId"":""a6b6d205-fa41-4c5b-a7a5-7fc4b51b0cea""}","https://test12345.live/?num_scrambled_semantic=8&num_scrambled_causal=4&num_scrambled_schematic=4&participantId=C083122313ED412FA4EB27591D1A7887&assignmentId=25263165-e019-40b6-938f-9813b31e44f3&projectId=a6b6d205-fa41-4c5b-a7a5-7fc4b51b0cea","C083122313ED412FA4EB27591D1A7887-2025-05-27-18-28-40","","3621","","images/semantic_sequence/maintaining_a_car_semantic/maintaining_a_car_semantic_1.png","0","",""
"","","","","","image-button-response","91","536251","0.0-14.0-1.0-2.0","C083122313ED412FA4EB27591D1A7887","C083122313ED412FA4EB27591D1A7887","25263165-e019-40b6-938f-9813b31e44f3","a6b6d205-fa41-4c5b-a7a5-7fc4b51b0cea","{""num_scrambled_semantic"":""8"",""num_scrambled_causal"":""4"",""num_scrambled_schematic"":""4"",""participantId"":""C083122313ED412FA4EB27591D1A7887"",""assignmentId"":""25263165-e019-40b6-938f-9813b31e44f3"",""projectId"":""a6b6d205-fa41-4c5b-a7a5-7fc4b51b0cea""}","https://test12345.live/?num_scrambled_semantic=8&num_scrambled_causal=4&num_scrambled_schematic=4&participantId=C083122313ED412FA4EB27591D1A7887&assignmentId=25263165-e019-40b6-938f-9813b31e44f3&projectId=a6b6d205-fa41-4c5b-a7a5-7fc4b51b0cea","C083122313ED412FA4EB27591D1A7887-2025-05-27-18-28-40","","null","","[]","null","",""
"","","","","","image-button-response","92","540755","0.0-14.0-1.0-0.1","C083122313ED412FA4EB27591D1A7887","C083122313ED412FA4EB27591D1A7887","25263165-e019-40b6-938f-9813b31e44f3","a6b6d205-fa41-4c5b-a7a5-7fc4b51b0cea","{""num_scrambled_semantic"":""8"",""num_scrambled_causal"":""4"",""num_scrambled_schematic"":""4"",""participantId"":""C083122313ED412FA4EB27591D1A7887"",""assignmentId"":""25263165-e019-40b6-938f-9813b31e44f3"",""projectId"":""a6b6d205-fa41-4c5b-a7a5-7fc4b51b0cea""}","https://test12345.live/?num_scrambled_semantic=8&num_scrambled_causal=4&num_scrambled_schematic=4&participantId=C083122313ED412FA4EB27591D1A7887&assignmentId=25263165-e019-40b6-938f-9813b31e44f3&projectId=a6b6d205-fa41-4c5b-a7a5-7fc4b51b0cea","C083122313ED412FA4EB27591D1A7887-2025-05-27-18-28-40","","null","","images/semantic_sequence/maintaining_a_car_semantic/maintaining_a_car_semantic_2.png","null","",""
"","","","","","image-button-response","93","542937","0.0-14.0-1.0-1.1","C083122313ED412FA4EB27591D1A7887","C083122313ED412FA4EB27591D1A7887","25263165-e019-40b6-938f-9813b31e44f3","a6b6d205-fa41-4c5b-a7a5-7fc4b51b0cea","{""num_scrambled_semantic"":""8"",""num_scrambled_causal"":""4"",""num_scrambled_schematic"":""4"",""participantId"":""C083122313ED412FA4EB27591D1A7887"",""assignmentId"":""25263165-e019-40b6-938f-9813b31e44f3"",""projectId"":""a6b6d205-fa41-4c5b-a7a5-7fc4b51b0cea""}","https://test12345.live/?num_scrambled_semantic=8&num_scrambled_causal=4&num_scrambled_schematic=4&participantId=C083122313ED412FA4EB27591D1A7887&assignmentId=25263165-e019-40b6-938f-9813b31e44f3&projectId=a6b6d205-fa41-4c5b-a7a5-7fc4b51b0cea","C083122313ED412FA4EB27591D1A7887-2025-05-27-18-28-40","","2181","","images/semantic_sequence/maintaining_a_car_semantic/maintaining_a_car_semantic_2.png","0","",""
"","","","","","image-button-response","94","544744","0.0-14.0-1.0-2.1","C083122313ED412FA4EB27591D1A7887","C083122313ED412FA4EB27591D1A7887","25263165-e019-40b6-938f-9813b31e44f3","a6b6d205-fa41-4c5b-a7a5-7fc4b51b0cea","{""num_scrambled_semantic"":""8"",""num_scrambled_causal"":""4"",""num_scrambled_schematic"":""4"",""participantId"":""C083122313ED412FA4EB27591D1A7887"",""assignmentId"":""25263165-e019-40b6-938f-9813b31e44f3"",""projectId"":""a6b6d205-fa41-4c5b-a7a5-7fc4b51b0cea""}","https://test12345.live/?num_scrambled_semantic=8&num_scrambled_causal=4&num_scrambled_schematic=4&participantId=C083122313ED412FA4EB27591D1A7887&assignmentId=25263165-e019-40b6-938f-9813b31e44f3&projectId=a6b6d205-fa41-4c5b-a7a5-7fc4b51b0cea","C083122313ED412FA4EB27591D1A7887-2025-05-27-18-28-40","","null","","[]","null","",""
"","","","","","image-button-response","95","549258","0.0-14.0-1.0-0.2","C083122313ED412FA4EB27591D1A7887","C083122313ED412FA4EB27591D1A7887","25263165-e019-40b6-938f-9813b31e44f3","a6b6d205-fa41-4c5b-a7a5-7fc4b51b0cea","{""num_scrambled_semantic"":""8"",""num_scrambled_causal"":""4"",""num_scrambled_schematic"":""4"",""participantId"":""C083122313ED412FA4EB27591D1A7887"",""assignmentId"":""25263165-e019-40b6-938f-9813b31e44f3"",""projectId"":""a6b6d205-fa41-4c5b-a7a5-7fc4b51b0cea""}","https://test12345.live/?num_scrambled_semantic=8&num_scrambled_causal=4&num_scrambled_schematic=4&participantId=C083122313ED412FA4EB27591D1A7887&assignmentId=25263165-e019-40b6-938f-9813b31e44f3&projectId=a6b6d205-fa41-4c5b-a7a5-7fc4b51b0cea","C083122313ED412FA4EB27591D1A7887-2025-05-27-18-28-40","","null","","images/semantic_sequence/maintaining_a_car_semantic/maintaining_a_car_semantic_3.png","null","",""
"","","","","","image-button-response","96","552020","0.0-14.0-1.0-1.2","C083122313ED412FA4EB27591D1A7887","C083122313ED412FA4EB27591D1A7887","25263165-e019-40b6-938f-9813b31e44f3","a6b6d205-fa41-4c5b-a7a5-7fc4b51b0cea","{""num_scrambled_semantic"":""8"",""num_scrambled_causal"":""4"",""num_scrambled_schematic"":""4"",""participantId"":""C083122313ED412FA4EB27591D1A7887"",""assignmentId"":""25263165-e019-40b6-938f-9813b31e44f3"",""projectId"":""a6b6d205-fa41-4c5b-a7a5-7fc4b51b0cea""}","https://test12345.live/?num_scrambled_semantic=8&num_scrambled_causal=4&num_scrambled_schematic=4&participantId=C083122313ED412FA4EB27591D1A7887&assignmentId=25263165-e019-40b6-938f-9813b31e44f3&projectId=a6b6d205-fa41-4c5b-a7a5-7fc4b51b0cea","C083122313ED412FA4EB27591D1A7887-2025-05-27-18-28-40","","2760","","images/semantic_sequence/maintaining_a_car_semantic/maintaining_a_car_semantic_3.png","0","",""
"","","","","","image-button-response","97","553835","0.0-14.0-1.0-2.2","C083122313ED412FA4EB27591D1A7887","C083122313ED412FA4EB27591D1A7887","25263165-e019-40b6-938f-9813b31e44f3","a6b6d205-fa41-4c5b-a7a5-7fc4b51b0cea","{""num_scrambled_semantic"":""8"",""num_scrambled_causal"":""4"",""num_scrambled_schematic"":""4"",""participantId"":""C083122313ED412FA4EB27591D1A7887"",""assignmentId"":""25263165-e019-40b6-938f-9813b31e44f3"",""projectId"":""a6b6d205-fa41-4c5b-a7a5-7fc4b51b0cea""}","https://test12345.live/?num_scrambled_semantic=8&num_scrambled_causal=4&num_scrambled_schematic=4&participantId=C083122313ED412FA4EB27591D1A7887&assignmentId=25263165-e019-40b6-938f-9813b31e44f3&projectId=a6b6d205-fa41-4c5b-a7a5-7fc4b51b0cea","C083122313ED412FA4EB27591D1A7887-2025-05-27-18-28-40","","null","","[]","null","",""
"","","","","","image-button-response","98","558354","0.0-14.0-1.0-0.3","C083122313ED412FA4EB27591D1A7887","C083122313ED412FA4EB27591D1A7887","25263165-e019-40b6-938f-9813b31e44f3","a6b6d205-fa41-4c5b-a7a5-7fc4b51b0cea","{""num_scrambled_semantic"":""8"",""num_scrambled_causal"":""4"",""num_scrambled_schematic"":""4"",""participantId"":""C083122313ED412FA4EB27591D1A7887"",""assignmentId"":""25263165-e019-40b6-938f-9813b31e44f3"",""projectId"":""a6b6d205-fa41-4c5b-a7a5-7fc4b51b0cea""}","https://test12345.live/?num_scrambled_semantic=8&num_scrambled_causal=4&num_scrambled_schematic=4&participantId=C083122313ED412FA4EB27591D1A7887&assignmentId=25263165-e019-40b6-938f-9813b31e44f3&projectId=a6b6d205-fa41-4c5b-a7a5-7fc4b51b0cea","C083122313ED412FA4EB27591D1A7887-2025-05-27-18-28-40","","null","","images/semantic_sequence/maintaining_a_car_semantic/maintaining_a_car_semantic_4.png","null","",""
"","","","","","image-button-response","99","558884","0.0-14.0-1.0-1.3","C083122313ED412FA4EB27591D1A7887","C083122313ED412FA4EB27591D1A7887","25263165-e019-40b6-938f-9813b31e44f3","a6b6d205-fa41-4c5b-a7a5-7fc4b51b0cea","{""num_scrambled_semantic"":""8"",""num_scrambled_causal"":""4"",""num_scrambled_schematic"":""4"",""participantId"":""C083122313ED412FA4EB27591D1A7887"",""assignmentId"":""25263165-e019-40b6-938f-9813b31e44f3"",""projectId"":""a6b6d205-fa41-4c5b-a7a5-7fc4b51b0cea""}","https://test12345.live/?num_scrambled_semantic=8&num_scrambled_causal=4&num_scrambled_schematic=4&participantId=C083122313ED412FA4EB27591D1A7887&assignmentId=25263165-e019-40b6-938f-9813b31e44f3&projectId=a6b6d205-fa41-4c5b-a7a5-7fc4b51b0cea","C083122313ED412FA4EB27591D1A7887-2025-05-27-18-28-40","","528","","images/semantic_sequence/maintaining_a_car_semantic/maintaining_a_car_semantic_4.png","0","",""
"","","","","","image-button-response","100","560695","0.0-14.0-1.0-2.3","C083122313ED412FA4EB27591D1A7887","C083122313ED412FA4EB27591D1A7887","25263165-e019-40b6-938f-9813b31e44f3","a6b6d205-fa41-4c5b-a7a5-7fc4b51b0cea","{""num_scrambled_semantic"":""8"",""num_scrambled_causal"":""4"",""num_scrambled_schematic"":""4"",""participantId"":""C083122313ED412FA4EB27591D1A7887"",""assignmentId"":""25263165-e019-40b6-938f-9813b31e44f3"",""projectId"":""a6b6d205-fa41-4c5b-a7a5-7fc4b51b0cea""}","https://test12345.live/?num_scrambled_semantic=8&num_scrambled_causal=4&num_scrambled_schematic=4&participantId=C083122313ED412FA4EB27591D1A7887&assignmentId=25263165-e019-40b6-938f-9813b31e44f3&projectId=a6b6d205-fa41-4c5b-a7a5-7fc4b51b0cea","C083122313ED412FA4EB27591D1A7887-2025-05-27-18-28-40","","null","","[]","null","",""
"","","","","","image-button-response","101","565201","0.0-14.0-1.0-0.4","C083122313ED412FA4EB27591D1A7887","C083122313ED412FA4EB27591D1A7887","25263165-e019-40b6-938f-9813b31e44f3","a6b6d205-fa41-4c5b-a7a5-7fc4b51b0cea","{""num_scrambled_semantic"":""8"",""num_scrambled_causal"":""4"",""num_scrambled_schematic"":""4"",""participantId"":""C083122313ED412FA4EB27591D1A7887"",""assignmentId"":""25263165-e019-40b6-938f-9813b31e44f3"",""projectId"":""a6b6d205-fa41-4c5b-a7a5-7fc4b51b0cea""}","https://test12345.live/?num_scrambled_semantic=8&num_scrambled_causal=4&num_scrambled_schematic=4&participantId=C083122313ED412FA4EB27591D1A7887&assignmentId=25263165-e019-40b6-938f-9813b31e44f3&projectId=a6b6d205-fa41-4c5b-a7a5-7fc4b51b0cea","C083122313ED412FA4EB27591D1A7887-2025-05-27-18-28-40","","null","","images/semantic_sequence/maintaining_a_car_semantic/maintaining_a_car_semantic_5.png","null","",""
"","","","","","image-button-response","102","568122","0.0-14.0-1.0-1.4","C083122313ED412FA4EB27591D1A7887","C083122313ED412FA4EB27591D1A7887","25263165-e019-40b6-938f-9813b31e44f3","a6b6d205-fa41-4c5b-a7a5-7fc4b51b0cea","{""num_scrambled_semantic"":""8"",""num_scrambled_causal"":""4"",""num_scrambled_schematic"":""4"",""participantId"":""C083122313ED412FA4EB27591D1A7887"",""assignmentId"":""25263165-e019-40b6-938f-9813b31e44f3"",""projectId"":""a6b6d205-fa41-4c5b-a7a5-7fc4b51b0cea""}","https://test12345.live/?num_scrambled_semantic=8&num_scrambled_causal=4&num_scrambled_schematic=4&participantId=C083122313ED412FA4EB27591D1A7887&assignmentId=25263165-e019-40b6-938f-9813b31e44f3&projectId=a6b6d205-fa41-4c5b-a7a5-7fc4b51b0cea","C083122313ED412FA4EB27591D1A7887-2025-05-27-18-28-40","","2919","","images/semantic_sequence/maintaining_a_car_semantic/maintaining_a_car_semantic_5.png","0","",""
"","","","","","image-button-response","103","569928","0.0-14.0-1.0-2.4","C083122313ED412FA4EB27591D1A7887","C083122313ED412FA4EB27591D1A7887","25263165-e019-40b6-938f-9813b31e44f3","a6b6d205-fa41-4c5b-a7a5-7fc4b51b0cea","{""num_scrambled_semantic"":""8"",""num_scrambled_causal"":""4"",""num_scrambled_schematic"":""4"",""participantId"":""C083122313ED412FA4EB27591D1A7887"",""assignmentId"":""25263165-e019-40b6-938f-9813b31e44f3"",""projectId"":""a6b6d205-fa41-4c5b-a7a5-7fc4b51b0cea""}","https://test12345.live/?num_scrambled_semantic=8&num_scrambled_causal=4&num_scrambled_schematic=4&participantId=C083122313ED412FA4EB27591D1A7887&assignmentId=25263165-e019-40b6-938f-9813b31e44f3&projectId=a6b6d205-fa41-4c5b-a7a5-7fc4b51b0cea","C083122313ED412FA4EB27591D1A7887-2025-05-27-18-28-40","","null","","[]","null","",""
"","","","","","image-button-response","104","574445","0.0-14.0-1.0-0.5","C083122313ED412FA4EB27591D1A7887","C083122313ED412FA4EB27591D1A7887","25263165-e019-40b6-938f-9813b31e44f3","a6b6d205-fa41-4c5b-a7a5-7fc4b51b0cea","{""num_scrambled_semantic"":""8"",""num_scrambled_causal"":""4"",""num_scrambled_schematic"":""4"",""participantId"":""C083122313ED412FA4EB27591D1A7887"",""assignmentId"":""25263165-e019-40b6-938f-9813b31e44f3"",""projectId"":""a6b6d205-fa41-4c5b-a7a5-7fc4b51b0cea""}","https://test12345.live/?num_scrambled_semantic=8&num_scrambled_causal=4&num_scrambled_schematic=4&participantId=C083122313ED412FA4EB27591D1A7887&assignmentId=25263165-e019-40b6-938f-9813b31e44f3&projectId=a6b6d205-fa41-4c5b-a7a5-7fc4b51b0cea","C083122313ED412FA4EB27591D1A7887-2025-05-27-18-28-40","","null","","images/semantic_sequence/maintaining_a_car_semantic/maintaining_a_car_semantic_6.png","null","",""
"","","","","","image-button-response","105","575311","0.0-14.0-1.0-1.5","C083122313ED412FA4EB27591D1A7887","C083122313ED412FA4EB27591D1A7887","25263165-e019-40b6-938f-9813b31e44f3","a6b6d205-fa41-4c5b-a7a5-7fc4b51b0cea","{""num_scrambled_semantic"":""8"",""num_scrambled_causal"":""4"",""num_scrambled_schematic"":""4"",""participantId"":""C083122313ED412FA4EB27591D1A7887"",""assignmentId"":""25263165-e019-40b6-938f-9813b31e44f3"",""projectId"":""a6b6d205-fa41-4c5b-a7a5-7fc4b51b0cea""}","https://test12345.live/?num_scrambled_semantic=8&num_scrambled_causal=4&num_scrambled_schematic=4&participantId=C083122313ED412FA4EB27591D1A7887&assignmentId=25263165-e019-40b6-938f-9813b31e44f3&projectId=a6b6d205-fa41-4c5b-a7a5-7fc4b51b0cea","C083122313ED412FA4EB27591D1A7887-2025-05-27-18-28-40","","864","","images/semantic_sequence/maintaining_a_car_semantic/maintaining_a_car_semantic_6.png","0","",""
"","","","","","image-button-response","106","577114","0.0-14.0-1.0-2.5","C083122313ED412FA4EB27591D1A7887","C083122313ED412FA4EB27591D1A7887","25263165-e019-40b6-938f-9813b31e44f3","a6b6d205-fa41-4c5b-a7a5-7fc4b51b0cea","{""num_scrambled_semantic"":""8"",""num_scrambled_causal"":""4"",""num_scrambled_schematic"":""4"",""participantId"":""C083122313ED412FA4EB27591D1A7887"",""assignmentId"":""25263165-e019-40b6-938f-9813b31e44f3"",""projectId"":""a6b6d205-fa41-4c5b-a7a5-7fc4b51b0cea""}","https://test12345.live/?num_scrambled_semantic=8&num_scrambled_causal=4&num_scrambled_schematic=4&participantId=C083122313ED412FA4EB27591D1A7887&assignmentId=25263165-e019-40b6-938f-9813b31e44f3&projectId=a6b6d205-fa41-4c5b-a7a5-7fc4b51b0cea","C083122313ED412FA4EB27591D1A7887-2025-05-27-18-28-40","","null","","[]","null","",""
"","","","","","image-button-response","107","581627","0.0-14.0-1.0-0.6","C083122313ED412FA4EB27591D1A7887","C083122313ED412FA4EB27591D1A7887","25263165-e019-40b6-938f-9813b31e44f3","a6b6d205-fa41-4c5b-a7a5-7fc4b51b0cea","{""num_scrambled_semantic"":""8"",""num_scrambled_causal"":""4"",""num_scrambled_schematic"":""4"",""participantId"":""C083122313ED412FA4EB27591D1A7887"",""assignmentId"":""25263165-e019-40b6-938f-9813b31e44f3"",""projectId"":""a6b6d205-fa41-4c5b-a7a5-7fc4b51b0cea""}","https://test12345.live/?num_scrambled_semantic=8&num_scrambled_causal=4&num_scrambled_schematic=4&participantId=C083122313ED412FA4EB27591D1A7887&assignmentId=25263165-e019-40b6-938f-9813b31e44f3&projectId=a6b6d205-fa41-4c5b-a7a5-7fc4b51b0cea","C083122313ED412FA4EB27591D1A7887-2025-05-27-18-28-40","","null","","images/semantic_sequence/maintaining_a_car_semantic/maintaining_a_car_semantic_7.png","null","",""
"","","","","","image-button-response","108","584796","0.0-14.0-1.0-1.6","C083122313ED412FA4EB27591D1A7887","C083122313ED412FA4EB27591D1A7887","25263165-e019-40b6-938f-9813b31e44f3","a6b6d205-fa41-4c5b-a7a5-7fc4b51b0cea","{""num_scrambled_semantic"":""8"",""num_scrambled_causal"":""4"",""num_scrambled_schematic"":""4"",""participantId"":""C083122313ED412FA4EB27591D1A7887"",""assignmentId"":""25263165-e019-40b6-938f-9813b31e44f3"",""projectId"":""a6b6d205-fa41-4c5b-a7a5-7fc4b51b0cea""}","https://test12345.live/?num_scrambled_semantic=8&num_scrambled_causal=4&num_scrambled_schematic=4&participantId=C083122313ED412FA4EB27591D1A7887&assignmentId=25263165-e019-40b6-938f-9813b31e44f3&projectId=a6b6d205-fa41-4c5b-a7a5-7fc4b51b0cea","C083122313ED412FA4EB27591D1A7887-2025-05-27-18-28-40","","3166","","images/semantic_sequence/maintaining_a_car_semantic/maintaining_a_car_semantic_7.png","0","",""
"","","","","","image-button-response","109","586614","0.0-14.0-1.0-2.6","C083122313ED412FA4EB27591D1A7887","C083122313ED412FA4EB27591D1A7887","25263165-e019-40b6-938f-9813b31e44f3","a6b6d205-fa41-4c5b-a7a5-7fc4b51b0cea","{""num_scrambled_semantic"":""8"",""num_scrambled_causal"":""4"",""num_scrambled_schematic"":""4"",""participantId"":""C083122313ED412FA4EB27591D1A7887"",""assignmentId"":""25263165-e019-40b6-938f-9813b31e44f3"",""projectId"":""a6b6d205-fa41-4c5b-a7a5-7fc4b51b0cea""}","https://test12345.live/?num_scrambled_semantic=8&num_scrambled_causal=4&num_scrambled_schematic=4&participantId=C083122313ED412FA4EB27591D1A7887&assignmentId=25263165-e019-40b6-938f-9813b31e44f3&projectId=a6b6d205-fa41-4c5b-a7a5-7fc4b51b0cea","C083122313ED412FA4EB27591D1A7887-2025-05-27-18-28-40","","null","","[]","null","",""
"","","","","","image-button-response","110","591130","0.0-14.0-1.0-0.7","C083122313ED412FA4EB27591D1A7887","C083122313ED412FA4EB27591D1A7887","25263165-e019-40b6-938f-9813b31e44f3","a6b6d205-fa41-4c5b-a7a5-7fc4b51b0cea","{""num_scrambled_semantic"":""8"",""num_scrambled_causal"":""4"",""num_scrambled_schematic"":""4"",""participantId"":""C083122313ED412FA4EB27591D1A7887"",""assignmentId"":""25263165-e019-40b6-938f-9813b31e44f3"",""projectId"":""a6b6d205-fa41-4c5b-a7a5-7fc4b51b0cea""}","https://test12345.live/?num_scrambled_semantic=8&num_scrambled_causal=4&num_scrambled_schematic=4&participantId=C083122313ED412FA4EB27591D1A7887&assignmentId=25263165-e019-40b6-938f-9813b31e44f3&projectId=a6b6d205-fa41-4c5b-a7a5-7fc4b51b0cea","C083122313ED412FA4EB27591D1A7887-2025-05-27-18-28-40","","null","","images/semantic_sequence/maintaining_a_car_semantic/maintaining_a_car_semantic_8.png","null","",""
"","","","","","image-button-response","111","594748","0.0-14.0-1.0-1.7","C083122313ED412FA4EB27591D1A7887","C083122313ED412FA4EB27591D1A7887","25263165-e019-40b6-938f-9813b31e44f3","a6b6d205-fa41-4c5b-a7a5-7fc4b51b0cea","{""num_scrambled_semantic"":""8"",""num_scrambled_causal"":""4"",""num_scrambled_schematic"":""4"",""participantId"":""C083122313ED412FA4EB27591D1A7887"",""assignmentId"":""25263165-e019-40b6-938f-9813b31e44f3"",""projectId"":""a6b6d205-fa41-4c5b-a7a5-7fc4b51b0cea""}","https://test12345.live/?num_scrambled_semantic=8&num_scrambled_causal=4&num_scrambled_schematic=4&participantId=C083122313ED412FA4EB27591D1A7887&assignmentId=25263165-e019-40b6-938f-9813b31e44f3&projectId=a6b6d205-fa41-4c5b-a7a5-7fc4b51b0cea","C083122313ED412FA4EB27591D1A7887-2025-05-27-18-28-40","","3617","","images/semantic_sequence/maintaining_a_car_semantic/maintaining_a_car_semantic_8.png","0","",""
"","","","","","image-button-response","112","596554","0.0-14.0-1.0-2.7","C083122313ED412FA4EB27591D1A7887","C083122313ED412FA4EB27591D1A7887","25263165-e019-40b6-938f-9813b31e44f3","a6b6d205-fa41-4c5b-a7a5-7fc4b51b0cea","{""num_scrambled_semantic"":""8"",""num_scrambled_causal"":""4"",""num_scrambled_schematic"":""4"",""participantId"":""C083122313ED412FA4EB27591D1A7887"",""assignmentId"":""25263165-e019-40b6-938f-9813b31e44f3"",""projectId"":""a6b6d205-fa41-4c5b-a7a5-7fc4b51b0cea""}","https://test12345.live/?num_scrambled_semantic=8&num_scrambled_causal=4&num_scrambled_schematic=4&participantId=C083122313ED412FA4EB27591D1A7887&assignmentId=25263165-e019-40b6-938f-9813b31e44f3&projectId=a6b6d205-fa41-4c5b-a7a5-7fc4b51b0cea","C083122313ED412FA4EB27591D1A7887-2025-05-27-18-28-40","","null","","[]","null","",""
"","","","","","image-button-response","113","601072","0.0-14.0-1.0-0.8","C083122313ED412FA4EB27591D1A7887","C083122313ED412FA4EB27591D1A7887","25263165-e019-40b6-938f-9813b31e44f3","a6b6d205-fa41-4c5b-a7a5-7fc4b51b0cea","{""num_scrambled_semantic"":""8"",""num_scrambled_causal"":""4"",""num_scrambled_schematic"":""4"",""participantId"":""C083122313ED412FA4EB27591D1A7887"",""assignmentId"":""25263165-e019-40b6-938f-9813b31e44f3"",""projectId"":""a6b6d205-fa41-4c5b-a7a5-7fc4b51b0cea""}","https://test12345.live/?num_scrambled_semantic=8&num_scrambled_causal=4&num_scrambled_schematic=4&participantId=C083122313ED412FA4EB27591D1A7887&assignmentId=25263165-e019-40b6-938f-9813b31e44f3&projectId=a6b6d205-fa41-4c5b-a7a5-7fc4b51b0cea","C083122313ED412FA4EB27591D1A7887-2025-05-27-18-28-40","","null","","images/semantic_sequence/maintaining_a_car_semantic/maintaining_a_car_semantic_9.png","null","",""
