"success","timeout","failed_images","failed_audio","failed_video","trial_type","trial_index","time_elapsed","internal_node_id","subject","subject_id","study_id","session_id","urlvar","current_url","audio_id","view_history","rt","device_id","stimulus","response","estimated_stimulus_onset","seq_name"
"true","false","[]","[]","[]","preload","0","3060","0.0-0.0","C2201E74145C4EDE80DB10155B4E631C","C2201E74145C4EDE80DB10155B4E631C","0198be23-9ffc-7976-b60c-c8dbb78626a0","0198be1d-574a-752e-ae53-1d263a30e856","{""num_scrambled_semantic"":""8"",""num_scrambled_causal"":""4"",""num_scrambled_schematic"":""4"",""participantId"":""C2201E74145C4EDE80DB10155B4E631C"",""assignmentId"":""0198be23-9ffc-7976-b60c-c8dbb78626a0"",""projectId"":""0198be1d-574a-752e-ae53-1d263a30e856""}","https://test12345.live/?num_scrambled_semantic=8&num_scrambled_causal=4&num_scrambled_schematic=4&participantId=C2201E74145C4EDE80DB10155B4E631C&assignmentId=0198be23-9ffc-7976-b60c-c8dbb78626a0&projectId=0198be1d-574a-752e-ae53-1d263a30e856","C2201E74145C4EDE80DB10155B4E631C-2025-08-18-17-37-39","","","","","","",""
"","","","","","instructions","1","94499","0.0-1.0","C2201E74145C4EDE80DB10155B4E631C","C2201E74145C4EDE80DB10155B4E631C","0198be23-9ffc-7976-b60c-c8dbb78626a0","0198be1d-574a-752e-ae53-1d263a30e856","{""num_scrambled_semantic"":""8"",""num_scrambled_causal"":""4"",""num_scrambled_schematic"":""4"",""participantId"":""C2201E74145C4EDE80DB10155B4E631C"",""assignmentId"":""0198be23-9ffc-7976-b60c-c8dbb78626a0"",""projectId"":""0198be1d-574a-752e-ae53-1d263a30e856""}","https://test12345.live/?num_scrambled_semantic=8&num_scrambled_causal=4&num_scrambled_schematic=4&participantId=C2201E74145C4EDE80DB10155B4E631C&assignmentId=0198be23-9ffc-7976-b60c-c8dbb78626a0&projectId=0198be1d-574a-752e-ae53-1d263a30e856","C2201E74145C4EDE80DB10155B4E631C-2025-08-18-17-37-39","[{""page_index"":0,""viewing_time"":91438}]","91439","","","","",""
"","","","","","instructions","2","111331","0.0-2.0","C2201E74145C4EDE80DB10155B4E631C","C2201E74145C4EDE80DB10155B4E631C","0198be23-9ffc-7976-b60c-c8dbb78626a0","0198be1d-574a-752e-ae53-1d263a30e856","{""num_scrambled_semantic"":""8"",""num_scrambled_causal"":""4"",""num_scrambled_schematic"":""4"",""participantId"":""C2201E74145C4EDE80DB10155B4E631C"",""assignmentId"":""0198be23-9ffc-7976-b60c-c8dbb78626a0"",""projectId"":""0198be1d-574a-752e-ae53-1d263a30e856""}","https://test12345.live/?num_scrambled_semantic=8&num_scrambled_causal=4&num_scrambled_schematic=4&participantId=C2201E74145C4EDE80DB10155B4E631C&assignmentId=0198be23-9ffc-7976-b60c-c8dbb78626a0&projectId=0198be1d-574a-752e-ae53-1d263a30e856","C2201E74145C4EDE80DB10155B4E631C-2025-08-18-17-37-39","[{""page_index"":0,""viewing_time"":16831}]","16831","","","","",""
"true","","","","","fullscreen","3","114965","0.0-3.0","C2201E74145C4EDE80DB10155B4E631C","C2201E74145C4EDE80DB10155B4E631C","0198be23-9ffc-7976-b60c-c8dbb78626a0","0198be1d-574a-752e-ae53-1d263a30e856","{""num_scrambled_semantic"":""8"",""num_scrambled_causal"":""4"",""num_scrambled_schematic"":""4"",""participantId"":""C2201E74145C4EDE80DB10155B4E631C"",""assignmentId"":""0198be23-9ffc-7976-b60c-c8dbb78626a0"",""projectId"":""0198be1d-574a-752e-ae53-1d263a30e856""}","https://test12345.live/?num_scrambled_semantic=8&num_scrambled_causal=4&num_scrambled_schematic=4&participantId=C2201E74145C4EDE80DB10155B4E631C&assignmentId=0198be23-9ffc-7976-b60c-c8dbb78626a0&projectId=0198be1d-574a-752e-ae53-1d263a30e856","C2201E74145C4EDE80DB10155B4E631C-2025-08-18-17-37-39","","2633","","","","",""
"","","","","","initialize-microphone","4","120201","0.0-4.0-0.0","C2201E74145C4EDE80DB10155B4E631C","C2201E74145C4EDE80DB10155B4E631C","0198be23-9ffc-7976-b60c-c8dbb78626a0","0198be1d-574a-752e-ae53-1d263a30e856","{""num_scrambled_semantic"":""8"",""num_scrambled_causal"":""4"",""num_scrambled_schematic"":""4"",""participantId"":""C2201E74145C4EDE80DB10155B4E631C"",""assignmentId"":""0198be23-9ffc-7976-b60c-c8dbb78626a0"",""projectId"":""0198be1d-574a-752e-ae53-1d263a30e856""}","https://test12345.live/?num_scrambled_semantic=8&num_scrambled_causal=4&num_scrambled_schematic=4&participantId=C2201E74145C4EDE80DB10155B4E631C&assignmentId=0198be23-9ffc-7976-b60c-c8dbb78626a0&projectId=0198be1d-574a-752e-ae53-1d263a30e856","C2201E74145C4EDE80DB10155B4E631C-2025-08-18-17-37-39","","","76090a2be8246eab652fcb747c35e708640d87f550335106f8701f14fb86b971","","","",""
"","","","","","html-audio-response","5","210233","0.0-4.0-1.0","C2201E74145C4EDE80DB10155B4E631C","C2201E74145C4EDE80DB10155B4E631C","0198be23-9ffc-7976-b60c-c8dbb78626a0","0198be1d-574a-752e-ae53-1d263a30e856","{""num_scrambled_semantic"":""8"",""num_scrambled_causal"":""4"",""num_scrambled_schematic"":""4"",""participantId"":""C2201E74145C4EDE80DB10155B4E631C"",""assignmentId"":""0198be23-9ffc-7976-b60c-c8dbb78626a0"",""projectId"":""0198be1d-574a-752e-ae53-1d263a30e856""}","https://test12345.live/?num_scrambled_semantic=8&num_scrambled_causal=4&num_scrambled_schematic=4&participantId=C2201E74145C4EDE80DB10155B4E631C&assignmentId=0198be23-9ffc-7976-b60c-c8dbb78626a0&projectId=0198be1d-574a-752e-ae53-1d263a30e856","C2201E74145C4EDE80DB10155B4E631C-2025-08-18-17-37-39","","3990","","<span style=""color: red; font-size: 24px""> NOW RECORDING</span>
        <p>Please test Microphone</p>","","2",""
"","","","","","html-button-response","6","213935","0.0-4.0-2.0","C2201E74145C4EDE80DB10155B4E631C","C2201E74145C4EDE80DB10155B4E631C","0198be23-9ffc-7976-b60c-c8dbb78626a0","0198be1d-574a-752e-ae53-1d263a30e856","{""num_scrambled_semantic"":""8"",""num_scrambled_causal"":""4"",""num_scrambled_schematic"":""4"",""participantId"":""C2201E74145C4EDE80DB10155B4E631C"",""assignmentId"":""0198be23-9ffc-7976-b60c-c8dbb78626a0"",""projectId"":""0198be1d-574a-752e-ae53-1d263a30e856""}","https://test12345.live/?num_scrambled_semantic=8&num_scrambled_causal=4&num_scrambled_schematic=4&participantId=C2201E74145C4EDE80DB10155B4E631C&assignmentId=0198be23-9ffc-7976-b60c-c8dbb78626a0&projectId=0198be1d-574a-752e-ae53-1d263a30e856","C2201E74145C4EDE80DB10155B4E631C-2025-08-18-17-37-39","","3699","","<p style=""font-size:48px; color:red;"">Is Microphone OK?</p>","1","",""
"","","","","","instructions","7","226003","0.0-5.0","C2201E74145C4EDE80DB10155B4E631C","C2201E74145C4EDE80DB10155B4E631C","0198be23-9ffc-7976-b60c-c8dbb78626a0","0198be1d-574a-752e-ae53-1d263a30e856","{""num_scrambled_semantic"":""8"",""num_scrambled_causal"":""4"",""num_scrambled_schematic"":""4"",""participantId"":""C2201E74145C4EDE80DB10155B4E631C"",""assignmentId"":""0198be23-9ffc-7976-b60c-c8dbb78626a0"",""projectId"":""0198be1d-574a-752e-ae53-1d263a30e856""}","https://test12345.live/?num_scrambled_semantic=8&num_scrambled_causal=4&num_scrambled_schematic=4&participantId=C2201E74145C4EDE80DB10155B4E631C&assignmentId=0198be23-9ffc-7976-b60c-c8dbb78626a0&projectId=0198be1d-574a-752e-ae53-1d263a30e856","C2201E74145C4EDE80DB10155B4E631C-2025-08-18-17-37-39","[{""page_index"":0,""viewing_time"":5031},{""page_index"":1,""viewing_time"":7036}]","12068","","","","",""
"","","","","","image-button-response","8","232008","0.0-6.0-0.0","C2201E74145C4EDE80DB10155B4E631C","C2201E74145C4EDE80DB10155B4E631C","0198be23-9ffc-7976-b60c-c8dbb78626a0","0198be1d-574a-752e-ae53-1d263a30e856","{""num_scrambled_semantic"":""8"",""num_scrambled_causal"":""4"",""num_scrambled_schematic"":""4"",""participantId"":""C2201E74145C4EDE80DB10155B4E631C"",""assignmentId"":""0198be23-9ffc-7976-b60c-c8dbb78626a0"",""projectId"":""0198be1d-574a-752e-ae53-1d263a30e856""}","https://test12345.live/?num_scrambled_semantic=8&num_scrambled_causal=4&num_scrambled_schematic=4&participantId=C2201E74145C4EDE80DB10155B4E631C&assignmentId=0198be23-9ffc-7976-b60c-c8dbb78626a0&projectId=0198be1d-574a-752e-ae53-1d263a30e856","C2201E74145C4EDE80DB10155B4E631C-2025-08-18-17-37-39","","null","","images/instructions/movie_0.png","null","",""
"","","","","","image-button-response","9","236515","0.0-6.0-1.0-0.0","C2201E74145C4EDE80DB10155B4E631C","C2201E74145C4EDE80DB10155B4E631C","0198be23-9ffc-7976-b60c-c8dbb78626a0","0198be1d-574a-752e-ae53-1d263a30e856","{""num_scrambled_semantic"":""8"",""num_scrambled_causal"":""4"",""num_scrambled_schematic"":""4"",""participantId"":""C2201E74145C4EDE80DB10155B4E631C"",""assignmentId"":""0198be23-9ffc-7976-b60c-c8dbb78626a0"",""projectId"":""0198be1d-574a-752e-ae53-1d263a30e856""}","https://test12345.live/?num_scrambled_semantic=8&num_scrambled_causal=4&num_scrambled_schematic=4&participantId=C2201E74145C4EDE80DB10155B4E631C&assignmentId=0198be23-9ffc-7976-b60c-c8dbb78626a0&projectId=0198be1d-574a-752e-ae53-1d263a30e856","C2201E74145C4EDE80DB10155B4E631C-2025-08-18-17-37-39","","null","","images/instructions/movie_1.png","null","",""
"","","","","","image-button-response","10","239768","0.0-6.0-1.0-1.0","C2201E74145C4EDE80DB10155B4E631C","C2201E74145C4EDE80DB10155B4E631C","0198be23-9ffc-7976-b60c-c8dbb78626a0","0198be1d-574a-752e-ae53-1d263a30e856","{""num_scrambled_semantic"":""8"",""num_scrambled_causal"":""4"",""num_scrambled_schematic"":""4"",""participantId"":""C2201E74145C4EDE80DB10155B4E631C"",""assignmentId"":""0198be23-9ffc-7976-b60c-c8dbb78626a0"",""projectId"":""0198be1d-574a-752e-ae53-1d263a30e856""}","https://test12345.live/?num_scrambled_semantic=8&num_scrambled_causal=4&num_scrambled_schematic=4&participantId=C2201E74145C4EDE80DB10155B4E631C&assignmentId=0198be23-9ffc-7976-b60c-c8dbb78626a0&projectId=0198be1d-574a-752e-ae53-1d263a30e856","C2201E74145C4EDE80DB10155B4E631C-2025-08-18-17-37-39","","3250","","images/instructions/movie_1.png","0","",""
"","","","","","image-button-response","11","250571","0.0-6.0-1.0-2.0","C2201E74145C4EDE80DB10155B4E631C","C2201E74145C4EDE80DB10155B4E631C","0198be23-9ffc-7976-b60c-c8dbb78626a0","0198be1d-574a-752e-ae53-1d263a30e856","{""num_scrambled_semantic"":""8"",""num_scrambled_causal"":""4"",""num_scrambled_schematic"":""4"",""participantId"":""C2201E74145C4EDE80DB10155B4E631C"",""assignmentId"":""0198be23-9ffc-7976-b60c-c8dbb78626a0"",""projectId"":""0198be1d-574a-752e-ae53-1d263a30e856""}","https://test12345.live/?num_scrambled_semantic=8&num_scrambled_causal=4&num_scrambled_schematic=4&participantId=C2201E74145C4EDE80DB10155B4E631C&assignmentId=0198be23-9ffc-7976-b60c-c8dbb78626a0&projectId=0198be1d-574a-752e-ae53-1d263a30e856","C2201E74145C4EDE80DB10155B4E631C-2025-08-18-17-37-39","","null","","[]","null","",""
"","","","","","image-button-response","12","255076","0.0-6.0-1.0-0.1","C2201E74145C4EDE80DB10155B4E631C","C2201E74145C4EDE80DB10155B4E631C","0198be23-9ffc-7976-b60c-c8dbb78626a0","0198be1d-574a-752e-ae53-1d263a30e856","{""num_scrambled_semantic"":""8"",""num_scrambled_causal"":""4"",""num_scrambled_schematic"":""4"",""participantId"":""C2201E74145C4EDE80DB10155B4E631C"",""assignmentId"":""0198be23-9ffc-7976-b60c-c8dbb78626a0"",""projectId"":""0198be1d-574a-752e-ae53-1d263a30e856""}","https://test12345.live/?num_scrambled_semantic=8&num_scrambled_causal=4&num_scrambled_schematic=4&participantId=C2201E74145C4EDE80DB10155B4E631C&assignmentId=0198be23-9ffc-7976-b60c-c8dbb78626a0&projectId=0198be1d-574a-752e-ae53-1d263a30e856","C2201E74145C4EDE80DB10155B4E631C-2025-08-18-17-37-39","","null","","images/instructions/movie_2.png","null","",""
"","","","","","image-button-response","13","256984","0.0-6.0-1.0-1.1","C2201E74145C4EDE80DB10155B4E631C","C2201E74145C4EDE80DB10155B4E631C","0198be23-9ffc-7976-b60c-c8dbb78626a0","0198be1d-574a-752e-ae53-1d263a30e856","{""num_scrambled_semantic"":""8"",""num_scrambled_causal"":""4"",""num_scrambled_schematic"":""4"",""participantId"":""C2201E74145C4EDE80DB10155B4E631C"",""assignmentId"":""0198be23-9ffc-7976-b60c-c8dbb78626a0"",""projectId"":""0198be1d-574a-752e-ae53-1d263a30e856""}","https://test12345.live/?num_scrambled_semantic=8&num_scrambled_causal=4&num_scrambled_schematic=4&participantId=C2201E74145C4EDE80DB10155B4E631C&assignmentId=0198be23-9ffc-7976-b60c-c8dbb78626a0&projectId=0198be1d-574a-752e-ae53-1d263a30e856","C2201E74145C4EDE80DB10155B4E631C-2025-08-18-17-37-39","","1906","","images/instructions/movie_2.png","0","",""
"","","","","","image-button-response","14","267790","0.0-6.0-1.0-2.1","C2201E74145C4EDE80DB10155B4E631C","C2201E74145C4EDE80DB10155B4E631C","0198be23-9ffc-7976-b60c-c8dbb78626a0","0198be1d-574a-752e-ae53-1d263a30e856","{""num_scrambled_semantic"":""8"",""num_scrambled_causal"":""4"",""num_scrambled_schematic"":""4"",""participantId"":""C2201E74145C4EDE80DB10155B4E631C"",""assignmentId"":""0198be23-9ffc-7976-b60c-c8dbb78626a0"",""projectId"":""0198be1d-574a-752e-ae53-1d263a30e856""}","https://test12345.live/?num_scrambled_semantic=8&num_scrambled_causal=4&num_scrambled_schematic=4&participantId=C2201E74145C4EDE80DB10155B4E631C&assignmentId=0198be23-9ffc-7976-b60c-c8dbb78626a0&projectId=0198be1d-574a-752e-ae53-1d263a30e856","C2201E74145C4EDE80DB10155B4E631C-2025-08-18-17-37-39","","null","","[]","null","",""
"","","","","","image-button-response","15","272297","0.0-6.0-1.0-0.2","C2201E74145C4EDE80DB10155B4E631C","C2201E74145C4EDE80DB10155B4E631C","0198be23-9ffc-7976-b60c-c8dbb78626a0","0198be1d-574a-752e-ae53-1d263a30e856","{""num_scrambled_semantic"":""8"",""num_scrambled_causal"":""4"",""num_scrambled_schematic"":""4"",""participantId"":""C2201E74145C4EDE80DB10155B4E631C"",""assignmentId"":""0198be23-9ffc-7976-b60c-c8dbb78626a0"",""projectId"":""0198be1d-574a-752e-ae53-1d263a30e856""}","https://test12345.live/?num_scrambled_semantic=8&num_scrambled_causal=4&num_scrambled_schematic=4&participantId=C2201E74145C4EDE80DB10155B4E631C&assignmentId=0198be23-9ffc-7976-b60c-c8dbb78626a0&projectId=0198be1d-574a-752e-ae53-1d263a30e856","C2201E74145C4EDE80DB10155B4E631C-2025-08-18-17-37-39","","null","","images/instructions/movie_3.png","null","",""
"","","","","","image-button-response","16","273952","0.0-6.0-1.0-1.2","C2201E74145C4EDE80DB10155B4E631C","C2201E74145C4EDE80DB10155B4E631C","0198be23-9ffc-7976-b60c-c8dbb78626a0","0198be1d-574a-752e-ae53-1d263a30e856","{""num_scrambled_semantic"":""8"",""num_scrambled_causal"":""4"",""num_scrambled_schematic"":""4"",""participantId"":""C2201E74145C4EDE80DB10155B4E631C"",""assignmentId"":""0198be23-9ffc-7976-b60c-c8dbb78626a0"",""projectId"":""0198be1d-574a-752e-ae53-1d263a30e856""}","https://test12345.live/?num_scrambled_semantic=8&num_scrambled_causal=4&num_scrambled_schematic=4&participantId=C2201E74145C4EDE80DB10155B4E631C&assignmentId=0198be23-9ffc-7976-b60c-c8dbb78626a0&projectId=0198be1d-574a-752e-ae53-1d263a30e856","C2201E74145C4EDE80DB10155B4E631C-2025-08-18-17-37-39","","1652","","images/instructions/movie_3.png","0","",""
"","","","","","image-button-response","17","284755","0.0-6.0-1.0-2.2","C2201E74145C4EDE80DB10155B4E631C","C2201E74145C4EDE80DB10155B4E631C","0198be23-9ffc-7976-b60c-c8dbb78626a0","0198be1d-574a-752e-ae53-1d263a30e856","{""num_scrambled_semantic"":""8"",""num_scrambled_causal"":""4"",""num_scrambled_schematic"":""4"",""participantId"":""C2201E74145C4EDE80DB10155B4E631C"",""assignmentId"":""0198be23-9ffc-7976-b60c-c8dbb78626a0"",""projectId"":""0198be1d-574a-752e-ae53-1d263a30e856""}","https://test12345.live/?num_scrambled_semantic=8&num_scrambled_causal=4&num_scrambled_schematic=4&participantId=C2201E74145C4EDE80DB10155B4E631C&assignmentId=0198be23-9ffc-7976-b60c-c8dbb78626a0&projectId=0198be1d-574a-752e-ae53-1d263a30e856","C2201E74145C4EDE80DB10155B4E631C-2025-08-18-17-37-39","","null","","[]","null","",""
"","","","","","image-button-response","18","289262","0.0-6.0-1.0-0.3","C2201E74145C4EDE80DB10155B4E631C","C2201E74145C4EDE80DB10155B4E631C","0198be23-9ffc-7976-b60c-c8dbb78626a0","0198be1d-574a-752e-ae53-1d263a30e856","{""num_scrambled_semantic"":""8"",""num_scrambled_causal"":""4"",""num_scrambled_schematic"":""4"",""participantId"":""C2201E74145C4EDE80DB10155B4E631C"",""assignmentId"":""0198be23-9ffc-7976-b60c-c8dbb78626a0"",""projectId"":""0198be1d-574a-752e-ae53-1d263a30e856""}","https://test12345.live/?num_scrambled_semantic=8&num_scrambled_causal=4&num_scrambled_schematic=4&participantId=C2201E74145C4EDE80DB10155B4E631C&assignmentId=0198be23-9ffc-7976-b60c-c8dbb78626a0&projectId=0198be1d-574a-752e-ae53-1d263a30e856","C2201E74145C4EDE80DB10155B4E631C-2025-08-18-17-37-39","","null","","images/instructions/movie_4.png","null","",""
"","","","","","image-button-response","19","293268","0.0-6.0-1.0-1.3","C2201E74145C4EDE80DB10155B4E631C","C2201E74145C4EDE80DB10155B4E631C","0198be23-9ffc-7976-b60c-c8dbb78626a0","0198be1d-574a-752e-ae53-1d263a30e856","{""num_scrambled_semantic"":""8"",""num_scrambled_causal"":""4"",""num_scrambled_schematic"":""4"",""participantId"":""C2201E74145C4EDE80DB10155B4E631C"",""assignmentId"":""0198be23-9ffc-7976-b60c-c8dbb78626a0"",""projectId"":""0198be1d-574a-752e-ae53-1d263a30e856""}","https://test12345.live/?num_scrambled_semantic=8&num_scrambled_causal=4&num_scrambled_schematic=4&participantId=C2201E74145C4EDE80DB10155B4E631C&assignmentId=0198be23-9ffc-7976-b60c-c8dbb78626a0&projectId=0198be1d-574a-752e-ae53-1d263a30e856","C2201E74145C4EDE80DB10155B4E631C-2025-08-18-17-37-39","","null","","images/instructions/movie_4.png","null","",""
"","","","","","image-button-response","20","304075","0.0-6.0-1.0-2.3","C2201E74145C4EDE80DB10155B4E631C","C2201E74145C4EDE80DB10155B4E631C","0198be23-9ffc-7976-b60c-c8dbb78626a0","0198be1d-574a-752e-ae53-1d263a30e856","{""num_scrambled_semantic"":""8"",""num_scrambled_causal"":""4"",""num_scrambled_schematic"":""4"",""participantId"":""C2201E74145C4EDE80DB10155B4E631C"",""assignmentId"":""0198be23-9ffc-7976-b60c-c8dbb78626a0"",""projectId"":""0198be1d-574a-752e-ae53-1d263a30e856""}","https://test12345.live/?num_scrambled_semantic=8&num_scrambled_causal=4&num_scrambled_schematic=4&participantId=C2201E74145C4EDE80DB10155B4E631C&assignmentId=0198be23-9ffc-7976-b60c-c8dbb78626a0&projectId=0198be1d-574a-752e-ae53-1d263a30e856","C2201E74145C4EDE80DB10155B4E631C-2025-08-18-17-37-39","","null","","[]","null","",""
"","","","","","instructions","21","314401","0.0-7.0","C2201E74145C4EDE80DB10155B4E631C","C2201E74145C4EDE80DB10155B4E631C","0198be23-9ffc-7976-b60c-c8dbb78626a0","0198be1d-574a-752e-ae53-1d263a30e856","{""num_scrambled_semantic"":""8"",""num_scrambled_causal"":""4"",""num_scrambled_schematic"":""4"",""participantId"":""C2201E74145C4EDE80DB10155B4E631C"",""assignmentId"":""0198be23-9ffc-7976-b60c-c8dbb78626a0"",""projectId"":""0198be1d-574a-752e-ae53-1d263a30e856""}","https://test12345.live/?num_scrambled_semantic=8&num_scrambled_causal=4&num_scrambled_schematic=4&participantId=C2201E74145C4EDE80DB10155B4E631C&assignmentId=0198be23-9ffc-7976-b60c-c8dbb78626a0&projectId=0198be1d-574a-752e-ae53-1d263a30e856","C2201E74145C4EDE80DB10155B4E631C-2025-08-18-17-37-39","[{""page_index"":0,""viewing_time"":8877},{""page_index"":1,""viewing_time"":1449}]","10326","","","","",""
"","","","","","html-audio-response","22","336369","0.0-8.0","C2201E74145C4EDE80DB10155B4E631C","C2201E74145C4EDE80DB10155B4E631C","0198be23-9ffc-7976-b60c-c8dbb78626a0","0198be1d-574a-752e-ae53-1d263a30e856","{""num_scrambled_semantic"":""8"",""num_scrambled_causal"":""4"",""num_scrambled_schematic"":""4"",""participantId"":""C2201E74145C4EDE80DB10155B4E631C"",""assignmentId"":""0198be23-9ffc-7976-b60c-c8dbb78626a0"",""projectId"":""0198be1d-574a-752e-ae53-1d263a30e856""}","https://test12345.live/?num_scrambled_semantic=8&num_scrambled_causal=4&num_scrambled_schematic=4&participantId=C2201E74145C4EDE80DB10155B4E631C&assignmentId=0198be23-9ffc-7976-b60c-c8dbb78626a0&projectId=0198be1d-574a-752e-ae53-1d263a30e856","C2201E74145C4EDE80DB10155B4E631C-2025-08-18-17-37-39","","11220","","[""<span style=\""color: red; font-size: 24px\""> NOW RECORDING</span><p>Please say out loud all the images you saw in the exact order you saw them. Try to recall as many images as you can, but remember: getting the order right is more important than the number of images you recall.</p>""]","","2",""
"","","","","","instructions","23","338235","0.0-9.0","C2201E74145C4EDE80DB10155B4E631C","C2201E74145C4EDE80DB10155B4E631C","0198be23-9ffc-7976-b60c-c8dbb78626a0","0198be1d-574a-752e-ae53-1d263a30e856","{""num_scrambled_semantic"":""8"",""num_scrambled_causal"":""4"",""num_scrambled_schematic"":""4"",""participantId"":""C2201E74145C4EDE80DB10155B4E631C"",""assignmentId"":""0198be23-9ffc-7976-b60c-c8dbb78626a0"",""projectId"":""0198be1d-574a-752e-ae53-1d263a30e856""}","https://test12345.live/?num_scrambled_semantic=8&num_scrambled_causal=4&num_scrambled_schematic=4&participantId=C2201E74145C4EDE80DB10155B4E631C&assignmentId=0198be23-9ffc-7976-b60c-c8dbb78626a0&projectId=0198be1d-574a-752e-ae53-1d263a30e856","C2201E74145C4EDE80DB10155B4E631C-2025-08-18-17-37-39","[{""page_index"":0,""viewing_time"":1862}]","1862","","","","",""
"","","","","","image-button-response","24","344241","0.0-10.0-0.0","C2201E74145C4EDE80DB10155B4E631C","C2201E74145C4EDE80DB10155B4E631C","0198be23-9ffc-7976-b60c-c8dbb78626a0","0198be1d-574a-752e-ae53-1d263a30e856","{""num_scrambled_semantic"":""8"",""num_scrambled_causal"":""4"",""num_scrambled_schematic"":""4"",""participantId"":""C2201E74145C4EDE80DB10155B4E631C"",""assignmentId"":""0198be23-9ffc-7976-b60c-c8dbb78626a0"",""projectId"":""0198be1d-574a-752e-ae53-1d263a30e856""}","https://test12345.live/?num_scrambled_semantic=8&num_scrambled_causal=4&num_scrambled_schematic=4&participantId=C2201E74145C4EDE80DB10155B4E631C&assignmentId=0198be23-9ffc-7976-b60c-c8dbb78626a0&projectId=0198be1d-574a-752e-ae53-1d263a30e856","C2201E74145C4EDE80DB10155B4E631C-2025-08-18-17-37-39","","null","","images/semantic_sequence/creative_activities_semantic/creative_activities_semantic_0.png","null","",""
"","","","","","image-button-response","25","348747","0.0-10.0-1.0-0.0","C2201E74145C4EDE80DB10155B4E631C","C2201E74145C4EDE80DB10155B4E631C","0198be23-9ffc-7976-b60c-c8dbb78626a0","0198be1d-574a-752e-ae53-1d263a30e856","{""num_scrambled_semantic"":""8"",""num_scrambled_causal"":""4"",""num_scrambled_schematic"":""4"",""participantId"":""C2201E74145C4EDE80DB10155B4E631C"",""assignmentId"":""0198be23-9ffc-7976-b60c-c8dbb78626a0"",""projectId"":""0198be1d-574a-752e-ae53-1d263a30e856""}","https://test12345.live/?num_scrambled_semantic=8&num_scrambled_causal=4&num_scrambled_schematic=4&participantId=C2201E74145C4EDE80DB10155B4E631C&assignmentId=0198be23-9ffc-7976-b60c-c8dbb78626a0&projectId=0198be1d-574a-752e-ae53-1d263a30e856","C2201E74145C4EDE80DB10155B4E631C-2025-08-18-17-37-39","","null","","images/semantic_sequence/creative_activities_semantic/creative_activities_semantic_8.png","null","",""
"","","","","","image-button-response","26","350270","0.0-10.0-1.0-1.0","C2201E74145C4EDE80DB10155B4E631C","C2201E74145C4EDE80DB10155B4E631C","0198be23-9ffc-7976-b60c-c8dbb78626a0","0198be1d-574a-752e-ae53-1d263a30e856","{""num_scrambled_semantic"":""8"",""num_scrambled_causal"":""4"",""num_scrambled_schematic"":""4"",""participantId"":""C2201E74145C4EDE80DB10155B4E631C"",""assignmentId"":""0198be23-9ffc-7976-b60c-c8dbb78626a0"",""projectId"":""0198be1d-574a-752e-ae53-1d263a30e856""}","https://test12345.live/?num_scrambled_semantic=8&num_scrambled_causal=4&num_scrambled_schematic=4&participantId=C2201E74145C4EDE80DB10155B4E631C&assignmentId=0198be23-9ffc-7976-b60c-c8dbb78626a0&projectId=0198be1d-574a-752e-ae53-1d263a30e856","C2201E74145C4EDE80DB10155B4E631C-2025-08-18-17-37-39","","1520","","images/semantic_sequence/creative_activities_semantic/creative_activities_semantic_8.png","0","",""
"","","","","","image-button-response","27","361075","0.0-10.0-1.0-2.0","C2201E74145C4EDE80DB10155B4E631C","C2201E74145C4EDE80DB10155B4E631C","0198be23-9ffc-7976-b60c-c8dbb78626a0","0198be1d-574a-752e-ae53-1d263a30e856","{""num_scrambled_semantic"":""8"",""num_scrambled_causal"":""4"",""num_scrambled_schematic"":""4"",""participantId"":""C2201E74145C4EDE80DB10155B4E631C"",""assignmentId"":""0198be23-9ffc-7976-b60c-c8dbb78626a0"",""projectId"":""0198be1d-574a-752e-ae53-1d263a30e856""}","https://test12345.live/?num_scrambled_semantic=8&num_scrambled_causal=4&num_scrambled_schematic=4&participantId=C2201E74145C4EDE80DB10155B4E631C&assignmentId=0198be23-9ffc-7976-b60c-c8dbb78626a0&projectId=0198be1d-574a-752e-ae53-1d263a30e856","C2201E74145C4EDE80DB10155B4E631C-2025-08-18-17-37-39","","null","","[]","null","",""
"","","","","","image-button-response","28","365578","0.0-10.0-1.0-0.1","C2201E74145C4EDE80DB10155B4E631C","C2201E74145C4EDE80DB10155B4E631C","0198be23-9ffc-7976-b60c-c8dbb78626a0","0198be1d-574a-752e-ae53-1d263a30e856","{""num_scrambled_semantic"":""8"",""num_scrambled_causal"":""4"",""num_scrambled_schematic"":""4"",""participantId"":""C2201E74145C4EDE80DB10155B4E631C"",""assignmentId"":""0198be23-9ffc-7976-b60c-c8dbb78626a0"",""projectId"":""0198be1d-574a-752e-ae53-1d263a30e856""}","https://test12345.live/?num_scrambled_semantic=8&num_scrambled_causal=4&num_scrambled_schematic=4&participantId=C2201E74145C4EDE80DB10155B4E631C&assignmentId=0198be23-9ffc-7976-b60c-c8dbb78626a0&projectId=0198be1d-574a-752e-ae53-1d263a30e856","C2201E74145C4EDE80DB10155B4E631C-2025-08-18-17-37-39","","null","","images/semantic_sequence/creative_activities_semantic/creative_activities_semantic_6.png","null","",""
"","","","","","image-button-response","29","366720","0.0-10.0-1.0-1.1","C2201E74145C4EDE80DB10155B4E631C","C2201E74145C4EDE80DB10155B4E631C","0198be23-9ffc-7976-b60c-c8dbb78626a0","0198be1d-574a-752e-ae53-1d263a30e856","{""num_scrambled_semantic"":""8"",""num_scrambled_causal"":""4"",""num_scrambled_schematic"":""4"",""participantId"":""C2201E74145C4EDE80DB10155B4E631C"",""assignmentId"":""0198be23-9ffc-7976-b60c-c8dbb78626a0"",""projectId"":""0198be1d-574a-752e-ae53-1d263a30e856""}","https://test12345.live/?num_scrambled_semantic=8&num_scrambled_causal=4&num_scrambled_schematic=4&participantId=C2201E74145C4EDE80DB10155B4E631C&assignmentId=0198be23-9ffc-7976-b60c-c8dbb78626a0&projectId=0198be1d-574a-752e-ae53-1d263a30e856","C2201E74145C4EDE80DB10155B4E631C-2025-08-18-17-37-39","","1139","","images/semantic_sequence/creative_activities_semantic/creative_activities_semantic_6.png","0","",""
"","","","","","image-button-response","30","377523","0.0-10.0-1.0-2.1","C2201E74145C4EDE80DB10155B4E631C","C2201E74145C4EDE80DB10155B4E631C","0198be23-9ffc-7976-b60c-c8dbb78626a0","0198be1d-574a-752e-ae53-1d263a30e856","{""num_scrambled_semantic"":""8"",""num_scrambled_causal"":""4"",""num_scrambled_schematic"":""4"",""participantId"":""C2201E74145C4EDE80DB10155B4E631C"",""assignmentId"":""0198be23-9ffc-7976-b60c-c8dbb78626a0"",""projectId"":""0198be1d-574a-752e-ae53-1d263a30e856""}","https://test12345.live/?num_scrambled_semantic=8&num_scrambled_causal=4&num_scrambled_schematic=4&participantId=C2201E74145C4EDE80DB10155B4E631C&assignmentId=0198be23-9ffc-7976-b60c-c8dbb78626a0&projectId=0198be1d-574a-752e-ae53-1d263a30e856","C2201E74145C4EDE80DB10155B4E631C-2025-08-18-17-37-39","","null","","[]","null","",""
"","","","","","image-button-response","31","382028","0.0-10.0-1.0-0.2","C2201E74145C4EDE80DB10155B4E631C","C2201E74145C4EDE80DB10155B4E631C","0198be23-9ffc-7976-b60c-c8dbb78626a0","0198be1d-574a-752e-ae53-1d263a30e856","{""num_scrambled_semantic"":""8"",""num_scrambled_causal"":""4"",""num_scrambled_schematic"":""4"",""participantId"":""C2201E74145C4EDE80DB10155B4E631C"",""assignmentId"":""0198be23-9ffc-7976-b60c-c8dbb78626a0"",""projectId"":""0198be1d-574a-752e-ae53-1d263a30e856""}","https://test12345.live/?num_scrambled_semantic=8&num_scrambled_causal=4&num_scrambled_schematic=4&participantId=C2201E74145C4EDE80DB10155B4E631C&assignmentId=0198be23-9ffc-7976-b60c-c8dbb78626a0&projectId=0198be1d-574a-752e-ae53-1d263a30e856","C2201E74145C4EDE80DB10155B4E631C-2025-08-18-17-37-39","","null","","images/semantic_sequence/creative_activities_semantic/creative_activities_semantic_ten.png","null","",""
"","","","","","image-button-response","32","383303","0.0-10.0-1.0-1.2","C2201E74145C4EDE80DB10155B4E631C","C2201E74145C4EDE80DB10155B4E631C","0198be23-9ffc-7976-b60c-c8dbb78626a0","0198be1d-574a-752e-ae53-1d263a30e856","{""num_scrambled_semantic"":""8"",""num_scrambled_causal"":""4"",""num_scrambled_schematic"":""4"",""participantId"":""C2201E74145C4EDE80DB10155B4E631C"",""assignmentId"":""0198be23-9ffc-7976-b60c-c8dbb78626a0"",""projectId"":""0198be1d-574a-752e-ae53-1d263a30e856""}","https://test12345.live/?num_scrambled_semantic=8&num_scrambled_causal=4&num_scrambled_schematic=4&participantId=C2201E74145C4EDE80DB10155B4E631C&assignmentId=0198be23-9ffc-7976-b60c-c8dbb78626a0&projectId=0198be1d-574a-752e-ae53-1d263a30e856","C2201E74145C4EDE80DB10155B4E631C-2025-08-18-17-37-39","","1273","","images/semantic_sequence/creative_activities_semantic/creative_activities_semantic_ten.png","0","",""
"","","","","","image-button-response","33","394107","0.0-10.0-1.0-2.2","C2201E74145C4EDE80DB10155B4E631C","C2201E74145C4EDE80DB10155B4E631C","0198be23-9ffc-7976-b60c-c8dbb78626a0","0198be1d-574a-752e-ae53-1d263a30e856","{""num_scrambled_semantic"":""8"",""num_scrambled_causal"":""4"",""num_scrambled_schematic"":""4"",""participantId"":""C2201E74145C4EDE80DB10155B4E631C"",""assignmentId"":""0198be23-9ffc-7976-b60c-c8dbb78626a0"",""projectId"":""0198be1d-574a-752e-ae53-1d263a30e856""}","https://test12345.live/?num_scrambled_semantic=8&num_scrambled_causal=4&num_scrambled_schematic=4&participantId=C2201E74145C4EDE80DB10155B4E631C&assignmentId=0198be23-9ffc-7976-b60c-c8dbb78626a0&projectId=0198be1d-574a-752e-ae53-1d263a30e856","C2201E74145C4EDE80DB10155B4E631C-2025-08-18-17-37-39","","null","","[]","null","",""
"","","","","","image-button-response","34","398610","0.0-10.0-1.0-0.3","C2201E74145C4EDE80DB10155B4E631C","C2201E74145C4EDE80DB10155B4E631C","0198be23-9ffc-7976-b60c-c8dbb78626a0","0198be1d-574a-752e-ae53-1d263a30e856","{""num_scrambled_semantic"":""8"",""num_scrambled_causal"":""4"",""num_scrambled_schematic"":""4"",""participantId"":""C2201E74145C4EDE80DB10155B4E631C"",""assignmentId"":""0198be23-9ffc-7976-b60c-c8dbb78626a0"",""projectId"":""0198be1d-574a-752e-ae53-1d263a30e856""}","https://test12345.live/?num_scrambled_semantic=8&num_scrambled_causal=4&num_scrambled_schematic=4&participantId=C2201E74145C4EDE80DB10155B4E631C&assignmentId=0198be23-9ffc-7976-b60c-c8dbb78626a0&projectId=0198be1d-574a-752e-ae53-1d263a30e856","C2201E74145C4EDE80DB10155B4E631C-2025-08-18-17-37-39","","null","","images/semantic_sequence/creative_activities_semantic/creative_activities_semantic_7.png","null","",""
"","","","","","image-button-response","35","399588","0.0-10.0-1.0-1.3","C2201E74145C4EDE80DB10155B4E631C","C2201E74145C4EDE80DB10155B4E631C","0198be23-9ffc-7976-b60c-c8dbb78626a0","0198be1d-574a-752e-ae53-1d263a30e856","{""num_scrambled_semantic"":""8"",""num_scrambled_causal"":""4"",""num_scrambled_schematic"":""4"",""participantId"":""C2201E74145C4EDE80DB10155B4E631C"",""assignmentId"":""0198be23-9ffc-7976-b60c-c8dbb78626a0"",""projectId"":""0198be1d-574a-752e-ae53-1d263a30e856""}","https://test12345.live/?num_scrambled_semantic=8&num_scrambled_causal=4&num_scrambled_schematic=4&participantId=C2201E74145C4EDE80DB10155B4E631C&assignmentId=0198be23-9ffc-7976-b60c-c8dbb78626a0&projectId=0198be1d-574a-752e-ae53-1d263a30e856","C2201E74145C4EDE80DB10155B4E631C-2025-08-18-17-37-39","","977","","images/semantic_sequence/creative_activities_semantic/creative_activities_semantic_7.png","0","",""
"","","","","","image-button-response","36","410393","0.0-10.0-1.0-2.3","C2201E74145C4EDE80DB10155B4E631C","C2201E74145C4EDE80DB10155B4E631C","0198be23-9ffc-7976-b60c-c8dbb78626a0","0198be1d-574a-752e-ae53-1d263a30e856","{""num_scrambled_semantic"":""8"",""num_scrambled_causal"":""4"",""num_scrambled_schematic"":""4"",""participantId"":""C2201E74145C4EDE80DB10155B4E631C"",""assignmentId"":""0198be23-9ffc-7976-b60c-c8dbb78626a0"",""projectId"":""0198be1d-574a-752e-ae53-1d263a30e856""}","https://test12345.live/?num_scrambled_semantic=8&num_scrambled_causal=4&num_scrambled_schematic=4&participantId=C2201E74145C4EDE80DB10155B4E631C&assignmentId=0198be23-9ffc-7976-b60c-c8dbb78626a0&projectId=0198be1d-574a-752e-ae53-1d263a30e856","C2201E74145C4EDE80DB10155B4E631C-2025-08-18-17-37-39","","null","","[]","null","",""
"","","","","","image-button-response","37","414897","0.0-10.0-1.0-0.4","C2201E74145C4EDE80DB10155B4E631C","C2201E74145C4EDE80DB10155B4E631C","0198be23-9ffc-7976-b60c-c8dbb78626a0","0198be1d-574a-752e-ae53-1d263a30e856","{""num_scrambled_semantic"":""8"",""num_scrambled_causal"":""4"",""num_scrambled_schematic"":""4"",""participantId"":""C2201E74145C4EDE80DB10155B4E631C"",""assignmentId"":""0198be23-9ffc-7976-b60c-c8dbb78626a0"",""projectId"":""0198be1d-574a-752e-ae53-1d263a30e856""}","https://test12345.live/?num_scrambled_semantic=8&num_scrambled_causal=4&num_scrambled_schematic=4&participantId=C2201E74145C4EDE80DB10155B4E631C&assignmentId=0198be23-9ffc-7976-b60c-c8dbb78626a0&projectId=0198be1d-574a-752e-ae53-1d263a30e856","C2201E74145C4EDE80DB10155B4E631C-2025-08-18-17-37-39","","null","","images/semantic_sequence/creative_activities_semantic/creative_activities_semantic_3.png","null","",""
"","","","","","image-button-response","38","416055","0.0-10.0-1.0-1.4","C2201E74145C4EDE80DB10155B4E631C","C2201E74145C4EDE80DB10155B4E631C","0198be23-9ffc-7976-b60c-c8dbb78626a0","0198be1d-574a-752e-ae53-1d263a30e856","{""num_scrambled_semantic"":""8"",""num_scrambled_causal"":""4"",""num_scrambled_schematic"":""4"",""participantId"":""C2201E74145C4EDE80DB10155B4E631C"",""assignmentId"":""0198be23-9ffc-7976-b60c-c8dbb78626a0"",""projectId"":""0198be1d-574a-752e-ae53-1d263a30e856""}","https://test12345.live/?num_scrambled_semantic=8&num_scrambled_causal=4&num_scrambled_schematic=4&participantId=C2201E74145C4EDE80DB10155B4E631C&assignmentId=0198be23-9ffc-7976-b60c-c8dbb78626a0&projectId=0198be1d-574a-752e-ae53-1d263a30e856","C2201E74145C4EDE80DB10155B4E631C-2025-08-18-17-37-39","","1155","","images/semantic_sequence/creative_activities_semantic/creative_activities_semantic_3.png","0","",""
"","","","","","image-button-response","39","426861","0.0-10.0-1.0-2.4","C2201E74145C4EDE80DB10155B4E631C","C2201E74145C4EDE80DB10155B4E631C","0198be23-9ffc-7976-b60c-c8dbb78626a0","0198be1d-574a-752e-ae53-1d263a30e856","{""num_scrambled_semantic"":""8"",""num_scrambled_causal"":""4"",""num_scrambled_schematic"":""4"",""participantId"":""C2201E74145C4EDE80DB10155B4E631C"",""assignmentId"":""0198be23-9ffc-7976-b60c-c8dbb78626a0"",""projectId"":""0198be1d-574a-752e-ae53-1d263a30e856""}","https://test12345.live/?num_scrambled_semantic=8&num_scrambled_causal=4&num_scrambled_schematic=4&participantId=C2201E74145C4EDE80DB10155B4E631C&assignmentId=0198be23-9ffc-7976-b60c-c8dbb78626a0&projectId=0198be1d-574a-752e-ae53-1d263a30e856","C2201E74145C4EDE80DB10155B4E631C-2025-08-18-17-37-39","","null","","[]","null","",""
"","","","","","image-button-response","40","431367","0.0-10.0-1.0-0.5","C2201E74145C4EDE80DB10155B4E631C","C2201E74145C4EDE80DB10155B4E631C","0198be23-9ffc-7976-b60c-c8dbb78626a0","0198be1d-574a-752e-ae53-1d263a30e856","{""num_scrambled_semantic"":""8"",""num_scrambled_causal"":""4"",""num_scrambled_schematic"":""4"",""participantId"":""C2201E74145C4EDE80DB10155B4E631C"",""assignmentId"":""0198be23-9ffc-7976-b60c-c8dbb78626a0"",""projectId"":""0198be1d-574a-752e-ae53-1d263a30e856""}","https://test12345.live/?num_scrambled_semantic=8&num_scrambled_causal=4&num_scrambled_schematic=4&participantId=C2201E74145C4EDE80DB10155B4E631C&assignmentId=0198be23-9ffc-7976-b60c-c8dbb78626a0&projectId=0198be1d-574a-752e-ae53-1d263a30e856","C2201E74145C4EDE80DB10155B4E631C-2025-08-18-17-37-39","","null","","images/semantic_sequence/creative_activities_semantic/creative_activities_semantic_2.png","null","",""
"","","","","","image-button-response","41","432354","0.0-10.0-1.0-1.5","C2201E74145C4EDE80DB10155B4E631C","C2201E74145C4EDE80DB10155B4E631C","0198be23-9ffc-7976-b60c-c8dbb78626a0","0198be1d-574a-752e-ae53-1d263a30e856","{""num_scrambled_semantic"":""8"",""num_scrambled_causal"":""4"",""num_scrambled_schematic"":""4"",""participantId"":""C2201E74145C4EDE80DB10155B4E631C"",""assignmentId"":""0198be23-9ffc-7976-b60c-c8dbb78626a0"",""projectId"":""0198be1d-574a-752e-ae53-1d263a30e856""}","https://test12345.live/?num_scrambled_semantic=8&num_scrambled_causal=4&num_scrambled_schematic=4&participantId=C2201E74145C4EDE80DB10155B4E631C&assignmentId=0198be23-9ffc-7976-b60c-c8dbb78626a0&projectId=0198be1d-574a-752e-ae53-1d263a30e856","C2201E74145C4EDE80DB10155B4E631C-2025-08-18-17-37-39","","985","","images/semantic_sequence/creative_activities_semantic/creative_activities_semantic_2.png","0","",""
"","","","","","image-button-response","42","443158","0.0-10.0-1.0-2.5","C2201E74145C4EDE80DB10155B4E631C","C2201E74145C4EDE80DB10155B4E631C","0198be23-9ffc-7976-b60c-c8dbb78626a0","0198be1d-574a-752e-ae53-1d263a30e856","{""num_scrambled_semantic"":""8"",""num_scrambled_causal"":""4"",""num_scrambled_schematic"":""4"",""participantId"":""C2201E74145C4EDE80DB10155B4E631C"",""assignmentId"":""0198be23-9ffc-7976-b60c-c8dbb78626a0"",""projectId"":""0198be1d-574a-752e-ae53-1d263a30e856""}","https://test12345.live/?num_scrambled_semantic=8&num_scrambled_causal=4&num_scrambled_schematic=4&participantId=C2201E74145C4EDE80DB10155B4E631C&assignmentId=0198be23-9ffc-7976-b60c-c8dbb78626a0&projectId=0198be1d-574a-752e-ae53-1d263a30e856","C2201E74145C4EDE80DB10155B4E631C-2025-08-18-17-37-39","","null","","[]","null","",""
"","","","","","image-button-response","43","447664","0.0-10.0-1.0-0.6","C2201E74145C4EDE80DB10155B4E631C","C2201E74145C4EDE80DB10155B4E631C","0198be23-9ffc-7976-b60c-c8dbb78626a0","0198be1d-574a-752e-ae53-1d263a30e856","{""num_scrambled_semantic"":""8"",""num_scrambled_causal"":""4"",""num_scrambled_schematic"":""4"",""participantId"":""C2201E74145C4EDE80DB10155B4E631C"",""assignmentId"":""0198be23-9ffc-7976-b60c-c8dbb78626a0"",""projectId"":""0198be1d-574a-752e-ae53-1d263a30e856""}","https://test12345.live/?num_scrambled_semantic=8&num_scrambled_causal=4&num_scrambled_schematic=4&participantId=C2201E74145C4EDE80DB10155B4E631C&assignmentId=0198be23-9ffc-7976-b60c-c8dbb78626a0&projectId=0198be1d-574a-752e-ae53-1d263a30e856","C2201E74145C4EDE80DB10155B4E631C-2025-08-18-17-37-39","","null","","images/semantic_sequence/creative_activities_semantic/creative_activities_semantic_5.png","null","",""
"","","","","","image-button-response","44","448988","0.0-10.0-1.0-1.6","C2201E74145C4EDE80DB10155B4E631C","C2201E74145C4EDE80DB10155B4E631C","0198be23-9ffc-7976-b60c-c8dbb78626a0","0198be1d-574a-752e-ae53-1d263a30e856","{""num_scrambled_semantic"":""8"",""num_scrambled_causal"":""4"",""num_scrambled_schematic"":""4"",""participantId"":""C2201E74145C4EDE80DB10155B4E631C"",""assignmentId"":""0198be23-9ffc-7976-b60c-c8dbb78626a0"",""projectId"":""0198be1d-574a-752e-ae53-1d263a30e856""}","https://test12345.live/?num_scrambled_semantic=8&num_scrambled_causal=4&num_scrambled_schematic=4&participantId=C2201E74145C4EDE80DB10155B4E631C&assignmentId=0198be23-9ffc-7976-b60c-c8dbb78626a0&projectId=0198be1d-574a-752e-ae53-1d263a30e856","C2201E74145C4EDE80DB10155B4E631C-2025-08-18-17-37-39","","1322","","images/semantic_sequence/creative_activities_semantic/creative_activities_semantic_5.png","0","",""
"","","","","","image-button-response","45","459795","0.0-10.0-1.0-2.6","C2201E74145C4EDE80DB10155B4E631C","C2201E74145C4EDE80DB10155B4E631C","0198be23-9ffc-7976-b60c-c8dbb78626a0","0198be1d-574a-752e-ae53-1d263a30e856","{""num_scrambled_semantic"":""8"",""num_scrambled_causal"":""4"",""num_scrambled_schematic"":""4"",""participantId"":""C2201E74145C4EDE80DB10155B4E631C"",""assignmentId"":""0198be23-9ffc-7976-b60c-c8dbb78626a0"",""projectId"":""0198be1d-574a-752e-ae53-1d263a30e856""}","https://test12345.live/?num_scrambled_semantic=8&num_scrambled_causal=4&num_scrambled_schematic=4&participantId=C2201E74145C4EDE80DB10155B4E631C&assignmentId=0198be23-9ffc-7976-b60c-c8dbb78626a0&projectId=0198be1d-574a-752e-ae53-1d263a30e856","C2201E74145C4EDE80DB10155B4E631C-2025-08-18-17-37-39","","null","","[]","null","",""
"","","","","","image-button-response","46","464297","0.0-10.0-1.0-0.7","C2201E74145C4EDE80DB10155B4E631C","C2201E74145C4EDE80DB10155B4E631C","0198be23-9ffc-7976-b60c-c8dbb78626a0","0198be1d-574a-752e-ae53-1d263a30e856","{""num_scrambled_semantic"":""8"",""num_scrambled_causal"":""4"",""num_scrambled_schematic"":""4"",""participantId"":""C2201E74145C4EDE80DB10155B4E631C"",""assignmentId"":""0198be23-9ffc-7976-b60c-c8dbb78626a0"",""projectId"":""0198be1d-574a-752e-ae53-1d263a30e856""}","https://test12345.live/?num_scrambled_semantic=8&num_scrambled_causal=4&num_scrambled_schematic=4&participantId=C2201E74145C4EDE80DB10155B4E631C&assignmentId=0198be23-9ffc-7976-b60c-c8dbb78626a0&projectId=0198be1d-574a-752e-ae53-1d263a30e856","C2201E74145C4EDE80DB10155B4E631C-2025-08-18-17-37-39","","null","","images/semantic_sequence/creative_activities_semantic/creative_activities_semantic_4.png","null","",""
"","","","","","image-button-response","47","465754","0.0-10.0-1.0-1.7","C2201E74145C4EDE80DB10155B4E631C","C2201E74145C4EDE80DB10155B4E631C","0198be23-9ffc-7976-b60c-c8dbb78626a0","0198be1d-574a-752e-ae53-1d263a30e856","{""num_scrambled_semantic"":""8"",""num_scrambled_causal"":""4"",""num_scrambled_schematic"":""4"",""participantId"":""C2201E74145C4EDE80DB10155B4E631C"",""assignmentId"":""0198be23-9ffc-7976-b60c-c8dbb78626a0"",""projectId"":""0198be1d-574a-752e-ae53-1d263a30e856""}","https://test12345.live/?num_scrambled_semantic=8&num_scrambled_causal=4&num_scrambled_schematic=4&participantId=C2201E74145C4EDE80DB10155B4E631C&assignmentId=0198be23-9ffc-7976-b60c-c8dbb78626a0&projectId=0198be1d-574a-752e-ae53-1d263a30e856","C2201E74145C4EDE80DB10155B4E631C-2025-08-18-17-37-39","","1456","","images/semantic_sequence/creative_activities_semantic/creative_activities_semantic_4.png","0","",""
"","","","","","image-button-response","48","476561","0.0-10.0-1.0-2.7","C2201E74145C4EDE80DB10155B4E631C","C2201E74145C4EDE80DB10155B4E631C","0198be23-9ffc-7976-b60c-c8dbb78626a0","0198be1d-574a-752e-ae53-1d263a30e856","{""num_scrambled_semantic"":""8"",""num_scrambled_causal"":""4"",""num_scrambled_schematic"":""4"",""participantId"":""C2201E74145C4EDE80DB10155B4E631C"",""assignmentId"":""0198be23-9ffc-7976-b60c-c8dbb78626a0"",""projectId"":""0198be1d-574a-752e-ae53-1d263a30e856""}","https://test12345.live/?num_scrambled_semantic=8&num_scrambled_causal=4&num_scrambled_schematic=4&participantId=C2201E74145C4EDE80DB10155B4E631C&assignmentId=0198be23-9ffc-7976-b60c-c8dbb78626a0&projectId=0198be1d-574a-752e-ae53-1d263a30e856","C2201E74145C4EDE80DB10155B4E631C-2025-08-18-17-37-39","","null","","[]","null","",""
"","","","","","image-button-response","49","481014","0.0-10.0-1.0-0.8","C2201E74145C4EDE80DB10155B4E631C","C2201E74145C4EDE80DB10155B4E631C","0198be23-9ffc-7976-b60c-c8dbb78626a0","0198be1d-574a-752e-ae53-1d263a30e856","{""num_scrambled_semantic"":""8"",""num_scrambled_causal"":""4"",""num_scrambled_schematic"":""4"",""participantId"":""C2201E74145C4EDE80DB10155B4E631C"",""assignmentId"":""0198be23-9ffc-7976-b60c-c8dbb78626a0"",""projectId"":""0198be1d-574a-752e-ae53-1d263a30e856""}","https://test12345.live/?num_scrambled_semantic=8&num_scrambled_causal=4&num_scrambled_schematic=4&participantId=C2201E74145C4EDE80DB10155B4E631C&assignmentId=0198be23-9ffc-7976-b60c-c8dbb78626a0&projectId=0198be1d-574a-752e-ae53-1d263a30e856","C2201E74145C4EDE80DB10155B4E631C-2025-08-18-17-37-39","","null","","images/semantic_sequence/creative_activities_semantic/creative_activities_semantic_9.png","null","",""
"","","","","","image-button-response","50","482702","0.0-10.0-1.0-1.8","C2201E74145C4EDE80DB10155B4E631C","C2201E74145C4EDE80DB10155B4E631C","0198be23-9ffc-7976-b60c-c8dbb78626a0","0198be1d-574a-752e-ae53-1d263a30e856","{""num_scrambled_semantic"":""8"",""num_scrambled_causal"":""4"",""num_scrambled_schematic"":""4"",""participantId"":""C2201E74145C4EDE80DB10155B4E631C"",""assignmentId"":""0198be23-9ffc-7976-b60c-c8dbb78626a0"",""projectId"":""0198be1d-574a-752e-ae53-1d263a30e856""}","https://test12345.live/?num_scrambled_semantic=8&num_scrambled_causal=4&num_scrambled_schematic=4&participantId=C2201E74145C4EDE80DB10155B4E631C&assignmentId=0198be23-9ffc-7976-b60c-c8dbb78626a0&projectId=0198be1d-574a-752e-ae53-1d263a30e856","C2201E74145C4EDE80DB10155B4E631C-2025-08-18-17-37-39","","1686","","images/semantic_sequence/creative_activities_semantic/creative_activities_semantic_9.png","0","",""
"","","","","","image-button-response","51","493509","0.0-10.0-1.0-2.8","C2201E74145C4EDE80DB10155B4E631C","C2201E74145C4EDE80DB10155B4E631C","0198be23-9ffc-7976-b60c-c8dbb78626a0","0198be1d-574a-752e-ae53-1d263a30e856","{""num_scrambled_semantic"":""8"",""num_scrambled_causal"":""4"",""num_scrambled_schematic"":""4"",""participantId"":""C2201E74145C4EDE80DB10155B4E631C"",""assignmentId"":""0198be23-9ffc-7976-b60c-c8dbb78626a0"",""projectId"":""0198be1d-574a-752e-ae53-1d263a30e856""}","https://test12345.live/?num_scrambled_semantic=8&num_scrambled_causal=4&num_scrambled_schematic=4&participantId=C2201E74145C4EDE80DB10155B4E631C&assignmentId=0198be23-9ffc-7976-b60c-c8dbb78626a0&projectId=0198be1d-574a-752e-ae53-1d263a30e856","C2201E74145C4EDE80DB10155B4E631C-2025-08-18-17-37-39","","null","","[]","null","",""
"","","","","","image-button-response","52","498012","0.0-10.0-1.0-0.9","C2201E74145C4EDE80DB10155B4E631C","C2201E74145C4EDE80DB10155B4E631C","0198be23-9ffc-7976-b60c-c8dbb78626a0","0198be1d-574a-752e-ae53-1d263a30e856","{""num_scrambled_semantic"":""8"",""num_scrambled_causal"":""4"",""num_scrambled_schematic"":""4"",""participantId"":""C2201E74145C4EDE80DB10155B4E631C"",""assignmentId"":""0198be23-9ffc-7976-b60c-c8dbb78626a0"",""projectId"":""0198be1d-574a-752e-ae53-1d263a30e856""}","https://test12345.live/?num_scrambled_semantic=8&num_scrambled_causal=4&num_scrambled_schematic=4&participantId=C2201E74145C4EDE80DB10155B4E631C&assignmentId=0198be23-9ffc-7976-b60c-c8dbb78626a0&projectId=0198be1d-574a-752e-ae53-1d263a30e856","C2201E74145C4EDE80DB10155B4E631C-2025-08-18-17-37-39","","null","","images/semantic_sequence/creative_activities_semantic/creative_activities_semantic_1.png","null","",""
"","","","","","image-button-response","53","499252","0.0-10.0-1.0-1.9","C2201E74145C4EDE80DB10155B4E631C","C2201E74145C4EDE80DB10155B4E631C","0198be23-9ffc-7976-b60c-c8dbb78626a0","0198be1d-574a-752e-ae53-1d263a30e856","{""num_scrambled_semantic"":""8"",""num_scrambled_causal"":""4"",""num_scrambled_schematic"":""4"",""participantId"":""C2201E74145C4EDE80DB10155B4E631C"",""assignmentId"":""0198be23-9ffc-7976-b60c-c8dbb78626a0"",""projectId"":""0198be1d-574a-752e-ae53-1d263a30e856""}","https://test12345.live/?num_scrambled_semantic=8&num_scrambled_causal=4&num_scrambled_schematic=4&participantId=C2201E74145C4EDE80DB10155B4E631C&assignmentId=0198be23-9ffc-7976-b60c-c8dbb78626a0&projectId=0198be1d-574a-752e-ae53-1d263a30e856","C2201E74145C4EDE80DB10155B4E631C-2025-08-18-17-37-39","","1237","","images/semantic_sequence/creative_activities_semantic/creative_activities_semantic_1.png","0","",""
"","","","","","image-button-response","54","510058","0.0-10.0-1.0-2.9","C2201E74145C4EDE80DB10155B4E631C","C2201E74145C4EDE80DB10155B4E631C","0198be23-9ffc-7976-b60c-c8dbb78626a0","0198be1d-574a-752e-ae53-1d263a30e856","{""num_scrambled_semantic"":""8"",""num_scrambled_causal"":""4"",""num_scrambled_schematic"":""4"",""participantId"":""C2201E74145C4EDE80DB10155B4E631C"",""assignmentId"":""0198be23-9ffc-7976-b60c-c8dbb78626a0"",""projectId"":""0198be1d-574a-752e-ae53-1d263a30e856""}","https://test12345.live/?num_scrambled_semantic=8&num_scrambled_causal=4&num_scrambled_schematic=4&participantId=C2201E74145C4EDE80DB10155B4E631C&assignmentId=0198be23-9ffc-7976-b60c-c8dbb78626a0&projectId=0198be1d-574a-752e-ae53-1d263a30e856","C2201E74145C4EDE80DB10155B4E631C-2025-08-18-17-37-39","","null","","[]","null","",""
"","","","","","html-audio-response","55","545302","0.0-11.0","C2201E74145C4EDE80DB10155B4E631C","C2201E74145C4EDE80DB10155B4E631C","0198be23-9ffc-7976-b60c-c8dbb78626a0","0198be1d-574a-752e-ae53-1d263a30e856","{""num_scrambled_semantic"":""8"",""num_scrambled_causal"":""4"",""num_scrambled_schematic"":""4"",""participantId"":""C2201E74145C4EDE80DB10155B4E631C"",""assignmentId"":""0198be23-9ffc-7976-b60c-c8dbb78626a0"",""projectId"":""0198be1d-574a-752e-ae53-1d263a30e856""}","https://test12345.live/?num_scrambled_semantic=8&num_scrambled_causal=4&num_scrambled_schematic=4&participantId=C2201E74145C4EDE80DB10155B4E631C&assignmentId=0198be23-9ffc-7976-b60c-c8dbb78626a0&projectId=0198be1d-574a-752e-ae53-1d263a30e856","C2201E74145C4EDE80DB10155B4E631C-2025-08-18-17-37-39","","33536","","[""<span style=\""color: red; font-size: 24px\""> NOW RECORDING</span><p>Please say out loud all the images you saw, in the exact order you saw them. Try to recall as many images as you can, but remember: getting the order right is more important than the number of images you recall.</p>""]","","2","creative_activities_semantic"
"","","","","","image-button-response","56","551313","0.0-12.0-0.0","C2201E74145C4EDE80DB10155B4E631C","C2201E74145C4EDE80DB10155B4E631C","0198be23-9ffc-7976-b60c-c8dbb78626a0","0198be1d-574a-752e-ae53-1d263a30e856","{""num_scrambled_semantic"":""8"",""num_scrambled_causal"":""4"",""num_scrambled_schematic"":""4"",""participantId"":""C2201E74145C4EDE80DB10155B4E631C"",""assignmentId"":""0198be23-9ffc-7976-b60c-c8dbb78626a0"",""projectId"":""0198be1d-574a-752e-ae53-1d263a30e856""}","https://test12345.live/?num_scrambled_semantic=8&num_scrambled_causal=4&num_scrambled_schematic=4&participantId=C2201E74145C4EDE80DB10155B4E631C&assignmentId=0198be23-9ffc-7976-b60c-c8dbb78626a0&projectId=0198be1d-574a-752e-ae53-1d263a30e856","C2201E74145C4EDE80DB10155B4E631C-2025-08-18-17-37-39","","null","","images/semantic_sequence/redecorating_semantic/redecorating_semantic_0.png","null","",""
"","","","","","image-button-response","57","555819","0.0-12.0-1.0-0.0","C2201E74145C4EDE80DB10155B4E631C","C2201E74145C4EDE80DB10155B4E631C","0198be23-9ffc-7976-b60c-c8dbb78626a0","0198be1d-574a-752e-ae53-1d263a30e856","{""num_scrambled_semantic"":""8"",""num_scrambled_causal"":""4"",""num_scrambled_schematic"":""4"",""participantId"":""C2201E74145C4EDE80DB10155B4E631C"",""assignmentId"":""0198be23-9ffc-7976-b60c-c8dbb78626a0"",""projectId"":""0198be1d-574a-752e-ae53-1d263a30e856""}","https://test12345.live/?num_scrambled_semantic=8&num_scrambled_causal=4&num_scrambled_schematic=4&participantId=C2201E74145C4EDE80DB10155B4E631C&assignmentId=0198be23-9ffc-7976-b60c-c8dbb78626a0&projectId=0198be1d-574a-752e-ae53-1d263a30e856","C2201E74145C4EDE80DB10155B4E631C-2025-08-18-17-37-39","","null","","images/semantic_sequence/redecorating_semantic/redecorating_semantic_6.png","null","",""
"","","","","","image-button-response","58","557402","0.0-12.0-1.0-1.0","C2201E74145C4EDE80DB10155B4E631C","C2201E74145C4EDE80DB10155B4E631C","0198be23-9ffc-7976-b60c-c8dbb78626a0","0198be1d-574a-752e-ae53-1d263a30e856","{""num_scrambled_semantic"":""8"",""num_scrambled_causal"":""4"",""num_scrambled_schematic"":""4"",""participantId"":""C2201E74145C4EDE80DB10155B4E631C"",""assignmentId"":""0198be23-9ffc-7976-b60c-c8dbb78626a0"",""projectId"":""0198be1d-574a-752e-ae53-1d263a30e856""}","https://test12345.live/?num_scrambled_semantic=8&num_scrambled_causal=4&num_scrambled_schematic=4&participantId=C2201E74145C4EDE80DB10155B4E631C&assignmentId=0198be23-9ffc-7976-b60c-c8dbb78626a0&projectId=0198be1d-574a-752e-ae53-1d263a30e856","C2201E74145C4EDE80DB10155B4E631C-2025-08-18-17-37-39","","1582","","images/semantic_sequence/redecorating_semantic/redecorating_semantic_6.png","0","",""
"","","","","","image-button-response","59","568209","0.0-12.0-1.0-2.0","C2201E74145C4EDE80DB10155B4E631C","C2201E74145C4EDE80DB10155B4E631C","0198be23-9ffc-7976-b60c-c8dbb78626a0","0198be1d-574a-752e-ae53-1d263a30e856","{""num_scrambled_semantic"":""8"",""num_scrambled_causal"":""4"",""num_scrambled_schematic"":""4"",""participantId"":""C2201E74145C4EDE80DB10155B4E631C"",""assignmentId"":""0198be23-9ffc-7976-b60c-c8dbb78626a0"",""projectId"":""0198be1d-574a-752e-ae53-1d263a30e856""}","https://test12345.live/?num_scrambled_semantic=8&num_scrambled_causal=4&num_scrambled_schematic=4&participantId=C2201E74145C4EDE80DB10155B4E631C&assignmentId=0198be23-9ffc-7976-b60c-c8dbb78626a0&projectId=0198be1d-574a-752e-ae53-1d263a30e856","C2201E74145C4EDE80DB10155B4E631C-2025-08-18-17-37-39","","null","","[]","null","",""
"","","","","","image-button-response","60","572712","0.0-12.0-1.0-0.1","C2201E74145C4EDE80DB10155B4E631C","C2201E74145C4EDE80DB10155B4E631C","0198be23-9ffc-7976-b60c-c8dbb78626a0","0198be1d-574a-752e-ae53-1d263a30e856","{""num_scrambled_semantic"":""8"",""num_scrambled_causal"":""4"",""num_scrambled_schematic"":""4"",""participantId"":""C2201E74145C4EDE80DB10155B4E631C"",""assignmentId"":""0198be23-9ffc-7976-b60c-c8dbb78626a0"",""projectId"":""0198be1d-574a-752e-ae53-1d263a30e856""}","https://test12345.live/?num_scrambled_semantic=8&num_scrambled_causal=4&num_scrambled_schematic=4&participantId=C2201E74145C4EDE80DB10155B4E631C&assignmentId=0198be23-9ffc-7976-b60c-c8dbb78626a0&projectId=0198be1d-574a-752e-ae53-1d263a30e856","C2201E74145C4EDE80DB10155B4E631C-2025-08-18-17-37-39","","null","","images/semantic_sequence/redecorating_semantic/redecorating_semantic_ten.png","null","",""
"","","","","","image-button-response","61","573551","0.0-12.0-1.0-1.1","C2201E74145C4EDE80DB10155B4E631C","C2201E74145C4EDE80DB10155B4E631C","0198be23-9ffc-7976-b60c-c8dbb78626a0","0198be1d-574a-752e-ae53-1d263a30e856","{""num_scrambled_semantic"":""8"",""num_scrambled_causal"":""4"",""num_scrambled_schematic"":""4"",""participantId"":""C2201E74145C4EDE80DB10155B4E631C"",""assignmentId"":""0198be23-9ffc-7976-b60c-c8dbb78626a0"",""projectId"":""0198be1d-574a-752e-ae53-1d263a30e856""}","https://test12345.live/?num_scrambled_semantic=8&num_scrambled_causal=4&num_scrambled_schematic=4&participantId=C2201E74145C4EDE80DB10155B4E631C&assignmentId=0198be23-9ffc-7976-b60c-c8dbb78626a0&projectId=0198be1d-574a-752e-ae53-1d263a30e856","C2201E74145C4EDE80DB10155B4E631C-2025-08-18-17-37-39","","837","","images/semantic_sequence/redecorating_semantic/redecorating_semantic_ten.png","0","",""
"","","","","","image-button-response","62","584353","0.0-12.0-1.0-2.1","C2201E74145C4EDE80DB10155B4E631C","C2201E74145C4EDE80DB10155B4E631C","0198be23-9ffc-7976-b60c-c8dbb78626a0","0198be1d-574a-752e-ae53-1d263a30e856","{""num_scrambled_semantic"":""8"",""num_scrambled_causal"":""4"",""num_scrambled_schematic"":""4"",""participantId"":""C2201E74145C4EDE80DB10155B4E631C"",""assignmentId"":""0198be23-9ffc-7976-b60c-c8dbb78626a0"",""projectId"":""0198be1d-574a-752e-ae53-1d263a30e856""}","https://test12345.live/?num_scrambled_semantic=8&num_scrambled_causal=4&num_scrambled_schematic=4&participantId=C2201E74145C4EDE80DB10155B4E631C&assignmentId=0198be23-9ffc-7976-b60c-c8dbb78626a0&projectId=0198be1d-574a-752e-ae53-1d263a30e856","C2201E74145C4EDE80DB10155B4E631C-2025-08-18-17-37-39","","null","","[]","null","",""
"","","","","","image-button-response","63","588857","0.0-12.0-1.0-0.2","C2201E74145C4EDE80DB10155B4E631C","C2201E74145C4EDE80DB10155B4E631C","0198be23-9ffc-7976-b60c-c8dbb78626a0","0198be1d-574a-752e-ae53-1d263a30e856","{""num_scrambled_semantic"":""8"",""num_scrambled_causal"":""4"",""num_scrambled_schematic"":""4"",""participantId"":""C2201E74145C4EDE80DB10155B4E631C"",""assignmentId"":""0198be23-9ffc-7976-b60c-c8dbb78626a0"",""projectId"":""0198be1d-574a-752e-ae53-1d263a30e856""}","https://test12345.live/?num_scrambled_semantic=8&num_scrambled_causal=4&num_scrambled_schematic=4&participantId=C2201E74145C4EDE80DB10155B4E631C&assignmentId=0198be23-9ffc-7976-b60c-c8dbb78626a0&projectId=0198be1d-574a-752e-ae53-1d263a30e856","C2201E74145C4EDE80DB10155B4E631C-2025-08-18-17-37-39","","null","","images/semantic_sequence/redecorating_semantic/redecorating_semantic_7.png","null","",""
"","","","","","image-button-response","64","592862","0.0-12.0-1.0-1.2","C2201E74145C4EDE80DB10155B4E631C","C2201E74145C4EDE80DB10155B4E631C","0198be23-9ffc-7976-b60c-c8dbb78626a0","0198be1d-574a-752e-ae53-1d263a30e856","{""num_scrambled_semantic"":""8"",""num_scrambled_causal"":""4"",""num_scrambled_schematic"":""4"",""participantId"":""C2201E74145C4EDE80DB10155B4E631C"",""assignmentId"":""0198be23-9ffc-7976-b60c-c8dbb78626a0"",""projectId"":""0198be1d-574a-752e-ae53-1d263a30e856""}","https://test12345.live/?num_scrambled_semantic=8&num_scrambled_causal=4&num_scrambled_schematic=4&participantId=C2201E74145C4EDE80DB10155B4E631C&assignmentId=0198be23-9ffc-7976-b60c-c8dbb78626a0&projectId=0198be1d-574a-752e-ae53-1d263a30e856","C2201E74145C4EDE80DB10155B4E631C-2025-08-18-17-37-39","","null","","images/semantic_sequence/redecorating_semantic/redecorating_semantic_7.png","null","",""
"","","","","","image-button-response","65","603667","0.0-12.0-1.0-2.2","C2201E74145C4EDE80DB10155B4E631C","C2201E74145C4EDE80DB10155B4E631C","0198be23-9ffc-7976-b60c-c8dbb78626a0","0198be1d-574a-752e-ae53-1d263a30e856","{""num_scrambled_semantic"":""8"",""num_scrambled_causal"":""4"",""num_scrambled_schematic"":""4"",""participantId"":""C2201E74145C4EDE80DB10155B4E631C"",""assignmentId"":""0198be23-9ffc-7976-b60c-c8dbb78626a0"",""projectId"":""0198be1d-574a-752e-ae53-1d263a30e856""}","https://test12345.live/?num_scrambled_semantic=8&num_scrambled_causal=4&num_scrambled_schematic=4&participantId=C2201E74145C4EDE80DB10155B4E631C&assignmentId=0198be23-9ffc-7976-b60c-c8dbb78626a0&projectId=0198be1d-574a-752e-ae53-1d263a30e856","C2201E74145C4EDE80DB10155B4E631C-2025-08-18-17-37-39","","null","","[]","null","",""
"","","","","","image-button-response","66","608174","0.0-12.0-1.0-0.3","C2201E74145C4EDE80DB10155B4E631C","C2201E74145C4EDE80DB10155B4E631C","0198be23-9ffc-7976-b60c-c8dbb78626a0","0198be1d-574a-752e-ae53-1d263a30e856","{""num_scrambled_semantic"":""8"",""num_scrambled_causal"":""4"",""num_scrambled_schematic"":""4"",""participantId"":""C2201E74145C4EDE80DB10155B4E631C"",""assignmentId"":""0198be23-9ffc-7976-b60c-c8dbb78626a0"",""projectId"":""0198be1d-574a-752e-ae53-1d263a30e856""}","https://test12345.live/?num_scrambled_semantic=8&num_scrambled_causal=4&num_scrambled_schematic=4&participantId=C2201E74145C4EDE80DB10155B4E631C&assignmentId=0198be23-9ffc-7976-b60c-c8dbb78626a0&projectId=0198be1d-574a-752e-ae53-1d263a30e856","C2201E74145C4EDE80DB10155B4E631C-2025-08-18-17-37-39","","null","","images/semantic_sequence/redecorating_semantic/redecorating_semantic_5.png","null","",""
"","","","","","image-button-response","67","609037","0.0-12.0-1.0-1.3","C2201E74145C4EDE80DB10155B4E631C","C2201E74145C4EDE80DB10155B4E631C","0198be23-9ffc-7976-b60c-c8dbb78626a0","0198be1d-574a-752e-ae53-1d263a30e856","{""num_scrambled_semantic"":""8"",""num_scrambled_causal"":""4"",""num_scrambled_schematic"":""4"",""participantId"":""C2201E74145C4EDE80DB10155B4E631C"",""assignmentId"":""0198be23-9ffc-7976-b60c-c8dbb78626a0"",""projectId"":""0198be1d-574a-752e-ae53-1d263a30e856""}","https://test12345.live/?num_scrambled_semantic=8&num_scrambled_causal=4&num_scrambled_schematic=4&participantId=C2201E74145C4EDE80DB10155B4E631C&assignmentId=0198be23-9ffc-7976-b60c-c8dbb78626a0&projectId=0198be1d-574a-752e-ae53-1d263a30e856","C2201E74145C4EDE80DB10155B4E631C-2025-08-18-17-37-39","","862","","images/semantic_sequence/redecorating_semantic/redecorating_semantic_5.png","0","",""
"","","","","","image-button-response","68","619843","0.0-12.0-1.0-2.3","C2201E74145C4EDE80DB10155B4E631C","C2201E74145C4EDE80DB10155B4E631C","0198be23-9ffc-7976-b60c-c8dbb78626a0","0198be1d-574a-752e-ae53-1d263a30e856","{""num_scrambled_semantic"":""8"",""num_scrambled_causal"":""4"",""num_scrambled_schematic"":""4"",""participantId"":""C2201E74145C4EDE80DB10155B4E631C"",""assignmentId"":""0198be23-9ffc-7976-b60c-c8dbb78626a0"",""projectId"":""0198be1d-574a-752e-ae53-1d263a30e856""}","https://test12345.live/?num_scrambled_semantic=8&num_scrambled_causal=4&num_scrambled_schematic=4&participantId=C2201E74145C4EDE80DB10155B4E631C&assignmentId=0198be23-9ffc-7976-b60c-c8dbb78626a0&projectId=0198be1d-574a-752e-ae53-1d263a30e856","C2201E74145C4EDE80DB10155B4E631C-2025-08-18-17-37-39","","null","","[]","null","",""
"","","","","","image-button-response","69","624345","0.0-12.0-1.0-0.4","C2201E74145C4EDE80DB10155B4E631C","C2201E74145C4EDE80DB10155B4E631C","0198be23-9ffc-7976-b60c-c8dbb78626a0","0198be1d-574a-752e-ae53-1d263a30e856","{""num_scrambled_semantic"":""8"",""num_scrambled_causal"":""4"",""num_scrambled_schematic"":""4"",""participantId"":""C2201E74145C4EDE80DB10155B4E631C"",""assignmentId"":""0198be23-9ffc-7976-b60c-c8dbb78626a0"",""projectId"":""0198be1d-574a-752e-ae53-1d263a30e856""}","https://test12345.live/?num_scrambled_semantic=8&num_scrambled_causal=4&num_scrambled_schematic=4&participantId=C2201E74145C4EDE80DB10155B4E631C&assignmentId=0198be23-9ffc-7976-b60c-c8dbb78626a0&projectId=0198be1d-574a-752e-ae53-1d263a30e856","C2201E74145C4EDE80DB10155B4E631C-2025-08-18-17-37-39","","null","","images/semantic_sequence/redecorating_semantic/redecorating_semantic_8.png","null","",""
"","","","","","image-button-response","70","626402","0.0-12.0-1.0-1.4","C2201E74145C4EDE80DB10155B4E631C","C2201E74145C4EDE80DB10155B4E631C","0198be23-9ffc-7976-b60c-c8dbb78626a0","0198be1d-574a-752e-ae53-1d263a30e856","{""num_scrambled_semantic"":""8"",""num_scrambled_causal"":""4"",""num_scrambled_schematic"":""4"",""participantId"":""C2201E74145C4EDE80DB10155B4E631C"",""assignmentId"":""0198be23-9ffc-7976-b60c-c8dbb78626a0"",""projectId"":""0198be1d-574a-752e-ae53-1d263a30e856""}","https://test12345.live/?num_scrambled_semantic=8&num_scrambled_causal=4&num_scrambled_schematic=4&participantId=C2201E74145C4EDE80DB10155B4E631C&assignmentId=0198be23-9ffc-7976-b60c-c8dbb78626a0&projectId=0198be1d-574a-752e-ae53-1d263a30e856","C2201E74145C4EDE80DB10155B4E631C-2025-08-18-17-37-39","","2055","","images/semantic_sequence/redecorating_semantic/redecorating_semantic_8.png","0","",""
"","","","","","image-button-response","71","637208","0.0-12.0-1.0-2.4","C2201E74145C4EDE80DB10155B4E631C","C2201E74145C4EDE80DB10155B4E631C","0198be23-9ffc-7976-b60c-c8dbb78626a0","0198be1d-574a-752e-ae53-1d263a30e856","{""num_scrambled_semantic"":""8"",""num_scrambled_causal"":""4"",""num_scrambled_schematic"":""4"",""participantId"":""C2201E74145C4EDE80DB10155B4E631C"",""assignmentId"":""0198be23-9ffc-7976-b60c-c8dbb78626a0"",""projectId"":""0198be1d-574a-752e-ae53-1d263a30e856""}","https://test12345.live/?num_scrambled_semantic=8&num_scrambled_causal=4&num_scrambled_schematic=4&participantId=C2201E74145C4EDE80DB10155B4E631C&assignmentId=0198be23-9ffc-7976-b60c-c8dbb78626a0&projectId=0198be1d-574a-752e-ae53-1d263a30e856","C2201E74145C4EDE80DB10155B4E631C-2025-08-18-17-37-39","","null","","[]","null","",""
"","","","","","image-button-response","72","641712","0.0-12.0-1.0-0.5","C2201E74145C4EDE80DB10155B4E631C","C2201E74145C4EDE80DB10155B4E631C","0198be23-9ffc-7976-b60c-c8dbb78626a0","0198be1d-574a-752e-ae53-1d263a30e856","{""num_scrambled_semantic"":""8"",""num_scrambled_causal"":""4"",""num_scrambled_schematic"":""4"",""participantId"":""C2201E74145C4EDE80DB10155B4E631C"",""assignmentId"":""0198be23-9ffc-7976-b60c-c8dbb78626a0"",""projectId"":""0198be1d-574a-752e-ae53-1d263a30e856""}","https://test12345.live/?num_scrambled_semantic=8&num_scrambled_causal=4&num_scrambled_schematic=4&participantId=C2201E74145C4EDE80DB10155B4E631C&assignmentId=0198be23-9ffc-7976-b60c-c8dbb78626a0&projectId=0198be1d-574a-752e-ae53-1d263a30e856","C2201E74145C4EDE80DB10155B4E631C-2025-08-18-17-37-39","","null","","images/semantic_sequence/redecorating_semantic/redecorating_semantic_2.png","null","",""
"","","","","","image-button-response","73","642736","0.0-12.0-1.0-1.5","C2201E74145C4EDE80DB10155B4E631C","C2201E74145C4EDE80DB10155B4E631C","0198be23-9ffc-7976-b60c-c8dbb78626a0","0198be1d-574a-752e-ae53-1d263a30e856","{""num_scrambled_semantic"":""8"",""num_scrambled_causal"":""4"",""num_scrambled_schematic"":""4"",""participantId"":""C2201E74145C4EDE80DB10155B4E631C"",""assignmentId"":""0198be23-9ffc-7976-b60c-c8dbb78626a0"",""projectId"":""0198be1d-574a-752e-ae53-1d263a30e856""}","https://test12345.live/?num_scrambled_semantic=8&num_scrambled_causal=4&num_scrambled_schematic=4&participantId=C2201E74145C4EDE80DB10155B4E631C&assignmentId=0198be23-9ffc-7976-b60c-c8dbb78626a0&projectId=0198be1d-574a-752e-ae53-1d263a30e856","C2201E74145C4EDE80DB10155B4E631C-2025-08-18-17-37-39","","1021","","images/semantic_sequence/redecorating_semantic/redecorating_semantic_2.png","0","",""
"","","","","","image-button-response","74","653541","0.0-12.0-1.0-2.5","C2201E74145C4EDE80DB10155B4E631C","C2201E74145C4EDE80DB10155B4E631C","0198be23-9ffc-7976-b60c-c8dbb78626a0","0198be1d-574a-752e-ae53-1d263a30e856","{""num_scrambled_semantic"":""8"",""num_scrambled_causal"":""4"",""num_scrambled_schematic"":""4"",""participantId"":""C2201E74145C4EDE80DB10155B4E631C"",""assignmentId"":""0198be23-9ffc-7976-b60c-c8dbb78626a0"",""projectId"":""0198be1d-574a-752e-ae53-1d263a30e856""}","https://test12345.live/?num_scrambled_semantic=8&num_scrambled_causal=4&num_scrambled_schematic=4&participantId=C2201E74145C4EDE80DB10155B4E631C&assignmentId=0198be23-9ffc-7976-b60c-c8dbb78626a0&projectId=0198be1d-574a-752e-ae53-1d263a30e856","C2201E74145C4EDE80DB10155B4E631C-2025-08-18-17-37-39","","null","","[]","null","",""
"","","","","","image-button-response","75","658043","0.0-12.0-1.0-0.6","C2201E74145C4EDE80DB10155B4E631C","C2201E74145C4EDE80DB10155B4E631C","0198be23-9ffc-7976-b60c-c8dbb78626a0","0198be1d-574a-752e-ae53-1d263a30e856","{""num_scrambled_semantic"":""8"",""num_scrambled_causal"":""4"",""num_scrambled_schematic"":""4"",""participantId"":""C2201E74145C4EDE80DB10155B4E631C"",""assignmentId"":""0198be23-9ffc-7976-b60c-c8dbb78626a0"",""projectId"":""0198be1d-574a-752e-ae53-1d263a30e856""}","https://test12345.live/?num_scrambled_semantic=8&num_scrambled_causal=4&num_scrambled_schematic=4&participantId=C2201E74145C4EDE80DB10155B4E631C&assignmentId=0198be23-9ffc-7976-b60c-c8dbb78626a0&projectId=0198be1d-574a-752e-ae53-1d263a30e856","C2201E74145C4EDE80DB10155B4E631C-2025-08-18-17-37-39","","null","","images/semantic_sequence/redecorating_semantic/redecorating_semantic_1.png","null","",""
"","","","","","image-button-response","76","660053","0.0-12.0-1.0-1.6","C2201E74145C4EDE80DB10155B4E631C","C2201E74145C4EDE80DB10155B4E631C","0198be23-9ffc-7976-b60c-c8dbb78626a0","0198be1d-574a-752e-ae53-1d263a30e856","{""num_scrambled_semantic"":""8"",""num_scrambled_causal"":""4"",""num_scrambled_schematic"":""4"",""participantId"":""C2201E74145C4EDE80DB10155B4E631C"",""assignmentId"":""0198be23-9ffc-7976-b60c-c8dbb78626a0"",""projectId"":""0198be1d-574a-752e-ae53-1d263a30e856""}","https://test12345.live/?num_scrambled_semantic=8&num_scrambled_causal=4&num_scrambled_schematic=4&participantId=C2201E74145C4EDE80DB10155B4E631C&assignmentId=0198be23-9ffc-7976-b60c-c8dbb78626a0&projectId=0198be1d-574a-752e-ae53-1d263a30e856","C2201E74145C4EDE80DB10155B4E631C-2025-08-18-17-37-39","","2007","","images/semantic_sequence/redecorating_semantic/redecorating_semantic_1.png","0","",""
"","","","","","image-button-response","77","670857","0.0-12.0-1.0-2.6","C2201E74145C4EDE80DB10155B4E631C","C2201E74145C4EDE80DB10155B4E631C","0198be23-9ffc-7976-b60c-c8dbb78626a0","0198be1d-574a-752e-ae53-1d263a30e856","{""num_scrambled_semantic"":""8"",""num_scrambled_causal"":""4"",""num_scrambled_schematic"":""4"",""participantId"":""C2201E74145C4EDE80DB10155B4E631C"",""assignmentId"":""0198be23-9ffc-7976-b60c-c8dbb78626a0"",""projectId"":""0198be1d-574a-752e-ae53-1d263a30e856""}","https://test12345.live/?num_scrambled_semantic=8&num_scrambled_causal=4&num_scrambled_schematic=4&participantId=C2201E74145C4EDE80DB10155B4E631C&assignmentId=0198be23-9ffc-7976-b60c-c8dbb78626a0&projectId=0198be1d-574a-752e-ae53-1d263a30e856","C2201E74145C4EDE80DB10155B4E631C-2025-08-18-17-37-39","","null","","[]","null","",""
"","","","","","image-button-response","78","675364","0.0-12.0-1.0-0.7","C2201E74145C4EDE80DB10155B4E631C","C2201E74145C4EDE80DB10155B4E631C","0198be23-9ffc-7976-b60c-c8dbb78626a0","0198be1d-574a-752e-ae53-1d263a30e856","{""num_scrambled_semantic"":""8"",""num_scrambled_causal"":""4"",""num_scrambled_schematic"":""4"",""participantId"":""C2201E74145C4EDE80DB10155B4E631C"",""assignmentId"":""0198be23-9ffc-7976-b60c-c8dbb78626a0"",""projectId"":""0198be1d-574a-752e-ae53-1d263a30e856""}","https://test12345.live/?num_scrambled_semantic=8&num_scrambled_causal=4&num_scrambled_schematic=4&participantId=C2201E74145C4EDE80DB10155B4E631C&assignmentId=0198be23-9ffc-7976-b60c-c8dbb78626a0&projectId=0198be1d-574a-752e-ae53-1d263a30e856","C2201E74145C4EDE80DB10155B4E631C-2025-08-18-17-37-39","","null","","images/semantic_sequence/redecorating_semantic/redecorating_semantic_3.png","null","",""
"","","","","","image-button-response","79","677052","0.0-12.0-1.0-1.7","C2201E74145C4EDE80DB10155B4E631C","C2201E74145C4EDE80DB10155B4E631C","0198be23-9ffc-7976-b60c-c8dbb78626a0","0198be1d-574a-752e-ae53-1d263a30e856","{""num_scrambled_semantic"":""8"",""num_scrambled_causal"":""4"",""num_scrambled_schematic"":""4"",""participantId"":""C2201E74145C4EDE80DB10155B4E631C"",""assignmentId"":""0198be23-9ffc-7976-b60c-c8dbb78626a0"",""projectId"":""0198be1d-574a-752e-ae53-1d263a30e856""}","https://test12345.live/?num_scrambled_semantic=8&num_scrambled_causal=4&num_scrambled_schematic=4&participantId=C2201E74145C4EDE80DB10155B4E631C&assignmentId=0198be23-9ffc-7976-b60c-c8dbb78626a0&projectId=0198be1d-574a-752e-ae53-1d263a30e856","C2201E74145C4EDE80DB10155B4E631C-2025-08-18-17-37-39","","1686","","images/semantic_sequence/redecorating_semantic/redecorating_semantic_3.png","0","",""
"","","","","","image-button-response","80","687856","0.0-12.0-1.0-2.7","C2201E74145C4EDE80DB10155B4E631C","C2201E74145C4EDE80DB10155B4E631C","0198be23-9ffc-7976-b60c-c8dbb78626a0","0198be1d-574a-752e-ae53-1d263a30e856","{""num_scrambled_semantic"":""8"",""num_scrambled_causal"":""4"",""num_scrambled_schematic"":""4"",""participantId"":""C2201E74145C4EDE80DB10155B4E631C"",""assignmentId"":""0198be23-9ffc-7976-b60c-c8dbb78626a0"",""projectId"":""0198be1d-574a-752e-ae53-1d263a30e856""}","https://test12345.live/?num_scrambled_semantic=8&num_scrambled_causal=4&num_scrambled_schematic=4&participantId=C2201E74145C4EDE80DB10155B4E631C&assignmentId=0198be23-9ffc-7976-b60c-c8dbb78626a0&projectId=0198be1d-574a-752e-ae53-1d263a30e856","C2201E74145C4EDE80DB10155B4E631C-2025-08-18-17-37-39","","null","","[]","null","",""
"","","","","","image-button-response","81","692358","0.0-12.0-1.0-0.8","C2201E74145C4EDE80DB10155B4E631C","C2201E74145C4EDE80DB10155B4E631C","0198be23-9ffc-7976-b60c-c8dbb78626a0","0198be1d-574a-752e-ae53-1d263a30e856","{""num_scrambled_semantic"":""8"",""num_scrambled_causal"":""4"",""num_scrambled_schematic"":""4"",""participantId"":""C2201E74145C4EDE80DB10155B4E631C"",""assignmentId"":""0198be23-9ffc-7976-b60c-c8dbb78626a0"",""projectId"":""0198be1d-574a-752e-ae53-1d263a30e856""}","https://test12345.live/?num_scrambled_semantic=8&num_scrambled_causal=4&num_scrambled_schematic=4&participantId=C2201E74145C4EDE80DB10155B4E631C&assignmentId=0198be23-9ffc-7976-b60c-c8dbb78626a0&projectId=0198be1d-574a-752e-ae53-1d263a30e856","C2201E74145C4EDE80DB10155B4E631C-2025-08-18-17-37-39","","null","","images/semantic_sequence/redecorating_semantic/redecorating_semantic_9.png","null","",""
"","","","","","image-button-response","82","692986","0.0-12.0-1.0-1.8","C2201E74145C4EDE80DB10155B4E631C","C2201E74145C4EDE80DB10155B4E631C","0198be23-9ffc-7976-b60c-c8dbb78626a0","0198be1d-574a-752e-ae53-1d263a30e856","{""num_scrambled_semantic"":""8"",""num_scrambled_causal"":""4"",""num_scrambled_schematic"":""4"",""participantId"":""C2201E74145C4EDE80DB10155B4E631C"",""assignmentId"":""0198be23-9ffc-7976-b60c-c8dbb78626a0"",""projectId"":""0198be1d-574a-752e-ae53-1d263a30e856""}","https://test12345.live/?num_scrambled_semantic=8&num_scrambled_causal=4&num_scrambled_schematic=4&participantId=C2201E74145C4EDE80DB10155B4E631C&assignmentId=0198be23-9ffc-7976-b60c-c8dbb78626a0&projectId=0198be1d-574a-752e-ae53-1d263a30e856","C2201E74145C4EDE80DB10155B4E631C-2025-08-18-17-37-39","","626","","images/semantic_sequence/redecorating_semantic/redecorating_semantic_9.png","0","",""
"","","","","","image-button-response","83","703792","0.0-12.0-1.0-2.8","C2201E74145C4EDE80DB10155B4E631C","C2201E74145C4EDE80DB10155B4E631C","0198be23-9ffc-7976-b60c-c8dbb78626a0","0198be1d-574a-752e-ae53-1d263a30e856","{""num_scrambled_semantic"":""8"",""num_scrambled_causal"":""4"",""num_scrambled_schematic"":""4"",""participantId"":""C2201E74145C4EDE80DB10155B4E631C"",""assignmentId"":""0198be23-9ffc-7976-b60c-c8dbb78626a0"",""projectId"":""0198be1d-574a-752e-ae53-1d263a30e856""}","https://test12345.live/?num_scrambled_semantic=8&num_scrambled_causal=4&num_scrambled_schematic=4&participantId=C2201E74145C4EDE80DB10155B4E631C&assignmentId=0198be23-9ffc-7976-b60c-c8dbb78626a0&projectId=0198be1d-574a-752e-ae53-1d263a30e856","C2201E74145C4EDE80DB10155B4E631C-2025-08-18-17-37-39","","null","","[]","null","",""
"","","","","","image-button-response","84","708298","0.0-12.0-1.0-0.9","C2201E74145C4EDE80DB10155B4E631C","C2201E74145C4EDE80DB10155B4E631C","0198be23-9ffc-7976-b60c-c8dbb78626a0","0198be1d-574a-752e-ae53-1d263a30e856","{""num_scrambled_semantic"":""8"",""num_scrambled_causal"":""4"",""num_scrambled_schematic"":""4"",""participantId"":""C2201E74145C4EDE80DB10155B4E631C"",""assignmentId"":""0198be23-9ffc-7976-b60c-c8dbb78626a0"",""projectId"":""0198be1d-574a-752e-ae53-1d263a30e856""}","https://test12345.live/?num_scrambled_semantic=8&num_scrambled_causal=4&num_scrambled_schematic=4&participantId=C2201E74145C4EDE80DB10155B4E631C&assignmentId=0198be23-9ffc-7976-b60c-c8dbb78626a0&projectId=0198be1d-574a-752e-ae53-1d263a30e856","C2201E74145C4EDE80DB10155B4E631C-2025-08-18-17-37-39","","null","","images/semantic_sequence/redecorating_semantic/redecorating_semantic_4.png","null","",""
"","","","","","image-button-response","85","709570","0.0-12.0-1.0-1.9","C2201E74145C4EDE80DB10155B4E631C","C2201E74145C4EDE80DB10155B4E631C","0198be23-9ffc-7976-b60c-c8dbb78626a0","0198be1d-574a-752e-ae53-1d263a30e856","{""num_scrambled_semantic"":""8"",""num_scrambled_causal"":""4"",""num_scrambled_schematic"":""4"",""participantId"":""C2201E74145C4EDE80DB10155B4E631C"",""assignmentId"":""0198be23-9ffc-7976-b60c-c8dbb78626a0"",""projectId"":""0198be1d-574a-752e-ae53-1d263a30e856""}","https://test12345.live/?num_scrambled_semantic=8&num_scrambled_causal=4&num_scrambled_schematic=4&participantId=C2201E74145C4EDE80DB10155B4E631C&assignmentId=0198be23-9ffc-7976-b60c-c8dbb78626a0&projectId=0198be1d-574a-752e-ae53-1d263a30e856","C2201E74145C4EDE80DB10155B4E631C-2025-08-18-17-37-39","","1269","","images/semantic_sequence/redecorating_semantic/redecorating_semantic_4.png","0","",""
"","","","","","image-button-response","86","720373","0.0-12.0-1.0-2.9","C2201E74145C4EDE80DB10155B4E631C","C2201E74145C4EDE80DB10155B4E631C","0198be23-9ffc-7976-b60c-c8dbb78626a0","0198be1d-574a-752e-ae53-1d263a30e856","{""num_scrambled_semantic"":""8"",""num_scrambled_causal"":""4"",""num_scrambled_schematic"":""4"",""participantId"":""C2201E74145C4EDE80DB10155B4E631C"",""assignmentId"":""0198be23-9ffc-7976-b60c-c8dbb78626a0"",""projectId"":""0198be1d-574a-752e-ae53-1d263a30e856""}","https://test12345.live/?num_scrambled_semantic=8&num_scrambled_causal=4&num_scrambled_schematic=4&participantId=C2201E74145C4EDE80DB10155B4E631C&assignmentId=0198be23-9ffc-7976-b60c-c8dbb78626a0&projectId=0198be1d-574a-752e-ae53-1d263a30e856","C2201E74145C4EDE80DB10155B4E631C-2025-08-18-17-37-39","","null","","[]","null","",""
"","","","","","html-audio-response","87","745587","0.0-13.0","C2201E74145C4EDE80DB10155B4E631C","C2201E74145C4EDE80DB10155B4E631C","0198be23-9ffc-7976-b60c-c8dbb78626a0","0198be1d-574a-752e-ae53-1d263a30e856","{""num_scrambled_semantic"":""8"",""num_scrambled_causal"":""4"",""num_scrambled_schematic"":""4"",""participantId"":""C2201E74145C4EDE80DB10155B4E631C"",""assignmentId"":""0198be23-9ffc-7976-b60c-c8dbb78626a0"",""projectId"":""0198be1d-574a-752e-ae53-1d263a30e856""}","https://test12345.live/?num_scrambled_semantic=8&num_scrambled_causal=4&num_scrambled_schematic=4&participantId=C2201E74145C4EDE80DB10155B4E631C&assignmentId=0198be23-9ffc-7976-b60c-c8dbb78626a0&projectId=0198be1d-574a-752e-ae53-1d263a30e856","C2201E74145C4EDE80DB10155B4E631C-2025-08-18-17-37-39","","23987","","[""<span style=\""color: red; font-size: 24px\""> NOW RECORDING</span><p>Please say out loud all the images you saw, in the exact order you saw them. Try to recall as many images as you can, but remember: getting the order right is more important than the number of images you recall.</p>""]","","2","redecorating_semantic"
"","","","","","image-button-response","88","751598","0.0-14.0-0.0","C2201E74145C4EDE80DB10155B4E631C","C2201E74145C4EDE80DB10155B4E631C","0198be23-9ffc-7976-b60c-c8dbb78626a0","0198be1d-574a-752e-ae53-1d263a30e856","{""num_scrambled_semantic"":""8"",""num_scrambled_causal"":""4"",""num_scrambled_schematic"":""4"",""participantId"":""C2201E74145C4EDE80DB10155B4E631C"",""assignmentId"":""0198be23-9ffc-7976-b60c-c8dbb78626a0"",""projectId"":""0198be1d-574a-752e-ae53-1d263a30e856""}","https://test12345.live/?num_scrambled_semantic=8&num_scrambled_causal=4&num_scrambled_schematic=4&participantId=C2201E74145C4EDE80DB10155B4E631C&assignmentId=0198be23-9ffc-7976-b60c-c8dbb78626a0&projectId=0198be1d-574a-752e-ae53-1d263a30e856","C2201E74145C4EDE80DB10155B4E631C-2025-08-18-17-37-39","","null","","images/causal_sequence/the_performance_causal/the_performance_causal_0.png","null","",""
"","","","","","image-button-response","89","756105","0.0-14.0-1.0-0.0","C2201E74145C4EDE80DB10155B4E631C","C2201E74145C4EDE80DB10155B4E631C","0198be23-9ffc-7976-b60c-c8dbb78626a0","0198be1d-574a-752e-ae53-1d263a30e856","{""num_scrambled_semantic"":""8"",""num_scrambled_causal"":""4"",""num_scrambled_schematic"":""4"",""participantId"":""C2201E74145C4EDE80DB10155B4E631C"",""assignmentId"":""0198be23-9ffc-7976-b60c-c8dbb78626a0"",""projectId"":""0198be1d-574a-752e-ae53-1d263a30e856""}","https://test12345.live/?num_scrambled_semantic=8&num_scrambled_causal=4&num_scrambled_schematic=4&participantId=C2201E74145C4EDE80DB10155B4E631C&assignmentId=0198be23-9ffc-7976-b60c-c8dbb78626a0&projectId=0198be1d-574a-752e-ae53-1d263a30e856","C2201E74145C4EDE80DB10155B4E631C-2025-08-18-17-37-39","","null","","images/causal_sequence/the_performance_causal/the_performance_causal_3.png","null","",""
"","","","","","image-button-response","90","757153","0.0-14.0-1.0-1.0","C2201E74145C4EDE80DB10155B4E631C","C2201E74145C4EDE80DB10155B4E631C","0198be23-9ffc-7976-b60c-c8dbb78626a0","0198be1d-574a-752e-ae53-1d263a30e856","{""num_scrambled_semantic"":""8"",""num_scrambled_causal"":""4"",""num_scrambled_schematic"":""4"",""participantId"":""C2201E74145C4EDE80DB10155B4E631C"",""assignmentId"":""0198be23-9ffc-7976-b60c-c8dbb78626a0"",""projectId"":""0198be1d-574a-752e-ae53-1d263a30e856""}","https://test12345.live/?num_scrambled_semantic=8&num_scrambled_causal=4&num_scrambled_schematic=4&participantId=C2201E74145C4EDE80DB10155B4E631C&assignmentId=0198be23-9ffc-7976-b60c-c8dbb78626a0&projectId=0198be1d-574a-752e-ae53-1d263a30e856","C2201E74145C4EDE80DB10155B4E631C-2025-08-18-17-37-39","","1046","","images/causal_sequence/the_performance_causal/the_performance_causal_3.png","0","",""
"","","","","","image-button-response","91","767956","0.0-14.0-1.0-2.0","C2201E74145C4EDE80DB10155B4E631C","C2201E74145C4EDE80DB10155B4E631C","0198be23-9ffc-7976-b60c-c8dbb78626a0","0198be1d-574a-752e-ae53-1d263a30e856","{""num_scrambled_semantic"":""8"",""num_scrambled_causal"":""4"",""num_scrambled_schematic"":""4"",""participantId"":""C2201E74145C4EDE80DB10155B4E631C"",""assignmentId"":""0198be23-9ffc-7976-b60c-c8dbb78626a0"",""projectId"":""0198be1d-574a-752e-ae53-1d263a30e856""}","https://test12345.live/?num_scrambled_semantic=8&num_scrambled_causal=4&num_scrambled_schematic=4&participantId=C2201E74145C4EDE80DB10155B4E631C&assignmentId=0198be23-9ffc-7976-b60c-c8dbb78626a0&projectId=0198be1d-574a-752e-ae53-1d263a30e856","C2201E74145C4EDE80DB10155B4E631C-2025-08-18-17-37-39","","null","","[]","null","",""
"","","","","","image-button-response","92","772458","0.0-14.0-1.0-0.1","C2201E74145C4EDE80DB10155B4E631C","C2201E74145C4EDE80DB10155B4E631C","0198be23-9ffc-7976-b60c-c8dbb78626a0","0198be1d-574a-752e-ae53-1d263a30e856","{""num_scrambled_semantic"":""8"",""num_scrambled_causal"":""4"",""num_scrambled_schematic"":""4"",""participantId"":""C2201E74145C4EDE80DB10155B4E631C"",""assignmentId"":""0198be23-9ffc-7976-b60c-c8dbb78626a0"",""projectId"":""0198be1d-574a-752e-ae53-1d263a30e856""}","https://test12345.live/?num_scrambled_semantic=8&num_scrambled_causal=4&num_scrambled_schematic=4&participantId=C2201E74145C4EDE80DB10155B4E631C&assignmentId=0198be23-9ffc-7976-b60c-c8dbb78626a0&projectId=0198be1d-574a-752e-ae53-1d263a30e856","C2201E74145C4EDE80DB10155B4E631C-2025-08-18-17-37-39","","null","","images/causal_sequence/the_performance_causal/the_performance_causal_4.png","null","",""
"","","","","","image-button-response","93","773687","0.0-14.0-1.0-1.1","C2201E74145C4EDE80DB10155B4E631C","C2201E74145C4EDE80DB10155B4E631C","0198be23-9ffc-7976-b60c-c8dbb78626a0","0198be1d-574a-752e-ae53-1d263a30e856","{""num_scrambled_semantic"":""8"",""num_scrambled_causal"":""4"",""num_scrambled_schematic"":""4"",""participantId"":""C2201E74145C4EDE80DB10155B4E631C"",""assignmentId"":""0198be23-9ffc-7976-b60c-c8dbb78626a0"",""projectId"":""0198be1d-574a-752e-ae53-1d263a30e856""}","https://test12345.live/?num_scrambled_semantic=8&num_scrambled_causal=4&num_scrambled_schematic=4&participantId=C2201E74145C4EDE80DB10155B4E631C&assignmentId=0198be23-9ffc-7976-b60c-c8dbb78626a0&projectId=0198be1d-574a-752e-ae53-1d263a30e856","C2201E74145C4EDE80DB10155B4E631C-2025-08-18-17-37-39","","1226","","images/causal_sequence/the_performance_causal/the_performance_causal_4.png","0","",""
"","","","","","image-button-response","94","784493","0.0-14.0-1.0-2.1","C2201E74145C4EDE80DB10155B4E631C","C2201E74145C4EDE80DB10155B4E631C","0198be23-9ffc-7976-b60c-c8dbb78626a0","0198be1d-574a-752e-ae53-1d263a30e856","{""num_scrambled_semantic"":""8"",""num_scrambled_causal"":""4"",""num_scrambled_schematic"":""4"",""participantId"":""C2201E74145C4EDE80DB10155B4E631C"",""assignmentId"":""0198be23-9ffc-7976-b60c-c8dbb78626a0"",""projectId"":""0198be1d-574a-752e-ae53-1d263a30e856""}","https://test12345.live/?num_scrambled_semantic=8&num_scrambled_causal=4&num_scrambled_schematic=4&participantId=C2201E74145C4EDE80DB10155B4E631C&assignmentId=0198be23-9ffc-7976-b60c-c8dbb78626a0&projectId=0198be1d-574a-752e-ae53-1d263a30e856","C2201E74145C4EDE80DB10155B4E631C-2025-08-18-17-37-39","","null","","[]","null","",""
"","","","","","image-button-response","95","788998","0.0-14.0-1.0-0.2","C2201E74145C4EDE80DB10155B4E631C","C2201E74145C4EDE80DB10155B4E631C","0198be23-9ffc-7976-b60c-c8dbb78626a0","0198be1d-574a-752e-ae53-1d263a30e856","{""num_scrambled_semantic"":""8"",""num_scrambled_causal"":""4"",""num_scrambled_schematic"":""4"",""participantId"":""C2201E74145C4EDE80DB10155B4E631C"",""assignmentId"":""0198be23-9ffc-7976-b60c-c8dbb78626a0"",""projectId"":""0198be1d-574a-752e-ae53-1d263a30e856""}","https://test12345.live/?num_scrambled_semantic=8&num_scrambled_causal=4&num_scrambled_schematic=4&participantId=C2201E74145C4EDE80DB10155B4E631C&assignmentId=0198be23-9ffc-7976-b60c-c8dbb78626a0&projectId=0198be1d-574a-752e-ae53-1d263a30e856","C2201E74145C4EDE80DB10155B4E631C-2025-08-18-17-37-39","","null","","images/causal_sequence/the_performance_causal/the_performance_causal_6.png","null","",""
"","","","","","image-button-response","96","790186","0.0-14.0-1.0-1.2","C2201E74145C4EDE80DB10155B4E631C","C2201E74145C4EDE80DB10155B4E631C","0198be23-9ffc-7976-b60c-c8dbb78626a0","0198be1d-574a-752e-ae53-1d263a30e856","{""num_scrambled_semantic"":""8"",""num_scrambled_causal"":""4"",""num_scrambled_schematic"":""4"",""participantId"":""C2201E74145C4EDE80DB10155B4E631C"",""assignmentId"":""0198be23-9ffc-7976-b60c-c8dbb78626a0"",""projectId"":""0198be1d-574a-752e-ae53-1d263a30e856""}","https://test12345.live/?num_scrambled_semantic=8&num_scrambled_causal=4&num_scrambled_schematic=4&participantId=C2201E74145C4EDE80DB10155B4E631C&assignmentId=0198be23-9ffc-7976-b60c-c8dbb78626a0&projectId=0198be1d-574a-752e-ae53-1d263a30e856","C2201E74145C4EDE80DB10155B4E631C-2025-08-18-17-37-39","","1186","","images/causal_sequence/the_performance_causal/the_performance_causal_6.png","0","",""
"","","","","","image-button-response","97","800989","0.0-14.0-1.0-2.2","C2201E74145C4EDE80DB10155B4E631C","C2201E74145C4EDE80DB10155B4E631C","0198be23-9ffc-7976-b60c-c8dbb78626a0","0198be1d-574a-752e-ae53-1d263a30e856","{""num_scrambled_semantic"":""8"",""num_scrambled_causal"":""4"",""num_scrambled_schematic"":""4"",""participantId"":""C2201E74145C4EDE80DB10155B4E631C"",""assignmentId"":""0198be23-9ffc-7976-b60c-c8dbb78626a0"",""projectId"":""0198be1d-574a-752e-ae53-1d263a30e856""}","https://test12345.live/?num_scrambled_semantic=8&num_scrambled_causal=4&num_scrambled_schematic=4&participantId=C2201E74145C4EDE80DB10155B4E631C&assignmentId=0198be23-9ffc-7976-b60c-c8dbb78626a0&projectId=0198be1d-574a-752e-ae53-1d263a30e856","C2201E74145C4EDE80DB10155B4E631C-2025-08-18-17-37-39","","null","","[]","null","",""
"","","","","","image-button-response","98","805492","0.0-14.0-1.0-0.3","C2201E74145C4EDE80DB10155B4E631C","C2201E74145C4EDE80DB10155B4E631C","0198be23-9ffc-7976-b60c-c8dbb78626a0","0198be1d-574a-752e-ae53-1d263a30e856","{""num_scrambled_semantic"":""8"",""num_scrambled_causal"":""4"",""num_scrambled_schematic"":""4"",""participantId"":""C2201E74145C4EDE80DB10155B4E631C"",""assignmentId"":""0198be23-9ffc-7976-b60c-c8dbb78626a0"",""projectId"":""0198be1d-574a-752e-ae53-1d263a30e856""}","https://test12345.live/?num_scrambled_semantic=8&num_scrambled_causal=4&num_scrambled_schematic=4&participantId=C2201E74145C4EDE80DB10155B4E631C&assignmentId=0198be23-9ffc-7976-b60c-c8dbb78626a0&projectId=0198be1d-574a-752e-ae53-1d263a30e856","C2201E74145C4EDE80DB10155B4E631C-2025-08-18-17-37-39","","null","","images/causal_sequence/the_performance_causal/the_performance_causal_8.png","null","",""
"","","","","","image-button-response","99","808103","0.0-14.0-1.0-1.3","C2201E74145C4EDE80DB10155B4E631C","C2201E74145C4EDE80DB10155B4E631C","0198be23-9ffc-7976-b60c-c8dbb78626a0","0198be1d-574a-752e-ae53-1d263a30e856","{""num_scrambled_semantic"":""8"",""num_scrambled_causal"":""4"",""num_scrambled_schematic"":""4"",""participantId"":""C2201E74145C4EDE80DB10155B4E631C"",""assignmentId"":""0198be23-9ffc-7976-b60c-c8dbb78626a0"",""projectId"":""0198be1d-574a-752e-ae53-1d263a30e856""}","https://test12345.live/?num_scrambled_semantic=8&num_scrambled_causal=4&num_scrambled_schematic=4&participantId=C2201E74145C4EDE80DB10155B4E631C&assignmentId=0198be23-9ffc-7976-b60c-c8dbb78626a0&projectId=0198be1d-574a-752e-ae53-1d263a30e856","C2201E74145C4EDE80DB10155B4E631C-2025-08-18-17-37-39","","2610","","images/causal_sequence/the_performance_causal/the_performance_causal_8.png","0","",""
"","","","","","image-button-response","100","818906","0.0-14.0-1.0-2.3","C2201E74145C4EDE80DB10155B4E631C","C2201E74145C4EDE80DB10155B4E631C","0198be23-9ffc-7976-b60c-c8dbb78626a0","0198be1d-574a-752e-ae53-1d263a30e856","{""num_scrambled_semantic"":""8"",""num_scrambled_causal"":""4"",""num_scrambled_schematic"":""4"",""participantId"":""C2201E74145C4EDE80DB10155B4E631C"",""assignmentId"":""0198be23-9ffc-7976-b60c-c8dbb78626a0"",""projectId"":""0198be1d-574a-752e-ae53-1d263a30e856""}","https://test12345.live/?num_scrambled_semantic=8&num_scrambled_causal=4&num_scrambled_schematic=4&participantId=C2201E74145C4EDE80DB10155B4E631C&assignmentId=0198be23-9ffc-7976-b60c-c8dbb78626a0&projectId=0198be1d-574a-752e-ae53-1d263a30e856","C2201E74145C4EDE80DB10155B4E631C-2025-08-18-17-37-39","","null","","[]","null","",""
"","","","","","image-button-response","101","823408","0.0-14.0-1.0-0.4","C2201E74145C4EDE80DB10155B4E631C","C2201E74145C4EDE80DB10155B4E631C","0198be23-9ffc-7976-b60c-c8dbb78626a0","0198be1d-574a-752e-ae53-1d263a30e856","{""num_scrambled_semantic"":""8"",""num_scrambled_causal"":""4"",""num_scrambled_schematic"":""4"",""participantId"":""C2201E74145C4EDE80DB10155B4E631C"",""assignmentId"":""0198be23-9ffc-7976-b60c-c8dbb78626a0"",""projectId"":""0198be1d-574a-752e-ae53-1d263a30e856""}","https://test12345.live/?num_scrambled_semantic=8&num_scrambled_causal=4&num_scrambled_schematic=4&participantId=C2201E74145C4EDE80DB10155B4E631C&assignmentId=0198be23-9ffc-7976-b60c-c8dbb78626a0&projectId=0198be1d-574a-752e-ae53-1d263a30e856","C2201E74145C4EDE80DB10155B4E631C-2025-08-18-17-37-39","","null","","images/causal_sequence/the_performance_causal/the_performance_causal_5.png","null","",""
"","","","","","image-button-response","102","824337","0.0-14.0-1.0-1.4","C2201E74145C4EDE80DB10155B4E631C","C2201E74145C4EDE80DB10155B4E631C","0198be23-9ffc-7976-b60c-c8dbb78626a0","0198be1d-574a-752e-ae53-1d263a30e856","{""num_scrambled_semantic"":""8"",""num_scrambled_causal"":""4"",""num_scrambled_schematic"":""4"",""participantId"":""C2201E74145C4EDE80DB10155B4E631C"",""assignmentId"":""0198be23-9ffc-7976-b60c-c8dbb78626a0"",""projectId"":""0198be1d-574a-752e-ae53-1d263a30e856""}","https://test12345.live/?num_scrambled_semantic=8&num_scrambled_causal=4&num_scrambled_schematic=4&participantId=C2201E74145C4EDE80DB10155B4E631C&assignmentId=0198be23-9ffc-7976-b60c-c8dbb78626a0&projectId=0198be1d-574a-752e-ae53-1d263a30e856","C2201E74145C4EDE80DB10155B4E631C-2025-08-18-17-37-39","","926","","images/causal_sequence/the_performance_causal/the_performance_causal_5.png","0","",""
"","","","","","image-button-response","103","835140","0.0-14.0-1.0-2.4","C2201E74145C4EDE80DB10155B4E631C","C2201E74145C4EDE80DB10155B4E631C","0198be23-9ffc-7976-b60c-c8dbb78626a0","0198be1d-574a-752e-ae53-1d263a30e856","{""num_scrambled_semantic"":""8"",""num_scrambled_causal"":""4"",""num_scrambled_schematic"":""4"",""participantId"":""C2201E74145C4EDE80DB10155B4E631C"",""assignmentId"":""0198be23-9ffc-7976-b60c-c8dbb78626a0"",""projectId"":""0198be1d-574a-752e-ae53-1d263a30e856""}","https://test12345.live/?num_scrambled_semantic=8&num_scrambled_causal=4&num_scrambled_schematic=4&participantId=C2201E74145C4EDE80DB10155B4E631C&assignmentId=0198be23-9ffc-7976-b60c-c8dbb78626a0&projectId=0198be1d-574a-752e-ae53-1d263a30e856","C2201E74145C4EDE80DB10155B4E631C-2025-08-18-17-37-39","","null","","[]","null","",""
"","","","","","image-button-response","104","839643","0.0-14.0-1.0-0.5","C2201E74145C4EDE80DB10155B4E631C","C2201E74145C4EDE80DB10155B4E631C","0198be23-9ffc-7976-b60c-c8dbb78626a0","0198be1d-574a-752e-ae53-1d263a30e856","{""num_scrambled_semantic"":""8"",""num_scrambled_causal"":""4"",""num_scrambled_schematic"":""4"",""participantId"":""C2201E74145C4EDE80DB10155B4E631C"",""assignmentId"":""0198be23-9ffc-7976-b60c-c8dbb78626a0"",""projectId"":""0198be1d-574a-752e-ae53-1d263a30e856""}","https://test12345.live/?num_scrambled_semantic=8&num_scrambled_causal=4&num_scrambled_schematic=4&participantId=C2201E74145C4EDE80DB10155B4E631C&assignmentId=0198be23-9ffc-7976-b60c-c8dbb78626a0&projectId=0198be1d-574a-752e-ae53-1d263a30e856","C2201E74145C4EDE80DB10155B4E631C-2025-08-18-17-37-39","","null","","images/causal_sequence/the_performance_causal/the_performance_causal_7.png","null","",""
"","","","","","image-button-response","105","843650","0.0-14.0-1.0-1.5","C2201E74145C4EDE80DB10155B4E631C","C2201E74145C4EDE80DB10155B4E631C","0198be23-9ffc-7976-b60c-c8dbb78626a0","0198be1d-574a-752e-ae53-1d263a30e856","{""num_scrambled_semantic"":""8"",""num_scrambled_causal"":""4"",""num_scrambled_schematic"":""4"",""participantId"":""C2201E74145C4EDE80DB10155B4E631C"",""assignmentId"":""0198be23-9ffc-7976-b60c-c8dbb78626a0"",""projectId"":""0198be1d-574a-752e-ae53-1d263a30e856""}","https://test12345.live/?num_scrambled_semantic=8&num_scrambled_causal=4&num_scrambled_schematic=4&participantId=C2201E74145C4EDE80DB10155B4E631C&assignmentId=0198be23-9ffc-7976-b60c-c8dbb78626a0&projectId=0198be1d-574a-752e-ae53-1d263a30e856","C2201E74145C4EDE80DB10155B4E631C-2025-08-18-17-37-39","","null","","images/causal_sequence/the_performance_causal/the_performance_causal_7.png","null","",""
"","","","","","image-button-response","106","854455","0.0-14.0-1.0-2.5","C2201E74145C4EDE80DB10155B4E631C","C2201E74145C4EDE80DB10155B4E631C","0198be23-9ffc-7976-b60c-c8dbb78626a0","0198be1d-574a-752e-ae53-1d263a30e856","{""num_scrambled_semantic"":""8"",""num_scrambled_causal"":""4"",""num_scrambled_schematic"":""4"",""participantId"":""C2201E74145C4EDE80DB10155B4E631C"",""assignmentId"":""0198be23-9ffc-7976-b60c-c8dbb78626a0"",""projectId"":""0198be1d-574a-752e-ae53-1d263a30e856""}","https://test12345.live/?num_scrambled_semantic=8&num_scrambled_causal=4&num_scrambled_schematic=4&participantId=C2201E74145C4EDE80DB10155B4E631C&assignmentId=0198be23-9ffc-7976-b60c-c8dbb78626a0&projectId=0198be1d-574a-752e-ae53-1d263a30e856","C2201E74145C4EDE80DB10155B4E631C-2025-08-18-17-37-39","","null","","[]","null","",""
"","","","","","image-button-response","107","858957","0.0-14.0-1.0-0.6","C2201E74145C4EDE80DB10155B4E631C","C2201E74145C4EDE80DB10155B4E631C","0198be23-9ffc-7976-b60c-c8dbb78626a0","0198be1d-574a-752e-ae53-1d263a30e856","{""num_scrambled_semantic"":""8"",""num_scrambled_causal"":""4"",""num_scrambled_schematic"":""4"",""participantId"":""C2201E74145C4EDE80DB10155B4E631C"",""assignmentId"":""0198be23-9ffc-7976-b60c-c8dbb78626a0"",""projectId"":""0198be1d-574a-752e-ae53-1d263a30e856""}","https://test12345.live/?num_scrambled_semantic=8&num_scrambled_causal=4&num_scrambled_schematic=4&participantId=C2201E74145C4EDE80DB10155B4E631C&assignmentId=0198be23-9ffc-7976-b60c-c8dbb78626a0&projectId=0198be1d-574a-752e-ae53-1d263a30e856","C2201E74145C4EDE80DB10155B4E631C-2025-08-18-17-37-39","","null","","images/causal_sequence/the_performance_causal/the_performance_causal_1.png","null","",""
"","","","","","image-button-response","108","859620","0.0-14.0-1.0-1.6","C2201E74145C4EDE80DB10155B4E631C","C2201E74145C4EDE80DB10155B4E631C","0198be23-9ffc-7976-b60c-c8dbb78626a0","0198be1d-574a-752e-ae53-1d263a30e856","{""num_scrambled_semantic"":""8"",""num_scrambled_causal"":""4"",""num_scrambled_schematic"":""4"",""participantId"":""C2201E74145C4EDE80DB10155B4E631C"",""assignmentId"":""0198be23-9ffc-7976-b60c-c8dbb78626a0"",""projectId"":""0198be1d-574a-752e-ae53-1d263a30e856""}","https://test12345.live/?num_scrambled_semantic=8&num_scrambled_causal=4&num_scrambled_schematic=4&participantId=C2201E74145C4EDE80DB10155B4E631C&assignmentId=0198be23-9ffc-7976-b60c-c8dbb78626a0&projectId=0198be1d-574a-752e-ae53-1d263a30e856","C2201E74145C4EDE80DB10155B4E631C-2025-08-18-17-37-39","","661","","images/causal_sequence/the_performance_causal/the_performance_causal_1.png","0","",""
"","","","","","image-button-response","109","870424","0.0-14.0-1.0-2.6","C2201E74145C4EDE80DB10155B4E631C","C2201E74145C4EDE80DB10155B4E631C","0198be23-9ffc-7976-b60c-c8dbb78626a0","0198be1d-574a-752e-ae53-1d263a30e856","{""num_scrambled_semantic"":""8"",""num_scrambled_causal"":""4"",""num_scrambled_schematic"":""4"",""participantId"":""C2201E74145C4EDE80DB10155B4E631C"",""assignmentId"":""0198be23-9ffc-7976-b60c-c8dbb78626a0"",""projectId"":""0198be1d-574a-752e-ae53-1d263a30e856""}","https://test12345.live/?num_scrambled_semantic=8&num_scrambled_causal=4&num_scrambled_schematic=4&participantId=C2201E74145C4EDE80DB10155B4E631C&assignmentId=0198be23-9ffc-7976-b60c-c8dbb78626a0&projectId=0198be1d-574a-752e-ae53-1d263a30e856","C2201E74145C4EDE80DB10155B4E631C-2025-08-18-17-37-39","","null","","[]","null","",""
"","","","","","image-button-response","110","874928","0.0-14.0-1.0-0.7","C2201E74145C4EDE80DB10155B4E631C","C2201E74145C4EDE80DB10155B4E631C","0198be23-9ffc-7976-b60c-c8dbb78626a0","0198be1d-574a-752e-ae53-1d263a30e856","{""num_scrambled_semantic"":""8"",""num_scrambled_causal"":""4"",""num_scrambled_schematic"":""4"",""participantId"":""C2201E74145C4EDE80DB10155B4E631C"",""assignmentId"":""0198be23-9ffc-7976-b60c-c8dbb78626a0"",""projectId"":""0198be1d-574a-752e-ae53-1d263a30e856""}","https://test12345.live/?num_scrambled_semantic=8&num_scrambled_causal=4&num_scrambled_schematic=4&participantId=C2201E74145C4EDE80DB10155B4E631C&assignmentId=0198be23-9ffc-7976-b60c-c8dbb78626a0&projectId=0198be1d-574a-752e-ae53-1d263a30e856","C2201E74145C4EDE80DB10155B4E631C-2025-08-18-17-37-39","","null","","images/causal_sequence/the_performance_causal/the_performance_causal_ten.png","null","",""
"","","","","","image-button-response","111","875770","0.0-14.0-1.0-1.7","C2201E74145C4EDE80DB10155B4E631C","C2201E74145C4EDE80DB10155B4E631C","0198be23-9ffc-7976-b60c-c8dbb78626a0","0198be1d-574a-752e-ae53-1d263a30e856","{""num_scrambled_semantic"":""8"",""num_scrambled_causal"":""4"",""num_scrambled_schematic"":""4"",""participantId"":""C2201E74145C4EDE80DB10155B4E631C"",""assignmentId"":""0198be23-9ffc-7976-b60c-c8dbb78626a0"",""projectId"":""0198be1d-574a-752e-ae53-1d263a30e856""}","https://test12345.live/?num_scrambled_semantic=8&num_scrambled_causal=4&num_scrambled_schematic=4&participantId=C2201E74145C4EDE80DB10155B4E631C&assignmentId=0198be23-9ffc-7976-b60c-c8dbb78626a0&projectId=0198be1d-574a-752e-ae53-1d263a30e856","C2201E74145C4EDE80DB10155B4E631C-2025-08-18-17-37-39","","841","","images/causal_sequence/the_performance_causal/the_performance_causal_ten.png","0","",""
"","","","","","image-button-response","112","886577","0.0-14.0-1.0-2.7","C2201E74145C4EDE80DB10155B4E631C","C2201E74145C4EDE80DB10155B4E631C","0198be23-9ffc-7976-b60c-c8dbb78626a0","0198be1d-574a-752e-ae53-1d263a30e856","{""num_scrambled_semantic"":""8"",""num_scrambled_causal"":""4"",""num_scrambled_schematic"":""4"",""participantId"":""C2201E74145C4EDE80DB10155B4E631C"",""assignmentId"":""0198be23-9ffc-7976-b60c-c8dbb78626a0"",""projectId"":""0198be1d-574a-752e-ae53-1d263a30e856""}","https://test12345.live/?num_scrambled_semantic=8&num_scrambled_causal=4&num_scrambled_schematic=4&participantId=C2201E74145C4EDE80DB10155B4E631C&assignmentId=0198be23-9ffc-7976-b60c-c8dbb78626a0&projectId=0198be1d-574a-752e-ae53-1d263a30e856","C2201E74145C4EDE80DB10155B4E631C-2025-08-18-17-37-39","","null","","[]","null","",""
"","","","","","image-button-response","113","891082","0.0-14.0-1.0-0.8","C2201E74145C4EDE80DB10155B4E631C","C2201E74145C4EDE80DB10155B4E631C","0198be23-9ffc-7976-b60c-c8dbb78626a0","0198be1d-574a-752e-ae53-1d263a30e856","{""num_scrambled_semantic"":""8"",""num_scrambled_causal"":""4"",""num_scrambled_schematic"":""4"",""participantId"":""C2201E74145C4EDE80DB10155B4E631C"",""assignmentId"":""0198be23-9ffc-7976-b60c-c8dbb78626a0"",""projectId"":""0198be1d-574a-752e-ae53-1d263a30e856""}","https://test12345.live/?num_scrambled_semantic=8&num_scrambled_causal=4&num_scrambled_schematic=4&participantId=C2201E74145C4EDE80DB10155B4E631C&assignmentId=0198be23-9ffc-7976-b60c-c8dbb78626a0&projectId=0198be1d-574a-752e-ae53-1d263a30e856","C2201E74145C4EDE80DB10155B4E631C-2025-08-18-17-37-39","","null","","images/causal_sequence/the_performance_causal/the_performance_causal_9.png","null","",""
