"success","timeout","failed_images","failed_audio","failed_video","trial_type","trial_index","time_elapsed","internal_node_id","subject","subject_id","study_id","session_id","urlvar","current_url","audio_id","view_history","rt","device_id","stimulus","response","estimated_stimulus_onset","seq_name"
"true","false","[]","[]","[]","preload","0","5246","0.0-0.0","C31D4B38E6704E90AC16A6AD72180BD2","C31D4B38E6704E90AC16A6AD72180BD2","f1ca5dff-42df-436a-8d23-e0001a487759","93d27ed9-06b1-4109-8acc-030e53ea77d1","{""num_scrambled_semantic"":""8"",""num_scrambled_causal"":""4"",""num_scrambled_schematic"":""4"",""participantId"":""C31D4B38E6704E90AC16A6AD72180BD2"",""assignmentId"":""f1ca5dff-42df-436a-8d23-e0001a487759"",""projectId"":""93d27ed9-06b1-4109-8acc-030e53ea77d1""}","https://test12345.live/?num_scrambled_semantic=8&num_scrambled_causal=4&num_scrambled_schematic=4&participantId=C31D4B38E6704E90AC16A6AD72180BD2&assignmentId=f1ca5dff-42df-436a-8d23-e0001a487759&projectId=93d27ed9-06b1-4109-8acc-030e53ea77d1","C31D4B38E6704E90AC16A6AD72180BD2-2025-05-14-15-28-34","","","","","","",""
"","","","","","instructions","1","24658","0.0-1.0","C31D4B38E6704E90AC16A6AD72180BD2","C31D4B38E6704E90AC16A6AD72180BD2","f1ca5dff-42df-436a-8d23-e0001a487759","93d27ed9-06b1-4109-8acc-030e53ea77d1","{""num_scrambled_semantic"":""8"",""num_scrambled_causal"":""4"",""num_scrambled_schematic"":""4"",""participantId"":""C31D4B38E6704E90AC16A6AD72180BD2"",""assignmentId"":""f1ca5dff-42df-436a-8d23-e0001a487759"",""projectId"":""93d27ed9-06b1-4109-8acc-030e53ea77d1""}","https://test12345.live/?num_scrambled_semantic=8&num_scrambled_causal=4&num_scrambled_schematic=4&participantId=C31D4B38E6704E90AC16A6AD72180BD2&assignmentId=f1ca5dff-42df-436a-8d23-e0001a487759&projectId=93d27ed9-06b1-4109-8acc-030e53ea77d1","C31D4B38E6704E90AC16A6AD72180BD2-2025-05-14-15-28-34","[{""page_index"":0,""viewing_time"":19411}]","19411","","","","",""
"","","","","","instructions","2","48734","0.0-2.0","C31D4B38E6704E90AC16A6AD72180BD2","C31D4B38E6704E90AC16A6AD72180BD2","f1ca5dff-42df-436a-8d23-e0001a487759","93d27ed9-06b1-4109-8acc-030e53ea77d1","{""num_scrambled_semantic"":""8"",""num_scrambled_causal"":""4"",""num_scrambled_schematic"":""4"",""participantId"":""C31D4B38E6704E90AC16A6AD72180BD2"",""assignmentId"":""f1ca5dff-42df-436a-8d23-e0001a487759"",""projectId"":""93d27ed9-06b1-4109-8acc-030e53ea77d1""}","https://test12345.live/?num_scrambled_semantic=8&num_scrambled_causal=4&num_scrambled_schematic=4&participantId=C31D4B38E6704E90AC16A6AD72180BD2&assignmentId=f1ca5dff-42df-436a-8d23-e0001a487759&projectId=93d27ed9-06b1-4109-8acc-030e53ea77d1","C31D4B38E6704E90AC16A6AD72180BD2-2025-05-14-15-28-34","[{""page_index"":0,""viewing_time"":24075}]","24075","","","","",""
"true","","","","","fullscreen","3","51881","0.0-3.0","C31D4B38E6704E90AC16A6AD72180BD2","C31D4B38E6704E90AC16A6AD72180BD2","f1ca5dff-42df-436a-8d23-e0001a487759","93d27ed9-06b1-4109-8acc-030e53ea77d1","{""num_scrambled_semantic"":""8"",""num_scrambled_causal"":""4"",""num_scrambled_schematic"":""4"",""participantId"":""C31D4B38E6704E90AC16A6AD72180BD2"",""assignmentId"":""f1ca5dff-42df-436a-8d23-e0001a487759"",""projectId"":""93d27ed9-06b1-4109-8acc-030e53ea77d1""}","https://test12345.live/?num_scrambled_semantic=8&num_scrambled_causal=4&num_scrambled_schematic=4&participantId=C31D4B38E6704E90AC16A6AD72180BD2&assignmentId=f1ca5dff-42df-436a-8d23-e0001a487759&projectId=93d27ed9-06b1-4109-8acc-030e53ea77d1","C31D4B38E6704E90AC16A6AD72180BD2-2025-05-14-15-28-34","","2132","","","","",""
"","","","","","initialize-microphone","4","64132","0.0-4.0-0.0","C31D4B38E6704E90AC16A6AD72180BD2","C31D4B38E6704E90AC16A6AD72180BD2","f1ca5dff-42df-436a-8d23-e0001a487759","93d27ed9-06b1-4109-8acc-030e53ea77d1","{""num_scrambled_semantic"":""8"",""num_scrambled_causal"":""4"",""num_scrambled_schematic"":""4"",""participantId"":""C31D4B38E6704E90AC16A6AD72180BD2"",""assignmentId"":""f1ca5dff-42df-436a-8d23-e0001a487759"",""projectId"":""93d27ed9-06b1-4109-8acc-030e53ea77d1""}","https://test12345.live/?num_scrambled_semantic=8&num_scrambled_causal=4&num_scrambled_schematic=4&participantId=C31D4B38E6704E90AC16A6AD72180BD2&assignmentId=f1ca5dff-42df-436a-8d23-e0001a487759&projectId=93d27ed9-06b1-4109-8acc-030e53ea77d1","C31D4B38E6704E90AC16A6AD72180BD2-2025-05-14-15-28-34","","","9d77cf9f56e598b01cd2a30d345375df995c0c6e31b02e639b150b2a84e6dfd9","","","",""
"","","","","","html-audio-response","5","89049","0.0-4.0-1.0","C31D4B38E6704E90AC16A6AD72180BD2","C31D4B38E6704E90AC16A6AD72180BD2","f1ca5dff-42df-436a-8d23-e0001a487759","93d27ed9-06b1-4109-8acc-030e53ea77d1","{""num_scrambled_semantic"":""8"",""num_scrambled_causal"":""4"",""num_scrambled_schematic"":""4"",""participantId"":""C31D4B38E6704E90AC16A6AD72180BD2"",""assignmentId"":""f1ca5dff-42df-436a-8d23-e0001a487759"",""projectId"":""93d27ed9-06b1-4109-8acc-030e53ea77d1""}","https://test12345.live/?num_scrambled_semantic=8&num_scrambled_causal=4&num_scrambled_schematic=4&participantId=C31D4B38E6704E90AC16A6AD72180BD2&assignmentId=f1ca5dff-42df-436a-8d23-e0001a487759&projectId=93d27ed9-06b1-4109-8acc-030e53ea77d1","C31D4B38E6704E90AC16A6AD72180BD2-2025-05-14-15-28-34","","2889","","<span style=""color: red; font-size: 24px""> NOW RECORDING</span>
        <p>Please test Microphone</p>","","2",""
"","","","","","html-button-response","6","90481","0.0-4.0-2.0","C31D4B38E6704E90AC16A6AD72180BD2","C31D4B38E6704E90AC16A6AD72180BD2","f1ca5dff-42df-436a-8d23-e0001a487759","93d27ed9-06b1-4109-8acc-030e53ea77d1","{""num_scrambled_semantic"":""8"",""num_scrambled_causal"":""4"",""num_scrambled_schematic"":""4"",""participantId"":""C31D4B38E6704E90AC16A6AD72180BD2"",""assignmentId"":""f1ca5dff-42df-436a-8d23-e0001a487759"",""projectId"":""93d27ed9-06b1-4109-8acc-030e53ea77d1""}","https://test12345.live/?num_scrambled_semantic=8&num_scrambled_causal=4&num_scrambled_schematic=4&participantId=C31D4B38E6704E90AC16A6AD72180BD2&assignmentId=f1ca5dff-42df-436a-8d23-e0001a487759&projectId=93d27ed9-06b1-4109-8acc-030e53ea77d1","C31D4B38E6704E90AC16A6AD72180BD2-2025-05-14-15-28-34","","1431","","<p style=""font-size:48px; color:red;"">Is Microphone OK?</p>","1","",""
"","","","","","instructions","7","98546","0.0-5.0","C31D4B38E6704E90AC16A6AD72180BD2","C31D4B38E6704E90AC16A6AD72180BD2","f1ca5dff-42df-436a-8d23-e0001a487759","93d27ed9-06b1-4109-8acc-030e53ea77d1","{""num_scrambled_semantic"":""8"",""num_scrambled_causal"":""4"",""num_scrambled_schematic"":""4"",""participantId"":""C31D4B38E6704E90AC16A6AD72180BD2"",""assignmentId"":""f1ca5dff-42df-436a-8d23-e0001a487759"",""projectId"":""93d27ed9-06b1-4109-8acc-030e53ea77d1""}","https://test12345.live/?num_scrambled_semantic=8&num_scrambled_causal=4&num_scrambled_schematic=4&participantId=C31D4B38E6704E90AC16A6AD72180BD2&assignmentId=f1ca5dff-42df-436a-8d23-e0001a487759&projectId=93d27ed9-06b1-4109-8acc-030e53ea77d1","C31D4B38E6704E90AC16A6AD72180BD2-2025-05-14-15-28-34","[{""page_index"":0,""viewing_time"":2928},{""page_index"":1,""viewing_time"":5136}]","8065","","","","",""
"","","","","","image-button-response","8","104549","0.0-6.0-0.0","C31D4B38E6704E90AC16A6AD72180BD2","C31D4B38E6704E90AC16A6AD72180BD2","f1ca5dff-42df-436a-8d23-e0001a487759","93d27ed9-06b1-4109-8acc-030e53ea77d1","{""num_scrambled_semantic"":""8"",""num_scrambled_causal"":""4"",""num_scrambled_schematic"":""4"",""participantId"":""C31D4B38E6704E90AC16A6AD72180BD2"",""assignmentId"":""f1ca5dff-42df-436a-8d23-e0001a487759"",""projectId"":""93d27ed9-06b1-4109-8acc-030e53ea77d1""}","https://test12345.live/?num_scrambled_semantic=8&num_scrambled_causal=4&num_scrambled_schematic=4&participantId=C31D4B38E6704E90AC16A6AD72180BD2&assignmentId=f1ca5dff-42df-436a-8d23-e0001a487759&projectId=93d27ed9-06b1-4109-8acc-030e53ea77d1","C31D4B38E6704E90AC16A6AD72180BD2-2025-05-14-15-28-34","","null","","images/instructions/movie_0.png","null","",""
"","","","","","image-button-response","9","109057","0.0-6.0-1.0-0.0","C31D4B38E6704E90AC16A6AD72180BD2","C31D4B38E6704E90AC16A6AD72180BD2","f1ca5dff-42df-436a-8d23-e0001a487759","93d27ed9-06b1-4109-8acc-030e53ea77d1","{""num_scrambled_semantic"":""8"",""num_scrambled_causal"":""4"",""num_scrambled_schematic"":""4"",""participantId"":""C31D4B38E6704E90AC16A6AD72180BD2"",""assignmentId"":""f1ca5dff-42df-436a-8d23-e0001a487759"",""projectId"":""93d27ed9-06b1-4109-8acc-030e53ea77d1""}","https://test12345.live/?num_scrambled_semantic=8&num_scrambled_causal=4&num_scrambled_schematic=4&participantId=C31D4B38E6704E90AC16A6AD72180BD2&assignmentId=f1ca5dff-42df-436a-8d23-e0001a487759&projectId=93d27ed9-06b1-4109-8acc-030e53ea77d1","C31D4B38E6704E90AC16A6AD72180BD2-2025-05-14-15-28-34","","null","","images/instructions/movie_1.png","null","",""
"","","","","","image-button-response","10","113066","0.0-6.0-1.0-1.0","C31D4B38E6704E90AC16A6AD72180BD2","C31D4B38E6704E90AC16A6AD72180BD2","f1ca5dff-42df-436a-8d23-e0001a487759","93d27ed9-06b1-4109-8acc-030e53ea77d1","{""num_scrambled_semantic"":""8"",""num_scrambled_causal"":""4"",""num_scrambled_schematic"":""4"",""participantId"":""C31D4B38E6704E90AC16A6AD72180BD2"",""assignmentId"":""f1ca5dff-42df-436a-8d23-e0001a487759"",""projectId"":""93d27ed9-06b1-4109-8acc-030e53ea77d1""}","https://test12345.live/?num_scrambled_semantic=8&num_scrambled_causal=4&num_scrambled_schematic=4&participantId=C31D4B38E6704E90AC16A6AD72180BD2&assignmentId=f1ca5dff-42df-436a-8d23-e0001a487759&projectId=93d27ed9-06b1-4109-8acc-030e53ea77d1","C31D4B38E6704E90AC16A6AD72180BD2-2025-05-14-15-28-34","","null","","images/instructions/movie_1.png","null","",""
"","","","","","image-button-response","11","114869","0.0-6.0-1.0-2.0","C31D4B38E6704E90AC16A6AD72180BD2","C31D4B38E6704E90AC16A6AD72180BD2","f1ca5dff-42df-436a-8d23-e0001a487759","93d27ed9-06b1-4109-8acc-030e53ea77d1","{""num_scrambled_semantic"":""8"",""num_scrambled_causal"":""4"",""num_scrambled_schematic"":""4"",""participantId"":""C31D4B38E6704E90AC16A6AD72180BD2"",""assignmentId"":""f1ca5dff-42df-436a-8d23-e0001a487759"",""projectId"":""93d27ed9-06b1-4109-8acc-030e53ea77d1""}","https://test12345.live/?num_scrambled_semantic=8&num_scrambled_causal=4&num_scrambled_schematic=4&participantId=C31D4B38E6704E90AC16A6AD72180BD2&assignmentId=f1ca5dff-42df-436a-8d23-e0001a487759&projectId=93d27ed9-06b1-4109-8acc-030e53ea77d1","C31D4B38E6704E90AC16A6AD72180BD2-2025-05-14-15-28-34","","null","","[]","null","",""
"","","","","","image-button-response","12","119384","0.0-6.0-1.0-0.1","C31D4B38E6704E90AC16A6AD72180BD2","C31D4B38E6704E90AC16A6AD72180BD2","f1ca5dff-42df-436a-8d23-e0001a487759","93d27ed9-06b1-4109-8acc-030e53ea77d1","{""num_scrambled_semantic"":""8"",""num_scrambled_causal"":""4"",""num_scrambled_schematic"":""4"",""participantId"":""C31D4B38E6704E90AC16A6AD72180BD2"",""assignmentId"":""f1ca5dff-42df-436a-8d23-e0001a487759"",""projectId"":""93d27ed9-06b1-4109-8acc-030e53ea77d1""}","https://test12345.live/?num_scrambled_semantic=8&num_scrambled_causal=4&num_scrambled_schematic=4&participantId=C31D4B38E6704E90AC16A6AD72180BD2&assignmentId=f1ca5dff-42df-436a-8d23-e0001a487759&projectId=93d27ed9-06b1-4109-8acc-030e53ea77d1","C31D4B38E6704E90AC16A6AD72180BD2-2025-05-14-15-28-34","","null","","images/instructions/movie_2.png","null","",""
"","","","","","image-button-response","13","122018","0.0-6.0-1.0-1.1","C31D4B38E6704E90AC16A6AD72180BD2","C31D4B38E6704E90AC16A6AD72180BD2","f1ca5dff-42df-436a-8d23-e0001a487759","93d27ed9-06b1-4109-8acc-030e53ea77d1","{""num_scrambled_semantic"":""8"",""num_scrambled_causal"":""4"",""num_scrambled_schematic"":""4"",""participantId"":""C31D4B38E6704E90AC16A6AD72180BD2"",""assignmentId"":""f1ca5dff-42df-436a-8d23-e0001a487759"",""projectId"":""93d27ed9-06b1-4109-8acc-030e53ea77d1""}","https://test12345.live/?num_scrambled_semantic=8&num_scrambled_causal=4&num_scrambled_schematic=4&participantId=C31D4B38E6704E90AC16A6AD72180BD2&assignmentId=f1ca5dff-42df-436a-8d23-e0001a487759&projectId=93d27ed9-06b1-4109-8acc-030e53ea77d1","C31D4B38E6704E90AC16A6AD72180BD2-2025-05-14-15-28-34","","2632","","images/instructions/movie_2.png","0","",""
"","","","","","image-button-response","14","123828","0.0-6.0-1.0-2.1","C31D4B38E6704E90AC16A6AD72180BD2","C31D4B38E6704E90AC16A6AD72180BD2","f1ca5dff-42df-436a-8d23-e0001a487759","93d27ed9-06b1-4109-8acc-030e53ea77d1","{""num_scrambled_semantic"":""8"",""num_scrambled_causal"":""4"",""num_scrambled_schematic"":""4"",""participantId"":""C31D4B38E6704E90AC16A6AD72180BD2"",""assignmentId"":""f1ca5dff-42df-436a-8d23-e0001a487759"",""projectId"":""93d27ed9-06b1-4109-8acc-030e53ea77d1""}","https://test12345.live/?num_scrambled_semantic=8&num_scrambled_causal=4&num_scrambled_schematic=4&participantId=C31D4B38E6704E90AC16A6AD72180BD2&assignmentId=f1ca5dff-42df-436a-8d23-e0001a487759&projectId=93d27ed9-06b1-4109-8acc-030e53ea77d1","C31D4B38E6704E90AC16A6AD72180BD2-2025-05-14-15-28-34","","null","","[]","null","",""
"","","","","","image-button-response","15","128337","0.0-6.0-1.0-0.2","C31D4B38E6704E90AC16A6AD72180BD2","C31D4B38E6704E90AC16A6AD72180BD2","f1ca5dff-42df-436a-8d23-e0001a487759","93d27ed9-06b1-4109-8acc-030e53ea77d1","{""num_scrambled_semantic"":""8"",""num_scrambled_causal"":""4"",""num_scrambled_schematic"":""4"",""participantId"":""C31D4B38E6704E90AC16A6AD72180BD2"",""assignmentId"":""f1ca5dff-42df-436a-8d23-e0001a487759"",""projectId"":""93d27ed9-06b1-4109-8acc-030e53ea77d1""}","https://test12345.live/?num_scrambled_semantic=8&num_scrambled_causal=4&num_scrambled_schematic=4&participantId=C31D4B38E6704E90AC16A6AD72180BD2&assignmentId=f1ca5dff-42df-436a-8d23-e0001a487759&projectId=93d27ed9-06b1-4109-8acc-030e53ea77d1","C31D4B38E6704E90AC16A6AD72180BD2-2025-05-14-15-28-34","","null","","images/instructions/movie_3.png","null","",""
"","","","","","image-button-response","16","130320","0.0-6.0-1.0-1.2","C31D4B38E6704E90AC16A6AD72180BD2","C31D4B38E6704E90AC16A6AD72180BD2","f1ca5dff-42df-436a-8d23-e0001a487759","93d27ed9-06b1-4109-8acc-030e53ea77d1","{""num_scrambled_semantic"":""8"",""num_scrambled_causal"":""4"",""num_scrambled_schematic"":""4"",""participantId"":""C31D4B38E6704E90AC16A6AD72180BD2"",""assignmentId"":""f1ca5dff-42df-436a-8d23-e0001a487759"",""projectId"":""93d27ed9-06b1-4109-8acc-030e53ea77d1""}","https://test12345.live/?num_scrambled_semantic=8&num_scrambled_causal=4&num_scrambled_schematic=4&participantId=C31D4B38E6704E90AC16A6AD72180BD2&assignmentId=f1ca5dff-42df-436a-8d23-e0001a487759&projectId=93d27ed9-06b1-4109-8acc-030e53ea77d1","C31D4B38E6704E90AC16A6AD72180BD2-2025-05-14-15-28-34","","1982","","images/instructions/movie_3.png","0","",""
"","","","","","image-button-response","17","132129","0.0-6.0-1.0-2.2","C31D4B38E6704E90AC16A6AD72180BD2","C31D4B38E6704E90AC16A6AD72180BD2","f1ca5dff-42df-436a-8d23-e0001a487759","93d27ed9-06b1-4109-8acc-030e53ea77d1","{""num_scrambled_semantic"":""8"",""num_scrambled_causal"":""4"",""num_scrambled_schematic"":""4"",""participantId"":""C31D4B38E6704E90AC16A6AD72180BD2"",""assignmentId"":""f1ca5dff-42df-436a-8d23-e0001a487759"",""projectId"":""93d27ed9-06b1-4109-8acc-030e53ea77d1""}","https://test12345.live/?num_scrambled_semantic=8&num_scrambled_causal=4&num_scrambled_schematic=4&participantId=C31D4B38E6704E90AC16A6AD72180BD2&assignmentId=f1ca5dff-42df-436a-8d23-e0001a487759&projectId=93d27ed9-06b1-4109-8acc-030e53ea77d1","C31D4B38E6704E90AC16A6AD72180BD2-2025-05-14-15-28-34","","null","","[]","null","",""
"","","","","","image-button-response","18","136631","0.0-6.0-1.0-0.3","C31D4B38E6704E90AC16A6AD72180BD2","C31D4B38E6704E90AC16A6AD72180BD2","f1ca5dff-42df-436a-8d23-e0001a487759","93d27ed9-06b1-4109-8acc-030e53ea77d1","{""num_scrambled_semantic"":""8"",""num_scrambled_causal"":""4"",""num_scrambled_schematic"":""4"",""participantId"":""C31D4B38E6704E90AC16A6AD72180BD2"",""assignmentId"":""f1ca5dff-42df-436a-8d23-e0001a487759"",""projectId"":""93d27ed9-06b1-4109-8acc-030e53ea77d1""}","https://test12345.live/?num_scrambled_semantic=8&num_scrambled_causal=4&num_scrambled_schematic=4&participantId=C31D4B38E6704E90AC16A6AD72180BD2&assignmentId=f1ca5dff-42df-436a-8d23-e0001a487759&projectId=93d27ed9-06b1-4109-8acc-030e53ea77d1","C31D4B38E6704E90AC16A6AD72180BD2-2025-05-14-15-28-34","","null","","images/instructions/movie_4.png","null","",""
"","","","","","image-button-response","19","138008","0.0-6.0-1.0-1.3","C31D4B38E6704E90AC16A6AD72180BD2","C31D4B38E6704E90AC16A6AD72180BD2","f1ca5dff-42df-436a-8d23-e0001a487759","93d27ed9-06b1-4109-8acc-030e53ea77d1","{""num_scrambled_semantic"":""8"",""num_scrambled_causal"":""4"",""num_scrambled_schematic"":""4"",""participantId"":""C31D4B38E6704E90AC16A6AD72180BD2"",""assignmentId"":""f1ca5dff-42df-436a-8d23-e0001a487759"",""projectId"":""93d27ed9-06b1-4109-8acc-030e53ea77d1""}","https://test12345.live/?num_scrambled_semantic=8&num_scrambled_causal=4&num_scrambled_schematic=4&participantId=C31D4B38E6704E90AC16A6AD72180BD2&assignmentId=f1ca5dff-42df-436a-8d23-e0001a487759&projectId=93d27ed9-06b1-4109-8acc-030e53ea77d1","C31D4B38E6704E90AC16A6AD72180BD2-2025-05-14-15-28-34","","1376","","images/instructions/movie_4.png","0","",""
"","","","","","image-button-response","20","139810","0.0-6.0-1.0-2.3","C31D4B38E6704E90AC16A6AD72180BD2","C31D4B38E6704E90AC16A6AD72180BD2","f1ca5dff-42df-436a-8d23-e0001a487759","93d27ed9-06b1-4109-8acc-030e53ea77d1","{""num_scrambled_semantic"":""8"",""num_scrambled_causal"":""4"",""num_scrambled_schematic"":""4"",""participantId"":""C31D4B38E6704E90AC16A6AD72180BD2"",""assignmentId"":""f1ca5dff-42df-436a-8d23-e0001a487759"",""projectId"":""93d27ed9-06b1-4109-8acc-030e53ea77d1""}","https://test12345.live/?num_scrambled_semantic=8&num_scrambled_causal=4&num_scrambled_schematic=4&participantId=C31D4B38E6704E90AC16A6AD72180BD2&assignmentId=f1ca5dff-42df-436a-8d23-e0001a487759&projectId=93d27ed9-06b1-4109-8acc-030e53ea77d1","C31D4B38E6704E90AC16A6AD72180BD2-2025-05-14-15-28-34","","null","","[]","null","",""
"","","","","","instructions","21","180537","0.0-7.0","C31D4B38E6704E90AC16A6AD72180BD2","C31D4B38E6704E90AC16A6AD72180BD2","f1ca5dff-42df-436a-8d23-e0001a487759","93d27ed9-06b1-4109-8acc-030e53ea77d1","{""num_scrambled_semantic"":""8"",""num_scrambled_causal"":""4"",""num_scrambled_schematic"":""4"",""participantId"":""C31D4B38E6704E90AC16A6AD72180BD2"",""assignmentId"":""f1ca5dff-42df-436a-8d23-e0001a487759"",""projectId"":""93d27ed9-06b1-4109-8acc-030e53ea77d1""}","https://test12345.live/?num_scrambled_semantic=8&num_scrambled_causal=4&num_scrambled_schematic=4&participantId=C31D4B38E6704E90AC16A6AD72180BD2&assignmentId=f1ca5dff-42df-436a-8d23-e0001a487759&projectId=93d27ed9-06b1-4109-8acc-030e53ea77d1","C31D4B38E6704E90AC16A6AD72180BD2-2025-05-14-15-28-34","[{""page_index"":0,""viewing_time"":39427},{""page_index"":1,""viewing_time"":1299}]","40726","","","","",""
"","","","","","html-audio-response","22","208577","0.0-8.0","C31D4B38E6704E90AC16A6AD72180BD2","C31D4B38E6704E90AC16A6AD72180BD2","f1ca5dff-42df-436a-8d23-e0001a487759","93d27ed9-06b1-4109-8acc-030e53ea77d1","{""num_scrambled_semantic"":""8"",""num_scrambled_causal"":""4"",""num_scrambled_schematic"":""4"",""participantId"":""C31D4B38E6704E90AC16A6AD72180BD2"",""assignmentId"":""f1ca5dff-42df-436a-8d23-e0001a487759"",""projectId"":""93d27ed9-06b1-4109-8acc-030e53ea77d1""}","https://test12345.live/?num_scrambled_semantic=8&num_scrambled_causal=4&num_scrambled_schematic=4&participantId=C31D4B38E6704E90AC16A6AD72180BD2&assignmentId=f1ca5dff-42df-436a-8d23-e0001a487759&projectId=93d27ed9-06b1-4109-8acc-030e53ea77d1","C31D4B38E6704E90AC16A6AD72180BD2-2025-05-14-15-28-34","","17022","","[""<span style=\""color: red; font-size: 24px\""> NOW RECORDING</span><p>Please say out loud all the images you saw, as many as you can remember. The images can be said in any order.</p>""]","","1",""
"","","","","","instructions","23","210360","0.0-9.0","C31D4B38E6704E90AC16A6AD72180BD2","C31D4B38E6704E90AC16A6AD72180BD2","f1ca5dff-42df-436a-8d23-e0001a487759","93d27ed9-06b1-4109-8acc-030e53ea77d1","{""num_scrambled_semantic"":""8"",""num_scrambled_causal"":""4"",""num_scrambled_schematic"":""4"",""participantId"":""C31D4B38E6704E90AC16A6AD72180BD2"",""assignmentId"":""f1ca5dff-42df-436a-8d23-e0001a487759"",""projectId"":""93d27ed9-06b1-4109-8acc-030e53ea77d1""}","https://test12345.live/?num_scrambled_semantic=8&num_scrambled_causal=4&num_scrambled_schematic=4&participantId=C31D4B38E6704E90AC16A6AD72180BD2&assignmentId=f1ca5dff-42df-436a-8d23-e0001a487759&projectId=93d27ed9-06b1-4109-8acc-030e53ea77d1","C31D4B38E6704E90AC16A6AD72180BD2-2025-05-14-15-28-34","[{""page_index"":0,""viewing_time"":1775}]","1775","","","","",""
"","","","","","image-button-response","24","216369","0.0-10.0-0.0","C31D4B38E6704E90AC16A6AD72180BD2","C31D4B38E6704E90AC16A6AD72180BD2","f1ca5dff-42df-436a-8d23-e0001a487759","93d27ed9-06b1-4109-8acc-030e53ea77d1","{""num_scrambled_semantic"":""8"",""num_scrambled_causal"":""4"",""num_scrambled_schematic"":""4"",""participantId"":""C31D4B38E6704E90AC16A6AD72180BD2"",""assignmentId"":""f1ca5dff-42df-436a-8d23-e0001a487759"",""projectId"":""93d27ed9-06b1-4109-8acc-030e53ea77d1""}","https://test12345.live/?num_scrambled_semantic=8&num_scrambled_causal=4&num_scrambled_schematic=4&participantId=C31D4B38E6704E90AC16A6AD72180BD2&assignmentId=f1ca5dff-42df-436a-8d23-e0001a487759&projectId=93d27ed9-06b1-4109-8acc-030e53ea77d1","C31D4B38E6704E90AC16A6AD72180BD2-2025-05-14-15-28-34","","null","","images/semantic_sequence/market_semantic/market_semantic_0.png","null","",""
"","","","","","image-button-response","25","220882","0.0-10.0-1.0-0.0","C31D4B38E6704E90AC16A6AD72180BD2","C31D4B38E6704E90AC16A6AD72180BD2","f1ca5dff-42df-436a-8d23-e0001a487759","93d27ed9-06b1-4109-8acc-030e53ea77d1","{""num_scrambled_semantic"":""8"",""num_scrambled_causal"":""4"",""num_scrambled_schematic"":""4"",""participantId"":""C31D4B38E6704E90AC16A6AD72180BD2"",""assignmentId"":""f1ca5dff-42df-436a-8d23-e0001a487759"",""projectId"":""93d27ed9-06b1-4109-8acc-030e53ea77d1""}","https://test12345.live/?num_scrambled_semantic=8&num_scrambled_causal=4&num_scrambled_schematic=4&participantId=C31D4B38E6704E90AC16A6AD72180BD2&assignmentId=f1ca5dff-42df-436a-8d23-e0001a487759&projectId=93d27ed9-06b1-4109-8acc-030e53ea77d1","C31D4B38E6704E90AC16A6AD72180BD2-2025-05-14-15-28-34","","null","","images/semantic_sequence/market_semantic/market_semantic_2.png","null","",""
"","","","","","image-button-response","26","224246","0.0-10.0-1.0-1.0","C31D4B38E6704E90AC16A6AD72180BD2","C31D4B38E6704E90AC16A6AD72180BD2","f1ca5dff-42df-436a-8d23-e0001a487759","93d27ed9-06b1-4109-8acc-030e53ea77d1","{""num_scrambled_semantic"":""8"",""num_scrambled_causal"":""4"",""num_scrambled_schematic"":""4"",""participantId"":""C31D4B38E6704E90AC16A6AD72180BD2"",""assignmentId"":""f1ca5dff-42df-436a-8d23-e0001a487759"",""projectId"":""93d27ed9-06b1-4109-8acc-030e53ea77d1""}","https://test12345.live/?num_scrambled_semantic=8&num_scrambled_causal=4&num_scrambled_schematic=4&participantId=C31D4B38E6704E90AC16A6AD72180BD2&assignmentId=f1ca5dff-42df-436a-8d23-e0001a487759&projectId=93d27ed9-06b1-4109-8acc-030e53ea77d1","C31D4B38E6704E90AC16A6AD72180BD2-2025-05-14-15-28-34","","3362","","images/semantic_sequence/market_semantic/market_semantic_2.png","1","",""
"","","","","","image-button-response","27","226053","0.0-10.0-1.0-2.0","C31D4B38E6704E90AC16A6AD72180BD2","C31D4B38E6704E90AC16A6AD72180BD2","f1ca5dff-42df-436a-8d23-e0001a487759","93d27ed9-06b1-4109-8acc-030e53ea77d1","{""num_scrambled_semantic"":""8"",""num_scrambled_causal"":""4"",""num_scrambled_schematic"":""4"",""participantId"":""C31D4B38E6704E90AC16A6AD72180BD2"",""assignmentId"":""f1ca5dff-42df-436a-8d23-e0001a487759"",""projectId"":""93d27ed9-06b1-4109-8acc-030e53ea77d1""}","https://test12345.live/?num_scrambled_semantic=8&num_scrambled_causal=4&num_scrambled_schematic=4&participantId=C31D4B38E6704E90AC16A6AD72180BD2&assignmentId=f1ca5dff-42df-436a-8d23-e0001a487759&projectId=93d27ed9-06b1-4109-8acc-030e53ea77d1","C31D4B38E6704E90AC16A6AD72180BD2-2025-05-14-15-28-34","","null","","[]","null","",""
"","","","","","image-button-response","28","230565","0.0-10.0-1.0-0.1","C31D4B38E6704E90AC16A6AD72180BD2","C31D4B38E6704E90AC16A6AD72180BD2","f1ca5dff-42df-436a-8d23-e0001a487759","93d27ed9-06b1-4109-8acc-030e53ea77d1","{""num_scrambled_semantic"":""8"",""num_scrambled_causal"":""4"",""num_scrambled_schematic"":""4"",""participantId"":""C31D4B38E6704E90AC16A6AD72180BD2"",""assignmentId"":""f1ca5dff-42df-436a-8d23-e0001a487759"",""projectId"":""93d27ed9-06b1-4109-8acc-030e53ea77d1""}","https://test12345.live/?num_scrambled_semantic=8&num_scrambled_causal=4&num_scrambled_schematic=4&participantId=C31D4B38E6704E90AC16A6AD72180BD2&assignmentId=f1ca5dff-42df-436a-8d23-e0001a487759&projectId=93d27ed9-06b1-4109-8acc-030e53ea77d1","C31D4B38E6704E90AC16A6AD72180BD2-2025-05-14-15-28-34","","null","","images/semantic_sequence/market_semantic/market_semantic_3.png","null","",""
"","","","","","image-button-response","29","233157","0.0-10.0-1.0-1.1","C31D4B38E6704E90AC16A6AD72180BD2","C31D4B38E6704E90AC16A6AD72180BD2","f1ca5dff-42df-436a-8d23-e0001a487759","93d27ed9-06b1-4109-8acc-030e53ea77d1","{""num_scrambled_semantic"":""8"",""num_scrambled_causal"":""4"",""num_scrambled_schematic"":""4"",""participantId"":""C31D4B38E6704E90AC16A6AD72180BD2"",""assignmentId"":""f1ca5dff-42df-436a-8d23-e0001a487759"",""projectId"":""93d27ed9-06b1-4109-8acc-030e53ea77d1""}","https://test12345.live/?num_scrambled_semantic=8&num_scrambled_causal=4&num_scrambled_schematic=4&participantId=C31D4B38E6704E90AC16A6AD72180BD2&assignmentId=f1ca5dff-42df-436a-8d23-e0001a487759&projectId=93d27ed9-06b1-4109-8acc-030e53ea77d1","C31D4B38E6704E90AC16A6AD72180BD2-2025-05-14-15-28-34","","2591","","images/semantic_sequence/market_semantic/market_semantic_3.png","1","",""
"","","","","","image-button-response","30","234973","0.0-10.0-1.0-2.1","C31D4B38E6704E90AC16A6AD72180BD2","C31D4B38E6704E90AC16A6AD72180BD2","f1ca5dff-42df-436a-8d23-e0001a487759","93d27ed9-06b1-4109-8acc-030e53ea77d1","{""num_scrambled_semantic"":""8"",""num_scrambled_causal"":""4"",""num_scrambled_schematic"":""4"",""participantId"":""C31D4B38E6704E90AC16A6AD72180BD2"",""assignmentId"":""f1ca5dff-42df-436a-8d23-e0001a487759"",""projectId"":""93d27ed9-06b1-4109-8acc-030e53ea77d1""}","https://test12345.live/?num_scrambled_semantic=8&num_scrambled_causal=4&num_scrambled_schematic=4&participantId=C31D4B38E6704E90AC16A6AD72180BD2&assignmentId=f1ca5dff-42df-436a-8d23-e0001a487759&projectId=93d27ed9-06b1-4109-8acc-030e53ea77d1","C31D4B38E6704E90AC16A6AD72180BD2-2025-05-14-15-28-34","","null","","[]","null","",""
"","","","","","image-button-response","31","239488","0.0-10.0-1.0-0.2","C31D4B38E6704E90AC16A6AD72180BD2","C31D4B38E6704E90AC16A6AD72180BD2","f1ca5dff-42df-436a-8d23-e0001a487759","93d27ed9-06b1-4109-8acc-030e53ea77d1","{""num_scrambled_semantic"":""8"",""num_scrambled_causal"":""4"",""num_scrambled_schematic"":""4"",""participantId"":""C31D4B38E6704E90AC16A6AD72180BD2"",""assignmentId"":""f1ca5dff-42df-436a-8d23-e0001a487759"",""projectId"":""93d27ed9-06b1-4109-8acc-030e53ea77d1""}","https://test12345.live/?num_scrambled_semantic=8&num_scrambled_causal=4&num_scrambled_schematic=4&participantId=C31D4B38E6704E90AC16A6AD72180BD2&assignmentId=f1ca5dff-42df-436a-8d23-e0001a487759&projectId=93d27ed9-06b1-4109-8acc-030e53ea77d1","C31D4B38E6704E90AC16A6AD72180BD2-2025-05-14-15-28-34","","null","","images/semantic_sequence/market_semantic/market_semantic_4.png","null","",""
"","","","","","image-button-response","32","240641","0.0-10.0-1.0-1.2","C31D4B38E6704E90AC16A6AD72180BD2","C31D4B38E6704E90AC16A6AD72180BD2","f1ca5dff-42df-436a-8d23-e0001a487759","93d27ed9-06b1-4109-8acc-030e53ea77d1","{""num_scrambled_semantic"":""8"",""num_scrambled_causal"":""4"",""num_scrambled_schematic"":""4"",""participantId"":""C31D4B38E6704E90AC16A6AD72180BD2"",""assignmentId"":""f1ca5dff-42df-436a-8d23-e0001a487759"",""projectId"":""93d27ed9-06b1-4109-8acc-030e53ea77d1""}","https://test12345.live/?num_scrambled_semantic=8&num_scrambled_causal=4&num_scrambled_schematic=4&participantId=C31D4B38E6704E90AC16A6AD72180BD2&assignmentId=f1ca5dff-42df-436a-8d23-e0001a487759&projectId=93d27ed9-06b1-4109-8acc-030e53ea77d1","C31D4B38E6704E90AC16A6AD72180BD2-2025-05-14-15-28-34","","1152","","images/semantic_sequence/market_semantic/market_semantic_4.png","0","",""
"","","","","","image-button-response","33","242453","0.0-10.0-1.0-2.2","C31D4B38E6704E90AC16A6AD72180BD2","C31D4B38E6704E90AC16A6AD72180BD2","f1ca5dff-42df-436a-8d23-e0001a487759","93d27ed9-06b1-4109-8acc-030e53ea77d1","{""num_scrambled_semantic"":""8"",""num_scrambled_causal"":""4"",""num_scrambled_schematic"":""4"",""participantId"":""C31D4B38E6704E90AC16A6AD72180BD2"",""assignmentId"":""f1ca5dff-42df-436a-8d23-e0001a487759"",""projectId"":""93d27ed9-06b1-4109-8acc-030e53ea77d1""}","https://test12345.live/?num_scrambled_semantic=8&num_scrambled_causal=4&num_scrambled_schematic=4&participantId=C31D4B38E6704E90AC16A6AD72180BD2&assignmentId=f1ca5dff-42df-436a-8d23-e0001a487759&projectId=93d27ed9-06b1-4109-8acc-030e53ea77d1","C31D4B38E6704E90AC16A6AD72180BD2-2025-05-14-15-28-34","","null","","[]","null","",""
"","","","","","image-button-response","34","246965","0.0-10.0-1.0-0.3","C31D4B38E6704E90AC16A6AD72180BD2","C31D4B38E6704E90AC16A6AD72180BD2","f1ca5dff-42df-436a-8d23-e0001a487759","93d27ed9-06b1-4109-8acc-030e53ea77d1","{""num_scrambled_semantic"":""8"",""num_scrambled_causal"":""4"",""num_scrambled_schematic"":""4"",""participantId"":""C31D4B38E6704E90AC16A6AD72180BD2"",""assignmentId"":""f1ca5dff-42df-436a-8d23-e0001a487759"",""projectId"":""93d27ed9-06b1-4109-8acc-030e53ea77d1""}","https://test12345.live/?num_scrambled_semantic=8&num_scrambled_causal=4&num_scrambled_schematic=4&participantId=C31D4B38E6704E90AC16A6AD72180BD2&assignmentId=f1ca5dff-42df-436a-8d23-e0001a487759&projectId=93d27ed9-06b1-4109-8acc-030e53ea77d1","C31D4B38E6704E90AC16A6AD72180BD2-2025-05-14-15-28-34","","null","","images/semantic_sequence/market_semantic/market_semantic_ten.png","null","",""
"","","","","","image-button-response","35","250971","0.0-10.0-1.0-1.3","C31D4B38E6704E90AC16A6AD72180BD2","C31D4B38E6704E90AC16A6AD72180BD2","f1ca5dff-42df-436a-8d23-e0001a487759","93d27ed9-06b1-4109-8acc-030e53ea77d1","{""num_scrambled_semantic"":""8"",""num_scrambled_causal"":""4"",""num_scrambled_schematic"":""4"",""participantId"":""C31D4B38E6704E90AC16A6AD72180BD2"",""assignmentId"":""f1ca5dff-42df-436a-8d23-e0001a487759"",""projectId"":""93d27ed9-06b1-4109-8acc-030e53ea77d1""}","https://test12345.live/?num_scrambled_semantic=8&num_scrambled_causal=4&num_scrambled_schematic=4&participantId=C31D4B38E6704E90AC16A6AD72180BD2&assignmentId=f1ca5dff-42df-436a-8d23-e0001a487759&projectId=93d27ed9-06b1-4109-8acc-030e53ea77d1","C31D4B38E6704E90AC16A6AD72180BD2-2025-05-14-15-28-34","","null","","images/semantic_sequence/market_semantic/market_semantic_ten.png","null","",""
"","","","","","image-button-response","36","252780","0.0-10.0-1.0-2.3","C31D4B38E6704E90AC16A6AD72180BD2","C31D4B38E6704E90AC16A6AD72180BD2","f1ca5dff-42df-436a-8d23-e0001a487759","93d27ed9-06b1-4109-8acc-030e53ea77d1","{""num_scrambled_semantic"":""8"",""num_scrambled_causal"":""4"",""num_scrambled_schematic"":""4"",""participantId"":""C31D4B38E6704E90AC16A6AD72180BD2"",""assignmentId"":""f1ca5dff-42df-436a-8d23-e0001a487759"",""projectId"":""93d27ed9-06b1-4109-8acc-030e53ea77d1""}","https://test12345.live/?num_scrambled_semantic=8&num_scrambled_causal=4&num_scrambled_schematic=4&participantId=C31D4B38E6704E90AC16A6AD72180BD2&assignmentId=f1ca5dff-42df-436a-8d23-e0001a487759&projectId=93d27ed9-06b1-4109-8acc-030e53ea77d1","C31D4B38E6704E90AC16A6AD72180BD2-2025-05-14-15-28-34","","null","","[]","null","",""
"","","","","","image-button-response","37","257286","0.0-10.0-1.0-0.4","C31D4B38E6704E90AC16A6AD72180BD2","C31D4B38E6704E90AC16A6AD72180BD2","f1ca5dff-42df-436a-8d23-e0001a487759","93d27ed9-06b1-4109-8acc-030e53ea77d1","{""num_scrambled_semantic"":""8"",""num_scrambled_causal"":""4"",""num_scrambled_schematic"":""4"",""participantId"":""C31D4B38E6704E90AC16A6AD72180BD2"",""assignmentId"":""f1ca5dff-42df-436a-8d23-e0001a487759"",""projectId"":""93d27ed9-06b1-4109-8acc-030e53ea77d1""}","https://test12345.live/?num_scrambled_semantic=8&num_scrambled_causal=4&num_scrambled_schematic=4&participantId=C31D4B38E6704E90AC16A6AD72180BD2&assignmentId=f1ca5dff-42df-436a-8d23-e0001a487759&projectId=93d27ed9-06b1-4109-8acc-030e53ea77d1","C31D4B38E6704E90AC16A6AD72180BD2-2025-05-14-15-28-34","","null","","images/semantic_sequence/market_semantic/market_semantic_9.png","null","",""
"","","","","","image-button-response","38","258941","0.0-10.0-1.0-1.4","C31D4B38E6704E90AC16A6AD72180BD2","C31D4B38E6704E90AC16A6AD72180BD2","f1ca5dff-42df-436a-8d23-e0001a487759","93d27ed9-06b1-4109-8acc-030e53ea77d1","{""num_scrambled_semantic"":""8"",""num_scrambled_causal"":""4"",""num_scrambled_schematic"":""4"",""participantId"":""C31D4B38E6704E90AC16A6AD72180BD2"",""assignmentId"":""f1ca5dff-42df-436a-8d23-e0001a487759"",""projectId"":""93d27ed9-06b1-4109-8acc-030e53ea77d1""}","https://test12345.live/?num_scrambled_semantic=8&num_scrambled_causal=4&num_scrambled_schematic=4&participantId=C31D4B38E6704E90AC16A6AD72180BD2&assignmentId=f1ca5dff-42df-436a-8d23-e0001a487759&projectId=93d27ed9-06b1-4109-8acc-030e53ea77d1","C31D4B38E6704E90AC16A6AD72180BD2-2025-05-14-15-28-34","","1654","","images/semantic_sequence/market_semantic/market_semantic_9.png","1","",""
"","","","","","image-button-response","39","260748","0.0-10.0-1.0-2.4","C31D4B38E6704E90AC16A6AD72180BD2","C31D4B38E6704E90AC16A6AD72180BD2","f1ca5dff-42df-436a-8d23-e0001a487759","93d27ed9-06b1-4109-8acc-030e53ea77d1","{""num_scrambled_semantic"":""8"",""num_scrambled_causal"":""4"",""num_scrambled_schematic"":""4"",""participantId"":""C31D4B38E6704E90AC16A6AD72180BD2"",""assignmentId"":""f1ca5dff-42df-436a-8d23-e0001a487759"",""projectId"":""93d27ed9-06b1-4109-8acc-030e53ea77d1""}","https://test12345.live/?num_scrambled_semantic=8&num_scrambled_causal=4&num_scrambled_schematic=4&participantId=C31D4B38E6704E90AC16A6AD72180BD2&assignmentId=f1ca5dff-42df-436a-8d23-e0001a487759&projectId=93d27ed9-06b1-4109-8acc-030e53ea77d1","C31D4B38E6704E90AC16A6AD72180BD2-2025-05-14-15-28-34","","null","","[]","null","",""
"","","","","","image-button-response","40","265255","0.0-10.0-1.0-0.5","C31D4B38E6704E90AC16A6AD72180BD2","C31D4B38E6704E90AC16A6AD72180BD2","f1ca5dff-42df-436a-8d23-e0001a487759","93d27ed9-06b1-4109-8acc-030e53ea77d1","{""num_scrambled_semantic"":""8"",""num_scrambled_causal"":""4"",""num_scrambled_schematic"":""4"",""participantId"":""C31D4B38E6704E90AC16A6AD72180BD2"",""assignmentId"":""f1ca5dff-42df-436a-8d23-e0001a487759"",""projectId"":""93d27ed9-06b1-4109-8acc-030e53ea77d1""}","https://test12345.live/?num_scrambled_semantic=8&num_scrambled_causal=4&num_scrambled_schematic=4&participantId=C31D4B38E6704E90AC16A6AD72180BD2&assignmentId=f1ca5dff-42df-436a-8d23-e0001a487759&projectId=93d27ed9-06b1-4109-8acc-030e53ea77d1","C31D4B38E6704E90AC16A6AD72180BD2-2025-05-14-15-28-34","","null","","images/semantic_sequence/market_semantic/market_semantic_1.png","null","",""
"","","","","","image-button-response","41","266197","0.0-10.0-1.0-1.5","C31D4B38E6704E90AC16A6AD72180BD2","C31D4B38E6704E90AC16A6AD72180BD2","f1ca5dff-42df-436a-8d23-e0001a487759","93d27ed9-06b1-4109-8acc-030e53ea77d1","{""num_scrambled_semantic"":""8"",""num_scrambled_causal"":""4"",""num_scrambled_schematic"":""4"",""participantId"":""C31D4B38E6704E90AC16A6AD72180BD2"",""assignmentId"":""f1ca5dff-42df-436a-8d23-e0001a487759"",""projectId"":""93d27ed9-06b1-4109-8acc-030e53ea77d1""}","https://test12345.live/?num_scrambled_semantic=8&num_scrambled_causal=4&num_scrambled_schematic=4&participantId=C31D4B38E6704E90AC16A6AD72180BD2&assignmentId=f1ca5dff-42df-436a-8d23-e0001a487759&projectId=93d27ed9-06b1-4109-8acc-030e53ea77d1","C31D4B38E6704E90AC16A6AD72180BD2-2025-05-14-15-28-34","","940","","images/semantic_sequence/market_semantic/market_semantic_1.png","1","",""
"","","","","","image-button-response","42","268016","0.0-10.0-1.0-2.5","C31D4B38E6704E90AC16A6AD72180BD2","C31D4B38E6704E90AC16A6AD72180BD2","f1ca5dff-42df-436a-8d23-e0001a487759","93d27ed9-06b1-4109-8acc-030e53ea77d1","{""num_scrambled_semantic"":""8"",""num_scrambled_causal"":""4"",""num_scrambled_schematic"":""4"",""participantId"":""C31D4B38E6704E90AC16A6AD72180BD2"",""assignmentId"":""f1ca5dff-42df-436a-8d23-e0001a487759"",""projectId"":""93d27ed9-06b1-4109-8acc-030e53ea77d1""}","https://test12345.live/?num_scrambled_semantic=8&num_scrambled_causal=4&num_scrambled_schematic=4&participantId=C31D4B38E6704E90AC16A6AD72180BD2&assignmentId=f1ca5dff-42df-436a-8d23-e0001a487759&projectId=93d27ed9-06b1-4109-8acc-030e53ea77d1","C31D4B38E6704E90AC16A6AD72180BD2-2025-05-14-15-28-34","","null","","[]","null","",""
"","","","","","image-button-response","43","272533","0.0-10.0-1.0-0.6","C31D4B38E6704E90AC16A6AD72180BD2","C31D4B38E6704E90AC16A6AD72180BD2","f1ca5dff-42df-436a-8d23-e0001a487759","93d27ed9-06b1-4109-8acc-030e53ea77d1","{""num_scrambled_semantic"":""8"",""num_scrambled_causal"":""4"",""num_scrambled_schematic"":""4"",""participantId"":""C31D4B38E6704E90AC16A6AD72180BD2"",""assignmentId"":""f1ca5dff-42df-436a-8d23-e0001a487759"",""projectId"":""93d27ed9-06b1-4109-8acc-030e53ea77d1""}","https://test12345.live/?num_scrambled_semantic=8&num_scrambled_causal=4&num_scrambled_schematic=4&participantId=C31D4B38E6704E90AC16A6AD72180BD2&assignmentId=f1ca5dff-42df-436a-8d23-e0001a487759&projectId=93d27ed9-06b1-4109-8acc-030e53ea77d1","C31D4B38E6704E90AC16A6AD72180BD2-2025-05-14-15-28-34","","null","","images/semantic_sequence/market_semantic/market_semantic_6.png","null","",""
"","","","","","image-button-response","44","275379","0.0-10.0-1.0-1.6","C31D4B38E6704E90AC16A6AD72180BD2","C31D4B38E6704E90AC16A6AD72180BD2","f1ca5dff-42df-436a-8d23-e0001a487759","93d27ed9-06b1-4109-8acc-030e53ea77d1","{""num_scrambled_semantic"":""8"",""num_scrambled_causal"":""4"",""num_scrambled_schematic"":""4"",""participantId"":""C31D4B38E6704E90AC16A6AD72180BD2"",""assignmentId"":""f1ca5dff-42df-436a-8d23-e0001a487759"",""projectId"":""93d27ed9-06b1-4109-8acc-030e53ea77d1""}","https://test12345.live/?num_scrambled_semantic=8&num_scrambled_causal=4&num_scrambled_schematic=4&participantId=C31D4B38E6704E90AC16A6AD72180BD2&assignmentId=f1ca5dff-42df-436a-8d23-e0001a487759&projectId=93d27ed9-06b1-4109-8acc-030e53ea77d1","C31D4B38E6704E90AC16A6AD72180BD2-2025-05-14-15-28-34","","2845","","images/semantic_sequence/market_semantic/market_semantic_6.png","1","",""
"","","","","","image-button-response","45","277180","0.0-10.0-1.0-2.6","C31D4B38E6704E90AC16A6AD72180BD2","C31D4B38E6704E90AC16A6AD72180BD2","f1ca5dff-42df-436a-8d23-e0001a487759","93d27ed9-06b1-4109-8acc-030e53ea77d1","{""num_scrambled_semantic"":""8"",""num_scrambled_causal"":""4"",""num_scrambled_schematic"":""4"",""participantId"":""C31D4B38E6704E90AC16A6AD72180BD2"",""assignmentId"":""f1ca5dff-42df-436a-8d23-e0001a487759"",""projectId"":""93d27ed9-06b1-4109-8acc-030e53ea77d1""}","https://test12345.live/?num_scrambled_semantic=8&num_scrambled_causal=4&num_scrambled_schematic=4&participantId=C31D4B38E6704E90AC16A6AD72180BD2&assignmentId=f1ca5dff-42df-436a-8d23-e0001a487759&projectId=93d27ed9-06b1-4109-8acc-030e53ea77d1","C31D4B38E6704E90AC16A6AD72180BD2-2025-05-14-15-28-34","","null","","[]","null","",""
"","","","","","image-button-response","46","281684","0.0-10.0-1.0-0.7","C31D4B38E6704E90AC16A6AD72180BD2","C31D4B38E6704E90AC16A6AD72180BD2","f1ca5dff-42df-436a-8d23-e0001a487759","93d27ed9-06b1-4109-8acc-030e53ea77d1","{""num_scrambled_semantic"":""8"",""num_scrambled_causal"":""4"",""num_scrambled_schematic"":""4"",""participantId"":""C31D4B38E6704E90AC16A6AD72180BD2"",""assignmentId"":""f1ca5dff-42df-436a-8d23-e0001a487759"",""projectId"":""93d27ed9-06b1-4109-8acc-030e53ea77d1""}","https://test12345.live/?num_scrambled_semantic=8&num_scrambled_causal=4&num_scrambled_schematic=4&participantId=C31D4B38E6704E90AC16A6AD72180BD2&assignmentId=f1ca5dff-42df-436a-8d23-e0001a487759&projectId=93d27ed9-06b1-4109-8acc-030e53ea77d1","C31D4B38E6704E90AC16A6AD72180BD2-2025-05-14-15-28-34","","null","","images/semantic_sequence/market_semantic/market_semantic_7.png","null","",""
"","","","","","image-button-response","47","283293","0.0-10.0-1.0-1.7","C31D4B38E6704E90AC16A6AD72180BD2","C31D4B38E6704E90AC16A6AD72180BD2","f1ca5dff-42df-436a-8d23-e0001a487759","93d27ed9-06b1-4109-8acc-030e53ea77d1","{""num_scrambled_semantic"":""8"",""num_scrambled_causal"":""4"",""num_scrambled_schematic"":""4"",""participantId"":""C31D4B38E6704E90AC16A6AD72180BD2"",""assignmentId"":""f1ca5dff-42df-436a-8d23-e0001a487759"",""projectId"":""93d27ed9-06b1-4109-8acc-030e53ea77d1""}","https://test12345.live/?num_scrambled_semantic=8&num_scrambled_causal=4&num_scrambled_schematic=4&participantId=C31D4B38E6704E90AC16A6AD72180BD2&assignmentId=f1ca5dff-42df-436a-8d23-e0001a487759&projectId=93d27ed9-06b1-4109-8acc-030e53ea77d1","C31D4B38E6704E90AC16A6AD72180BD2-2025-05-14-15-28-34","","1608","","images/semantic_sequence/market_semantic/market_semantic_7.png","0","",""
"","","","","","image-button-response","48","285095","0.0-10.0-1.0-2.7","C31D4B38E6704E90AC16A6AD72180BD2","C31D4B38E6704E90AC16A6AD72180BD2","f1ca5dff-42df-436a-8d23-e0001a487759","93d27ed9-06b1-4109-8acc-030e53ea77d1","{""num_scrambled_semantic"":""8"",""num_scrambled_causal"":""4"",""num_scrambled_schematic"":""4"",""participantId"":""C31D4B38E6704E90AC16A6AD72180BD2"",""assignmentId"":""f1ca5dff-42df-436a-8d23-e0001a487759"",""projectId"":""93d27ed9-06b1-4109-8acc-030e53ea77d1""}","https://test12345.live/?num_scrambled_semantic=8&num_scrambled_causal=4&num_scrambled_schematic=4&participantId=C31D4B38E6704E90AC16A6AD72180BD2&assignmentId=f1ca5dff-42df-436a-8d23-e0001a487759&projectId=93d27ed9-06b1-4109-8acc-030e53ea77d1","C31D4B38E6704E90AC16A6AD72180BD2-2025-05-14-15-28-34","","null","","[]","null","",""
"","","","","","image-button-response","49","289602","0.0-10.0-1.0-0.8","C31D4B38E6704E90AC16A6AD72180BD2","C31D4B38E6704E90AC16A6AD72180BD2","f1ca5dff-42df-436a-8d23-e0001a487759","93d27ed9-06b1-4109-8acc-030e53ea77d1","{""num_scrambled_semantic"":""8"",""num_scrambled_causal"":""4"",""num_scrambled_schematic"":""4"",""participantId"":""C31D4B38E6704E90AC16A6AD72180BD2"",""assignmentId"":""f1ca5dff-42df-436a-8d23-e0001a487759"",""projectId"":""93d27ed9-06b1-4109-8acc-030e53ea77d1""}","https://test12345.live/?num_scrambled_semantic=8&num_scrambled_causal=4&num_scrambled_schematic=4&participantId=C31D4B38E6704E90AC16A6AD72180BD2&assignmentId=f1ca5dff-42df-436a-8d23-e0001a487759&projectId=93d27ed9-06b1-4109-8acc-030e53ea77d1","C31D4B38E6704E90AC16A6AD72180BD2-2025-05-14-15-28-34","","null","","images/semantic_sequence/market_semantic/market_semantic_5.png","null","",""
"","","","","","image-button-response","50","291414","0.0-10.0-1.0-1.8","C31D4B38E6704E90AC16A6AD72180BD2","C31D4B38E6704E90AC16A6AD72180BD2","f1ca5dff-42df-436a-8d23-e0001a487759","93d27ed9-06b1-4109-8acc-030e53ea77d1","{""num_scrambled_semantic"":""8"",""num_scrambled_causal"":""4"",""num_scrambled_schematic"":""4"",""participantId"":""C31D4B38E6704E90AC16A6AD72180BD2"",""assignmentId"":""f1ca5dff-42df-436a-8d23-e0001a487759"",""projectId"":""93d27ed9-06b1-4109-8acc-030e53ea77d1""}","https://test12345.live/?num_scrambled_semantic=8&num_scrambled_causal=4&num_scrambled_schematic=4&participantId=C31D4B38E6704E90AC16A6AD72180BD2&assignmentId=f1ca5dff-42df-436a-8d23-e0001a487759&projectId=93d27ed9-06b1-4109-8acc-030e53ea77d1","C31D4B38E6704E90AC16A6AD72180BD2-2025-05-14-15-28-34","","1811","","images/semantic_sequence/market_semantic/market_semantic_5.png","1","",""
"","","","","","image-button-response","51","293227","0.0-10.0-1.0-2.8","C31D4B38E6704E90AC16A6AD72180BD2","C31D4B38E6704E90AC16A6AD72180BD2","f1ca5dff-42df-436a-8d23-e0001a487759","93d27ed9-06b1-4109-8acc-030e53ea77d1","{""num_scrambled_semantic"":""8"",""num_scrambled_causal"":""4"",""num_scrambled_schematic"":""4"",""participantId"":""C31D4B38E6704E90AC16A6AD72180BD2"",""assignmentId"":""f1ca5dff-42df-436a-8d23-e0001a487759"",""projectId"":""93d27ed9-06b1-4109-8acc-030e53ea77d1""}","https://test12345.live/?num_scrambled_semantic=8&num_scrambled_causal=4&num_scrambled_schematic=4&participantId=C31D4B38E6704E90AC16A6AD72180BD2&assignmentId=f1ca5dff-42df-436a-8d23-e0001a487759&projectId=93d27ed9-06b1-4109-8acc-030e53ea77d1","C31D4B38E6704E90AC16A6AD72180BD2-2025-05-14-15-28-34","","null","","[]","null","",""
"","","","","","image-button-response","52","297739","0.0-10.0-1.0-0.9","C31D4B38E6704E90AC16A6AD72180BD2","C31D4B38E6704E90AC16A6AD72180BD2","f1ca5dff-42df-436a-8d23-e0001a487759","93d27ed9-06b1-4109-8acc-030e53ea77d1","{""num_scrambled_semantic"":""8"",""num_scrambled_causal"":""4"",""num_scrambled_schematic"":""4"",""participantId"":""C31D4B38E6704E90AC16A6AD72180BD2"",""assignmentId"":""f1ca5dff-42df-436a-8d23-e0001a487759"",""projectId"":""93d27ed9-06b1-4109-8acc-030e53ea77d1""}","https://test12345.live/?num_scrambled_semantic=8&num_scrambled_causal=4&num_scrambled_schematic=4&participantId=C31D4B38E6704E90AC16A6AD72180BD2&assignmentId=f1ca5dff-42df-436a-8d23-e0001a487759&projectId=93d27ed9-06b1-4109-8acc-030e53ea77d1","C31D4B38E6704E90AC16A6AD72180BD2-2025-05-14-15-28-34","","null","","images/semantic_sequence/market_semantic/market_semantic_8.png","null","",""
"","","","","","image-button-response","53","299795","0.0-10.0-1.0-1.9","C31D4B38E6704E90AC16A6AD72180BD2","C31D4B38E6704E90AC16A6AD72180BD2","f1ca5dff-42df-436a-8d23-e0001a487759","93d27ed9-06b1-4109-8acc-030e53ea77d1","{""num_scrambled_semantic"":""8"",""num_scrambled_causal"":""4"",""num_scrambled_schematic"":""4"",""participantId"":""C31D4B38E6704E90AC16A6AD72180BD2"",""assignmentId"":""f1ca5dff-42df-436a-8d23-e0001a487759"",""projectId"":""93d27ed9-06b1-4109-8acc-030e53ea77d1""}","https://test12345.live/?num_scrambled_semantic=8&num_scrambled_causal=4&num_scrambled_schematic=4&participantId=C31D4B38E6704E90AC16A6AD72180BD2&assignmentId=f1ca5dff-42df-436a-8d23-e0001a487759&projectId=93d27ed9-06b1-4109-8acc-030e53ea77d1","C31D4B38E6704E90AC16A6AD72180BD2-2025-05-14-15-28-34","","2055","","images/semantic_sequence/market_semantic/market_semantic_8.png","1","",""
"","","","","","image-button-response","54","301607","0.0-10.0-1.0-2.9","C31D4B38E6704E90AC16A6AD72180BD2","C31D4B38E6704E90AC16A6AD72180BD2","f1ca5dff-42df-436a-8d23-e0001a487759","93d27ed9-06b1-4109-8acc-030e53ea77d1","{""num_scrambled_semantic"":""8"",""num_scrambled_causal"":""4"",""num_scrambled_schematic"":""4"",""participantId"":""C31D4B38E6704E90AC16A6AD72180BD2"",""assignmentId"":""f1ca5dff-42df-436a-8d23-e0001a487759"",""projectId"":""93d27ed9-06b1-4109-8acc-030e53ea77d1""}","https://test12345.live/?num_scrambled_semantic=8&num_scrambled_causal=4&num_scrambled_schematic=4&participantId=C31D4B38E6704E90AC16A6AD72180BD2&assignmentId=f1ca5dff-42df-436a-8d23-e0001a487759&projectId=93d27ed9-06b1-4109-8acc-030e53ea77d1","C31D4B38E6704E90AC16A6AD72180BD2-2025-05-14-15-28-34","","null","","[]","null","",""
"","","","","","html-audio-response","55","328868","0.0-11.0","C31D4B38E6704E90AC16A6AD72180BD2","C31D4B38E6704E90AC16A6AD72180BD2","f1ca5dff-42df-436a-8d23-e0001a487759","93d27ed9-06b1-4109-8acc-030e53ea77d1","{""num_scrambled_semantic"":""8"",""num_scrambled_causal"":""4"",""num_scrambled_schematic"":""4"",""participantId"":""C31D4B38E6704E90AC16A6AD72180BD2"",""assignmentId"":""f1ca5dff-42df-436a-8d23-e0001a487759"",""projectId"":""93d27ed9-06b1-4109-8acc-030e53ea77d1""}","https://test12345.live/?num_scrambled_semantic=8&num_scrambled_causal=4&num_scrambled_schematic=4&participantId=C31D4B38E6704E90AC16A6AD72180BD2&assignmentId=f1ca5dff-42df-436a-8d23-e0001a487759&projectId=93d27ed9-06b1-4109-8acc-030e53ea77d1","C31D4B38E6704E90AC16A6AD72180BD2-2025-05-14-15-28-34","","26080","","[""<span style=\""color: red; font-size: 24px\""> NOW RECORDING</span><p>Please say out loud all the images you saw, as many as you can remember. The images can be said in any order.</p>""]","","1","market_semantic"
"","","","","","image-button-response","56","334876","0.0-12.0-0.0","C31D4B38E6704E90AC16A6AD72180BD2","C31D4B38E6704E90AC16A6AD72180BD2","f1ca5dff-42df-436a-8d23-e0001a487759","93d27ed9-06b1-4109-8acc-030e53ea77d1","{""num_scrambled_semantic"":""8"",""num_scrambled_causal"":""4"",""num_scrambled_schematic"":""4"",""participantId"":""C31D4B38E6704E90AC16A6AD72180BD2"",""assignmentId"":""f1ca5dff-42df-436a-8d23-e0001a487759"",""projectId"":""93d27ed9-06b1-4109-8acc-030e53ea77d1""}","https://test12345.live/?num_scrambled_semantic=8&num_scrambled_causal=4&num_scrambled_schematic=4&participantId=C31D4B38E6704E90AC16A6AD72180BD2&assignmentId=f1ca5dff-42df-436a-8d23-e0001a487759&projectId=93d27ed9-06b1-4109-8acc-030e53ea77d1","C31D4B38E6704E90AC16A6AD72180BD2-2025-05-14-15-28-34","","null","","images/semantic_sequence/physical_activity_semantic/physical_activity_semantic_0.png","null","",""
"","","","","","image-button-response","57","339388","0.0-12.0-1.0-0.0","C31D4B38E6704E90AC16A6AD72180BD2","C31D4B38E6704E90AC16A6AD72180BD2","f1ca5dff-42df-436a-8d23-e0001a487759","93d27ed9-06b1-4109-8acc-030e53ea77d1","{""num_scrambled_semantic"":""8"",""num_scrambled_causal"":""4"",""num_scrambled_schematic"":""4"",""participantId"":""C31D4B38E6704E90AC16A6AD72180BD2"",""assignmentId"":""f1ca5dff-42df-436a-8d23-e0001a487759"",""projectId"":""93d27ed9-06b1-4109-8acc-030e53ea77d1""}","https://test12345.live/?num_scrambled_semantic=8&num_scrambled_causal=4&num_scrambled_schematic=4&participantId=C31D4B38E6704E90AC16A6AD72180BD2&assignmentId=f1ca5dff-42df-436a-8d23-e0001a487759&projectId=93d27ed9-06b1-4109-8acc-030e53ea77d1","C31D4B38E6704E90AC16A6AD72180BD2-2025-05-14-15-28-34","","null","","images/semantic_sequence/physical_activity_semantic/physical_activity_semantic_1.png","null","",""
"","","","","","image-button-response","58","341030","0.0-12.0-1.0-1.0","C31D4B38E6704E90AC16A6AD72180BD2","C31D4B38E6704E90AC16A6AD72180BD2","f1ca5dff-42df-436a-8d23-e0001a487759","93d27ed9-06b1-4109-8acc-030e53ea77d1","{""num_scrambled_semantic"":""8"",""num_scrambled_causal"":""4"",""num_scrambled_schematic"":""4"",""participantId"":""C31D4B38E6704E90AC16A6AD72180BD2"",""assignmentId"":""f1ca5dff-42df-436a-8d23-e0001a487759"",""projectId"":""93d27ed9-06b1-4109-8acc-030e53ea77d1""}","https://test12345.live/?num_scrambled_semantic=8&num_scrambled_causal=4&num_scrambled_schematic=4&participantId=C31D4B38E6704E90AC16A6AD72180BD2&assignmentId=f1ca5dff-42df-436a-8d23-e0001a487759&projectId=93d27ed9-06b1-4109-8acc-030e53ea77d1","C31D4B38E6704E90AC16A6AD72180BD2-2025-05-14-15-28-34","","1641","","images/semantic_sequence/physical_activity_semantic/physical_activity_semantic_1.png","0","",""
"","","","","","image-button-response","59","342834","0.0-12.0-1.0-2.0","C31D4B38E6704E90AC16A6AD72180BD2","C31D4B38E6704E90AC16A6AD72180BD2","f1ca5dff-42df-436a-8d23-e0001a487759","93d27ed9-06b1-4109-8acc-030e53ea77d1","{""num_scrambled_semantic"":""8"",""num_scrambled_causal"":""4"",""num_scrambled_schematic"":""4"",""participantId"":""C31D4B38E6704E90AC16A6AD72180BD2"",""assignmentId"":""f1ca5dff-42df-436a-8d23-e0001a487759"",""projectId"":""93d27ed9-06b1-4109-8acc-030e53ea77d1""}","https://test12345.live/?num_scrambled_semantic=8&num_scrambled_causal=4&num_scrambled_schematic=4&participantId=C31D4B38E6704E90AC16A6AD72180BD2&assignmentId=f1ca5dff-42df-436a-8d23-e0001a487759&projectId=93d27ed9-06b1-4109-8acc-030e53ea77d1","C31D4B38E6704E90AC16A6AD72180BD2-2025-05-14-15-28-34","","null","","[]","null","",""
"","","","","","image-button-response","60","347350","0.0-12.0-1.0-0.1","C31D4B38E6704E90AC16A6AD72180BD2","C31D4B38E6704E90AC16A6AD72180BD2","f1ca5dff-42df-436a-8d23-e0001a487759","93d27ed9-06b1-4109-8acc-030e53ea77d1","{""num_scrambled_semantic"":""8"",""num_scrambled_causal"":""4"",""num_scrambled_schematic"":""4"",""participantId"":""C31D4B38E6704E90AC16A6AD72180BD2"",""assignmentId"":""f1ca5dff-42df-436a-8d23-e0001a487759"",""projectId"":""93d27ed9-06b1-4109-8acc-030e53ea77d1""}","https://test12345.live/?num_scrambled_semantic=8&num_scrambled_causal=4&num_scrambled_schematic=4&participantId=C31D4B38E6704E90AC16A6AD72180BD2&assignmentId=f1ca5dff-42df-436a-8d23-e0001a487759&projectId=93d27ed9-06b1-4109-8acc-030e53ea77d1","C31D4B38E6704E90AC16A6AD72180BD2-2025-05-14-15-28-34","","null","","images/semantic_sequence/physical_activity_semantic/physical_activity_semantic_2.png","null","",""
"","","","","","image-button-response","61","348384","0.0-12.0-1.0-1.1","C31D4B38E6704E90AC16A6AD72180BD2","C31D4B38E6704E90AC16A6AD72180BD2","f1ca5dff-42df-436a-8d23-e0001a487759","93d27ed9-06b1-4109-8acc-030e53ea77d1","{""num_scrambled_semantic"":""8"",""num_scrambled_causal"":""4"",""num_scrambled_schematic"":""4"",""participantId"":""C31D4B38E6704E90AC16A6AD72180BD2"",""assignmentId"":""f1ca5dff-42df-436a-8d23-e0001a487759"",""projectId"":""93d27ed9-06b1-4109-8acc-030e53ea77d1""}","https://test12345.live/?num_scrambled_semantic=8&num_scrambled_causal=4&num_scrambled_schematic=4&participantId=C31D4B38E6704E90AC16A6AD72180BD2&assignmentId=f1ca5dff-42df-436a-8d23-e0001a487759&projectId=93d27ed9-06b1-4109-8acc-030e53ea77d1","C31D4B38E6704E90AC16A6AD72180BD2-2025-05-14-15-28-34","","1032","","images/semantic_sequence/physical_activity_semantic/physical_activity_semantic_2.png","0","",""
"","","","","","image-button-response","62","350185","0.0-12.0-1.0-2.1","C31D4B38E6704E90AC16A6AD72180BD2","C31D4B38E6704E90AC16A6AD72180BD2","f1ca5dff-42df-436a-8d23-e0001a487759","93d27ed9-06b1-4109-8acc-030e53ea77d1","{""num_scrambled_semantic"":""8"",""num_scrambled_causal"":""4"",""num_scrambled_schematic"":""4"",""participantId"":""C31D4B38E6704E90AC16A6AD72180BD2"",""assignmentId"":""f1ca5dff-42df-436a-8d23-e0001a487759"",""projectId"":""93d27ed9-06b1-4109-8acc-030e53ea77d1""}","https://test12345.live/?num_scrambled_semantic=8&num_scrambled_causal=4&num_scrambled_schematic=4&participantId=C31D4B38E6704E90AC16A6AD72180BD2&assignmentId=f1ca5dff-42df-436a-8d23-e0001a487759&projectId=93d27ed9-06b1-4109-8acc-030e53ea77d1","C31D4B38E6704E90AC16A6AD72180BD2-2025-05-14-15-28-34","","null","","[]","null","",""
"","","","","","image-button-response","63","354692","0.0-12.0-1.0-0.2","C31D4B38E6704E90AC16A6AD72180BD2","C31D4B38E6704E90AC16A6AD72180BD2","f1ca5dff-42df-436a-8d23-e0001a487759","93d27ed9-06b1-4109-8acc-030e53ea77d1","{""num_scrambled_semantic"":""8"",""num_scrambled_causal"":""4"",""num_scrambled_schematic"":""4"",""participantId"":""C31D4B38E6704E90AC16A6AD72180BD2"",""assignmentId"":""f1ca5dff-42df-436a-8d23-e0001a487759"",""projectId"":""93d27ed9-06b1-4109-8acc-030e53ea77d1""}","https://test12345.live/?num_scrambled_semantic=8&num_scrambled_causal=4&num_scrambled_schematic=4&participantId=C31D4B38E6704E90AC16A6AD72180BD2&assignmentId=f1ca5dff-42df-436a-8d23-e0001a487759&projectId=93d27ed9-06b1-4109-8acc-030e53ea77d1","C31D4B38E6704E90AC16A6AD72180BD2-2025-05-14-15-28-34","","null","","images/semantic_sequence/physical_activity_semantic/physical_activity_semantic_3.png","null","",""
"","","","","","image-button-response","64","355692","0.0-12.0-1.0-1.2","C31D4B38E6704E90AC16A6AD72180BD2","C31D4B38E6704E90AC16A6AD72180BD2","f1ca5dff-42df-436a-8d23-e0001a487759","93d27ed9-06b1-4109-8acc-030e53ea77d1","{""num_scrambled_semantic"":""8"",""num_scrambled_causal"":""4"",""num_scrambled_schematic"":""4"",""participantId"":""C31D4B38E6704E90AC16A6AD72180BD2"",""assignmentId"":""f1ca5dff-42df-436a-8d23-e0001a487759"",""projectId"":""93d27ed9-06b1-4109-8acc-030e53ea77d1""}","https://test12345.live/?num_scrambled_semantic=8&num_scrambled_causal=4&num_scrambled_schematic=4&participantId=C31D4B38E6704E90AC16A6AD72180BD2&assignmentId=f1ca5dff-42df-436a-8d23-e0001a487759&projectId=93d27ed9-06b1-4109-8acc-030e53ea77d1","C31D4B38E6704E90AC16A6AD72180BD2-2025-05-14-15-28-34","","998","","images/semantic_sequence/physical_activity_semantic/physical_activity_semantic_3.png","0","",""
"","","","","","image-button-response","65","357508","0.0-12.0-1.0-2.2","C31D4B38E6704E90AC16A6AD72180BD2","C31D4B38E6704E90AC16A6AD72180BD2","f1ca5dff-42df-436a-8d23-e0001a487759","93d27ed9-06b1-4109-8acc-030e53ea77d1","{""num_scrambled_semantic"":""8"",""num_scrambled_causal"":""4"",""num_scrambled_schematic"":""4"",""participantId"":""C31D4B38E6704E90AC16A6AD72180BD2"",""assignmentId"":""f1ca5dff-42df-436a-8d23-e0001a487759"",""projectId"":""93d27ed9-06b1-4109-8acc-030e53ea77d1""}","https://test12345.live/?num_scrambled_semantic=8&num_scrambled_causal=4&num_scrambled_schematic=4&participantId=C31D4B38E6704E90AC16A6AD72180BD2&assignmentId=f1ca5dff-42df-436a-8d23-e0001a487759&projectId=93d27ed9-06b1-4109-8acc-030e53ea77d1","C31D4B38E6704E90AC16A6AD72180BD2-2025-05-14-15-28-34","","null","","[]","null","",""
"","","","","","image-button-response","66","362023","0.0-12.0-1.0-0.3","C31D4B38E6704E90AC16A6AD72180BD2","C31D4B38E6704E90AC16A6AD72180BD2","f1ca5dff-42df-436a-8d23-e0001a487759","93d27ed9-06b1-4109-8acc-030e53ea77d1","{""num_scrambled_semantic"":""8"",""num_scrambled_causal"":""4"",""num_scrambled_schematic"":""4"",""participantId"":""C31D4B38E6704E90AC16A6AD72180BD2"",""assignmentId"":""f1ca5dff-42df-436a-8d23-e0001a487759"",""projectId"":""93d27ed9-06b1-4109-8acc-030e53ea77d1""}","https://test12345.live/?num_scrambled_semantic=8&num_scrambled_causal=4&num_scrambled_schematic=4&participantId=C31D4B38E6704E90AC16A6AD72180BD2&assignmentId=f1ca5dff-42df-436a-8d23-e0001a487759&projectId=93d27ed9-06b1-4109-8acc-030e53ea77d1","C31D4B38E6704E90AC16A6AD72180BD2-2025-05-14-15-28-34","","null","","images/semantic_sequence/physical_activity_semantic/physical_activity_semantic_4.png","null","",""
"","","","","","image-button-response","67","362754","0.0-12.0-1.0-1.3","C31D4B38E6704E90AC16A6AD72180BD2","C31D4B38E6704E90AC16A6AD72180BD2","f1ca5dff-42df-436a-8d23-e0001a487759","93d27ed9-06b1-4109-8acc-030e53ea77d1","{""num_scrambled_semantic"":""8"",""num_scrambled_causal"":""4"",""num_scrambled_schematic"":""4"",""participantId"":""C31D4B38E6704E90AC16A6AD72180BD2"",""assignmentId"":""f1ca5dff-42df-436a-8d23-e0001a487759"",""projectId"":""93d27ed9-06b1-4109-8acc-030e53ea77d1""}","https://test12345.live/?num_scrambled_semantic=8&num_scrambled_causal=4&num_scrambled_schematic=4&participantId=C31D4B38E6704E90AC16A6AD72180BD2&assignmentId=f1ca5dff-42df-436a-8d23-e0001a487759&projectId=93d27ed9-06b1-4109-8acc-030e53ea77d1","C31D4B38E6704E90AC16A6AD72180BD2-2025-05-14-15-28-34","","730","","images/semantic_sequence/physical_activity_semantic/physical_activity_semantic_4.png","0","",""
"","","","","","image-button-response","68","364562","0.0-12.0-1.0-2.3","C31D4B38E6704E90AC16A6AD72180BD2","C31D4B38E6704E90AC16A6AD72180BD2","f1ca5dff-42df-436a-8d23-e0001a487759","93d27ed9-06b1-4109-8acc-030e53ea77d1","{""num_scrambled_semantic"":""8"",""num_scrambled_causal"":""4"",""num_scrambled_schematic"":""4"",""participantId"":""C31D4B38E6704E90AC16A6AD72180BD2"",""assignmentId"":""f1ca5dff-42df-436a-8d23-e0001a487759"",""projectId"":""93d27ed9-06b1-4109-8acc-030e53ea77d1""}","https://test12345.live/?num_scrambled_semantic=8&num_scrambled_causal=4&num_scrambled_schematic=4&participantId=C31D4B38E6704E90AC16A6AD72180BD2&assignmentId=f1ca5dff-42df-436a-8d23-e0001a487759&projectId=93d27ed9-06b1-4109-8acc-030e53ea77d1","C31D4B38E6704E90AC16A6AD72180BD2-2025-05-14-15-28-34","","null","","[]","null","",""
"","","","","","image-button-response","69","369063","0.0-12.0-1.0-0.4","C31D4B38E6704E90AC16A6AD72180BD2","C31D4B38E6704E90AC16A6AD72180BD2","f1ca5dff-42df-436a-8d23-e0001a487759","93d27ed9-06b1-4109-8acc-030e53ea77d1","{""num_scrambled_semantic"":""8"",""num_scrambled_causal"":""4"",""num_scrambled_schematic"":""4"",""participantId"":""C31D4B38E6704E90AC16A6AD72180BD2"",""assignmentId"":""f1ca5dff-42df-436a-8d23-e0001a487759"",""projectId"":""93d27ed9-06b1-4109-8acc-030e53ea77d1""}","https://test12345.live/?num_scrambled_semantic=8&num_scrambled_causal=4&num_scrambled_schematic=4&participantId=C31D4B38E6704E90AC16A6AD72180BD2&assignmentId=f1ca5dff-42df-436a-8d23-e0001a487759&projectId=93d27ed9-06b1-4109-8acc-030e53ea77d1","C31D4B38E6704E90AC16A6AD72180BD2-2025-05-14-15-28-34","","null","","images/semantic_sequence/physical_activity_semantic/physical_activity_semantic_5.png","null","",""
"","","","","","image-button-response","70","370137","0.0-12.0-1.0-1.4","C31D4B38E6704E90AC16A6AD72180BD2","C31D4B38E6704E90AC16A6AD72180BD2","f1ca5dff-42df-436a-8d23-e0001a487759","93d27ed9-06b1-4109-8acc-030e53ea77d1","{""num_scrambled_semantic"":""8"",""num_scrambled_causal"":""4"",""num_scrambled_schematic"":""4"",""participantId"":""C31D4B38E6704E90AC16A6AD72180BD2"",""assignmentId"":""f1ca5dff-42df-436a-8d23-e0001a487759"",""projectId"":""93d27ed9-06b1-4109-8acc-030e53ea77d1""}","https://test12345.live/?num_scrambled_semantic=8&num_scrambled_causal=4&num_scrambled_schematic=4&participantId=C31D4B38E6704E90AC16A6AD72180BD2&assignmentId=f1ca5dff-42df-436a-8d23-e0001a487759&projectId=93d27ed9-06b1-4109-8acc-030e53ea77d1","C31D4B38E6704E90AC16A6AD72180BD2-2025-05-14-15-28-34","","1073","","images/semantic_sequence/physical_activity_semantic/physical_activity_semantic_5.png","0","",""
"","","","","","image-button-response","71","371947","0.0-12.0-1.0-2.4","C31D4B38E6704E90AC16A6AD72180BD2","C31D4B38E6704E90AC16A6AD72180BD2","f1ca5dff-42df-436a-8d23-e0001a487759","93d27ed9-06b1-4109-8acc-030e53ea77d1","{""num_scrambled_semantic"":""8"",""num_scrambled_causal"":""4"",""num_scrambled_schematic"":""4"",""participantId"":""C31D4B38E6704E90AC16A6AD72180BD2"",""assignmentId"":""f1ca5dff-42df-436a-8d23-e0001a487759"",""projectId"":""93d27ed9-06b1-4109-8acc-030e53ea77d1""}","https://test12345.live/?num_scrambled_semantic=8&num_scrambled_causal=4&num_scrambled_schematic=4&participantId=C31D4B38E6704E90AC16A6AD72180BD2&assignmentId=f1ca5dff-42df-436a-8d23-e0001a487759&projectId=93d27ed9-06b1-4109-8acc-030e53ea77d1","C31D4B38E6704E90AC16A6AD72180BD2-2025-05-14-15-28-34","","null","","[]","null","",""
"","","","","","image-button-response","72","376462","0.0-12.0-1.0-0.5","C31D4B38E6704E90AC16A6AD72180BD2","C31D4B38E6704E90AC16A6AD72180BD2","f1ca5dff-42df-436a-8d23-e0001a487759","93d27ed9-06b1-4109-8acc-030e53ea77d1","{""num_scrambled_semantic"":""8"",""num_scrambled_causal"":""4"",""num_scrambled_schematic"":""4"",""participantId"":""C31D4B38E6704E90AC16A6AD72180BD2"",""assignmentId"":""f1ca5dff-42df-436a-8d23-e0001a487759"",""projectId"":""93d27ed9-06b1-4109-8acc-030e53ea77d1""}","https://test12345.live/?num_scrambled_semantic=8&num_scrambled_causal=4&num_scrambled_schematic=4&participantId=C31D4B38E6704E90AC16A6AD72180BD2&assignmentId=f1ca5dff-42df-436a-8d23-e0001a487759&projectId=93d27ed9-06b1-4109-8acc-030e53ea77d1","C31D4B38E6704E90AC16A6AD72180BD2-2025-05-14-15-28-34","","null","","images/semantic_sequence/physical_activity_semantic/physical_activity_semantic_6.png","null","",""
"","","","","","image-button-response","73","377161","0.0-12.0-1.0-1.5","C31D4B38E6704E90AC16A6AD72180BD2","C31D4B38E6704E90AC16A6AD72180BD2","f1ca5dff-42df-436a-8d23-e0001a487759","93d27ed9-06b1-4109-8acc-030e53ea77d1","{""num_scrambled_semantic"":""8"",""num_scrambled_causal"":""4"",""num_scrambled_schematic"":""4"",""participantId"":""C31D4B38E6704E90AC16A6AD72180BD2"",""assignmentId"":""f1ca5dff-42df-436a-8d23-e0001a487759"",""projectId"":""93d27ed9-06b1-4109-8acc-030e53ea77d1""}","https://test12345.live/?num_scrambled_semantic=8&num_scrambled_causal=4&num_scrambled_schematic=4&participantId=C31D4B38E6704E90AC16A6AD72180BD2&assignmentId=f1ca5dff-42df-436a-8d23-e0001a487759&projectId=93d27ed9-06b1-4109-8acc-030e53ea77d1","C31D4B38E6704E90AC16A6AD72180BD2-2025-05-14-15-28-34","","698","","images/semantic_sequence/physical_activity_semantic/physical_activity_semantic_6.png","0","",""
"","","","","","image-button-response","74","378963","0.0-12.0-1.0-2.5","C31D4B38E6704E90AC16A6AD72180BD2","C31D4B38E6704E90AC16A6AD72180BD2","f1ca5dff-42df-436a-8d23-e0001a487759","93d27ed9-06b1-4109-8acc-030e53ea77d1","{""num_scrambled_semantic"":""8"",""num_scrambled_causal"":""4"",""num_scrambled_schematic"":""4"",""participantId"":""C31D4B38E6704E90AC16A6AD72180BD2"",""assignmentId"":""f1ca5dff-42df-436a-8d23-e0001a487759"",""projectId"":""93d27ed9-06b1-4109-8acc-030e53ea77d1""}","https://test12345.live/?num_scrambled_semantic=8&num_scrambled_causal=4&num_scrambled_schematic=4&participantId=C31D4B38E6704E90AC16A6AD72180BD2&assignmentId=f1ca5dff-42df-436a-8d23-e0001a487759&projectId=93d27ed9-06b1-4109-8acc-030e53ea77d1","C31D4B38E6704E90AC16A6AD72180BD2-2025-05-14-15-28-34","","null","","[]","null","",""
"","","","","","image-button-response","75","383474","0.0-12.0-1.0-0.6","C31D4B38E6704E90AC16A6AD72180BD2","C31D4B38E6704E90AC16A6AD72180BD2","f1ca5dff-42df-436a-8d23-e0001a487759","93d27ed9-06b1-4109-8acc-030e53ea77d1","{""num_scrambled_semantic"":""8"",""num_scrambled_causal"":""4"",""num_scrambled_schematic"":""4"",""participantId"":""C31D4B38E6704E90AC16A6AD72180BD2"",""assignmentId"":""f1ca5dff-42df-436a-8d23-e0001a487759"",""projectId"":""93d27ed9-06b1-4109-8acc-030e53ea77d1""}","https://test12345.live/?num_scrambled_semantic=8&num_scrambled_causal=4&num_scrambled_schematic=4&participantId=C31D4B38E6704E90AC16A6AD72180BD2&assignmentId=f1ca5dff-42df-436a-8d23-e0001a487759&projectId=93d27ed9-06b1-4109-8acc-030e53ea77d1","C31D4B38E6704E90AC16A6AD72180BD2-2025-05-14-15-28-34","","null","","images/semantic_sequence/physical_activity_semantic/physical_activity_semantic_7.png","null","",""
"","","","","","image-button-response","76","384246","0.0-12.0-1.0-1.6","C31D4B38E6704E90AC16A6AD72180BD2","C31D4B38E6704E90AC16A6AD72180BD2","f1ca5dff-42df-436a-8d23-e0001a487759","93d27ed9-06b1-4109-8acc-030e53ea77d1","{""num_scrambled_semantic"":""8"",""num_scrambled_causal"":""4"",""num_scrambled_schematic"":""4"",""participantId"":""C31D4B38E6704E90AC16A6AD72180BD2"",""assignmentId"":""f1ca5dff-42df-436a-8d23-e0001a487759"",""projectId"":""93d27ed9-06b1-4109-8acc-030e53ea77d1""}","https://test12345.live/?num_scrambled_semantic=8&num_scrambled_causal=4&num_scrambled_schematic=4&participantId=C31D4B38E6704E90AC16A6AD72180BD2&assignmentId=f1ca5dff-42df-436a-8d23-e0001a487759&projectId=93d27ed9-06b1-4109-8acc-030e53ea77d1","C31D4B38E6704E90AC16A6AD72180BD2-2025-05-14-15-28-34","","770","","images/semantic_sequence/physical_activity_semantic/physical_activity_semantic_7.png","0","",""
"","","","","","image-button-response","77","386054","0.0-12.0-1.0-2.6","C31D4B38E6704E90AC16A6AD72180BD2","C31D4B38E6704E90AC16A6AD72180BD2","f1ca5dff-42df-436a-8d23-e0001a487759","93d27ed9-06b1-4109-8acc-030e53ea77d1","{""num_scrambled_semantic"":""8"",""num_scrambled_causal"":""4"",""num_scrambled_schematic"":""4"",""participantId"":""C31D4B38E6704E90AC16A6AD72180BD2"",""assignmentId"":""f1ca5dff-42df-436a-8d23-e0001a487759"",""projectId"":""93d27ed9-06b1-4109-8acc-030e53ea77d1""}","https://test12345.live/?num_scrambled_semantic=8&num_scrambled_causal=4&num_scrambled_schematic=4&participantId=C31D4B38E6704E90AC16A6AD72180BD2&assignmentId=f1ca5dff-42df-436a-8d23-e0001a487759&projectId=93d27ed9-06b1-4109-8acc-030e53ea77d1","C31D4B38E6704E90AC16A6AD72180BD2-2025-05-14-15-28-34","","null","","[]","null","",""
"","","","","","image-button-response","78","390558","0.0-12.0-1.0-0.7","C31D4B38E6704E90AC16A6AD72180BD2","C31D4B38E6704E90AC16A6AD72180BD2","f1ca5dff-42df-436a-8d23-e0001a487759","93d27ed9-06b1-4109-8acc-030e53ea77d1","{""num_scrambled_semantic"":""8"",""num_scrambled_causal"":""4"",""num_scrambled_schematic"":""4"",""participantId"":""C31D4B38E6704E90AC16A6AD72180BD2"",""assignmentId"":""f1ca5dff-42df-436a-8d23-e0001a487759"",""projectId"":""93d27ed9-06b1-4109-8acc-030e53ea77d1""}","https://test12345.live/?num_scrambled_semantic=8&num_scrambled_causal=4&num_scrambled_schematic=4&participantId=C31D4B38E6704E90AC16A6AD72180BD2&assignmentId=f1ca5dff-42df-436a-8d23-e0001a487759&projectId=93d27ed9-06b1-4109-8acc-030e53ea77d1","C31D4B38E6704E90AC16A6AD72180BD2-2025-05-14-15-28-34","","null","","images/semantic_sequence/physical_activity_semantic/physical_activity_semantic_8.png","null","",""
"","","","","","image-button-response","79","391230","0.0-12.0-1.0-1.7","C31D4B38E6704E90AC16A6AD72180BD2","C31D4B38E6704E90AC16A6AD72180BD2","f1ca5dff-42df-436a-8d23-e0001a487759","93d27ed9-06b1-4109-8acc-030e53ea77d1","{""num_scrambled_semantic"":""8"",""num_scrambled_causal"":""4"",""num_scrambled_schematic"":""4"",""participantId"":""C31D4B38E6704E90AC16A6AD72180BD2"",""assignmentId"":""f1ca5dff-42df-436a-8d23-e0001a487759"",""projectId"":""93d27ed9-06b1-4109-8acc-030e53ea77d1""}","https://test12345.live/?num_scrambled_semantic=8&num_scrambled_causal=4&num_scrambled_schematic=4&participantId=C31D4B38E6704E90AC16A6AD72180BD2&assignmentId=f1ca5dff-42df-436a-8d23-e0001a487759&projectId=93d27ed9-06b1-4109-8acc-030e53ea77d1","C31D4B38E6704E90AC16A6AD72180BD2-2025-05-14-15-28-34","","671","","images/semantic_sequence/physical_activity_semantic/physical_activity_semantic_8.png","0","",""
"","","","","","image-button-response","80","393043","0.0-12.0-1.0-2.7","C31D4B38E6704E90AC16A6AD72180BD2","C31D4B38E6704E90AC16A6AD72180BD2","f1ca5dff-42df-436a-8d23-e0001a487759","93d27ed9-06b1-4109-8acc-030e53ea77d1","{""num_scrambled_semantic"":""8"",""num_scrambled_causal"":""4"",""num_scrambled_schematic"":""4"",""participantId"":""C31D4B38E6704E90AC16A6AD72180BD2"",""assignmentId"":""f1ca5dff-42df-436a-8d23-e0001a487759"",""projectId"":""93d27ed9-06b1-4109-8acc-030e53ea77d1""}","https://test12345.live/?num_scrambled_semantic=8&num_scrambled_causal=4&num_scrambled_schematic=4&participantId=C31D4B38E6704E90AC16A6AD72180BD2&assignmentId=f1ca5dff-42df-436a-8d23-e0001a487759&projectId=93d27ed9-06b1-4109-8acc-030e53ea77d1","C31D4B38E6704E90AC16A6AD72180BD2-2025-05-14-15-28-34","","null","","[]","null","",""
"","","","","","image-button-response","81","397555","0.0-12.0-1.0-0.8","C31D4B38E6704E90AC16A6AD72180BD2","C31D4B38E6704E90AC16A6AD72180BD2","f1ca5dff-42df-436a-8d23-e0001a487759","93d27ed9-06b1-4109-8acc-030e53ea77d1","{""num_scrambled_semantic"":""8"",""num_scrambled_causal"":""4"",""num_scrambled_schematic"":""4"",""participantId"":""C31D4B38E6704E90AC16A6AD72180BD2"",""assignmentId"":""f1ca5dff-42df-436a-8d23-e0001a487759"",""projectId"":""93d27ed9-06b1-4109-8acc-030e53ea77d1""}","https://test12345.live/?num_scrambled_semantic=8&num_scrambled_causal=4&num_scrambled_schematic=4&participantId=C31D4B38E6704E90AC16A6AD72180BD2&assignmentId=f1ca5dff-42df-436a-8d23-e0001a487759&projectId=93d27ed9-06b1-4109-8acc-030e53ea77d1","C31D4B38E6704E90AC16A6AD72180BD2-2025-05-14-15-28-34","","null","","images/semantic_sequence/physical_activity_semantic/physical_activity_semantic_9.png","null","",""
"","","","","","image-button-response","82","398163","0.0-12.0-1.0-1.8","C31D4B38E6704E90AC16A6AD72180BD2","C31D4B38E6704E90AC16A6AD72180BD2","f1ca5dff-42df-436a-8d23-e0001a487759","93d27ed9-06b1-4109-8acc-030e53ea77d1","{""num_scrambled_semantic"":""8"",""num_scrambled_causal"":""4"",""num_scrambled_schematic"":""4"",""participantId"":""C31D4B38E6704E90AC16A6AD72180BD2"",""assignmentId"":""f1ca5dff-42df-436a-8d23-e0001a487759"",""projectId"":""93d27ed9-06b1-4109-8acc-030e53ea77d1""}","https://test12345.live/?num_scrambled_semantic=8&num_scrambled_causal=4&num_scrambled_schematic=4&participantId=C31D4B38E6704E90AC16A6AD72180BD2&assignmentId=f1ca5dff-42df-436a-8d23-e0001a487759&projectId=93d27ed9-06b1-4109-8acc-030e53ea77d1","C31D4B38E6704E90AC16A6AD72180BD2-2025-05-14-15-28-34","","606","","images/semantic_sequence/physical_activity_semantic/physical_activity_semantic_9.png","0","",""
"","","","","","image-button-response","83","399966","0.0-12.0-1.0-2.8","C31D4B38E6704E90AC16A6AD72180BD2","C31D4B38E6704E90AC16A6AD72180BD2","f1ca5dff-42df-436a-8d23-e0001a487759","93d27ed9-06b1-4109-8acc-030e53ea77d1","{""num_scrambled_semantic"":""8"",""num_scrambled_causal"":""4"",""num_scrambled_schematic"":""4"",""participantId"":""C31D4B38E6704E90AC16A6AD72180BD2"",""assignmentId"":""f1ca5dff-42df-436a-8d23-e0001a487759"",""projectId"":""93d27ed9-06b1-4109-8acc-030e53ea77d1""}","https://test12345.live/?num_scrambled_semantic=8&num_scrambled_causal=4&num_scrambled_schematic=4&participantId=C31D4B38E6704E90AC16A6AD72180BD2&assignmentId=f1ca5dff-42df-436a-8d23-e0001a487759&projectId=93d27ed9-06b1-4109-8acc-030e53ea77d1","C31D4B38E6704E90AC16A6AD72180BD2-2025-05-14-15-28-34","","null","","[]","null","",""
"","","","","","image-button-response","84","404481","0.0-12.0-1.0-0.9","C31D4B38E6704E90AC16A6AD72180BD2","C31D4B38E6704E90AC16A6AD72180BD2","f1ca5dff-42df-436a-8d23-e0001a487759","93d27ed9-06b1-4109-8acc-030e53ea77d1","{""num_scrambled_semantic"":""8"",""num_scrambled_causal"":""4"",""num_scrambled_schematic"":""4"",""participantId"":""C31D4B38E6704E90AC16A6AD72180BD2"",""assignmentId"":""f1ca5dff-42df-436a-8d23-e0001a487759"",""projectId"":""93d27ed9-06b1-4109-8acc-030e53ea77d1""}","https://test12345.live/?num_scrambled_semantic=8&num_scrambled_causal=4&num_scrambled_schematic=4&participantId=C31D4B38E6704E90AC16A6AD72180BD2&assignmentId=f1ca5dff-42df-436a-8d23-e0001a487759&projectId=93d27ed9-06b1-4109-8acc-030e53ea77d1","C31D4B38E6704E90AC16A6AD72180BD2-2025-05-14-15-28-34","","null","","images/semantic_sequence/physical_activity_semantic/physical_activity_semantic_ten.png","null","",""
"","","","","","image-button-response","85","405127","0.0-12.0-1.0-1.9","C31D4B38E6704E90AC16A6AD72180BD2","C31D4B38E6704E90AC16A6AD72180BD2","f1ca5dff-42df-436a-8d23-e0001a487759","93d27ed9-06b1-4109-8acc-030e53ea77d1","{""num_scrambled_semantic"":""8"",""num_scrambled_causal"":""4"",""num_scrambled_schematic"":""4"",""participantId"":""C31D4B38E6704E90AC16A6AD72180BD2"",""assignmentId"":""f1ca5dff-42df-436a-8d23-e0001a487759"",""projectId"":""93d27ed9-06b1-4109-8acc-030e53ea77d1""}","https://test12345.live/?num_scrambled_semantic=8&num_scrambled_causal=4&num_scrambled_schematic=4&participantId=C31D4B38E6704E90AC16A6AD72180BD2&assignmentId=f1ca5dff-42df-436a-8d23-e0001a487759&projectId=93d27ed9-06b1-4109-8acc-030e53ea77d1","C31D4B38E6704E90AC16A6AD72180BD2-2025-05-14-15-28-34","","645","","images/semantic_sequence/physical_activity_semantic/physical_activity_semantic_ten.png","0","",""
"","","","","","image-button-response","86","406930","0.0-12.0-1.0-2.9","C31D4B38E6704E90AC16A6AD72180BD2","C31D4B38E6704E90AC16A6AD72180BD2","f1ca5dff-42df-436a-8d23-e0001a487759","93d27ed9-06b1-4109-8acc-030e53ea77d1","{""num_scrambled_semantic"":""8"",""num_scrambled_causal"":""4"",""num_scrambled_schematic"":""4"",""participantId"":""C31D4B38E6704E90AC16A6AD72180BD2"",""assignmentId"":""f1ca5dff-42df-436a-8d23-e0001a487759"",""projectId"":""93d27ed9-06b1-4109-8acc-030e53ea77d1""}","https://test12345.live/?num_scrambled_semantic=8&num_scrambled_causal=4&num_scrambled_schematic=4&participantId=C31D4B38E6704E90AC16A6AD72180BD2&assignmentId=f1ca5dff-42df-436a-8d23-e0001a487759&projectId=93d27ed9-06b1-4109-8acc-030e53ea77d1","C31D4B38E6704E90AC16A6AD72180BD2-2025-05-14-15-28-34","","null","","[]","null","",""
"","","","","","html-audio-response","87","432025","0.0-13.0","C31D4B38E6704E90AC16A6AD72180BD2","C31D4B38E6704E90AC16A6AD72180BD2","f1ca5dff-42df-436a-8d23-e0001a487759","93d27ed9-06b1-4109-8acc-030e53ea77d1","{""num_scrambled_semantic"":""8"",""num_scrambled_causal"":""4"",""num_scrambled_schematic"":""4"",""participantId"":""C31D4B38E6704E90AC16A6AD72180BD2"",""assignmentId"":""f1ca5dff-42df-436a-8d23-e0001a487759"",""projectId"":""93d27ed9-06b1-4109-8acc-030e53ea77d1""}","https://test12345.live/?num_scrambled_semantic=8&num_scrambled_causal=4&num_scrambled_schematic=4&participantId=C31D4B38E6704E90AC16A6AD72180BD2&assignmentId=f1ca5dff-42df-436a-8d23-e0001a487759&projectId=93d27ed9-06b1-4109-8acc-030e53ea77d1","C31D4B38E6704E90AC16A6AD72180BD2-2025-05-14-15-28-34","","23818","","[""<span style=\""color: red; font-size: 24px\""> NOW RECORDING</span><p>Please say out loud all the images you saw, as many as you can remember. The images can be said in any order.</p>""]","","9","physical_activity_semantic"
"","","","","","image-button-response","88","438033","0.0-14.0-0.0","C31D4B38E6704E90AC16A6AD72180BD2","C31D4B38E6704E90AC16A6AD72180BD2","f1ca5dff-42df-436a-8d23-e0001a487759","93d27ed9-06b1-4109-8acc-030e53ea77d1","{""num_scrambled_semantic"":""8"",""num_scrambled_causal"":""4"",""num_scrambled_schematic"":""4"",""participantId"":""C31D4B38E6704E90AC16A6AD72180BD2"",""assignmentId"":""f1ca5dff-42df-436a-8d23-e0001a487759"",""projectId"":""93d27ed9-06b1-4109-8acc-030e53ea77d1""}","https://test12345.live/?num_scrambled_semantic=8&num_scrambled_causal=4&num_scrambled_schematic=4&participantId=C31D4B38E6704E90AC16A6AD72180BD2&assignmentId=f1ca5dff-42df-436a-8d23-e0001a487759&projectId=93d27ed9-06b1-4109-8acc-030e53ea77d1","C31D4B38E6704E90AC16A6AD72180BD2-2025-05-14-15-28-34","","null","","images/semantic_sequence/self_care_activities_semantic/self_care_activities_semantic_0.png","null","",""
"","","","","","image-button-response","89","442549","0.0-14.0-1.0-0.0","C31D4B38E6704E90AC16A6AD72180BD2","C31D4B38E6704E90AC16A6AD72180BD2","f1ca5dff-42df-436a-8d23-e0001a487759","93d27ed9-06b1-4109-8acc-030e53ea77d1","{""num_scrambled_semantic"":""8"",""num_scrambled_causal"":""4"",""num_scrambled_schematic"":""4"",""participantId"":""C31D4B38E6704E90AC16A6AD72180BD2"",""assignmentId"":""f1ca5dff-42df-436a-8d23-e0001a487759"",""projectId"":""93d27ed9-06b1-4109-8acc-030e53ea77d1""}","https://test12345.live/?num_scrambled_semantic=8&num_scrambled_causal=4&num_scrambled_schematic=4&participantId=C31D4B38E6704E90AC16A6AD72180BD2&assignmentId=f1ca5dff-42df-436a-8d23-e0001a487759&projectId=93d27ed9-06b1-4109-8acc-030e53ea77d1","C31D4B38E6704E90AC16A6AD72180BD2-2025-05-14-15-28-34","","null","","images/semantic_sequence/self_care_activities_semantic/self_care_activities_semantic_1.png","null","",""
"","","","","","image-button-response","90","444600","0.0-14.0-1.0-1.0","C31D4B38E6704E90AC16A6AD72180BD2","C31D4B38E6704E90AC16A6AD72180BD2","f1ca5dff-42df-436a-8d23-e0001a487759","93d27ed9-06b1-4109-8acc-030e53ea77d1","{""num_scrambled_semantic"":""8"",""num_scrambled_causal"":""4"",""num_scrambled_schematic"":""4"",""participantId"":""C31D4B38E6704E90AC16A6AD72180BD2"",""assignmentId"":""f1ca5dff-42df-436a-8d23-e0001a487759"",""projectId"":""93d27ed9-06b1-4109-8acc-030e53ea77d1""}","https://test12345.live/?num_scrambled_semantic=8&num_scrambled_causal=4&num_scrambled_schematic=4&participantId=C31D4B38E6704E90AC16A6AD72180BD2&assignmentId=f1ca5dff-42df-436a-8d23-e0001a487759&projectId=93d27ed9-06b1-4109-8acc-030e53ea77d1","C31D4B38E6704E90AC16A6AD72180BD2-2025-05-14-15-28-34","","2050","","images/semantic_sequence/self_care_activities_semantic/self_care_activities_semantic_1.png","0","",""
"","","","","","image-button-response","91","446407","0.0-14.0-1.0-2.0","C31D4B38E6704E90AC16A6AD72180BD2","C31D4B38E6704E90AC16A6AD72180BD2","f1ca5dff-42df-436a-8d23-e0001a487759","93d27ed9-06b1-4109-8acc-030e53ea77d1","{""num_scrambled_semantic"":""8"",""num_scrambled_causal"":""4"",""num_scrambled_schematic"":""4"",""participantId"":""C31D4B38E6704E90AC16A6AD72180BD2"",""assignmentId"":""f1ca5dff-42df-436a-8d23-e0001a487759"",""projectId"":""93d27ed9-06b1-4109-8acc-030e53ea77d1""}","https://test12345.live/?num_scrambled_semantic=8&num_scrambled_causal=4&num_scrambled_schematic=4&participantId=C31D4B38E6704E90AC16A6AD72180BD2&assignmentId=f1ca5dff-42df-436a-8d23-e0001a487759&projectId=93d27ed9-06b1-4109-8acc-030e53ea77d1","C31D4B38E6704E90AC16A6AD72180BD2-2025-05-14-15-28-34","","null","","[]","null","",""
"","","","","","image-button-response","92","450909","0.0-14.0-1.0-0.1","C31D4B38E6704E90AC16A6AD72180BD2","C31D4B38E6704E90AC16A6AD72180BD2","f1ca5dff-42df-436a-8d23-e0001a487759","93d27ed9-06b1-4109-8acc-030e53ea77d1","{""num_scrambled_semantic"":""8"",""num_scrambled_causal"":""4"",""num_scrambled_schematic"":""4"",""participantId"":""C31D4B38E6704E90AC16A6AD72180BD2"",""assignmentId"":""f1ca5dff-42df-436a-8d23-e0001a487759"",""projectId"":""93d27ed9-06b1-4109-8acc-030e53ea77d1""}","https://test12345.live/?num_scrambled_semantic=8&num_scrambled_causal=4&num_scrambled_schematic=4&participantId=C31D4B38E6704E90AC16A6AD72180BD2&assignmentId=f1ca5dff-42df-436a-8d23-e0001a487759&projectId=93d27ed9-06b1-4109-8acc-030e53ea77d1","C31D4B38E6704E90AC16A6AD72180BD2-2025-05-14-15-28-34","","null","","images/semantic_sequence/self_care_activities_semantic/self_care_activities_semantic_2.png","null","",""
"","","","","","image-button-response","93","452109","0.0-14.0-1.0-1.1","C31D4B38E6704E90AC16A6AD72180BD2","C31D4B38E6704E90AC16A6AD72180BD2","f1ca5dff-42df-436a-8d23-e0001a487759","93d27ed9-06b1-4109-8acc-030e53ea77d1","{""num_scrambled_semantic"":""8"",""num_scrambled_causal"":""4"",""num_scrambled_schematic"":""4"",""participantId"":""C31D4B38E6704E90AC16A6AD72180BD2"",""assignmentId"":""f1ca5dff-42df-436a-8d23-e0001a487759"",""projectId"":""93d27ed9-06b1-4109-8acc-030e53ea77d1""}","https://test12345.live/?num_scrambled_semantic=8&num_scrambled_causal=4&num_scrambled_schematic=4&participantId=C31D4B38E6704E90AC16A6AD72180BD2&assignmentId=f1ca5dff-42df-436a-8d23-e0001a487759&projectId=93d27ed9-06b1-4109-8acc-030e53ea77d1","C31D4B38E6704E90AC16A6AD72180BD2-2025-05-14-15-28-34","","1199","","images/semantic_sequence/self_care_activities_semantic/self_care_activities_semantic_2.png","0","",""
"","","","","","image-button-response","94","453914","0.0-14.0-1.0-2.1","C31D4B38E6704E90AC16A6AD72180BD2","C31D4B38E6704E90AC16A6AD72180BD2","f1ca5dff-42df-436a-8d23-e0001a487759","93d27ed9-06b1-4109-8acc-030e53ea77d1","{""num_scrambled_semantic"":""8"",""num_scrambled_causal"":""4"",""num_scrambled_schematic"":""4"",""participantId"":""C31D4B38E6704E90AC16A6AD72180BD2"",""assignmentId"":""f1ca5dff-42df-436a-8d23-e0001a487759"",""projectId"":""93d27ed9-06b1-4109-8acc-030e53ea77d1""}","https://test12345.live/?num_scrambled_semantic=8&num_scrambled_causal=4&num_scrambled_schematic=4&participantId=C31D4B38E6704E90AC16A6AD72180BD2&assignmentId=f1ca5dff-42df-436a-8d23-e0001a487759&projectId=93d27ed9-06b1-4109-8acc-030e53ea77d1","C31D4B38E6704E90AC16A6AD72180BD2-2025-05-14-15-28-34","","null","","[]","null","",""
"","","","","","image-button-response","95","458426","0.0-14.0-1.0-0.2","C31D4B38E6704E90AC16A6AD72180BD2","C31D4B38E6704E90AC16A6AD72180BD2","f1ca5dff-42df-436a-8d23-e0001a487759","93d27ed9-06b1-4109-8acc-030e53ea77d1","{""num_scrambled_semantic"":""8"",""num_scrambled_causal"":""4"",""num_scrambled_schematic"":""4"",""participantId"":""C31D4B38E6704E90AC16A6AD72180BD2"",""assignmentId"":""f1ca5dff-42df-436a-8d23-e0001a487759"",""projectId"":""93d27ed9-06b1-4109-8acc-030e53ea77d1""}","https://test12345.live/?num_scrambled_semantic=8&num_scrambled_causal=4&num_scrambled_schematic=4&participantId=C31D4B38E6704E90AC16A6AD72180BD2&assignmentId=f1ca5dff-42df-436a-8d23-e0001a487759&projectId=93d27ed9-06b1-4109-8acc-030e53ea77d1","C31D4B38E6704E90AC16A6AD72180BD2-2025-05-14-15-28-34","","null","","images/semantic_sequence/self_care_activities_semantic/self_care_activities_semantic_7.png","null","",""
"","","","","","image-button-response","96","459661","0.0-14.0-1.0-1.2","C31D4B38E6704E90AC16A6AD72180BD2","C31D4B38E6704E90AC16A6AD72180BD2","f1ca5dff-42df-436a-8d23-e0001a487759","93d27ed9-06b1-4109-8acc-030e53ea77d1","{""num_scrambled_semantic"":""8"",""num_scrambled_causal"":""4"",""num_scrambled_schematic"":""4"",""participantId"":""C31D4B38E6704E90AC16A6AD72180BD2"",""assignmentId"":""f1ca5dff-42df-436a-8d23-e0001a487759"",""projectId"":""93d27ed9-06b1-4109-8acc-030e53ea77d1""}","https://test12345.live/?num_scrambled_semantic=8&num_scrambled_causal=4&num_scrambled_schematic=4&participantId=C31D4B38E6704E90AC16A6AD72180BD2&assignmentId=f1ca5dff-42df-436a-8d23-e0001a487759&projectId=93d27ed9-06b1-4109-8acc-030e53ea77d1","C31D4B38E6704E90AC16A6AD72180BD2-2025-05-14-15-28-34","","1234","","images/semantic_sequence/self_care_activities_semantic/self_care_activities_semantic_7.png","0","",""
"","","","","","image-button-response","97","461475","0.0-14.0-1.0-2.2","C31D4B38E6704E90AC16A6AD72180BD2","C31D4B38E6704E90AC16A6AD72180BD2","f1ca5dff-42df-436a-8d23-e0001a487759","93d27ed9-06b1-4109-8acc-030e53ea77d1","{""num_scrambled_semantic"":""8"",""num_scrambled_causal"":""4"",""num_scrambled_schematic"":""4"",""participantId"":""C31D4B38E6704E90AC16A6AD72180BD2"",""assignmentId"":""f1ca5dff-42df-436a-8d23-e0001a487759"",""projectId"":""93d27ed9-06b1-4109-8acc-030e53ea77d1""}","https://test12345.live/?num_scrambled_semantic=8&num_scrambled_causal=4&num_scrambled_schematic=4&participantId=C31D4B38E6704E90AC16A6AD72180BD2&assignmentId=f1ca5dff-42df-436a-8d23-e0001a487759&projectId=93d27ed9-06b1-4109-8acc-030e53ea77d1","C31D4B38E6704E90AC16A6AD72180BD2-2025-05-14-15-28-34","","null","","[]","null","",""
"","","","","","image-button-response","98","465979","0.0-14.0-1.0-0.3","C31D4B38E6704E90AC16A6AD72180BD2","C31D4B38E6704E90AC16A6AD72180BD2","f1ca5dff-42df-436a-8d23-e0001a487759","93d27ed9-06b1-4109-8acc-030e53ea77d1","{""num_scrambled_semantic"":""8"",""num_scrambled_causal"":""4"",""num_scrambled_schematic"":""4"",""participantId"":""C31D4B38E6704E90AC16A6AD72180BD2"",""assignmentId"":""f1ca5dff-42df-436a-8d23-e0001a487759"",""projectId"":""93d27ed9-06b1-4109-8acc-030e53ea77d1""}","https://test12345.live/?num_scrambled_semantic=8&num_scrambled_causal=4&num_scrambled_schematic=4&participantId=C31D4B38E6704E90AC16A6AD72180BD2&assignmentId=f1ca5dff-42df-436a-8d23-e0001a487759&projectId=93d27ed9-06b1-4109-8acc-030e53ea77d1","C31D4B38E6704E90AC16A6AD72180BD2-2025-05-14-15-28-34","","null","","images/semantic_sequence/self_care_activities_semantic/self_care_activities_semantic_8.png","null","",""
"","","","","","image-button-response","99","466735","0.0-14.0-1.0-1.3","C31D4B38E6704E90AC16A6AD72180BD2","C31D4B38E6704E90AC16A6AD72180BD2","f1ca5dff-42df-436a-8d23-e0001a487759","93d27ed9-06b1-4109-8acc-030e53ea77d1","{""num_scrambled_semantic"":""8"",""num_scrambled_causal"":""4"",""num_scrambled_schematic"":""4"",""participantId"":""C31D4B38E6704E90AC16A6AD72180BD2"",""assignmentId"":""f1ca5dff-42df-436a-8d23-e0001a487759"",""projectId"":""93d27ed9-06b1-4109-8acc-030e53ea77d1""}","https://test12345.live/?num_scrambled_semantic=8&num_scrambled_causal=4&num_scrambled_schematic=4&participantId=C31D4B38E6704E90AC16A6AD72180BD2&assignmentId=f1ca5dff-42df-436a-8d23-e0001a487759&projectId=93d27ed9-06b1-4109-8acc-030e53ea77d1","C31D4B38E6704E90AC16A6AD72180BD2-2025-05-14-15-28-34","","754","","images/semantic_sequence/self_care_activities_semantic/self_care_activities_semantic_8.png","0","",""
"","","","","","image-button-response","100","468548","0.0-14.0-1.0-2.3","C31D4B38E6704E90AC16A6AD72180BD2","C31D4B38E6704E90AC16A6AD72180BD2","f1ca5dff-42df-436a-8d23-e0001a487759","93d27ed9-06b1-4109-8acc-030e53ea77d1","{""num_scrambled_semantic"":""8"",""num_scrambled_causal"":""4"",""num_scrambled_schematic"":""4"",""participantId"":""C31D4B38E6704E90AC16A6AD72180BD2"",""assignmentId"":""f1ca5dff-42df-436a-8d23-e0001a487759"",""projectId"":""93d27ed9-06b1-4109-8acc-030e53ea77d1""}","https://test12345.live/?num_scrambled_semantic=8&num_scrambled_causal=4&num_scrambled_schematic=4&participantId=C31D4B38E6704E90AC16A6AD72180BD2&assignmentId=f1ca5dff-42df-436a-8d23-e0001a487759&projectId=93d27ed9-06b1-4109-8acc-030e53ea77d1","C31D4B38E6704E90AC16A6AD72180BD2-2025-05-14-15-28-34","","null","","[]","null","",""
"","","","","","image-button-response","101","473061","0.0-14.0-1.0-0.4","C31D4B38E6704E90AC16A6AD72180BD2","C31D4B38E6704E90AC16A6AD72180BD2","f1ca5dff-42df-436a-8d23-e0001a487759","93d27ed9-06b1-4109-8acc-030e53ea77d1","{""num_scrambled_semantic"":""8"",""num_scrambled_causal"":""4"",""num_scrambled_schematic"":""4"",""participantId"":""C31D4B38E6704E90AC16A6AD72180BD2"",""assignmentId"":""f1ca5dff-42df-436a-8d23-e0001a487759"",""projectId"":""93d27ed9-06b1-4109-8acc-030e53ea77d1""}","https://test12345.live/?num_scrambled_semantic=8&num_scrambled_causal=4&num_scrambled_schematic=4&participantId=C31D4B38E6704E90AC16A6AD72180BD2&assignmentId=f1ca5dff-42df-436a-8d23-e0001a487759&projectId=93d27ed9-06b1-4109-8acc-030e53ea77d1","C31D4B38E6704E90AC16A6AD72180BD2-2025-05-14-15-28-34","","null","","images/semantic_sequence/self_care_activities_semantic/self_care_activities_semantic_6.png","null","",""
"","","","","","image-button-response","102","474445","0.0-14.0-1.0-1.4","C31D4B38E6704E90AC16A6AD72180BD2","C31D4B38E6704E90AC16A6AD72180BD2","f1ca5dff-42df-436a-8d23-e0001a487759","93d27ed9-06b1-4109-8acc-030e53ea77d1","{""num_scrambled_semantic"":""8"",""num_scrambled_causal"":""4"",""num_scrambled_schematic"":""4"",""participantId"":""C31D4B38E6704E90AC16A6AD72180BD2"",""assignmentId"":""f1ca5dff-42df-436a-8d23-e0001a487759"",""projectId"":""93d27ed9-06b1-4109-8acc-030e53ea77d1""}","https://test12345.live/?num_scrambled_semantic=8&num_scrambled_causal=4&num_scrambled_schematic=4&participantId=C31D4B38E6704E90AC16A6AD72180BD2&assignmentId=f1ca5dff-42df-436a-8d23-e0001a487759&projectId=93d27ed9-06b1-4109-8acc-030e53ea77d1","C31D4B38E6704E90AC16A6AD72180BD2-2025-05-14-15-28-34","","1383","","images/semantic_sequence/self_care_activities_semantic/self_care_activities_semantic_6.png","1","",""
"","","","","","image-button-response","103","476255","0.0-14.0-1.0-2.4","C31D4B38E6704E90AC16A6AD72180BD2","C31D4B38E6704E90AC16A6AD72180BD2","f1ca5dff-42df-436a-8d23-e0001a487759","93d27ed9-06b1-4109-8acc-030e53ea77d1","{""num_scrambled_semantic"":""8"",""num_scrambled_causal"":""4"",""num_scrambled_schematic"":""4"",""participantId"":""C31D4B38E6704E90AC16A6AD72180BD2"",""assignmentId"":""f1ca5dff-42df-436a-8d23-e0001a487759"",""projectId"":""93d27ed9-06b1-4109-8acc-030e53ea77d1""}","https://test12345.live/?num_scrambled_semantic=8&num_scrambled_causal=4&num_scrambled_schematic=4&participantId=C31D4B38E6704E90AC16A6AD72180BD2&assignmentId=f1ca5dff-42df-436a-8d23-e0001a487759&projectId=93d27ed9-06b1-4109-8acc-030e53ea77d1","C31D4B38E6704E90AC16A6AD72180BD2-2025-05-14-15-28-34","","null","","[]","null","",""
"","","","","","image-button-response","104","480767","0.0-14.0-1.0-0.5","C31D4B38E6704E90AC16A6AD72180BD2","C31D4B38E6704E90AC16A6AD72180BD2","f1ca5dff-42df-436a-8d23-e0001a487759","93d27ed9-06b1-4109-8acc-030e53ea77d1","{""num_scrambled_semantic"":""8"",""num_scrambled_causal"":""4"",""num_scrambled_schematic"":""4"",""participantId"":""C31D4B38E6704E90AC16A6AD72180BD2"",""assignmentId"":""f1ca5dff-42df-436a-8d23-e0001a487759"",""projectId"":""93d27ed9-06b1-4109-8acc-030e53ea77d1""}","https://test12345.live/?num_scrambled_semantic=8&num_scrambled_causal=4&num_scrambled_schematic=4&participantId=C31D4B38E6704E90AC16A6AD72180BD2&assignmentId=f1ca5dff-42df-436a-8d23-e0001a487759&projectId=93d27ed9-06b1-4109-8acc-030e53ea77d1","C31D4B38E6704E90AC16A6AD72180BD2-2025-05-14-15-28-34","","null","","images/semantic_sequence/self_care_activities_semantic/self_care_activities_semantic_9.png","null","",""
"","","","","","image-button-response","105","483986","0.0-14.0-1.0-1.5","C31D4B38E6704E90AC16A6AD72180BD2","C31D4B38E6704E90AC16A6AD72180BD2","f1ca5dff-42df-436a-8d23-e0001a487759","93d27ed9-06b1-4109-8acc-030e53ea77d1","{""num_scrambled_semantic"":""8"",""num_scrambled_causal"":""4"",""num_scrambled_schematic"":""4"",""participantId"":""C31D4B38E6704E90AC16A6AD72180BD2"",""assignmentId"":""f1ca5dff-42df-436a-8d23-e0001a487759"",""projectId"":""93d27ed9-06b1-4109-8acc-030e53ea77d1""}","https://test12345.live/?num_scrambled_semantic=8&num_scrambled_causal=4&num_scrambled_schematic=4&participantId=C31D4B38E6704E90AC16A6AD72180BD2&assignmentId=f1ca5dff-42df-436a-8d23-e0001a487759&projectId=93d27ed9-06b1-4109-8acc-030e53ea77d1","C31D4B38E6704E90AC16A6AD72180BD2-2025-05-14-15-28-34","","3217","","images/semantic_sequence/self_care_activities_semantic/self_care_activities_semantic_9.png","0","",""
"","","","","","image-button-response","106","485795","0.0-14.0-1.0-2.5","C31D4B38E6704E90AC16A6AD72180BD2","C31D4B38E6704E90AC16A6AD72180BD2","f1ca5dff-42df-436a-8d23-e0001a487759","93d27ed9-06b1-4109-8acc-030e53ea77d1","{""num_scrambled_semantic"":""8"",""num_scrambled_causal"":""4"",""num_scrambled_schematic"":""4"",""participantId"":""C31D4B38E6704E90AC16A6AD72180BD2"",""assignmentId"":""f1ca5dff-42df-436a-8d23-e0001a487759"",""projectId"":""93d27ed9-06b1-4109-8acc-030e53ea77d1""}","https://test12345.live/?num_scrambled_semantic=8&num_scrambled_causal=4&num_scrambled_schematic=4&participantId=C31D4B38E6704E90AC16A6AD72180BD2&assignmentId=f1ca5dff-42df-436a-8d23-e0001a487759&projectId=93d27ed9-06b1-4109-8acc-030e53ea77d1","C31D4B38E6704E90AC16A6AD72180BD2-2025-05-14-15-28-34","","null","","[]","null","",""
"","","","","","image-button-response","107","490298","0.0-14.0-1.0-0.6","C31D4B38E6704E90AC16A6AD72180BD2","C31D4B38E6704E90AC16A6AD72180BD2","f1ca5dff-42df-436a-8d23-e0001a487759","93d27ed9-06b1-4109-8acc-030e53ea77d1","{""num_scrambled_semantic"":""8"",""num_scrambled_causal"":""4"",""num_scrambled_schematic"":""4"",""participantId"":""C31D4B38E6704E90AC16A6AD72180BD2"",""assignmentId"":""f1ca5dff-42df-436a-8d23-e0001a487759"",""projectId"":""93d27ed9-06b1-4109-8acc-030e53ea77d1""}","https://test12345.live/?num_scrambled_semantic=8&num_scrambled_causal=4&num_scrambled_schematic=4&participantId=C31D4B38E6704E90AC16A6AD72180BD2&assignmentId=f1ca5dff-42df-436a-8d23-e0001a487759&projectId=93d27ed9-06b1-4109-8acc-030e53ea77d1","C31D4B38E6704E90AC16A6AD72180BD2-2025-05-14-15-28-34","","null","","images/semantic_sequence/self_care_activities_semantic/self_care_activities_semantic_ten.png","null","",""
"","","","","","image-button-response","108","492754","0.0-14.0-1.0-1.6","C31D4B38E6704E90AC16A6AD72180BD2","C31D4B38E6704E90AC16A6AD72180BD2","f1ca5dff-42df-436a-8d23-e0001a487759","93d27ed9-06b1-4109-8acc-030e53ea77d1","{""num_scrambled_semantic"":""8"",""num_scrambled_causal"":""4"",""num_scrambled_schematic"":""4"",""participantId"":""C31D4B38E6704E90AC16A6AD72180BD2"",""assignmentId"":""f1ca5dff-42df-436a-8d23-e0001a487759"",""projectId"":""93d27ed9-06b1-4109-8acc-030e53ea77d1""}","https://test12345.live/?num_scrambled_semantic=8&num_scrambled_causal=4&num_scrambled_schematic=4&participantId=C31D4B38E6704E90AC16A6AD72180BD2&assignmentId=f1ca5dff-42df-436a-8d23-e0001a487759&projectId=93d27ed9-06b1-4109-8acc-030e53ea77d1","C31D4B38E6704E90AC16A6AD72180BD2-2025-05-14-15-28-34","","2455","","images/semantic_sequence/self_care_activities_semantic/self_care_activities_semantic_ten.png","0","",""
"","","","","","image-button-response","109","494567","0.0-14.0-1.0-2.6","C31D4B38E6704E90AC16A6AD72180BD2","C31D4B38E6704E90AC16A6AD72180BD2","f1ca5dff-42df-436a-8d23-e0001a487759","93d27ed9-06b1-4109-8acc-030e53ea77d1","{""num_scrambled_semantic"":""8"",""num_scrambled_causal"":""4"",""num_scrambled_schematic"":""4"",""participantId"":""C31D4B38E6704E90AC16A6AD72180BD2"",""assignmentId"":""f1ca5dff-42df-436a-8d23-e0001a487759"",""projectId"":""93d27ed9-06b1-4109-8acc-030e53ea77d1""}","https://test12345.live/?num_scrambled_semantic=8&num_scrambled_causal=4&num_scrambled_schematic=4&participantId=C31D4B38E6704E90AC16A6AD72180BD2&assignmentId=f1ca5dff-42df-436a-8d23-e0001a487759&projectId=93d27ed9-06b1-4109-8acc-030e53ea77d1","C31D4B38E6704E90AC16A6AD72180BD2-2025-05-14-15-28-34","","null","","[]","null","",""
"","","","","","image-button-response","110","499073","0.0-14.0-1.0-0.7","C31D4B38E6704E90AC16A6AD72180BD2","C31D4B38E6704E90AC16A6AD72180BD2","f1ca5dff-42df-436a-8d23-e0001a487759","93d27ed9-06b1-4109-8acc-030e53ea77d1","{""num_scrambled_semantic"":""8"",""num_scrambled_causal"":""4"",""num_scrambled_schematic"":""4"",""participantId"":""C31D4B38E6704E90AC16A6AD72180BD2"",""assignmentId"":""f1ca5dff-42df-436a-8d23-e0001a487759"",""projectId"":""93d27ed9-06b1-4109-8acc-030e53ea77d1""}","https://test12345.live/?num_scrambled_semantic=8&num_scrambled_causal=4&num_scrambled_schematic=4&participantId=C31D4B38E6704E90AC16A6AD72180BD2&assignmentId=f1ca5dff-42df-436a-8d23-e0001a487759&projectId=93d27ed9-06b1-4109-8acc-030e53ea77d1","C31D4B38E6704E90AC16A6AD72180BD2-2025-05-14-15-28-34","","null","","images/semantic_sequence/self_care_activities_semantic/self_care_activities_semantic_5.png","null","",""
"","","","","","image-button-response","111","500187","0.0-14.0-1.0-1.7","C31D4B38E6704E90AC16A6AD72180BD2","C31D4B38E6704E90AC16A6AD72180BD2","f1ca5dff-42df-436a-8d23-e0001a487759","93d27ed9-06b1-4109-8acc-030e53ea77d1","{""num_scrambled_semantic"":""8"",""num_scrambled_causal"":""4"",""num_scrambled_schematic"":""4"",""participantId"":""C31D4B38E6704E90AC16A6AD72180BD2"",""assignmentId"":""f1ca5dff-42df-436a-8d23-e0001a487759"",""projectId"":""93d27ed9-06b1-4109-8acc-030e53ea77d1""}","https://test12345.live/?num_scrambled_semantic=8&num_scrambled_causal=4&num_scrambled_schematic=4&participantId=C31D4B38E6704E90AC16A6AD72180BD2&assignmentId=f1ca5dff-42df-436a-8d23-e0001a487759&projectId=93d27ed9-06b1-4109-8acc-030e53ea77d1","C31D4B38E6704E90AC16A6AD72180BD2-2025-05-14-15-28-34","","1112","","images/semantic_sequence/self_care_activities_semantic/self_care_activities_semantic_5.png","0","",""
"","","","","","image-button-response","112","501989","0.0-14.0-1.0-2.7","C31D4B38E6704E90AC16A6AD72180BD2","C31D4B38E6704E90AC16A6AD72180BD2","f1ca5dff-42df-436a-8d23-e0001a487759","93d27ed9-06b1-4109-8acc-030e53ea77d1","{""num_scrambled_semantic"":""8"",""num_scrambled_causal"":""4"",""num_scrambled_schematic"":""4"",""participantId"":""C31D4B38E6704E90AC16A6AD72180BD2"",""assignmentId"":""f1ca5dff-42df-436a-8d23-e0001a487759"",""projectId"":""93d27ed9-06b1-4109-8acc-030e53ea77d1""}","https://test12345.live/?num_scrambled_semantic=8&num_scrambled_causal=4&num_scrambled_schematic=4&participantId=C31D4B38E6704E90AC16A6AD72180BD2&assignmentId=f1ca5dff-42df-436a-8d23-e0001a487759&projectId=93d27ed9-06b1-4109-8acc-030e53ea77d1","C31D4B38E6704E90AC16A6AD72180BD2-2025-05-14-15-28-34","","null","","[]","null","",""
"","","","","","image-button-response","113","506492","0.0-14.0-1.0-0.8","C31D4B38E6704E90AC16A6AD72180BD2","C31D4B38E6704E90AC16A6AD72180BD2","f1ca5dff-42df-436a-8d23-e0001a487759","93d27ed9-06b1-4109-8acc-030e53ea77d1","{""num_scrambled_semantic"":""8"",""num_scrambled_causal"":""4"",""num_scrambled_schematic"":""4"",""participantId"":""C31D4B38E6704E90AC16A6AD72180BD2"",""assignmentId"":""f1ca5dff-42df-436a-8d23-e0001a487759"",""projectId"":""93d27ed9-06b1-4109-8acc-030e53ea77d1""}","https://test12345.live/?num_scrambled_semantic=8&num_scrambled_causal=4&num_scrambled_schematic=4&participantId=C31D4B38E6704E90AC16A6AD72180BD2&assignmentId=f1ca5dff-42df-436a-8d23-e0001a487759&projectId=93d27ed9-06b1-4109-8acc-030e53ea77d1","C31D4B38E6704E90AC16A6AD72180BD2-2025-05-14-15-28-34","","null","","images/semantic_sequence/self_care_activities_semantic/self_care_activities_semantic_4.png","null","",""
