"success","timeout","failed_images","failed_audio","failed_video","trial_type","trial_index","time_elapsed","internal_node_id","subject","subject_id","study_id","session_id","urlvar","current_url","audio_id","view_history","rt","device_id","stimulus","response","estimated_stimulus_onset","seq_name"
"true","false","[]","[]","[]","preload","0","2411","0.0-0.0","C3FAAFFFF17545B2A116353BDDE85F84","C3FAAFFFF17545B2A116353BDDE85F84","e4a9ab2c-5bf2-4702-ae6b-393d5d9b8f58","a0a8f18c-a66e-4ba7-a170-23efbdc67501","{""participantId"":""C3FAAFFFF17545B2A116353BDDE85F84"",""assignmentId"":""e4a9ab2c-5bf2-4702-ae6b-393d5d9b8f58"",""projectId"":""a0a8f18c-a66e-4ba7-a170-23efbdc67501""}","https://test12345.live/?participantId=C3FAAFFFF17545B2A116353BDDE85F84&assignmentId=e4a9ab2c-5bf2-4702-ae6b-393d5d9b8f58&projectId=a0a8f18c-a66e-4ba7-a170-23efbdc67501","C3FAAFFFF17545B2A116353BDDE85F84-2024-11-24-18-43-35","","","","","","",""
"","","","","","instructions","1","23357","0.0-1.0","C3FAAFFFF17545B2A116353BDDE85F84","C3FAAFFFF17545B2A116353BDDE85F84","e4a9ab2c-5bf2-4702-ae6b-393d5d9b8f58","a0a8f18c-a66e-4ba7-a170-23efbdc67501","{""participantId"":""C3FAAFFFF17545B2A116353BDDE85F84"",""assignmentId"":""e4a9ab2c-5bf2-4702-ae6b-393d5d9b8f58"",""projectId"":""a0a8f18c-a66e-4ba7-a170-23efbdc67501""}","https://test12345.live/?participantId=C3FAAFFFF17545B2A116353BDDE85F84&assignmentId=e4a9ab2c-5bf2-4702-ae6b-393d5d9b8f58&projectId=a0a8f18c-a66e-4ba7-a170-23efbdc67501","C3FAAFFFF17545B2A116353BDDE85F84-2024-11-24-18-43-35","[{""page_index"":0,""viewing_time"":20945}]","20945","","","","",""
"","","","","","instructions","2","41677","0.0-2.0","C3FAAFFFF17545B2A116353BDDE85F84","C3FAAFFFF17545B2A116353BDDE85F84","e4a9ab2c-5bf2-4702-ae6b-393d5d9b8f58","a0a8f18c-a66e-4ba7-a170-23efbdc67501","{""participantId"":""C3FAAFFFF17545B2A116353BDDE85F84"",""assignmentId"":""e4a9ab2c-5bf2-4702-ae6b-393d5d9b8f58"",""projectId"":""a0a8f18c-a66e-4ba7-a170-23efbdc67501""}","https://test12345.live/?participantId=C3FAAFFFF17545B2A116353BDDE85F84&assignmentId=e4a9ab2c-5bf2-4702-ae6b-393d5d9b8f58&projectId=a0a8f18c-a66e-4ba7-a170-23efbdc67501","C3FAAFFFF17545B2A116353BDDE85F84-2024-11-24-18-43-35","[{""page_index"":0,""viewing_time"":18319}]","18320","","","","",""
"true","","","","","fullscreen","3","44540","0.0-3.0","C3FAAFFFF17545B2A116353BDDE85F84","C3FAAFFFF17545B2A116353BDDE85F84","e4a9ab2c-5bf2-4702-ae6b-393d5d9b8f58","a0a8f18c-a66e-4ba7-a170-23efbdc67501","{""participantId"":""C3FAAFFFF17545B2A116353BDDE85F84"",""assignmentId"":""e4a9ab2c-5bf2-4702-ae6b-393d5d9b8f58"",""projectId"":""a0a8f18c-a66e-4ba7-a170-23efbdc67501""}","https://test12345.live/?participantId=C3FAAFFFF17545B2A116353BDDE85F84&assignmentId=e4a9ab2c-5bf2-4702-ae6b-393d5d9b8f58&projectId=a0a8f18c-a66e-4ba7-a170-23efbdc67501","C3FAAFFFF17545B2A116353BDDE85F84-2024-11-24-18-43-35","","1852","","","","",""
"","","","","","initialize-microphone","4","52901","0.0-4.0-0.0","C3FAAFFFF17545B2A116353BDDE85F84","C3FAAFFFF17545B2A116353BDDE85F84","e4a9ab2c-5bf2-4702-ae6b-393d5d9b8f58","a0a8f18c-a66e-4ba7-a170-23efbdc67501","{""participantId"":""C3FAAFFFF17545B2A116353BDDE85F84"",""assignmentId"":""e4a9ab2c-5bf2-4702-ae6b-393d5d9b8f58"",""projectId"":""a0a8f18c-a66e-4ba7-a170-23efbdc67501""}","https://test12345.live/?participantId=C3FAAFFFF17545B2A116353BDDE85F84&assignmentId=e4a9ab2c-5bf2-4702-ae6b-393d5d9b8f58&projectId=a0a8f18c-a66e-4ba7-a170-23efbdc67501","C3FAAFFFF17545B2A116353BDDE85F84-2024-11-24-18-43-35","","","6593bff4813cd239e9c4120562e3f079be78f5dfdcb4775ab995f6ccf086f285","","","",""
"","","","","","html-audio-response","5","67412","0.0-4.0-1.0","C3FAAFFFF17545B2A116353BDDE85F84","C3FAAFFFF17545B2A116353BDDE85F84","e4a9ab2c-5bf2-4702-ae6b-393d5d9b8f58","a0a8f18c-a66e-4ba7-a170-23efbdc67501","{""participantId"":""C3FAAFFFF17545B2A116353BDDE85F84"",""assignmentId"":""e4a9ab2c-5bf2-4702-ae6b-393d5d9b8f58"",""projectId"":""a0a8f18c-a66e-4ba7-a170-23efbdc67501""}","https://test12345.live/?participantId=C3FAAFFFF17545B2A116353BDDE85F84&assignmentId=e4a9ab2c-5bf2-4702-ae6b-393d5d9b8f58&projectId=a0a8f18c-a66e-4ba7-a170-23efbdc67501","C3FAAFFFF17545B2A116353BDDE85F84-2024-11-24-18-43-35","","5383","","<span style=""color: red; font-size: 24px""> NOW RECORDING</span>
        <p>Please test Microphone</p>","","7",""
"","","","","","html-button-response","6","69319","0.0-4.0-2.0","C3FAAFFFF17545B2A116353BDDE85F84","C3FAAFFFF17545B2A116353BDDE85F84","e4a9ab2c-5bf2-4702-ae6b-393d5d9b8f58","a0a8f18c-a66e-4ba7-a170-23efbdc67501","{""participantId"":""C3FAAFFFF17545B2A116353BDDE85F84"",""assignmentId"":""e4a9ab2c-5bf2-4702-ae6b-393d5d9b8f58"",""projectId"":""a0a8f18c-a66e-4ba7-a170-23efbdc67501""}","https://test12345.live/?participantId=C3FAAFFFF17545B2A116353BDDE85F84&assignmentId=e4a9ab2c-5bf2-4702-ae6b-393d5d9b8f58&projectId=a0a8f18c-a66e-4ba7-a170-23efbdc67501","C3FAAFFFF17545B2A116353BDDE85F84-2024-11-24-18-43-35","","1904","","<p style=""font-size:48px; color:red;"">Is Microphone OK?</p>","1","",""
"","","","","","instructions","7","82276","0.0-5.0","C3FAAFFFF17545B2A116353BDDE85F84","C3FAAFFFF17545B2A116353BDDE85F84","e4a9ab2c-5bf2-4702-ae6b-393d5d9b8f58","a0a8f18c-a66e-4ba7-a170-23efbdc67501","{""participantId"":""C3FAAFFFF17545B2A116353BDDE85F84"",""assignmentId"":""e4a9ab2c-5bf2-4702-ae6b-393d5d9b8f58"",""projectId"":""a0a8f18c-a66e-4ba7-a170-23efbdc67501""}","https://test12345.live/?participantId=C3FAAFFFF17545B2A116353BDDE85F84&assignmentId=e4a9ab2c-5bf2-4702-ae6b-393d5d9b8f58&projectId=a0a8f18c-a66e-4ba7-a170-23efbdc67501","C3FAAFFFF17545B2A116353BDDE85F84-2024-11-24-18-43-35","[{""page_index"":0,""viewing_time"":6862},{""page_index"":1,""viewing_time"":6094}]","12956","","","","",""
"","","","","","image-button-response","8","88281","0.0-6.0-0.0","C3FAAFFFF17545B2A116353BDDE85F84","C3FAAFFFF17545B2A116353BDDE85F84","e4a9ab2c-5bf2-4702-ae6b-393d5d9b8f58","a0a8f18c-a66e-4ba7-a170-23efbdc67501","{""participantId"":""C3FAAFFFF17545B2A116353BDDE85F84"",""assignmentId"":""e4a9ab2c-5bf2-4702-ae6b-393d5d9b8f58"",""projectId"":""a0a8f18c-a66e-4ba7-a170-23efbdc67501""}","https://test12345.live/?participantId=C3FAAFFFF17545B2A116353BDDE85F84&assignmentId=e4a9ab2c-5bf2-4702-ae6b-393d5d9b8f58&projectId=a0a8f18c-a66e-4ba7-a170-23efbdc67501","C3FAAFFFF17545B2A116353BDDE85F84-2024-11-24-18-43-35","","null","","images/instructions/movie_0.png","null","",""
"","","","","","image-button-response","9","92798","0.0-6.0-1.0-0.0","C3FAAFFFF17545B2A116353BDDE85F84","C3FAAFFFF17545B2A116353BDDE85F84","e4a9ab2c-5bf2-4702-ae6b-393d5d9b8f58","a0a8f18c-a66e-4ba7-a170-23efbdc67501","{""participantId"":""C3FAAFFFF17545B2A116353BDDE85F84"",""assignmentId"":""e4a9ab2c-5bf2-4702-ae6b-393d5d9b8f58"",""projectId"":""a0a8f18c-a66e-4ba7-a170-23efbdc67501""}","https://test12345.live/?participantId=C3FAAFFFF17545B2A116353BDDE85F84&assignmentId=e4a9ab2c-5bf2-4702-ae6b-393d5d9b8f58&projectId=a0a8f18c-a66e-4ba7-a170-23efbdc67501","C3FAAFFFF17545B2A116353BDDE85F84-2024-11-24-18-43-35","","null","","images/instructions/movie_1.png","null","",""
"","","","","","image-button-response","10","96061","0.0-6.0-1.0-1.0","C3FAAFFFF17545B2A116353BDDE85F84","C3FAAFFFF17545B2A116353BDDE85F84","e4a9ab2c-5bf2-4702-ae6b-393d5d9b8f58","a0a8f18c-a66e-4ba7-a170-23efbdc67501","{""participantId"":""C3FAAFFFF17545B2A116353BDDE85F84"",""assignmentId"":""e4a9ab2c-5bf2-4702-ae6b-393d5d9b8f58"",""projectId"":""a0a8f18c-a66e-4ba7-a170-23efbdc67501""}","https://test12345.live/?participantId=C3FAAFFFF17545B2A116353BDDE85F84&assignmentId=e4a9ab2c-5bf2-4702-ae6b-393d5d9b8f58&projectId=a0a8f18c-a66e-4ba7-a170-23efbdc67501","C3FAAFFFF17545B2A116353BDDE85F84-2024-11-24-18-43-35","","3260","","images/instructions/movie_1.png","0","",""
"","","","","","image-button-response","11","97865","0.0-6.0-1.0-2.0","C3FAAFFFF17545B2A116353BDDE85F84","C3FAAFFFF17545B2A116353BDDE85F84","e4a9ab2c-5bf2-4702-ae6b-393d5d9b8f58","a0a8f18c-a66e-4ba7-a170-23efbdc67501","{""participantId"":""C3FAAFFFF17545B2A116353BDDE85F84"",""assignmentId"":""e4a9ab2c-5bf2-4702-ae6b-393d5d9b8f58"",""projectId"":""a0a8f18c-a66e-4ba7-a170-23efbdc67501""}","https://test12345.live/?participantId=C3FAAFFFF17545B2A116353BDDE85F84&assignmentId=e4a9ab2c-5bf2-4702-ae6b-393d5d9b8f58&projectId=a0a8f18c-a66e-4ba7-a170-23efbdc67501","C3FAAFFFF17545B2A116353BDDE85F84-2024-11-24-18-43-35","","null","","[]","null","",""
"","","","","","image-button-response","12","102377","0.0-6.0-1.0-0.1","C3FAAFFFF17545B2A116353BDDE85F84","C3FAAFFFF17545B2A116353BDDE85F84","e4a9ab2c-5bf2-4702-ae6b-393d5d9b8f58","a0a8f18c-a66e-4ba7-a170-23efbdc67501","{""participantId"":""C3FAAFFFF17545B2A116353BDDE85F84"",""assignmentId"":""e4a9ab2c-5bf2-4702-ae6b-393d5d9b8f58"",""projectId"":""a0a8f18c-a66e-4ba7-a170-23efbdc67501""}","https://test12345.live/?participantId=C3FAAFFFF17545B2A116353BDDE85F84&assignmentId=e4a9ab2c-5bf2-4702-ae6b-393d5d9b8f58&projectId=a0a8f18c-a66e-4ba7-a170-23efbdc67501","C3FAAFFFF17545B2A116353BDDE85F84-2024-11-24-18-43-35","","null","","images/instructions/movie_2.png","null","",""
"","","","","","image-button-response","13","106380","0.0-6.0-1.0-1.1","C3FAAFFFF17545B2A116353BDDE85F84","C3FAAFFFF17545B2A116353BDDE85F84","e4a9ab2c-5bf2-4702-ae6b-393d5d9b8f58","a0a8f18c-a66e-4ba7-a170-23efbdc67501","{""participantId"":""C3FAAFFFF17545B2A116353BDDE85F84"",""assignmentId"":""e4a9ab2c-5bf2-4702-ae6b-393d5d9b8f58"",""projectId"":""a0a8f18c-a66e-4ba7-a170-23efbdc67501""}","https://test12345.live/?participantId=C3FAAFFFF17545B2A116353BDDE85F84&assignmentId=e4a9ab2c-5bf2-4702-ae6b-393d5d9b8f58&projectId=a0a8f18c-a66e-4ba7-a170-23efbdc67501","C3FAAFFFF17545B2A116353BDDE85F84-2024-11-24-18-43-35","","null","","images/instructions/movie_2.png","null","",""
"","","","","","image-button-response","14","108195","0.0-6.0-1.0-2.1","C3FAAFFFF17545B2A116353BDDE85F84","C3FAAFFFF17545B2A116353BDDE85F84","e4a9ab2c-5bf2-4702-ae6b-393d5d9b8f58","a0a8f18c-a66e-4ba7-a170-23efbdc67501","{""participantId"":""C3FAAFFFF17545B2A116353BDDE85F84"",""assignmentId"":""e4a9ab2c-5bf2-4702-ae6b-393d5d9b8f58"",""projectId"":""a0a8f18c-a66e-4ba7-a170-23efbdc67501""}","https://test12345.live/?participantId=C3FAAFFFF17545B2A116353BDDE85F84&assignmentId=e4a9ab2c-5bf2-4702-ae6b-393d5d9b8f58&projectId=a0a8f18c-a66e-4ba7-a170-23efbdc67501","C3FAAFFFF17545B2A116353BDDE85F84-2024-11-24-18-43-35","","null","","[]","null","",""
"","","","","","image-button-response","15","112697","0.0-6.0-1.0-0.2","C3FAAFFFF17545B2A116353BDDE85F84","C3FAAFFFF17545B2A116353BDDE85F84","e4a9ab2c-5bf2-4702-ae6b-393d5d9b8f58","a0a8f18c-a66e-4ba7-a170-23efbdc67501","{""participantId"":""C3FAAFFFF17545B2A116353BDDE85F84"",""assignmentId"":""e4a9ab2c-5bf2-4702-ae6b-393d5d9b8f58"",""projectId"":""a0a8f18c-a66e-4ba7-a170-23efbdc67501""}","https://test12345.live/?participantId=C3FAAFFFF17545B2A116353BDDE85F84&assignmentId=e4a9ab2c-5bf2-4702-ae6b-393d5d9b8f58&projectId=a0a8f18c-a66e-4ba7-a170-23efbdc67501","C3FAAFFFF17545B2A116353BDDE85F84-2024-11-24-18-43-35","","null","","images/instructions/movie_3.png","null","",""
"","","","","","image-button-response","16","115065","0.0-6.0-1.0-1.2","C3FAAFFFF17545B2A116353BDDE85F84","C3FAAFFFF17545B2A116353BDDE85F84","e4a9ab2c-5bf2-4702-ae6b-393d5d9b8f58","a0a8f18c-a66e-4ba7-a170-23efbdc67501","{""participantId"":""C3FAAFFFF17545B2A116353BDDE85F84"",""assignmentId"":""e4a9ab2c-5bf2-4702-ae6b-393d5d9b8f58"",""projectId"":""a0a8f18c-a66e-4ba7-a170-23efbdc67501""}","https://test12345.live/?participantId=C3FAAFFFF17545B2A116353BDDE85F84&assignmentId=e4a9ab2c-5bf2-4702-ae6b-393d5d9b8f58&projectId=a0a8f18c-a66e-4ba7-a170-23efbdc67501","C3FAAFFFF17545B2A116353BDDE85F84-2024-11-24-18-43-35","","2366","","images/instructions/movie_3.png","0","",""
"","","","","","image-button-response","17","116869","0.0-6.0-1.0-2.2","C3FAAFFFF17545B2A116353BDDE85F84","C3FAAFFFF17545B2A116353BDDE85F84","e4a9ab2c-5bf2-4702-ae6b-393d5d9b8f58","a0a8f18c-a66e-4ba7-a170-23efbdc67501","{""participantId"":""C3FAAFFFF17545B2A116353BDDE85F84"",""assignmentId"":""e4a9ab2c-5bf2-4702-ae6b-393d5d9b8f58"",""projectId"":""a0a8f18c-a66e-4ba7-a170-23efbdc67501""}","https://test12345.live/?participantId=C3FAAFFFF17545B2A116353BDDE85F84&assignmentId=e4a9ab2c-5bf2-4702-ae6b-393d5d9b8f58&projectId=a0a8f18c-a66e-4ba7-a170-23efbdc67501","C3FAAFFFF17545B2A116353BDDE85F84-2024-11-24-18-43-35","","null","","[]","null","",""
"","","","","","image-button-response","18","121380","0.0-6.0-1.0-0.3","C3FAAFFFF17545B2A116353BDDE85F84","C3FAAFFFF17545B2A116353BDDE85F84","e4a9ab2c-5bf2-4702-ae6b-393d5d9b8f58","a0a8f18c-a66e-4ba7-a170-23efbdc67501","{""participantId"":""C3FAAFFFF17545B2A116353BDDE85F84"",""assignmentId"":""e4a9ab2c-5bf2-4702-ae6b-393d5d9b8f58"",""projectId"":""a0a8f18c-a66e-4ba7-a170-23efbdc67501""}","https://test12345.live/?participantId=C3FAAFFFF17545B2A116353BDDE85F84&assignmentId=e4a9ab2c-5bf2-4702-ae6b-393d5d9b8f58&projectId=a0a8f18c-a66e-4ba7-a170-23efbdc67501","C3FAAFFFF17545B2A116353BDDE85F84-2024-11-24-18-43-35","","null","","images/instructions/movie_4.png","null","",""
"","","","","","image-button-response","19","122539","0.0-6.0-1.0-1.3","C3FAAFFFF17545B2A116353BDDE85F84","C3FAAFFFF17545B2A116353BDDE85F84","e4a9ab2c-5bf2-4702-ae6b-393d5d9b8f58","a0a8f18c-a66e-4ba7-a170-23efbdc67501","{""participantId"":""C3FAAFFFF17545B2A116353BDDE85F84"",""assignmentId"":""e4a9ab2c-5bf2-4702-ae6b-393d5d9b8f58"",""projectId"":""a0a8f18c-a66e-4ba7-a170-23efbdc67501""}","https://test12345.live/?participantId=C3FAAFFFF17545B2A116353BDDE85F84&assignmentId=e4a9ab2c-5bf2-4702-ae6b-393d5d9b8f58&projectId=a0a8f18c-a66e-4ba7-a170-23efbdc67501","C3FAAFFFF17545B2A116353BDDE85F84-2024-11-24-18-43-35","","1157","","images/instructions/movie_4.png","0","",""
"","","","","","image-button-response","20","124356","0.0-6.0-1.0-2.3","C3FAAFFFF17545B2A116353BDDE85F84","C3FAAFFFF17545B2A116353BDDE85F84","e4a9ab2c-5bf2-4702-ae6b-393d5d9b8f58","a0a8f18c-a66e-4ba7-a170-23efbdc67501","{""participantId"":""C3FAAFFFF17545B2A116353BDDE85F84"",""assignmentId"":""e4a9ab2c-5bf2-4702-ae6b-393d5d9b8f58"",""projectId"":""a0a8f18c-a66e-4ba7-a170-23efbdc67501""}","https://test12345.live/?participantId=C3FAAFFFF17545B2A116353BDDE85F84&assignmentId=e4a9ab2c-5bf2-4702-ae6b-393d5d9b8f58&projectId=a0a8f18c-a66e-4ba7-a170-23efbdc67501","C3FAAFFFF17545B2A116353BDDE85F84-2024-11-24-18-43-35","","null","","[]","null","",""
"","","","","","instructions","21","132722","0.0-7.0","C3FAAFFFF17545B2A116353BDDE85F84","C3FAAFFFF17545B2A116353BDDE85F84","e4a9ab2c-5bf2-4702-ae6b-393d5d9b8f58","a0a8f18c-a66e-4ba7-a170-23efbdc67501","{""participantId"":""C3FAAFFFF17545B2A116353BDDE85F84"",""assignmentId"":""e4a9ab2c-5bf2-4702-ae6b-393d5d9b8f58"",""projectId"":""a0a8f18c-a66e-4ba7-a170-23efbdc67501""}","https://test12345.live/?participantId=C3FAAFFFF17545B2A116353BDDE85F84&assignmentId=e4a9ab2c-5bf2-4702-ae6b-393d5d9b8f58&projectId=a0a8f18c-a66e-4ba7-a170-23efbdc67501","C3FAAFFFF17545B2A116353BDDE85F84-2024-11-24-18-43-35","[{""page_index"":0,""viewing_time"":6438},{""page_index"":1,""viewing_time"":1928}]","8366","","","","",""
"","","","","","html-audio-response","22","174160","0.0-8.0","C3FAAFFFF17545B2A116353BDDE85F84","C3FAAFFFF17545B2A116353BDDE85F84","e4a9ab2c-5bf2-4702-ae6b-393d5d9b8f58","a0a8f18c-a66e-4ba7-a170-23efbdc67501","{""participantId"":""C3FAAFFFF17545B2A116353BDDE85F84"",""assignmentId"":""e4a9ab2c-5bf2-4702-ae6b-393d5d9b8f58"",""projectId"":""a0a8f18c-a66e-4ba7-a170-23efbdc67501""}","https://test12345.live/?participantId=C3FAAFFFF17545B2A116353BDDE85F84&assignmentId=e4a9ab2c-5bf2-4702-ae6b-393d5d9b8f58&projectId=a0a8f18c-a66e-4ba7-a170-23efbdc67501","C3FAAFFFF17545B2A116353BDDE85F84-2024-11-24-18-43-35","","11322","","[""<span style=\""color: red; font-size: 24px\""> NOW RECORDING</span><p>Please say out loud all the images you saw, as many as you can remember. The images can be said in any order.</p>""]","","9",""
"","","","","","instructions","23","176499","0.0-9.0","C3FAAFFFF17545B2A116353BDDE85F84","C3FAAFFFF17545B2A116353BDDE85F84","e4a9ab2c-5bf2-4702-ae6b-393d5d9b8f58","a0a8f18c-a66e-4ba7-a170-23efbdc67501","{""participantId"":""C3FAAFFFF17545B2A116353BDDE85F84"",""assignmentId"":""e4a9ab2c-5bf2-4702-ae6b-393d5d9b8f58"",""projectId"":""a0a8f18c-a66e-4ba7-a170-23efbdc67501""}","https://test12345.live/?participantId=C3FAAFFFF17545B2A116353BDDE85F84&assignmentId=e4a9ab2c-5bf2-4702-ae6b-393d5d9b8f58&projectId=a0a8f18c-a66e-4ba7-a170-23efbdc67501","C3FAAFFFF17545B2A116353BDDE85F84-2024-11-24-18-43-35","[{""page_index"":0,""viewing_time"":2333}]","2333","","","","",""
"","","","","","image-button-response","24","182502","0.0-10.0-0.0","C3FAAFFFF17545B2A116353BDDE85F84","C3FAAFFFF17545B2A116353BDDE85F84","e4a9ab2c-5bf2-4702-ae6b-393d5d9b8f58","a0a8f18c-a66e-4ba7-a170-23efbdc67501","{""participantId"":""C3FAAFFFF17545B2A116353BDDE85F84"",""assignmentId"":""e4a9ab2c-5bf2-4702-ae6b-393d5d9b8f58"",""projectId"":""a0a8f18c-a66e-4ba7-a170-23efbdc67501""}","https://test12345.live/?participantId=C3FAAFFFF17545B2A116353BDDE85F84&assignmentId=e4a9ab2c-5bf2-4702-ae6b-393d5d9b8f58&projectId=a0a8f18c-a66e-4ba7-a170-23efbdc67501","C3FAAFFFF17545B2A116353BDDE85F84-2024-11-24-18-43-35","","null","","images/semantic_sequence/physical_activity_semantic/physical_activity_semantic_0.png","null","",""
"","","","","","image-button-response","25","187017","0.0-10.0-1.0-0.0","C3FAAFFFF17545B2A116353BDDE85F84","C3FAAFFFF17545B2A116353BDDE85F84","e4a9ab2c-5bf2-4702-ae6b-393d5d9b8f58","a0a8f18c-a66e-4ba7-a170-23efbdc67501","{""participantId"":""C3FAAFFFF17545B2A116353BDDE85F84"",""assignmentId"":""e4a9ab2c-5bf2-4702-ae6b-393d5d9b8f58"",""projectId"":""a0a8f18c-a66e-4ba7-a170-23efbdc67501""}","https://test12345.live/?participantId=C3FAAFFFF17545B2A116353BDDE85F84&assignmentId=e4a9ab2c-5bf2-4702-ae6b-393d5d9b8f58&projectId=a0a8f18c-a66e-4ba7-a170-23efbdc67501","C3FAAFFFF17545B2A116353BDDE85F84-2024-11-24-18-43-35","","null","","images/semantic_sequence/physical_activity_semantic/physical_activity_semantic_1.png","null","",""
"","","","","","image-button-response","26","188906","0.0-10.0-1.0-1.0","C3FAAFFFF17545B2A116353BDDE85F84","C3FAAFFFF17545B2A116353BDDE85F84","e4a9ab2c-5bf2-4702-ae6b-393d5d9b8f58","a0a8f18c-a66e-4ba7-a170-23efbdc67501","{""participantId"":""C3FAAFFFF17545B2A116353BDDE85F84"",""assignmentId"":""e4a9ab2c-5bf2-4702-ae6b-393d5d9b8f58"",""projectId"":""a0a8f18c-a66e-4ba7-a170-23efbdc67501""}","https://test12345.live/?participantId=C3FAAFFFF17545B2A116353BDDE85F84&assignmentId=e4a9ab2c-5bf2-4702-ae6b-393d5d9b8f58&projectId=a0a8f18c-a66e-4ba7-a170-23efbdc67501","C3FAAFFFF17545B2A116353BDDE85F84-2024-11-24-18-43-35","","1887","","images/semantic_sequence/physical_activity_semantic/physical_activity_semantic_1.png","0","",""
"","","","","","image-button-response","27","190716","0.0-10.0-1.0-2.0","C3FAAFFFF17545B2A116353BDDE85F84","C3FAAFFFF17545B2A116353BDDE85F84","e4a9ab2c-5bf2-4702-ae6b-393d5d9b8f58","a0a8f18c-a66e-4ba7-a170-23efbdc67501","{""participantId"":""C3FAAFFFF17545B2A116353BDDE85F84"",""assignmentId"":""e4a9ab2c-5bf2-4702-ae6b-393d5d9b8f58"",""projectId"":""a0a8f18c-a66e-4ba7-a170-23efbdc67501""}","https://test12345.live/?participantId=C3FAAFFFF17545B2A116353BDDE85F84&assignmentId=e4a9ab2c-5bf2-4702-ae6b-393d5d9b8f58&projectId=a0a8f18c-a66e-4ba7-a170-23efbdc67501","C3FAAFFFF17545B2A116353BDDE85F84-2024-11-24-18-43-35","","null","","[]","null","",""
"","","","","","image-button-response","28","195223","0.0-10.0-1.0-0.1","C3FAAFFFF17545B2A116353BDDE85F84","C3FAAFFFF17545B2A116353BDDE85F84","e4a9ab2c-5bf2-4702-ae6b-393d5d9b8f58","a0a8f18c-a66e-4ba7-a170-23efbdc67501","{""participantId"":""C3FAAFFFF17545B2A116353BDDE85F84"",""assignmentId"":""e4a9ab2c-5bf2-4702-ae6b-393d5d9b8f58"",""projectId"":""a0a8f18c-a66e-4ba7-a170-23efbdc67501""}","https://test12345.live/?participantId=C3FAAFFFF17545B2A116353BDDE85F84&assignmentId=e4a9ab2c-5bf2-4702-ae6b-393d5d9b8f58&projectId=a0a8f18c-a66e-4ba7-a170-23efbdc67501","C3FAAFFFF17545B2A116353BDDE85F84-2024-11-24-18-43-35","","null","","images/semantic_sequence/physical_activity_semantic/physical_activity_semantic_2.png","null","",""
"","","","","","image-button-response","29","196762","0.0-10.0-1.0-1.1","C3FAAFFFF17545B2A116353BDDE85F84","C3FAAFFFF17545B2A116353BDDE85F84","e4a9ab2c-5bf2-4702-ae6b-393d5d9b8f58","a0a8f18c-a66e-4ba7-a170-23efbdc67501","{""participantId"":""C3FAAFFFF17545B2A116353BDDE85F84"",""assignmentId"":""e4a9ab2c-5bf2-4702-ae6b-393d5d9b8f58"",""projectId"":""a0a8f18c-a66e-4ba7-a170-23efbdc67501""}","https://test12345.live/?participantId=C3FAAFFFF17545B2A116353BDDE85F84&assignmentId=e4a9ab2c-5bf2-4702-ae6b-393d5d9b8f58&projectId=a0a8f18c-a66e-4ba7-a170-23efbdc67501","C3FAAFFFF17545B2A116353BDDE85F84-2024-11-24-18-43-35","","1537","","images/semantic_sequence/physical_activity_semantic/physical_activity_semantic_2.png","0","",""
"","","","","","image-button-response","30","198567","0.0-10.0-1.0-2.1","C3FAAFFFF17545B2A116353BDDE85F84","C3FAAFFFF17545B2A116353BDDE85F84","e4a9ab2c-5bf2-4702-ae6b-393d5d9b8f58","a0a8f18c-a66e-4ba7-a170-23efbdc67501","{""participantId"":""C3FAAFFFF17545B2A116353BDDE85F84"",""assignmentId"":""e4a9ab2c-5bf2-4702-ae6b-393d5d9b8f58"",""projectId"":""a0a8f18c-a66e-4ba7-a170-23efbdc67501""}","https://test12345.live/?participantId=C3FAAFFFF17545B2A116353BDDE85F84&assignmentId=e4a9ab2c-5bf2-4702-ae6b-393d5d9b8f58&projectId=a0a8f18c-a66e-4ba7-a170-23efbdc67501","C3FAAFFFF17545B2A116353BDDE85F84-2024-11-24-18-43-35","","null","","[]","null","",""
"","","","","","image-button-response","31","203084","0.0-10.0-1.0-0.2","C3FAAFFFF17545B2A116353BDDE85F84","C3FAAFFFF17545B2A116353BDDE85F84","e4a9ab2c-5bf2-4702-ae6b-393d5d9b8f58","a0a8f18c-a66e-4ba7-a170-23efbdc67501","{""participantId"":""C3FAAFFFF17545B2A116353BDDE85F84"",""assignmentId"":""e4a9ab2c-5bf2-4702-ae6b-393d5d9b8f58"",""projectId"":""a0a8f18c-a66e-4ba7-a170-23efbdc67501""}","https://test12345.live/?participantId=C3FAAFFFF17545B2A116353BDDE85F84&assignmentId=e4a9ab2c-5bf2-4702-ae6b-393d5d9b8f58&projectId=a0a8f18c-a66e-4ba7-a170-23efbdc67501","C3FAAFFFF17545B2A116353BDDE85F84-2024-11-24-18-43-35","","null","","images/semantic_sequence/physical_activity_semantic/physical_activity_semantic_3.png","null","",""
"","","","","","image-button-response","32","204544","0.0-10.0-1.0-1.2","C3FAAFFFF17545B2A116353BDDE85F84","C3FAAFFFF17545B2A116353BDDE85F84","e4a9ab2c-5bf2-4702-ae6b-393d5d9b8f58","a0a8f18c-a66e-4ba7-a170-23efbdc67501","{""participantId"":""C3FAAFFFF17545B2A116353BDDE85F84"",""assignmentId"":""e4a9ab2c-5bf2-4702-ae6b-393d5d9b8f58"",""projectId"":""a0a8f18c-a66e-4ba7-a170-23efbdc67501""}","https://test12345.live/?participantId=C3FAAFFFF17545B2A116353BDDE85F84&assignmentId=e4a9ab2c-5bf2-4702-ae6b-393d5d9b8f58&projectId=a0a8f18c-a66e-4ba7-a170-23efbdc67501","C3FAAFFFF17545B2A116353BDDE85F84-2024-11-24-18-43-35","","1458","","images/semantic_sequence/physical_activity_semantic/physical_activity_semantic_3.png","0","",""
"","","","","","image-button-response","33","206354","0.0-10.0-1.0-2.2","C3FAAFFFF17545B2A116353BDDE85F84","C3FAAFFFF17545B2A116353BDDE85F84","e4a9ab2c-5bf2-4702-ae6b-393d5d9b8f58","a0a8f18c-a66e-4ba7-a170-23efbdc67501","{""participantId"":""C3FAAFFFF17545B2A116353BDDE85F84"",""assignmentId"":""e4a9ab2c-5bf2-4702-ae6b-393d5d9b8f58"",""projectId"":""a0a8f18c-a66e-4ba7-a170-23efbdc67501""}","https://test12345.live/?participantId=C3FAAFFFF17545B2A116353BDDE85F84&assignmentId=e4a9ab2c-5bf2-4702-ae6b-393d5d9b8f58&projectId=a0a8f18c-a66e-4ba7-a170-23efbdc67501","C3FAAFFFF17545B2A116353BDDE85F84-2024-11-24-18-43-35","","null","","[]","null","",""
"","","","","","image-button-response","34","210857","0.0-10.0-1.0-0.3","C3FAAFFFF17545B2A116353BDDE85F84","C3FAAFFFF17545B2A116353BDDE85F84","e4a9ab2c-5bf2-4702-ae6b-393d5d9b8f58","a0a8f18c-a66e-4ba7-a170-23efbdc67501","{""participantId"":""C3FAAFFFF17545B2A116353BDDE85F84"",""assignmentId"":""e4a9ab2c-5bf2-4702-ae6b-393d5d9b8f58"",""projectId"":""a0a8f18c-a66e-4ba7-a170-23efbdc67501""}","https://test12345.live/?participantId=C3FAAFFFF17545B2A116353BDDE85F84&assignmentId=e4a9ab2c-5bf2-4702-ae6b-393d5d9b8f58&projectId=a0a8f18c-a66e-4ba7-a170-23efbdc67501","C3FAAFFFF17545B2A116353BDDE85F84-2024-11-24-18-43-35","","null","","images/semantic_sequence/physical_activity_semantic/physical_activity_semantic_4.png","null","",""
"","","","","","image-button-response","35","212265","0.0-10.0-1.0-1.3","C3FAAFFFF17545B2A116353BDDE85F84","C3FAAFFFF17545B2A116353BDDE85F84","e4a9ab2c-5bf2-4702-ae6b-393d5d9b8f58","a0a8f18c-a66e-4ba7-a170-23efbdc67501","{""participantId"":""C3FAAFFFF17545B2A116353BDDE85F84"",""assignmentId"":""e4a9ab2c-5bf2-4702-ae6b-393d5d9b8f58"",""projectId"":""a0a8f18c-a66e-4ba7-a170-23efbdc67501""}","https://test12345.live/?participantId=C3FAAFFFF17545B2A116353BDDE85F84&assignmentId=e4a9ab2c-5bf2-4702-ae6b-393d5d9b8f58&projectId=a0a8f18c-a66e-4ba7-a170-23efbdc67501","C3FAAFFFF17545B2A116353BDDE85F84-2024-11-24-18-43-35","","1406","","images/semantic_sequence/physical_activity_semantic/physical_activity_semantic_4.png","0","",""
"","","","","","image-button-response","36","214072","0.0-10.0-1.0-2.3","C3FAAFFFF17545B2A116353BDDE85F84","C3FAAFFFF17545B2A116353BDDE85F84","e4a9ab2c-5bf2-4702-ae6b-393d5d9b8f58","a0a8f18c-a66e-4ba7-a170-23efbdc67501","{""participantId"":""C3FAAFFFF17545B2A116353BDDE85F84"",""assignmentId"":""e4a9ab2c-5bf2-4702-ae6b-393d5d9b8f58"",""projectId"":""a0a8f18c-a66e-4ba7-a170-23efbdc67501""}","https://test12345.live/?participantId=C3FAAFFFF17545B2A116353BDDE85F84&assignmentId=e4a9ab2c-5bf2-4702-ae6b-393d5d9b8f58&projectId=a0a8f18c-a66e-4ba7-a170-23efbdc67501","C3FAAFFFF17545B2A116353BDDE85F84-2024-11-24-18-43-35","","null","","[]","null","",""
"","","","","","image-button-response","37","218583","0.0-10.0-1.0-0.4","C3FAAFFFF17545B2A116353BDDE85F84","C3FAAFFFF17545B2A116353BDDE85F84","e4a9ab2c-5bf2-4702-ae6b-393d5d9b8f58","a0a8f18c-a66e-4ba7-a170-23efbdc67501","{""participantId"":""C3FAAFFFF17545B2A116353BDDE85F84"",""assignmentId"":""e4a9ab2c-5bf2-4702-ae6b-393d5d9b8f58"",""projectId"":""a0a8f18c-a66e-4ba7-a170-23efbdc67501""}","https://test12345.live/?participantId=C3FAAFFFF17545B2A116353BDDE85F84&assignmentId=e4a9ab2c-5bf2-4702-ae6b-393d5d9b8f58&projectId=a0a8f18c-a66e-4ba7-a170-23efbdc67501","C3FAAFFFF17545B2A116353BDDE85F84-2024-11-24-18-43-35","","null","","images/semantic_sequence/physical_activity_semantic/physical_activity_semantic_5.png","null","",""
"","","","","","image-button-response","38","221032","0.0-10.0-1.0-1.4","C3FAAFFFF17545B2A116353BDDE85F84","C3FAAFFFF17545B2A116353BDDE85F84","e4a9ab2c-5bf2-4702-ae6b-393d5d9b8f58","a0a8f18c-a66e-4ba7-a170-23efbdc67501","{""participantId"":""C3FAAFFFF17545B2A116353BDDE85F84"",""assignmentId"":""e4a9ab2c-5bf2-4702-ae6b-393d5d9b8f58"",""projectId"":""a0a8f18c-a66e-4ba7-a170-23efbdc67501""}","https://test12345.live/?participantId=C3FAAFFFF17545B2A116353BDDE85F84&assignmentId=e4a9ab2c-5bf2-4702-ae6b-393d5d9b8f58&projectId=a0a8f18c-a66e-4ba7-a170-23efbdc67501","C3FAAFFFF17545B2A116353BDDE85F84-2024-11-24-18-43-35","","2447","","images/semantic_sequence/physical_activity_semantic/physical_activity_semantic_5.png","0","",""
"","","","","","image-button-response","39","222835","0.0-10.0-1.0-2.4","C3FAAFFFF17545B2A116353BDDE85F84","C3FAAFFFF17545B2A116353BDDE85F84","e4a9ab2c-5bf2-4702-ae6b-393d5d9b8f58","a0a8f18c-a66e-4ba7-a170-23efbdc67501","{""participantId"":""C3FAAFFFF17545B2A116353BDDE85F84"",""assignmentId"":""e4a9ab2c-5bf2-4702-ae6b-393d5d9b8f58"",""projectId"":""a0a8f18c-a66e-4ba7-a170-23efbdc67501""}","https://test12345.live/?participantId=C3FAAFFFF17545B2A116353BDDE85F84&assignmentId=e4a9ab2c-5bf2-4702-ae6b-393d5d9b8f58&projectId=a0a8f18c-a66e-4ba7-a170-23efbdc67501","C3FAAFFFF17545B2A116353BDDE85F84-2024-11-24-18-43-35","","null","","[]","null","",""
"","","","","","image-button-response","40","227342","0.0-10.0-1.0-0.5","C3FAAFFFF17545B2A116353BDDE85F84","C3FAAFFFF17545B2A116353BDDE85F84","e4a9ab2c-5bf2-4702-ae6b-393d5d9b8f58","a0a8f18c-a66e-4ba7-a170-23efbdc67501","{""participantId"":""C3FAAFFFF17545B2A116353BDDE85F84"",""assignmentId"":""e4a9ab2c-5bf2-4702-ae6b-393d5d9b8f58"",""projectId"":""a0a8f18c-a66e-4ba7-a170-23efbdc67501""}","https://test12345.live/?participantId=C3FAAFFFF17545B2A116353BDDE85F84&assignmentId=e4a9ab2c-5bf2-4702-ae6b-393d5d9b8f58&projectId=a0a8f18c-a66e-4ba7-a170-23efbdc67501","C3FAAFFFF17545B2A116353BDDE85F84-2024-11-24-18-43-35","","null","","images/semantic_sequence/physical_activity_semantic/physical_activity_semantic_6.png","null","",""
"","","","","","image-button-response","41","228865","0.0-10.0-1.0-1.5","C3FAAFFFF17545B2A116353BDDE85F84","C3FAAFFFF17545B2A116353BDDE85F84","e4a9ab2c-5bf2-4702-ae6b-393d5d9b8f58","a0a8f18c-a66e-4ba7-a170-23efbdc67501","{""participantId"":""C3FAAFFFF17545B2A116353BDDE85F84"",""assignmentId"":""e4a9ab2c-5bf2-4702-ae6b-393d5d9b8f58"",""projectId"":""a0a8f18c-a66e-4ba7-a170-23efbdc67501""}","https://test12345.live/?participantId=C3FAAFFFF17545B2A116353BDDE85F84&assignmentId=e4a9ab2c-5bf2-4702-ae6b-393d5d9b8f58&projectId=a0a8f18c-a66e-4ba7-a170-23efbdc67501","C3FAAFFFF17545B2A116353BDDE85F84-2024-11-24-18-43-35","","1522","","images/semantic_sequence/physical_activity_semantic/physical_activity_semantic_6.png","0","",""
"","","","","","image-button-response","42","230673","0.0-10.0-1.0-2.5","C3FAAFFFF17545B2A116353BDDE85F84","C3FAAFFFF17545B2A116353BDDE85F84","e4a9ab2c-5bf2-4702-ae6b-393d5d9b8f58","a0a8f18c-a66e-4ba7-a170-23efbdc67501","{""participantId"":""C3FAAFFFF17545B2A116353BDDE85F84"",""assignmentId"":""e4a9ab2c-5bf2-4702-ae6b-393d5d9b8f58"",""projectId"":""a0a8f18c-a66e-4ba7-a170-23efbdc67501""}","https://test12345.live/?participantId=C3FAAFFFF17545B2A116353BDDE85F84&assignmentId=e4a9ab2c-5bf2-4702-ae6b-393d5d9b8f58&projectId=a0a8f18c-a66e-4ba7-a170-23efbdc67501","C3FAAFFFF17545B2A116353BDDE85F84-2024-11-24-18-43-35","","null","","[]","null","",""
"","","","","","image-button-response","43","235186","0.0-10.0-1.0-0.6","C3FAAFFFF17545B2A116353BDDE85F84","C3FAAFFFF17545B2A116353BDDE85F84","e4a9ab2c-5bf2-4702-ae6b-393d5d9b8f58","a0a8f18c-a66e-4ba7-a170-23efbdc67501","{""participantId"":""C3FAAFFFF17545B2A116353BDDE85F84"",""assignmentId"":""e4a9ab2c-5bf2-4702-ae6b-393d5d9b8f58"",""projectId"":""a0a8f18c-a66e-4ba7-a170-23efbdc67501""}","https://test12345.live/?participantId=C3FAAFFFF17545B2A116353BDDE85F84&assignmentId=e4a9ab2c-5bf2-4702-ae6b-393d5d9b8f58&projectId=a0a8f18c-a66e-4ba7-a170-23efbdc67501","C3FAAFFFF17545B2A116353BDDE85F84-2024-11-24-18-43-35","","null","","images/semantic_sequence/physical_activity_semantic/physical_activity_semantic_7.png","null","",""
"","","","","","image-button-response","44","236946","0.0-10.0-1.0-1.6","C3FAAFFFF17545B2A116353BDDE85F84","C3FAAFFFF17545B2A116353BDDE85F84","e4a9ab2c-5bf2-4702-ae6b-393d5d9b8f58","a0a8f18c-a66e-4ba7-a170-23efbdc67501","{""participantId"":""C3FAAFFFF17545B2A116353BDDE85F84"",""assignmentId"":""e4a9ab2c-5bf2-4702-ae6b-393d5d9b8f58"",""projectId"":""a0a8f18c-a66e-4ba7-a170-23efbdc67501""}","https://test12345.live/?participantId=C3FAAFFFF17545B2A116353BDDE85F84&assignmentId=e4a9ab2c-5bf2-4702-ae6b-393d5d9b8f58&projectId=a0a8f18c-a66e-4ba7-a170-23efbdc67501","C3FAAFFFF17545B2A116353BDDE85F84-2024-11-24-18-43-35","","1758","","images/semantic_sequence/physical_activity_semantic/physical_activity_semantic_7.png","0","",""
"","","","","","image-button-response","45","238752","0.0-10.0-1.0-2.6","C3FAAFFFF17545B2A116353BDDE85F84","C3FAAFFFF17545B2A116353BDDE85F84","e4a9ab2c-5bf2-4702-ae6b-393d5d9b8f58","a0a8f18c-a66e-4ba7-a170-23efbdc67501","{""participantId"":""C3FAAFFFF17545B2A116353BDDE85F84"",""assignmentId"":""e4a9ab2c-5bf2-4702-ae6b-393d5d9b8f58"",""projectId"":""a0a8f18c-a66e-4ba7-a170-23efbdc67501""}","https://test12345.live/?participantId=C3FAAFFFF17545B2A116353BDDE85F84&assignmentId=e4a9ab2c-5bf2-4702-ae6b-393d5d9b8f58&projectId=a0a8f18c-a66e-4ba7-a170-23efbdc67501","C3FAAFFFF17545B2A116353BDDE85F84-2024-11-24-18-43-35","","null","","[]","null","",""
"","","","","","image-button-response","46","243267","0.0-10.0-1.0-0.7","C3FAAFFFF17545B2A116353BDDE85F84","C3FAAFFFF17545B2A116353BDDE85F84","e4a9ab2c-5bf2-4702-ae6b-393d5d9b8f58","a0a8f18c-a66e-4ba7-a170-23efbdc67501","{""participantId"":""C3FAAFFFF17545B2A116353BDDE85F84"",""assignmentId"":""e4a9ab2c-5bf2-4702-ae6b-393d5d9b8f58"",""projectId"":""a0a8f18c-a66e-4ba7-a170-23efbdc67501""}","https://test12345.live/?participantId=C3FAAFFFF17545B2A116353BDDE85F84&assignmentId=e4a9ab2c-5bf2-4702-ae6b-393d5d9b8f58&projectId=a0a8f18c-a66e-4ba7-a170-23efbdc67501","C3FAAFFFF17545B2A116353BDDE85F84-2024-11-24-18-43-35","","null","","images/semantic_sequence/physical_activity_semantic/physical_activity_semantic_8.png","null","",""
"","","","","","image-button-response","47","245064","0.0-10.0-1.0-1.7","C3FAAFFFF17545B2A116353BDDE85F84","C3FAAFFFF17545B2A116353BDDE85F84","e4a9ab2c-5bf2-4702-ae6b-393d5d9b8f58","a0a8f18c-a66e-4ba7-a170-23efbdc67501","{""participantId"":""C3FAAFFFF17545B2A116353BDDE85F84"",""assignmentId"":""e4a9ab2c-5bf2-4702-ae6b-393d5d9b8f58"",""projectId"":""a0a8f18c-a66e-4ba7-a170-23efbdc67501""}","https://test12345.live/?participantId=C3FAAFFFF17545B2A116353BDDE85F84&assignmentId=e4a9ab2c-5bf2-4702-ae6b-393d5d9b8f58&projectId=a0a8f18c-a66e-4ba7-a170-23efbdc67501","C3FAAFFFF17545B2A116353BDDE85F84-2024-11-24-18-43-35","","1795","","images/semantic_sequence/physical_activity_semantic/physical_activity_semantic_8.png","0","",""
"","","","","","image-button-response","48","246868","0.0-10.0-1.0-2.7","C3FAAFFFF17545B2A116353BDDE85F84","C3FAAFFFF17545B2A116353BDDE85F84","e4a9ab2c-5bf2-4702-ae6b-393d5d9b8f58","a0a8f18c-a66e-4ba7-a170-23efbdc67501","{""participantId"":""C3FAAFFFF17545B2A116353BDDE85F84"",""assignmentId"":""e4a9ab2c-5bf2-4702-ae6b-393d5d9b8f58"",""projectId"":""a0a8f18c-a66e-4ba7-a170-23efbdc67501""}","https://test12345.live/?participantId=C3FAAFFFF17545B2A116353BDDE85F84&assignmentId=e4a9ab2c-5bf2-4702-ae6b-393d5d9b8f58&projectId=a0a8f18c-a66e-4ba7-a170-23efbdc67501","C3FAAFFFF17545B2A116353BDDE85F84-2024-11-24-18-43-35","","null","","[]","null","",""
"","","","","","image-button-response","49","251383","0.0-10.0-1.0-0.8","C3FAAFFFF17545B2A116353BDDE85F84","C3FAAFFFF17545B2A116353BDDE85F84","e4a9ab2c-5bf2-4702-ae6b-393d5d9b8f58","a0a8f18c-a66e-4ba7-a170-23efbdc67501","{""participantId"":""C3FAAFFFF17545B2A116353BDDE85F84"",""assignmentId"":""e4a9ab2c-5bf2-4702-ae6b-393d5d9b8f58"",""projectId"":""a0a8f18c-a66e-4ba7-a170-23efbdc67501""}","https://test12345.live/?participantId=C3FAAFFFF17545B2A116353BDDE85F84&assignmentId=e4a9ab2c-5bf2-4702-ae6b-393d5d9b8f58&projectId=a0a8f18c-a66e-4ba7-a170-23efbdc67501","C3FAAFFFF17545B2A116353BDDE85F84-2024-11-24-18-43-35","","null","","images/semantic_sequence/physical_activity_semantic/physical_activity_semantic_9.png","null","",""
"","","","","","image-button-response","50","252958","0.0-10.0-1.0-1.8","C3FAAFFFF17545B2A116353BDDE85F84","C3FAAFFFF17545B2A116353BDDE85F84","e4a9ab2c-5bf2-4702-ae6b-393d5d9b8f58","a0a8f18c-a66e-4ba7-a170-23efbdc67501","{""participantId"":""C3FAAFFFF17545B2A116353BDDE85F84"",""assignmentId"":""e4a9ab2c-5bf2-4702-ae6b-393d5d9b8f58"",""projectId"":""a0a8f18c-a66e-4ba7-a170-23efbdc67501""}","https://test12345.live/?participantId=C3FAAFFFF17545B2A116353BDDE85F84&assignmentId=e4a9ab2c-5bf2-4702-ae6b-393d5d9b8f58&projectId=a0a8f18c-a66e-4ba7-a170-23efbdc67501","C3FAAFFFF17545B2A116353BDDE85F84-2024-11-24-18-43-35","","1573","","images/semantic_sequence/physical_activity_semantic/physical_activity_semantic_9.png","0","",""
"","","","","","image-button-response","51","254766","0.0-10.0-1.0-2.8","C3FAAFFFF17545B2A116353BDDE85F84","C3FAAFFFF17545B2A116353BDDE85F84","e4a9ab2c-5bf2-4702-ae6b-393d5d9b8f58","a0a8f18c-a66e-4ba7-a170-23efbdc67501","{""participantId"":""C3FAAFFFF17545B2A116353BDDE85F84"",""assignmentId"":""e4a9ab2c-5bf2-4702-ae6b-393d5d9b8f58"",""projectId"":""a0a8f18c-a66e-4ba7-a170-23efbdc67501""}","https://test12345.live/?participantId=C3FAAFFFF17545B2A116353BDDE85F84&assignmentId=e4a9ab2c-5bf2-4702-ae6b-393d5d9b8f58&projectId=a0a8f18c-a66e-4ba7-a170-23efbdc67501","C3FAAFFFF17545B2A116353BDDE85F84-2024-11-24-18-43-35","","null","","[]","null","",""
"","","","","","image-button-response","52","259275","0.0-10.0-1.0-0.9","C3FAAFFFF17545B2A116353BDDE85F84","C3FAAFFFF17545B2A116353BDDE85F84","e4a9ab2c-5bf2-4702-ae6b-393d5d9b8f58","a0a8f18c-a66e-4ba7-a170-23efbdc67501","{""participantId"":""C3FAAFFFF17545B2A116353BDDE85F84"",""assignmentId"":""e4a9ab2c-5bf2-4702-ae6b-393d5d9b8f58"",""projectId"":""a0a8f18c-a66e-4ba7-a170-23efbdc67501""}","https://test12345.live/?participantId=C3FAAFFFF17545B2A116353BDDE85F84&assignmentId=e4a9ab2c-5bf2-4702-ae6b-393d5d9b8f58&projectId=a0a8f18c-a66e-4ba7-a170-23efbdc67501","C3FAAFFFF17545B2A116353BDDE85F84-2024-11-24-18-43-35","","null","","images/semantic_sequence/physical_activity_semantic/physical_activity_semantic_ten.png","null","",""
"","","","","","image-button-response","53","260223","0.0-10.0-1.0-1.9","C3FAAFFFF17545B2A116353BDDE85F84","C3FAAFFFF17545B2A116353BDDE85F84","e4a9ab2c-5bf2-4702-ae6b-393d5d9b8f58","a0a8f18c-a66e-4ba7-a170-23efbdc67501","{""participantId"":""C3FAAFFFF17545B2A116353BDDE85F84"",""assignmentId"":""e4a9ab2c-5bf2-4702-ae6b-393d5d9b8f58"",""projectId"":""a0a8f18c-a66e-4ba7-a170-23efbdc67501""}","https://test12345.live/?participantId=C3FAAFFFF17545B2A116353BDDE85F84&assignmentId=e4a9ab2c-5bf2-4702-ae6b-393d5d9b8f58&projectId=a0a8f18c-a66e-4ba7-a170-23efbdc67501","C3FAAFFFF17545B2A116353BDDE85F84-2024-11-24-18-43-35","","947","","images/semantic_sequence/physical_activity_semantic/physical_activity_semantic_ten.png","0","",""
"","","","","","image-button-response","54","262030","0.0-10.0-1.0-2.9","C3FAAFFFF17545B2A116353BDDE85F84","C3FAAFFFF17545B2A116353BDDE85F84","e4a9ab2c-5bf2-4702-ae6b-393d5d9b8f58","a0a8f18c-a66e-4ba7-a170-23efbdc67501","{""participantId"":""C3FAAFFFF17545B2A116353BDDE85F84"",""assignmentId"":""e4a9ab2c-5bf2-4702-ae6b-393d5d9b8f58"",""projectId"":""a0a8f18c-a66e-4ba7-a170-23efbdc67501""}","https://test12345.live/?participantId=C3FAAFFFF17545B2A116353BDDE85F84&assignmentId=e4a9ab2c-5bf2-4702-ae6b-393d5d9b8f58&projectId=a0a8f18c-a66e-4ba7-a170-23efbdc67501","C3FAAFFFF17545B2A116353BDDE85F84-2024-11-24-18-43-35","","null","","[]","null","",""
"","","","","","html-audio-response","55","281404","0.0-11.0","C3FAAFFFF17545B2A116353BDDE85F84","C3FAAFFFF17545B2A116353BDDE85F84","e4a9ab2c-5bf2-4702-ae6b-393d5d9b8f58","a0a8f18c-a66e-4ba7-a170-23efbdc67501","{""participantId"":""C3FAAFFFF17545B2A116353BDDE85F84"",""assignmentId"":""e4a9ab2c-5bf2-4702-ae6b-393d5d9b8f58"",""projectId"":""a0a8f18c-a66e-4ba7-a170-23efbdc67501""}","https://test12345.live/?participantId=C3FAAFFFF17545B2A116353BDDE85F84&assignmentId=e4a9ab2c-5bf2-4702-ae6b-393d5d9b8f58&projectId=a0a8f18c-a66e-4ba7-a170-23efbdc67501","C3FAAFFFF17545B2A116353BDDE85F84-2024-11-24-18-43-35","","17494","","[""<span style=\""color: red; font-size: 24px\""> NOW RECORDING</span><p>Please say out loud all the images you saw, as many as you can remember. The images can be said in any order.</p>""]","","2","physical_activity_semantic"
"","","","","","image-button-response","56","287413","0.0-12.0-0.0","C3FAAFFFF17545B2A116353BDDE85F84","C3FAAFFFF17545B2A116353BDDE85F84","e4a9ab2c-5bf2-4702-ae6b-393d5d9b8f58","a0a8f18c-a66e-4ba7-a170-23efbdc67501","{""participantId"":""C3FAAFFFF17545B2A116353BDDE85F84"",""assignmentId"":""e4a9ab2c-5bf2-4702-ae6b-393d5d9b8f58"",""projectId"":""a0a8f18c-a66e-4ba7-a170-23efbdc67501""}","https://test12345.live/?participantId=C3FAAFFFF17545B2A116353BDDE85F84&assignmentId=e4a9ab2c-5bf2-4702-ae6b-393d5d9b8f58&projectId=a0a8f18c-a66e-4ba7-a170-23efbdc67501","C3FAAFFFF17545B2A116353BDDE85F84-2024-11-24-18-43-35","","null","","images/causal_sequence/museum_causal/museum_causal_0.png","null","",""
"","","","","","image-button-response","57","291924","0.0-12.0-1.0-0.0","C3FAAFFFF17545B2A116353BDDE85F84","C3FAAFFFF17545B2A116353BDDE85F84","e4a9ab2c-5bf2-4702-ae6b-393d5d9b8f58","a0a8f18c-a66e-4ba7-a170-23efbdc67501","{""participantId"":""C3FAAFFFF17545B2A116353BDDE85F84"",""assignmentId"":""e4a9ab2c-5bf2-4702-ae6b-393d5d9b8f58"",""projectId"":""a0a8f18c-a66e-4ba7-a170-23efbdc67501""}","https://test12345.live/?participantId=C3FAAFFFF17545B2A116353BDDE85F84&assignmentId=e4a9ab2c-5bf2-4702-ae6b-393d5d9b8f58&projectId=a0a8f18c-a66e-4ba7-a170-23efbdc67501","C3FAAFFFF17545B2A116353BDDE85F84-2024-11-24-18-43-35","","null","","images/causal_sequence/museum_causal/museum_causal_1.png","null","",""
"","","","","","image-button-response","58","293669","0.0-12.0-1.0-1.0","C3FAAFFFF17545B2A116353BDDE85F84","C3FAAFFFF17545B2A116353BDDE85F84","e4a9ab2c-5bf2-4702-ae6b-393d5d9b8f58","a0a8f18c-a66e-4ba7-a170-23efbdc67501","{""participantId"":""C3FAAFFFF17545B2A116353BDDE85F84"",""assignmentId"":""e4a9ab2c-5bf2-4702-ae6b-393d5d9b8f58"",""projectId"":""a0a8f18c-a66e-4ba7-a170-23efbdc67501""}","https://test12345.live/?participantId=C3FAAFFFF17545B2A116353BDDE85F84&assignmentId=e4a9ab2c-5bf2-4702-ae6b-393d5d9b8f58&projectId=a0a8f18c-a66e-4ba7-a170-23efbdc67501","C3FAAFFFF17545B2A116353BDDE85F84-2024-11-24-18-43-35","","1743","","images/causal_sequence/museum_causal/museum_causal_1.png","0","",""
"","","","","","image-button-response","59","295482","0.0-12.0-1.0-2.0","C3FAAFFFF17545B2A116353BDDE85F84","C3FAAFFFF17545B2A116353BDDE85F84","e4a9ab2c-5bf2-4702-ae6b-393d5d9b8f58","a0a8f18c-a66e-4ba7-a170-23efbdc67501","{""participantId"":""C3FAAFFFF17545B2A116353BDDE85F84"",""assignmentId"":""e4a9ab2c-5bf2-4702-ae6b-393d5d9b8f58"",""projectId"":""a0a8f18c-a66e-4ba7-a170-23efbdc67501""}","https://test12345.live/?participantId=C3FAAFFFF17545B2A116353BDDE85F84&assignmentId=e4a9ab2c-5bf2-4702-ae6b-393d5d9b8f58&projectId=a0a8f18c-a66e-4ba7-a170-23efbdc67501","C3FAAFFFF17545B2A116353BDDE85F84-2024-11-24-18-43-35","","null","","[]","null","",""
"","","","","","image-button-response","60","299996","0.0-12.0-1.0-0.1","C3FAAFFFF17545B2A116353BDDE85F84","C3FAAFFFF17545B2A116353BDDE85F84","e4a9ab2c-5bf2-4702-ae6b-393d5d9b8f58","a0a8f18c-a66e-4ba7-a170-23efbdc67501","{""participantId"":""C3FAAFFFF17545B2A116353BDDE85F84"",""assignmentId"":""e4a9ab2c-5bf2-4702-ae6b-393d5d9b8f58"",""projectId"":""a0a8f18c-a66e-4ba7-a170-23efbdc67501""}","https://test12345.live/?participantId=C3FAAFFFF17545B2A116353BDDE85F84&assignmentId=e4a9ab2c-5bf2-4702-ae6b-393d5d9b8f58&projectId=a0a8f18c-a66e-4ba7-a170-23efbdc67501","C3FAAFFFF17545B2A116353BDDE85F84-2024-11-24-18-43-35","","null","","images/causal_sequence/museum_causal/museum_causal_2.png","null","",""
"","","","","","image-button-response","61","302324","0.0-12.0-1.0-1.1","C3FAAFFFF17545B2A116353BDDE85F84","C3FAAFFFF17545B2A116353BDDE85F84","e4a9ab2c-5bf2-4702-ae6b-393d5d9b8f58","a0a8f18c-a66e-4ba7-a170-23efbdc67501","{""participantId"":""C3FAAFFFF17545B2A116353BDDE85F84"",""assignmentId"":""e4a9ab2c-5bf2-4702-ae6b-393d5d9b8f58"",""projectId"":""a0a8f18c-a66e-4ba7-a170-23efbdc67501""}","https://test12345.live/?participantId=C3FAAFFFF17545B2A116353BDDE85F84&assignmentId=e4a9ab2c-5bf2-4702-ae6b-393d5d9b8f58&projectId=a0a8f18c-a66e-4ba7-a170-23efbdc67501","C3FAAFFFF17545B2A116353BDDE85F84-2024-11-24-18-43-35","","2326","","images/causal_sequence/museum_causal/museum_causal_2.png","0","",""
"","","","","","image-button-response","62","304134","0.0-12.0-1.0-2.1","C3FAAFFFF17545B2A116353BDDE85F84","C3FAAFFFF17545B2A116353BDDE85F84","e4a9ab2c-5bf2-4702-ae6b-393d5d9b8f58","a0a8f18c-a66e-4ba7-a170-23efbdc67501","{""participantId"":""C3FAAFFFF17545B2A116353BDDE85F84"",""assignmentId"":""e4a9ab2c-5bf2-4702-ae6b-393d5d9b8f58"",""projectId"":""a0a8f18c-a66e-4ba7-a170-23efbdc67501""}","https://test12345.live/?participantId=C3FAAFFFF17545B2A116353BDDE85F84&assignmentId=e4a9ab2c-5bf2-4702-ae6b-393d5d9b8f58&projectId=a0a8f18c-a66e-4ba7-a170-23efbdc67501","C3FAAFFFF17545B2A116353BDDE85F84-2024-11-24-18-43-35","","null","","[]","null","",""
"","","","","","image-button-response","63","308647","0.0-12.0-1.0-0.2","C3FAAFFFF17545B2A116353BDDE85F84","C3FAAFFFF17545B2A116353BDDE85F84","e4a9ab2c-5bf2-4702-ae6b-393d5d9b8f58","a0a8f18c-a66e-4ba7-a170-23efbdc67501","{""participantId"":""C3FAAFFFF17545B2A116353BDDE85F84"",""assignmentId"":""e4a9ab2c-5bf2-4702-ae6b-393d5d9b8f58"",""projectId"":""a0a8f18c-a66e-4ba7-a170-23efbdc67501""}","https://test12345.live/?participantId=C3FAAFFFF17545B2A116353BDDE85F84&assignmentId=e4a9ab2c-5bf2-4702-ae6b-393d5d9b8f58&projectId=a0a8f18c-a66e-4ba7-a170-23efbdc67501","C3FAAFFFF17545B2A116353BDDE85F84-2024-11-24-18-43-35","","null","","images/causal_sequence/museum_causal/museum_causal_3.png","null","",""
"","","","","","image-button-response","64","309737","0.0-12.0-1.0-1.2","C3FAAFFFF17545B2A116353BDDE85F84","C3FAAFFFF17545B2A116353BDDE85F84","e4a9ab2c-5bf2-4702-ae6b-393d5d9b8f58","a0a8f18c-a66e-4ba7-a170-23efbdc67501","{""participantId"":""C3FAAFFFF17545B2A116353BDDE85F84"",""assignmentId"":""e4a9ab2c-5bf2-4702-ae6b-393d5d9b8f58"",""projectId"":""a0a8f18c-a66e-4ba7-a170-23efbdc67501""}","https://test12345.live/?participantId=C3FAAFFFF17545B2A116353BDDE85F84&assignmentId=e4a9ab2c-5bf2-4702-ae6b-393d5d9b8f58&projectId=a0a8f18c-a66e-4ba7-a170-23efbdc67501","C3FAAFFFF17545B2A116353BDDE85F84-2024-11-24-18-43-35","","1089","","images/causal_sequence/museum_causal/museum_causal_3.png","0","",""
"","","","","","image-button-response","65","311543","0.0-12.0-1.0-2.2","C3FAAFFFF17545B2A116353BDDE85F84","C3FAAFFFF17545B2A116353BDDE85F84","e4a9ab2c-5bf2-4702-ae6b-393d5d9b8f58","a0a8f18c-a66e-4ba7-a170-23efbdc67501","{""participantId"":""C3FAAFFFF17545B2A116353BDDE85F84"",""assignmentId"":""e4a9ab2c-5bf2-4702-ae6b-393d5d9b8f58"",""projectId"":""a0a8f18c-a66e-4ba7-a170-23efbdc67501""}","https://test12345.live/?participantId=C3FAAFFFF17545B2A116353BDDE85F84&assignmentId=e4a9ab2c-5bf2-4702-ae6b-393d5d9b8f58&projectId=a0a8f18c-a66e-4ba7-a170-23efbdc67501","C3FAAFFFF17545B2A116353BDDE85F84-2024-11-24-18-43-35","","null","","[]","null","",""
"","","","","","image-button-response","66","316057","0.0-12.0-1.0-0.3","C3FAAFFFF17545B2A116353BDDE85F84","C3FAAFFFF17545B2A116353BDDE85F84","e4a9ab2c-5bf2-4702-ae6b-393d5d9b8f58","a0a8f18c-a66e-4ba7-a170-23efbdc67501","{""participantId"":""C3FAAFFFF17545B2A116353BDDE85F84"",""assignmentId"":""e4a9ab2c-5bf2-4702-ae6b-393d5d9b8f58"",""projectId"":""a0a8f18c-a66e-4ba7-a170-23efbdc67501""}","https://test12345.live/?participantId=C3FAAFFFF17545B2A116353BDDE85F84&assignmentId=e4a9ab2c-5bf2-4702-ae6b-393d5d9b8f58&projectId=a0a8f18c-a66e-4ba7-a170-23efbdc67501","C3FAAFFFF17545B2A116353BDDE85F84-2024-11-24-18-43-35","","null","","images/causal_sequence/museum_causal/museum_causal_4.png","null","",""
"","","","","","image-button-response","67","318191","0.0-12.0-1.0-1.3","C3FAAFFFF17545B2A116353BDDE85F84","C3FAAFFFF17545B2A116353BDDE85F84","e4a9ab2c-5bf2-4702-ae6b-393d5d9b8f58","a0a8f18c-a66e-4ba7-a170-23efbdc67501","{""participantId"":""C3FAAFFFF17545B2A116353BDDE85F84"",""assignmentId"":""e4a9ab2c-5bf2-4702-ae6b-393d5d9b8f58"",""projectId"":""a0a8f18c-a66e-4ba7-a170-23efbdc67501""}","https://test12345.live/?participantId=C3FAAFFFF17545B2A116353BDDE85F84&assignmentId=e4a9ab2c-5bf2-4702-ae6b-393d5d9b8f58&projectId=a0a8f18c-a66e-4ba7-a170-23efbdc67501","C3FAAFFFF17545B2A116353BDDE85F84-2024-11-24-18-43-35","","2132","","images/causal_sequence/museum_causal/museum_causal_4.png","1","",""
"","","","","","image-button-response","68","319992","0.0-12.0-1.0-2.3","C3FAAFFFF17545B2A116353BDDE85F84","C3FAAFFFF17545B2A116353BDDE85F84","e4a9ab2c-5bf2-4702-ae6b-393d5d9b8f58","a0a8f18c-a66e-4ba7-a170-23efbdc67501","{""participantId"":""C3FAAFFFF17545B2A116353BDDE85F84"",""assignmentId"":""e4a9ab2c-5bf2-4702-ae6b-393d5d9b8f58"",""projectId"":""a0a8f18c-a66e-4ba7-a170-23efbdc67501""}","https://test12345.live/?participantId=C3FAAFFFF17545B2A116353BDDE85F84&assignmentId=e4a9ab2c-5bf2-4702-ae6b-393d5d9b8f58&projectId=a0a8f18c-a66e-4ba7-a170-23efbdc67501","C3FAAFFFF17545B2A116353BDDE85F84-2024-11-24-18-43-35","","null","","[]","null","",""
"","","","","","image-button-response","69","324502","0.0-12.0-1.0-0.4","C3FAAFFFF17545B2A116353BDDE85F84","C3FAAFFFF17545B2A116353BDDE85F84","e4a9ab2c-5bf2-4702-ae6b-393d5d9b8f58","a0a8f18c-a66e-4ba7-a170-23efbdc67501","{""participantId"":""C3FAAFFFF17545B2A116353BDDE85F84"",""assignmentId"":""e4a9ab2c-5bf2-4702-ae6b-393d5d9b8f58"",""projectId"":""a0a8f18c-a66e-4ba7-a170-23efbdc67501""}","https://test12345.live/?participantId=C3FAAFFFF17545B2A116353BDDE85F84&assignmentId=e4a9ab2c-5bf2-4702-ae6b-393d5d9b8f58&projectId=a0a8f18c-a66e-4ba7-a170-23efbdc67501","C3FAAFFFF17545B2A116353BDDE85F84-2024-11-24-18-43-35","","null","","images/causal_sequence/museum_causal/museum_causal_5.png","null","",""
"","","","","","image-button-response","70","325650","0.0-12.0-1.0-1.4","C3FAAFFFF17545B2A116353BDDE85F84","C3FAAFFFF17545B2A116353BDDE85F84","e4a9ab2c-5bf2-4702-ae6b-393d5d9b8f58","a0a8f18c-a66e-4ba7-a170-23efbdc67501","{""participantId"":""C3FAAFFFF17545B2A116353BDDE85F84"",""assignmentId"":""e4a9ab2c-5bf2-4702-ae6b-393d5d9b8f58"",""projectId"":""a0a8f18c-a66e-4ba7-a170-23efbdc67501""}","https://test12345.live/?participantId=C3FAAFFFF17545B2A116353BDDE85F84&assignmentId=e4a9ab2c-5bf2-4702-ae6b-393d5d9b8f58&projectId=a0a8f18c-a66e-4ba7-a170-23efbdc67501","C3FAAFFFF17545B2A116353BDDE85F84-2024-11-24-18-43-35","","1146","","images/causal_sequence/museum_causal/museum_causal_5.png","0","",""
"","","","","","image-button-response","71","327460","0.0-12.0-1.0-2.4","C3FAAFFFF17545B2A116353BDDE85F84","C3FAAFFFF17545B2A116353BDDE85F84","e4a9ab2c-5bf2-4702-ae6b-393d5d9b8f58","a0a8f18c-a66e-4ba7-a170-23efbdc67501","{""participantId"":""C3FAAFFFF17545B2A116353BDDE85F84"",""assignmentId"":""e4a9ab2c-5bf2-4702-ae6b-393d5d9b8f58"",""projectId"":""a0a8f18c-a66e-4ba7-a170-23efbdc67501""}","https://test12345.live/?participantId=C3FAAFFFF17545B2A116353BDDE85F84&assignmentId=e4a9ab2c-5bf2-4702-ae6b-393d5d9b8f58&projectId=a0a8f18c-a66e-4ba7-a170-23efbdc67501","C3FAAFFFF17545B2A116353BDDE85F84-2024-11-24-18-43-35","","null","","[]","null","",""
"","","","","","image-button-response","72","331962","0.0-12.0-1.0-0.5","C3FAAFFFF17545B2A116353BDDE85F84","C3FAAFFFF17545B2A116353BDDE85F84","e4a9ab2c-5bf2-4702-ae6b-393d5d9b8f58","a0a8f18c-a66e-4ba7-a170-23efbdc67501","{""participantId"":""C3FAAFFFF17545B2A116353BDDE85F84"",""assignmentId"":""e4a9ab2c-5bf2-4702-ae6b-393d5d9b8f58"",""projectId"":""a0a8f18c-a66e-4ba7-a170-23efbdc67501""}","https://test12345.live/?participantId=C3FAAFFFF17545B2A116353BDDE85F84&assignmentId=e4a9ab2c-5bf2-4702-ae6b-393d5d9b8f58&projectId=a0a8f18c-a66e-4ba7-a170-23efbdc67501","C3FAAFFFF17545B2A116353BDDE85F84-2024-11-24-18-43-35","","null","","images/causal_sequence/museum_causal/museum_causal_6.png","null","",""
"","","","","","image-button-response","73","333850","0.0-12.0-1.0-1.5","C3FAAFFFF17545B2A116353BDDE85F84","C3FAAFFFF17545B2A116353BDDE85F84","e4a9ab2c-5bf2-4702-ae6b-393d5d9b8f58","a0a8f18c-a66e-4ba7-a170-23efbdc67501","{""participantId"":""C3FAAFFFF17545B2A116353BDDE85F84"",""assignmentId"":""e4a9ab2c-5bf2-4702-ae6b-393d5d9b8f58"",""projectId"":""a0a8f18c-a66e-4ba7-a170-23efbdc67501""}","https://test12345.live/?participantId=C3FAAFFFF17545B2A116353BDDE85F84&assignmentId=e4a9ab2c-5bf2-4702-ae6b-393d5d9b8f58&projectId=a0a8f18c-a66e-4ba7-a170-23efbdc67501","C3FAAFFFF17545B2A116353BDDE85F84-2024-11-24-18-43-35","","1886","","images/causal_sequence/museum_causal/museum_causal_6.png","0","",""
"","","","","","image-button-response","74","335654","0.0-12.0-1.0-2.5","C3FAAFFFF17545B2A116353BDDE85F84","C3FAAFFFF17545B2A116353BDDE85F84","e4a9ab2c-5bf2-4702-ae6b-393d5d9b8f58","a0a8f18c-a66e-4ba7-a170-23efbdc67501","{""participantId"":""C3FAAFFFF17545B2A116353BDDE85F84"",""assignmentId"":""e4a9ab2c-5bf2-4702-ae6b-393d5d9b8f58"",""projectId"":""a0a8f18c-a66e-4ba7-a170-23efbdc67501""}","https://test12345.live/?participantId=C3FAAFFFF17545B2A116353BDDE85F84&assignmentId=e4a9ab2c-5bf2-4702-ae6b-393d5d9b8f58&projectId=a0a8f18c-a66e-4ba7-a170-23efbdc67501","C3FAAFFFF17545B2A116353BDDE85F84-2024-11-24-18-43-35","","null","","[]","null","",""
"","","","","","image-button-response","75","340165","0.0-12.0-1.0-0.6","C3FAAFFFF17545B2A116353BDDE85F84","C3FAAFFFF17545B2A116353BDDE85F84","e4a9ab2c-5bf2-4702-ae6b-393d5d9b8f58","a0a8f18c-a66e-4ba7-a170-23efbdc67501","{""participantId"":""C3FAAFFFF17545B2A116353BDDE85F84"",""assignmentId"":""e4a9ab2c-5bf2-4702-ae6b-393d5d9b8f58"",""projectId"":""a0a8f18c-a66e-4ba7-a170-23efbdc67501""}","https://test12345.live/?participantId=C3FAAFFFF17545B2A116353BDDE85F84&assignmentId=e4a9ab2c-5bf2-4702-ae6b-393d5d9b8f58&projectId=a0a8f18c-a66e-4ba7-a170-23efbdc67501","C3FAAFFFF17545B2A116353BDDE85F84-2024-11-24-18-43-35","","null","","images/causal_sequence/museum_causal/museum_causal_7.png","null","",""
"","","","","","image-button-response","76","341198","0.0-12.0-1.0-1.6","C3FAAFFFF17545B2A116353BDDE85F84","C3FAAFFFF17545B2A116353BDDE85F84","e4a9ab2c-5bf2-4702-ae6b-393d5d9b8f58","a0a8f18c-a66e-4ba7-a170-23efbdc67501","{""participantId"":""C3FAAFFFF17545B2A116353BDDE85F84"",""assignmentId"":""e4a9ab2c-5bf2-4702-ae6b-393d5d9b8f58"",""projectId"":""a0a8f18c-a66e-4ba7-a170-23efbdc67501""}","https://test12345.live/?participantId=C3FAAFFFF17545B2A116353BDDE85F84&assignmentId=e4a9ab2c-5bf2-4702-ae6b-393d5d9b8f58&projectId=a0a8f18c-a66e-4ba7-a170-23efbdc67501","C3FAAFFFF17545B2A116353BDDE85F84-2024-11-24-18-43-35","","1031","","images/causal_sequence/museum_causal/museum_causal_7.png","0","",""
"","","","","","image-button-response","77","343013","0.0-12.0-1.0-2.6","C3FAAFFFF17545B2A116353BDDE85F84","C3FAAFFFF17545B2A116353BDDE85F84","e4a9ab2c-5bf2-4702-ae6b-393d5d9b8f58","a0a8f18c-a66e-4ba7-a170-23efbdc67501","{""participantId"":""C3FAAFFFF17545B2A116353BDDE85F84"",""assignmentId"":""e4a9ab2c-5bf2-4702-ae6b-393d5d9b8f58"",""projectId"":""a0a8f18c-a66e-4ba7-a170-23efbdc67501""}","https://test12345.live/?participantId=C3FAAFFFF17545B2A116353BDDE85F84&assignmentId=e4a9ab2c-5bf2-4702-ae6b-393d5d9b8f58&projectId=a0a8f18c-a66e-4ba7-a170-23efbdc67501","C3FAAFFFF17545B2A116353BDDE85F84-2024-11-24-18-43-35","","null","","[]","null","",""
"","","","","","image-button-response","78","347515","0.0-12.0-1.0-0.7","C3FAAFFFF17545B2A116353BDDE85F84","C3FAAFFFF17545B2A116353BDDE85F84","e4a9ab2c-5bf2-4702-ae6b-393d5d9b8f58","a0a8f18c-a66e-4ba7-a170-23efbdc67501","{""participantId"":""C3FAAFFFF17545B2A116353BDDE85F84"",""assignmentId"":""e4a9ab2c-5bf2-4702-ae6b-393d5d9b8f58"",""projectId"":""a0a8f18c-a66e-4ba7-a170-23efbdc67501""}","https://test12345.live/?participantId=C3FAAFFFF17545B2A116353BDDE85F84&assignmentId=e4a9ab2c-5bf2-4702-ae6b-393d5d9b8f58&projectId=a0a8f18c-a66e-4ba7-a170-23efbdc67501","C3FAAFFFF17545B2A116353BDDE85F84-2024-11-24-18-43-35","","null","","images/causal_sequence/museum_causal/museum_causal_8.png","null","",""
"","","","","","image-button-response","79","348591","0.0-12.0-1.0-1.7","C3FAAFFFF17545B2A116353BDDE85F84","C3FAAFFFF17545B2A116353BDDE85F84","e4a9ab2c-5bf2-4702-ae6b-393d5d9b8f58","a0a8f18c-a66e-4ba7-a170-23efbdc67501","{""participantId"":""C3FAAFFFF17545B2A116353BDDE85F84"",""assignmentId"":""e4a9ab2c-5bf2-4702-ae6b-393d5d9b8f58"",""projectId"":""a0a8f18c-a66e-4ba7-a170-23efbdc67501""}","https://test12345.live/?participantId=C3FAAFFFF17545B2A116353BDDE85F84&assignmentId=e4a9ab2c-5bf2-4702-ae6b-393d5d9b8f58&projectId=a0a8f18c-a66e-4ba7-a170-23efbdc67501","C3FAAFFFF17545B2A116353BDDE85F84-2024-11-24-18-43-35","","1074","","images/causal_sequence/museum_causal/museum_causal_8.png","0","",""
"","","","","","image-button-response","80","350394","0.0-12.0-1.0-2.7","C3FAAFFFF17545B2A116353BDDE85F84","C3FAAFFFF17545B2A116353BDDE85F84","e4a9ab2c-5bf2-4702-ae6b-393d5d9b8f58","a0a8f18c-a66e-4ba7-a170-23efbdc67501","{""participantId"":""C3FAAFFFF17545B2A116353BDDE85F84"",""assignmentId"":""e4a9ab2c-5bf2-4702-ae6b-393d5d9b8f58"",""projectId"":""a0a8f18c-a66e-4ba7-a170-23efbdc67501""}","https://test12345.live/?participantId=C3FAAFFFF17545B2A116353BDDE85F84&assignmentId=e4a9ab2c-5bf2-4702-ae6b-393d5d9b8f58&projectId=a0a8f18c-a66e-4ba7-a170-23efbdc67501","C3FAAFFFF17545B2A116353BDDE85F84-2024-11-24-18-43-35","","null","","[]","null","",""
"","","","","","image-button-response","81","354895","0.0-12.0-1.0-0.8","C3FAAFFFF17545B2A116353BDDE85F84","C3FAAFFFF17545B2A116353BDDE85F84","e4a9ab2c-5bf2-4702-ae6b-393d5d9b8f58","a0a8f18c-a66e-4ba7-a170-23efbdc67501","{""participantId"":""C3FAAFFFF17545B2A116353BDDE85F84"",""assignmentId"":""e4a9ab2c-5bf2-4702-ae6b-393d5d9b8f58"",""projectId"":""a0a8f18c-a66e-4ba7-a170-23efbdc67501""}","https://test12345.live/?participantId=C3FAAFFFF17545B2A116353BDDE85F84&assignmentId=e4a9ab2c-5bf2-4702-ae6b-393d5d9b8f58&projectId=a0a8f18c-a66e-4ba7-a170-23efbdc67501","C3FAAFFFF17545B2A116353BDDE85F84-2024-11-24-18-43-35","","null","","images/causal_sequence/museum_causal/museum_causal_9.png","null","",""
"","","","","","image-button-response","82","358142","0.0-12.0-1.0-1.8","C3FAAFFFF17545B2A116353BDDE85F84","C3FAAFFFF17545B2A116353BDDE85F84","e4a9ab2c-5bf2-4702-ae6b-393d5d9b8f58","a0a8f18c-a66e-4ba7-a170-23efbdc67501","{""participantId"":""C3FAAFFFF17545B2A116353BDDE85F84"",""assignmentId"":""e4a9ab2c-5bf2-4702-ae6b-393d5d9b8f58"",""projectId"":""a0a8f18c-a66e-4ba7-a170-23efbdc67501""}","https://test12345.live/?participantId=C3FAAFFFF17545B2A116353BDDE85F84&assignmentId=e4a9ab2c-5bf2-4702-ae6b-393d5d9b8f58&projectId=a0a8f18c-a66e-4ba7-a170-23efbdc67501","C3FAAFFFF17545B2A116353BDDE85F84-2024-11-24-18-43-35","","3246","","images/causal_sequence/museum_causal/museum_causal_9.png","1","",""
"","","","","","image-button-response","83","359954","0.0-12.0-1.0-2.8","C3FAAFFFF17545B2A116353BDDE85F84","C3FAAFFFF17545B2A116353BDDE85F84","e4a9ab2c-5bf2-4702-ae6b-393d5d9b8f58","a0a8f18c-a66e-4ba7-a170-23efbdc67501","{""participantId"":""C3FAAFFFF17545B2A116353BDDE85F84"",""assignmentId"":""e4a9ab2c-5bf2-4702-ae6b-393d5d9b8f58"",""projectId"":""a0a8f18c-a66e-4ba7-a170-23efbdc67501""}","https://test12345.live/?participantId=C3FAAFFFF17545B2A116353BDDE85F84&assignmentId=e4a9ab2c-5bf2-4702-ae6b-393d5d9b8f58&projectId=a0a8f18c-a66e-4ba7-a170-23efbdc67501","C3FAAFFFF17545B2A116353BDDE85F84-2024-11-24-18-43-35","","null","","[]","null","",""
"","","","","","image-button-response","84","364461","0.0-12.0-1.0-0.9","C3FAAFFFF17545B2A116353BDDE85F84","C3FAAFFFF17545B2A116353BDDE85F84","e4a9ab2c-5bf2-4702-ae6b-393d5d9b8f58","a0a8f18c-a66e-4ba7-a170-23efbdc67501","{""participantId"":""C3FAAFFFF17545B2A116353BDDE85F84"",""assignmentId"":""e4a9ab2c-5bf2-4702-ae6b-393d5d9b8f58"",""projectId"":""a0a8f18c-a66e-4ba7-a170-23efbdc67501""}","https://test12345.live/?participantId=C3FAAFFFF17545B2A116353BDDE85F84&assignmentId=e4a9ab2c-5bf2-4702-ae6b-393d5d9b8f58&projectId=a0a8f18c-a66e-4ba7-a170-23efbdc67501","C3FAAFFFF17545B2A116353BDDE85F84-2024-11-24-18-43-35","","null","","images/causal_sequence/museum_causal/museum_causal_ten.png","null","",""
"","","","","","image-button-response","85","366543","0.0-12.0-1.0-1.9","C3FAAFFFF17545B2A116353BDDE85F84","C3FAAFFFF17545B2A116353BDDE85F84","e4a9ab2c-5bf2-4702-ae6b-393d5d9b8f58","a0a8f18c-a66e-4ba7-a170-23efbdc67501","{""participantId"":""C3FAAFFFF17545B2A116353BDDE85F84"",""assignmentId"":""e4a9ab2c-5bf2-4702-ae6b-393d5d9b8f58"",""projectId"":""a0a8f18c-a66e-4ba7-a170-23efbdc67501""}","https://test12345.live/?participantId=C3FAAFFFF17545B2A116353BDDE85F84&assignmentId=e4a9ab2c-5bf2-4702-ae6b-393d5d9b8f58&projectId=a0a8f18c-a66e-4ba7-a170-23efbdc67501","C3FAAFFFF17545B2A116353BDDE85F84-2024-11-24-18-43-35","","2080","","images/causal_sequence/museum_causal/museum_causal_ten.png","0","",""
"","","","","","image-button-response","86","368360","0.0-12.0-1.0-2.9","C3FAAFFFF17545B2A116353BDDE85F84","C3FAAFFFF17545B2A116353BDDE85F84","e4a9ab2c-5bf2-4702-ae6b-393d5d9b8f58","a0a8f18c-a66e-4ba7-a170-23efbdc67501","{""participantId"":""C3FAAFFFF17545B2A116353BDDE85F84"",""assignmentId"":""e4a9ab2c-5bf2-4702-ae6b-393d5d9b8f58"",""projectId"":""a0a8f18c-a66e-4ba7-a170-23efbdc67501""}","https://test12345.live/?participantId=C3FAAFFFF17545B2A116353BDDE85F84&assignmentId=e4a9ab2c-5bf2-4702-ae6b-393d5d9b8f58&projectId=a0a8f18c-a66e-4ba7-a170-23efbdc67501","C3FAAFFFF17545B2A116353BDDE85F84-2024-11-24-18-43-35","","null","","[]","null","",""
"","","","","","html-audio-response","87","398617","0.0-13.0","C3FAAFFFF17545B2A116353BDDE85F84","C3FAAFFFF17545B2A116353BDDE85F84","e4a9ab2c-5bf2-4702-ae6b-393d5d9b8f58","a0a8f18c-a66e-4ba7-a170-23efbdc67501","{""participantId"":""C3FAAFFFF17545B2A116353BDDE85F84"",""assignmentId"":""e4a9ab2c-5bf2-4702-ae6b-393d5d9b8f58"",""projectId"":""a0a8f18c-a66e-4ba7-a170-23efbdc67501""}","https://test12345.live/?participantId=C3FAAFFFF17545B2A116353BDDE85F84&assignmentId=e4a9ab2c-5bf2-4702-ae6b-393d5d9b8f58&projectId=a0a8f18c-a66e-4ba7-a170-23efbdc67501","C3FAAFFFF17545B2A116353BDDE85F84-2024-11-24-18-43-35","","27235","","[""<span style=\""color: red; font-size: 24px\""> NOW RECORDING</span><p>Please say out loud all the images you saw, as many as you can remember. The images can be said in any order.</p>""]","","1","museum_causal"
"","","","","","image-button-response","88","404633","0.0-14.0-0.0","C3FAAFFFF17545B2A116353BDDE85F84","C3FAAFFFF17545B2A116353BDDE85F84","e4a9ab2c-5bf2-4702-ae6b-393d5d9b8f58","a0a8f18c-a66e-4ba7-a170-23efbdc67501","{""participantId"":""C3FAAFFFF17545B2A116353BDDE85F84"",""assignmentId"":""e4a9ab2c-5bf2-4702-ae6b-393d5d9b8f58"",""projectId"":""a0a8f18c-a66e-4ba7-a170-23efbdc67501""}","https://test12345.live/?participantId=C3FAAFFFF17545B2A116353BDDE85F84&assignmentId=e4a9ab2c-5bf2-4702-ae6b-393d5d9b8f58&projectId=a0a8f18c-a66e-4ba7-a170-23efbdc67501","C3FAAFFFF17545B2A116353BDDE85F84-2024-11-24-18-43-35","","null","","images/schematic_sequence/restaurant_scheme/restaurant_scheme_0.png","null","",""
"","","","","","image-button-response","89","409145","0.0-14.0-1.0-0.0","C3FAAFFFF17545B2A116353BDDE85F84","C3FAAFFFF17545B2A116353BDDE85F84","e4a9ab2c-5bf2-4702-ae6b-393d5d9b8f58","a0a8f18c-a66e-4ba7-a170-23efbdc67501","{""participantId"":""C3FAAFFFF17545B2A116353BDDE85F84"",""assignmentId"":""e4a9ab2c-5bf2-4702-ae6b-393d5d9b8f58"",""projectId"":""a0a8f18c-a66e-4ba7-a170-23efbdc67501""}","https://test12345.live/?participantId=C3FAAFFFF17545B2A116353BDDE85F84&assignmentId=e4a9ab2c-5bf2-4702-ae6b-393d5d9b8f58&projectId=a0a8f18c-a66e-4ba7-a170-23efbdc67501","C3FAAFFFF17545B2A116353BDDE85F84-2024-11-24-18-43-35","","null","","images/schematic_sequence/restaurant_scheme/restaurant_scheme_6.png","null","",""
"","","","","","image-button-response","90","413156","0.0-14.0-1.0-1.0","C3FAAFFFF17545B2A116353BDDE85F84","C3FAAFFFF17545B2A116353BDDE85F84","e4a9ab2c-5bf2-4702-ae6b-393d5d9b8f58","a0a8f18c-a66e-4ba7-a170-23efbdc67501","{""participantId"":""C3FAAFFFF17545B2A116353BDDE85F84"",""assignmentId"":""e4a9ab2c-5bf2-4702-ae6b-393d5d9b8f58"",""projectId"":""a0a8f18c-a66e-4ba7-a170-23efbdc67501""}","https://test12345.live/?participantId=C3FAAFFFF17545B2A116353BDDE85F84&assignmentId=e4a9ab2c-5bf2-4702-ae6b-393d5d9b8f58&projectId=a0a8f18c-a66e-4ba7-a170-23efbdc67501","C3FAAFFFF17545B2A116353BDDE85F84-2024-11-24-18-43-35","","null","","images/schematic_sequence/restaurant_scheme/restaurant_scheme_6.png","null","",""
"","","","","","image-button-response","91","414958","0.0-14.0-1.0-2.0","C3FAAFFFF17545B2A116353BDDE85F84","C3FAAFFFF17545B2A116353BDDE85F84","e4a9ab2c-5bf2-4702-ae6b-393d5d9b8f58","a0a8f18c-a66e-4ba7-a170-23efbdc67501","{""participantId"":""C3FAAFFFF17545B2A116353BDDE85F84"",""assignmentId"":""e4a9ab2c-5bf2-4702-ae6b-393d5d9b8f58"",""projectId"":""a0a8f18c-a66e-4ba7-a170-23efbdc67501""}","https://test12345.live/?participantId=C3FAAFFFF17545B2A116353BDDE85F84&assignmentId=e4a9ab2c-5bf2-4702-ae6b-393d5d9b8f58&projectId=a0a8f18c-a66e-4ba7-a170-23efbdc67501","C3FAAFFFF17545B2A116353BDDE85F84-2024-11-24-18-43-35","","null","","[]","null","",""
"","","","","","image-button-response","92","419462","0.0-14.0-1.0-0.1","C3FAAFFFF17545B2A116353BDDE85F84","C3FAAFFFF17545B2A116353BDDE85F84","e4a9ab2c-5bf2-4702-ae6b-393d5d9b8f58","a0a8f18c-a66e-4ba7-a170-23efbdc67501","{""participantId"":""C3FAAFFFF17545B2A116353BDDE85F84"",""assignmentId"":""e4a9ab2c-5bf2-4702-ae6b-393d5d9b8f58"",""projectId"":""a0a8f18c-a66e-4ba7-a170-23efbdc67501""}","https://test12345.live/?participantId=C3FAAFFFF17545B2A116353BDDE85F84&assignmentId=e4a9ab2c-5bf2-4702-ae6b-393d5d9b8f58&projectId=a0a8f18c-a66e-4ba7-a170-23efbdc67501","C3FAAFFFF17545B2A116353BDDE85F84-2024-11-24-18-43-35","","null","","images/schematic_sequence/restaurant_scheme/restaurant_scheme_8.png","null","",""
"","","","","","image-button-response","93","420339","0.0-14.0-1.0-1.1","C3FAAFFFF17545B2A116353BDDE85F84","C3FAAFFFF17545B2A116353BDDE85F84","e4a9ab2c-5bf2-4702-ae6b-393d5d9b8f58","a0a8f18c-a66e-4ba7-a170-23efbdc67501","{""participantId"":""C3FAAFFFF17545B2A116353BDDE85F84"",""assignmentId"":""e4a9ab2c-5bf2-4702-ae6b-393d5d9b8f58"",""projectId"":""a0a8f18c-a66e-4ba7-a170-23efbdc67501""}","https://test12345.live/?participantId=C3FAAFFFF17545B2A116353BDDE85F84&assignmentId=e4a9ab2c-5bf2-4702-ae6b-393d5d9b8f58&projectId=a0a8f18c-a66e-4ba7-a170-23efbdc67501","C3FAAFFFF17545B2A116353BDDE85F84-2024-11-24-18-43-35","","875","","images/schematic_sequence/restaurant_scheme/restaurant_scheme_8.png","0","",""
"","","","","","image-button-response","94","422141","0.0-14.0-1.0-2.1","C3FAAFFFF17545B2A116353BDDE85F84","C3FAAFFFF17545B2A116353BDDE85F84","e4a9ab2c-5bf2-4702-ae6b-393d5d9b8f58","a0a8f18c-a66e-4ba7-a170-23efbdc67501","{""participantId"":""C3FAAFFFF17545B2A116353BDDE85F84"",""assignmentId"":""e4a9ab2c-5bf2-4702-ae6b-393d5d9b8f58"",""projectId"":""a0a8f18c-a66e-4ba7-a170-23efbdc67501""}","https://test12345.live/?participantId=C3FAAFFFF17545B2A116353BDDE85F84&assignmentId=e4a9ab2c-5bf2-4702-ae6b-393d5d9b8f58&projectId=a0a8f18c-a66e-4ba7-a170-23efbdc67501","C3FAAFFFF17545B2A116353BDDE85F84-2024-11-24-18-43-35","","null","","[]","null","",""
"","","","","","image-button-response","95","426646","0.0-14.0-1.0-0.2","C3FAAFFFF17545B2A116353BDDE85F84","C3FAAFFFF17545B2A116353BDDE85F84","e4a9ab2c-5bf2-4702-ae6b-393d5d9b8f58","a0a8f18c-a66e-4ba7-a170-23efbdc67501","{""participantId"":""C3FAAFFFF17545B2A116353BDDE85F84"",""assignmentId"":""e4a9ab2c-5bf2-4702-ae6b-393d5d9b8f58"",""projectId"":""a0a8f18c-a66e-4ba7-a170-23efbdc67501""}","https://test12345.live/?participantId=C3FAAFFFF17545B2A116353BDDE85F84&assignmentId=e4a9ab2c-5bf2-4702-ae6b-393d5d9b8f58&projectId=a0a8f18c-a66e-4ba7-a170-23efbdc67501","C3FAAFFFF17545B2A116353BDDE85F84-2024-11-24-18-43-35","","null","","images/schematic_sequence/restaurant_scheme/restaurant_scheme_3.png","null","",""
"","","","","","image-button-response","96","428044","0.0-14.0-1.0-1.2","C3FAAFFFF17545B2A116353BDDE85F84","C3FAAFFFF17545B2A116353BDDE85F84","e4a9ab2c-5bf2-4702-ae6b-393d5d9b8f58","a0a8f18c-a66e-4ba7-a170-23efbdc67501","{""participantId"":""C3FAAFFFF17545B2A116353BDDE85F84"",""assignmentId"":""e4a9ab2c-5bf2-4702-ae6b-393d5d9b8f58"",""projectId"":""a0a8f18c-a66e-4ba7-a170-23efbdc67501""}","https://test12345.live/?participantId=C3FAAFFFF17545B2A116353BDDE85F84&assignmentId=e4a9ab2c-5bf2-4702-ae6b-393d5d9b8f58&projectId=a0a8f18c-a66e-4ba7-a170-23efbdc67501","C3FAAFFFF17545B2A116353BDDE85F84-2024-11-24-18-43-35","","1396","","images/schematic_sequence/restaurant_scheme/restaurant_scheme_3.png","1","",""
"","","","","","image-button-response","97","429850","0.0-14.0-1.0-2.2","C3FAAFFFF17545B2A116353BDDE85F84","C3FAAFFFF17545B2A116353BDDE85F84","e4a9ab2c-5bf2-4702-ae6b-393d5d9b8f58","a0a8f18c-a66e-4ba7-a170-23efbdc67501","{""participantId"":""C3FAAFFFF17545B2A116353BDDE85F84"",""assignmentId"":""e4a9ab2c-5bf2-4702-ae6b-393d5d9b8f58"",""projectId"":""a0a8f18c-a66e-4ba7-a170-23efbdc67501""}","https://test12345.live/?participantId=C3FAAFFFF17545B2A116353BDDE85F84&assignmentId=e4a9ab2c-5bf2-4702-ae6b-393d5d9b8f58&projectId=a0a8f18c-a66e-4ba7-a170-23efbdc67501","C3FAAFFFF17545B2A116353BDDE85F84-2024-11-24-18-43-35","","null","","[]","null","",""
"","","","","","image-button-response","98","434358","0.0-14.0-1.0-0.3","C3FAAFFFF17545B2A116353BDDE85F84","C3FAAFFFF17545B2A116353BDDE85F84","e4a9ab2c-5bf2-4702-ae6b-393d5d9b8f58","a0a8f18c-a66e-4ba7-a170-23efbdc67501","{""participantId"":""C3FAAFFFF17545B2A116353BDDE85F84"",""assignmentId"":""e4a9ab2c-5bf2-4702-ae6b-393d5d9b8f58"",""projectId"":""a0a8f18c-a66e-4ba7-a170-23efbdc67501""}","https://test12345.live/?participantId=C3FAAFFFF17545B2A116353BDDE85F84&assignmentId=e4a9ab2c-5bf2-4702-ae6b-393d5d9b8f58&projectId=a0a8f18c-a66e-4ba7-a170-23efbdc67501","C3FAAFFFF17545B2A116353BDDE85F84-2024-11-24-18-43-35","","null","","images/schematic_sequence/restaurant_scheme/restaurant_scheme_5.png","null","",""
"","","","","","image-button-response","99","435360","0.0-14.0-1.0-1.3","C3FAAFFFF17545B2A116353BDDE85F84","C3FAAFFFF17545B2A116353BDDE85F84","e4a9ab2c-5bf2-4702-ae6b-393d5d9b8f58","a0a8f18c-a66e-4ba7-a170-23efbdc67501","{""participantId"":""C3FAAFFFF17545B2A116353BDDE85F84"",""assignmentId"":""e4a9ab2c-5bf2-4702-ae6b-393d5d9b8f58"",""projectId"":""a0a8f18c-a66e-4ba7-a170-23efbdc67501""}","https://test12345.live/?participantId=C3FAAFFFF17545B2A116353BDDE85F84&assignmentId=e4a9ab2c-5bf2-4702-ae6b-393d5d9b8f58&projectId=a0a8f18c-a66e-4ba7-a170-23efbdc67501","C3FAAFFFF17545B2A116353BDDE85F84-2024-11-24-18-43-35","","1000","","images/schematic_sequence/restaurant_scheme/restaurant_scheme_5.png","0","",""
"","","","","","image-button-response","100","437173","0.0-14.0-1.0-2.3","C3FAAFFFF17545B2A116353BDDE85F84","C3FAAFFFF17545B2A116353BDDE85F84","e4a9ab2c-5bf2-4702-ae6b-393d5d9b8f58","a0a8f18c-a66e-4ba7-a170-23efbdc67501","{""participantId"":""C3FAAFFFF17545B2A116353BDDE85F84"",""assignmentId"":""e4a9ab2c-5bf2-4702-ae6b-393d5d9b8f58"",""projectId"":""a0a8f18c-a66e-4ba7-a170-23efbdc67501""}","https://test12345.live/?participantId=C3FAAFFFF17545B2A116353BDDE85F84&assignmentId=e4a9ab2c-5bf2-4702-ae6b-393d5d9b8f58&projectId=a0a8f18c-a66e-4ba7-a170-23efbdc67501","C3FAAFFFF17545B2A116353BDDE85F84-2024-11-24-18-43-35","","null","","[]","null","",""
"","","","","","image-button-response","101","441676","0.0-14.0-1.0-0.4","C3FAAFFFF17545B2A116353BDDE85F84","C3FAAFFFF17545B2A116353BDDE85F84","e4a9ab2c-5bf2-4702-ae6b-393d5d9b8f58","a0a8f18c-a66e-4ba7-a170-23efbdc67501","{""participantId"":""C3FAAFFFF17545B2A116353BDDE85F84"",""assignmentId"":""e4a9ab2c-5bf2-4702-ae6b-393d5d9b8f58"",""projectId"":""a0a8f18c-a66e-4ba7-a170-23efbdc67501""}","https://test12345.live/?participantId=C3FAAFFFF17545B2A116353BDDE85F84&assignmentId=e4a9ab2c-5bf2-4702-ae6b-393d5d9b8f58&projectId=a0a8f18c-a66e-4ba7-a170-23efbdc67501","C3FAAFFFF17545B2A116353BDDE85F84-2024-11-24-18-43-35","","null","","images/schematic_sequence/restaurant_scheme/restaurant_scheme_2.png","null","",""
"","","","","","image-button-response","102","444223","0.0-14.0-1.0-1.4","C3FAAFFFF17545B2A116353BDDE85F84","C3FAAFFFF17545B2A116353BDDE85F84","e4a9ab2c-5bf2-4702-ae6b-393d5d9b8f58","a0a8f18c-a66e-4ba7-a170-23efbdc67501","{""participantId"":""C3FAAFFFF17545B2A116353BDDE85F84"",""assignmentId"":""e4a9ab2c-5bf2-4702-ae6b-393d5d9b8f58"",""projectId"":""a0a8f18c-a66e-4ba7-a170-23efbdc67501""}","https://test12345.live/?participantId=C3FAAFFFF17545B2A116353BDDE85F84&assignmentId=e4a9ab2c-5bf2-4702-ae6b-393d5d9b8f58&projectId=a0a8f18c-a66e-4ba7-a170-23efbdc67501","C3FAAFFFF17545B2A116353BDDE85F84-2024-11-24-18-43-35","","2546","","images/schematic_sequence/restaurant_scheme/restaurant_scheme_2.png","1","",""
"","","","","","image-button-response","103","446038","0.0-14.0-1.0-2.4","C3FAAFFFF17545B2A116353BDDE85F84","C3FAAFFFF17545B2A116353BDDE85F84","e4a9ab2c-5bf2-4702-ae6b-393d5d9b8f58","a0a8f18c-a66e-4ba7-a170-23efbdc67501","{""participantId"":""C3FAAFFFF17545B2A116353BDDE85F84"",""assignmentId"":""e4a9ab2c-5bf2-4702-ae6b-393d5d9b8f58"",""projectId"":""a0a8f18c-a66e-4ba7-a170-23efbdc67501""}","https://test12345.live/?participantId=C3FAAFFFF17545B2A116353BDDE85F84&assignmentId=e4a9ab2c-5bf2-4702-ae6b-393d5d9b8f58&projectId=a0a8f18c-a66e-4ba7-a170-23efbdc67501","C3FAAFFFF17545B2A116353BDDE85F84-2024-11-24-18-43-35","","null","","[]","null","",""
"","","","","","image-button-response","104","450555","0.0-14.0-1.0-0.5","C3FAAFFFF17545B2A116353BDDE85F84","C3FAAFFFF17545B2A116353BDDE85F84","e4a9ab2c-5bf2-4702-ae6b-393d5d9b8f58","a0a8f18c-a66e-4ba7-a170-23efbdc67501","{""participantId"":""C3FAAFFFF17545B2A116353BDDE85F84"",""assignmentId"":""e4a9ab2c-5bf2-4702-ae6b-393d5d9b8f58"",""projectId"":""a0a8f18c-a66e-4ba7-a170-23efbdc67501""}","https://test12345.live/?participantId=C3FAAFFFF17545B2A116353BDDE85F84&assignmentId=e4a9ab2c-5bf2-4702-ae6b-393d5d9b8f58&projectId=a0a8f18c-a66e-4ba7-a170-23efbdc67501","C3FAAFFFF17545B2A116353BDDE85F84-2024-11-24-18-43-35","","null","","images/schematic_sequence/restaurant_scheme/restaurant_scheme_ten.png","null","",""
"","","","","","image-button-response","105","452077","0.0-14.0-1.0-1.5","C3FAAFFFF17545B2A116353BDDE85F84","C3FAAFFFF17545B2A116353BDDE85F84","e4a9ab2c-5bf2-4702-ae6b-393d5d9b8f58","a0a8f18c-a66e-4ba7-a170-23efbdc67501","{""participantId"":""C3FAAFFFF17545B2A116353BDDE85F84"",""assignmentId"":""e4a9ab2c-5bf2-4702-ae6b-393d5d9b8f58"",""projectId"":""a0a8f18c-a66e-4ba7-a170-23efbdc67501""}","https://test12345.live/?participantId=C3FAAFFFF17545B2A116353BDDE85F84&assignmentId=e4a9ab2c-5bf2-4702-ae6b-393d5d9b8f58&projectId=a0a8f18c-a66e-4ba7-a170-23efbdc67501","C3FAAFFFF17545B2A116353BDDE85F84-2024-11-24-18-43-35","","1521","","images/schematic_sequence/restaurant_scheme/restaurant_scheme_ten.png","0","",""
"","","","","","image-button-response","106","453888","0.0-14.0-1.0-2.5","C3FAAFFFF17545B2A116353BDDE85F84","C3FAAFFFF17545B2A116353BDDE85F84","e4a9ab2c-5bf2-4702-ae6b-393d5d9b8f58","a0a8f18c-a66e-4ba7-a170-23efbdc67501","{""participantId"":""C3FAAFFFF17545B2A116353BDDE85F84"",""assignmentId"":""e4a9ab2c-5bf2-4702-ae6b-393d5d9b8f58"",""projectId"":""a0a8f18c-a66e-4ba7-a170-23efbdc67501""}","https://test12345.live/?participantId=C3FAAFFFF17545B2A116353BDDE85F84&assignmentId=e4a9ab2c-5bf2-4702-ae6b-393d5d9b8f58&projectId=a0a8f18c-a66e-4ba7-a170-23efbdc67501","C3FAAFFFF17545B2A116353BDDE85F84-2024-11-24-18-43-35","","null","","[]","null","",""
"","","","","","image-button-response","107","458390","0.0-14.0-1.0-0.6","C3FAAFFFF17545B2A116353BDDE85F84","C3FAAFFFF17545B2A116353BDDE85F84","e4a9ab2c-5bf2-4702-ae6b-393d5d9b8f58","a0a8f18c-a66e-4ba7-a170-23efbdc67501","{""participantId"":""C3FAAFFFF17545B2A116353BDDE85F84"",""assignmentId"":""e4a9ab2c-5bf2-4702-ae6b-393d5d9b8f58"",""projectId"":""a0a8f18c-a66e-4ba7-a170-23efbdc67501""}","https://test12345.live/?participantId=C3FAAFFFF17545B2A116353BDDE85F84&assignmentId=e4a9ab2c-5bf2-4702-ae6b-393d5d9b8f58&projectId=a0a8f18c-a66e-4ba7-a170-23efbdc67501","C3FAAFFFF17545B2A116353BDDE85F84-2024-11-24-18-43-35","","null","","images/schematic_sequence/restaurant_scheme/restaurant_scheme_1.png","null","",""
"","","","","","image-button-response","108","460261","0.0-14.0-1.0-1.6","C3FAAFFFF17545B2A116353BDDE85F84","C3FAAFFFF17545B2A116353BDDE85F84","e4a9ab2c-5bf2-4702-ae6b-393d5d9b8f58","a0a8f18c-a66e-4ba7-a170-23efbdc67501","{""participantId"":""C3FAAFFFF17545B2A116353BDDE85F84"",""assignmentId"":""e4a9ab2c-5bf2-4702-ae6b-393d5d9b8f58"",""projectId"":""a0a8f18c-a66e-4ba7-a170-23efbdc67501""}","https://test12345.live/?participantId=C3FAAFFFF17545B2A116353BDDE85F84&assignmentId=e4a9ab2c-5bf2-4702-ae6b-393d5d9b8f58&projectId=a0a8f18c-a66e-4ba7-a170-23efbdc67501","C3FAAFFFF17545B2A116353BDDE85F84-2024-11-24-18-43-35","","1869","","images/schematic_sequence/restaurant_scheme/restaurant_scheme_1.png","0","",""
"","","","","","image-button-response","109","462063","0.0-14.0-1.0-2.6","C3FAAFFFF17545B2A116353BDDE85F84","C3FAAFFFF17545B2A116353BDDE85F84","e4a9ab2c-5bf2-4702-ae6b-393d5d9b8f58","a0a8f18c-a66e-4ba7-a170-23efbdc67501","{""participantId"":""C3FAAFFFF17545B2A116353BDDE85F84"",""assignmentId"":""e4a9ab2c-5bf2-4702-ae6b-393d5d9b8f58"",""projectId"":""a0a8f18c-a66e-4ba7-a170-23efbdc67501""}","https://test12345.live/?participantId=C3FAAFFFF17545B2A116353BDDE85F84&assignmentId=e4a9ab2c-5bf2-4702-ae6b-393d5d9b8f58&projectId=a0a8f18c-a66e-4ba7-a170-23efbdc67501","C3FAAFFFF17545B2A116353BDDE85F84-2024-11-24-18-43-35","","null","","[]","null","",""
"","","","","","image-button-response","110","466565","0.0-14.0-1.0-0.7","C3FAAFFFF17545B2A116353BDDE85F84","C3FAAFFFF17545B2A116353BDDE85F84","e4a9ab2c-5bf2-4702-ae6b-393d5d9b8f58","a0a8f18c-a66e-4ba7-a170-23efbdc67501","{""participantId"":""C3FAAFFFF17545B2A116353BDDE85F84"",""assignmentId"":""e4a9ab2c-5bf2-4702-ae6b-393d5d9b8f58"",""projectId"":""a0a8f18c-a66e-4ba7-a170-23efbdc67501""}","https://test12345.live/?participantId=C3FAAFFFF17545B2A116353BDDE85F84&assignmentId=e4a9ab2c-5bf2-4702-ae6b-393d5d9b8f58&projectId=a0a8f18c-a66e-4ba7-a170-23efbdc67501","C3FAAFFFF17545B2A116353BDDE85F84-2024-11-24-18-43-35","","null","","images/schematic_sequence/restaurant_scheme/restaurant_scheme_9.png","null","",""
"","","","","","image-button-response","111","468085","0.0-14.0-1.0-1.7","C3FAAFFFF17545B2A116353BDDE85F84","C3FAAFFFF17545B2A116353BDDE85F84","e4a9ab2c-5bf2-4702-ae6b-393d5d9b8f58","a0a8f18c-a66e-4ba7-a170-23efbdc67501","{""participantId"":""C3FAAFFFF17545B2A116353BDDE85F84"",""assignmentId"":""e4a9ab2c-5bf2-4702-ae6b-393d5d9b8f58"",""projectId"":""a0a8f18c-a66e-4ba7-a170-23efbdc67501""}","https://test12345.live/?participantId=C3FAAFFFF17545B2A116353BDDE85F84&assignmentId=e4a9ab2c-5bf2-4702-ae6b-393d5d9b8f58&projectId=a0a8f18c-a66e-4ba7-a170-23efbdc67501","C3FAAFFFF17545B2A116353BDDE85F84-2024-11-24-18-43-35","","1518","","images/schematic_sequence/restaurant_scheme/restaurant_scheme_9.png","0","",""
"","","","","","image-button-response","112","469894","0.0-14.0-1.0-2.7","C3FAAFFFF17545B2A116353BDDE85F84","C3FAAFFFF17545B2A116353BDDE85F84","e4a9ab2c-5bf2-4702-ae6b-393d5d9b8f58","a0a8f18c-a66e-4ba7-a170-23efbdc67501","{""participantId"":""C3FAAFFFF17545B2A116353BDDE85F84"",""assignmentId"":""e4a9ab2c-5bf2-4702-ae6b-393d5d9b8f58"",""projectId"":""a0a8f18c-a66e-4ba7-a170-23efbdc67501""}","https://test12345.live/?participantId=C3FAAFFFF17545B2A116353BDDE85F84&assignmentId=e4a9ab2c-5bf2-4702-ae6b-393d5d9b8f58&projectId=a0a8f18c-a66e-4ba7-a170-23efbdc67501","C3FAAFFFF17545B2A116353BDDE85F84-2024-11-24-18-43-35","","null","","[]","null","",""
"","","","","","image-button-response","113","474412","0.0-14.0-1.0-0.8","C3FAAFFFF17545B2A116353BDDE85F84","C3FAAFFFF17545B2A116353BDDE85F84","e4a9ab2c-5bf2-4702-ae6b-393d5d9b8f58","a0a8f18c-a66e-4ba7-a170-23efbdc67501","{""participantId"":""C3FAAFFFF17545B2A116353BDDE85F84"",""assignmentId"":""e4a9ab2c-5bf2-4702-ae6b-393d5d9b8f58"",""projectId"":""a0a8f18c-a66e-4ba7-a170-23efbdc67501""}","https://test12345.live/?participantId=C3FAAFFFF17545B2A116353BDDE85F84&assignmentId=e4a9ab2c-5bf2-4702-ae6b-393d5d9b8f58&projectId=a0a8f18c-a66e-4ba7-a170-23efbdc67501","C3FAAFFFF17545B2A116353BDDE85F84-2024-11-24-18-43-35","","null","","images/schematic_sequence/restaurant_scheme/restaurant_scheme_7.png","null","",""
"","","","","","image-button-response","114","477575","0.0-14.0-1.0-1.8","C3FAAFFFF17545B2A116353BDDE85F84","C3FAAFFFF17545B2A116353BDDE85F84","e4a9ab2c-5bf2-4702-ae6b-393d5d9b8f58","a0a8f18c-a66e-4ba7-a170-23efbdc67501","{""participantId"":""C3FAAFFFF17545B2A116353BDDE85F84"",""assignmentId"":""e4a9ab2c-5bf2-4702-ae6b-393d5d9b8f58"",""projectId"":""a0a8f18c-a66e-4ba7-a170-23efbdc67501""}","https://test12345.live/?participantId=C3FAAFFFF17545B2A116353BDDE85F84&assignmentId=e4a9ab2c-5bf2-4702-ae6b-393d5d9b8f58&projectId=a0a8f18c-a66e-4ba7-a170-23efbdc67501","C3FAAFFFF17545B2A116353BDDE85F84-2024-11-24-18-43-35","","3161","","images/schematic_sequence/restaurant_scheme/restaurant_scheme_7.png","1","",""
"","","","","","image-button-response","115","479377","0.0-14.0-1.0-2.8","C3FAAFFFF17545B2A116353BDDE85F84","C3FAAFFFF17545B2A116353BDDE85F84","e4a9ab2c-5bf2-4702-ae6b-393d5d9b8f58","a0a8f18c-a66e-4ba7-a170-23efbdc67501","{""participantId"":""C3FAAFFFF17545B2A116353BDDE85F84"",""assignmentId"":""e4a9ab2c-5bf2-4702-ae6b-393d5d9b8f58"",""projectId"":""a0a8f18c-a66e-4ba7-a170-23efbdc67501""}","https://test12345.live/?participantId=C3FAAFFFF17545B2A116353BDDE85F84&assignmentId=e4a9ab2c-5bf2-4702-ae6b-393d5d9b8f58&projectId=a0a8f18c-a66e-4ba7-a170-23efbdc67501","C3FAAFFFF17545B2A116353BDDE85F84-2024-11-24-18-43-35","","null","","[]","null","",""
"","","","","","image-button-response","116","483894","0.0-14.0-1.0-0.9","C3FAAFFFF17545B2A116353BDDE85F84","C3FAAFFFF17545B2A116353BDDE85F84","e4a9ab2c-5bf2-4702-ae6b-393d5d9b8f58","a0a8f18c-a66e-4ba7-a170-23efbdc67501","{""participantId"":""C3FAAFFFF17545B2A116353BDDE85F84"",""assignmentId"":""e4a9ab2c-5bf2-4702-ae6b-393d5d9b8f58"",""projectId"":""a0a8f18c-a66e-4ba7-a170-23efbdc67501""}","https://test12345.live/?participantId=C3FAAFFFF17545B2A116353BDDE85F84&assignmentId=e4a9ab2c-5bf2-4702-ae6b-393d5d9b8f58&projectId=a0a8f18c-a66e-4ba7-a170-23efbdc67501","C3FAAFFFF17545B2A116353BDDE85F84-2024-11-24-18-43-35","","null","","images/schematic_sequence/restaurant_scheme/restaurant_scheme_4.png","null","",""
"","","","","","image-button-response","117","485705","0.0-14.0-1.0-1.9","C3FAAFFFF17545B2A116353BDDE85F84","C3FAAFFFF17545B2A116353BDDE85F84","e4a9ab2c-5bf2-4702-ae6b-393d5d9b8f58","a0a8f18c-a66e-4ba7-a170-23efbdc67501","{""participantId"":""C3FAAFFFF17545B2A116353BDDE85F84"",""assignmentId"":""e4a9ab2c-5bf2-4702-ae6b-393d5d9b8f58"",""projectId"":""a0a8f18c-a66e-4ba7-a170-23efbdc67501""}","https://test12345.live/?participantId=C3FAAFFFF17545B2A116353BDDE85F84&assignmentId=e4a9ab2c-5bf2-4702-ae6b-393d5d9b8f58&projectId=a0a8f18c-a66e-4ba7-a170-23efbdc67501","C3FAAFFFF17545B2A116353BDDE85F84-2024-11-24-18-43-35","","1810","","images/schematic_sequence/restaurant_scheme/restaurant_scheme_4.png","0","",""
"","","","","","image-button-response","118","487521","0.0-14.0-1.0-2.9","C3FAAFFFF17545B2A116353BDDE85F84","C3FAAFFFF17545B2A116353BDDE85F84","e4a9ab2c-5bf2-4702-ae6b-393d5d9b8f58","a0a8f18c-a66e-4ba7-a170-23efbdc67501","{""participantId"":""C3FAAFFFF17545B2A116353BDDE85F84"",""assignmentId"":""e4a9ab2c-5bf2-4702-ae6b-393d5d9b8f58"",""projectId"":""a0a8f18c-a66e-4ba7-a170-23efbdc67501""}","https://test12345.live/?participantId=C3FAAFFFF17545B2A116353BDDE85F84&assignmentId=e4a9ab2c-5bf2-4702-ae6b-393d5d9b8f58&projectId=a0a8f18c-a66e-4ba7-a170-23efbdc67501","C3FAAFFFF17545B2A116353BDDE85F84-2024-11-24-18-43-35","","null","","[]","null","",""
"","","","","","html-audio-response","119","534984","0.0-15.0","C3FAAFFFF17545B2A116353BDDE85F84","C3FAAFFFF17545B2A116353BDDE85F84","e4a9ab2c-5bf2-4702-ae6b-393d5d9b8f58","a0a8f18c-a66e-4ba7-a170-23efbdc67501","{""participantId"":""C3FAAFFFF17545B2A116353BDDE85F84"",""assignmentId"":""e4a9ab2c-5bf2-4702-ae6b-393d5d9b8f58"",""projectId"":""a0a8f18c-a66e-4ba7-a170-23efbdc67501""}","https://test12345.live/?participantId=C3FAAFFFF17545B2A116353BDDE85F84&assignmentId=e4a9ab2c-5bf2-4702-ae6b-393d5d9b8f58&projectId=a0a8f18c-a66e-4ba7-a170-23efbdc67501","C3FAAFFFF17545B2A116353BDDE85F84-2024-11-24-18-43-35","","22295","","[""<span style=\""color: red; font-size: 24px\""> NOW RECORDING</span><p>Please say out loud all the images you saw, as many as you can remember. The images can be said in any order.</p>""]","","1","restaurant_scheme"
"","","","","","image-button-response","120","540995","0.0-16.0-0.0","C3FAAFFFF17545B2A116353BDDE85F84","C3FAAFFFF17545B2A116353BDDE85F84","e4a9ab2c-5bf2-4702-ae6b-393d5d9b8f58","a0a8f18c-a66e-4ba7-a170-23efbdc67501","{""participantId"":""C3FAAFFFF17545B2A116353BDDE85F84"",""assignmentId"":""e4a9ab2c-5bf2-4702-ae6b-393d5d9b8f58"",""projectId"":""a0a8f18c-a66e-4ba7-a170-23efbdc67501""}","https://test12345.live/?participantId=C3FAAFFFF17545B2A116353BDDE85F84&assignmentId=e4a9ab2c-5bf2-4702-ae6b-393d5d9b8f58&projectId=a0a8f18c-a66e-4ba7-a170-23efbdc67501","C3FAAFFFF17545B2A116353BDDE85F84-2024-11-24-18-43-35","","null","","images/schematic_sequence/flight_scheme/flight_scheme_0.png","null","",""
"","","","","","image-button-response","121","545502","0.0-16.0-1.0-0.0","C3FAAFFFF17545B2A116353BDDE85F84","C3FAAFFFF17545B2A116353BDDE85F84","e4a9ab2c-5bf2-4702-ae6b-393d5d9b8f58","a0a8f18c-a66e-4ba7-a170-23efbdc67501","{""participantId"":""C3FAAFFFF17545B2A116353BDDE85F84"",""assignmentId"":""e4a9ab2c-5bf2-4702-ae6b-393d5d9b8f58"",""projectId"":""a0a8f18c-a66e-4ba7-a170-23efbdc67501""}","https://test12345.live/?participantId=C3FAAFFFF17545B2A116353BDDE85F84&assignmentId=e4a9ab2c-5bf2-4702-ae6b-393d5d9b8f58&projectId=a0a8f18c-a66e-4ba7-a170-23efbdc67501","C3FAAFFFF17545B2A116353BDDE85F84-2024-11-24-18-43-35","","null","","images/schematic_sequence/flight_scheme/flight_scheme_1.png","null","",""
"","","","","","image-button-response","122","547058","0.0-16.0-1.0-1.0","C3FAAFFFF17545B2A116353BDDE85F84","C3FAAFFFF17545B2A116353BDDE85F84","e4a9ab2c-5bf2-4702-ae6b-393d5d9b8f58","a0a8f18c-a66e-4ba7-a170-23efbdc67501","{""participantId"":""C3FAAFFFF17545B2A116353BDDE85F84"",""assignmentId"":""e4a9ab2c-5bf2-4702-ae6b-393d5d9b8f58"",""projectId"":""a0a8f18c-a66e-4ba7-a170-23efbdc67501""}","https://test12345.live/?participantId=C3FAAFFFF17545B2A116353BDDE85F84&assignmentId=e4a9ab2c-5bf2-4702-ae6b-393d5d9b8f58&projectId=a0a8f18c-a66e-4ba7-a170-23efbdc67501","C3FAAFFFF17545B2A116353BDDE85F84-2024-11-24-18-43-35","","1555","","images/schematic_sequence/flight_scheme/flight_scheme_1.png","0","",""
"","","","","","image-button-response","123","548872","0.0-16.0-1.0-2.0","C3FAAFFFF17545B2A116353BDDE85F84","C3FAAFFFF17545B2A116353BDDE85F84","e4a9ab2c-5bf2-4702-ae6b-393d5d9b8f58","a0a8f18c-a66e-4ba7-a170-23efbdc67501","{""participantId"":""C3FAAFFFF17545B2A116353BDDE85F84"",""assignmentId"":""e4a9ab2c-5bf2-4702-ae6b-393d5d9b8f58"",""projectId"":""a0a8f18c-a66e-4ba7-a170-23efbdc67501""}","https://test12345.live/?participantId=C3FAAFFFF17545B2A116353BDDE85F84&assignmentId=e4a9ab2c-5bf2-4702-ae6b-393d5d9b8f58&projectId=a0a8f18c-a66e-4ba7-a170-23efbdc67501","C3FAAFFFF17545B2A116353BDDE85F84-2024-11-24-18-43-35","","null","","[]","null","",""
"","","","","","image-button-response","124","553381","0.0-16.0-1.0-0.1","C3FAAFFFF17545B2A116353BDDE85F84","C3FAAFFFF17545B2A116353BDDE85F84","e4a9ab2c-5bf2-4702-ae6b-393d5d9b8f58","a0a8f18c-a66e-4ba7-a170-23efbdc67501","{""participantId"":""C3FAAFFFF17545B2A116353BDDE85F84"",""assignmentId"":""e4a9ab2c-5bf2-4702-ae6b-393d5d9b8f58"",""projectId"":""a0a8f18c-a66e-4ba7-a170-23efbdc67501""}","https://test12345.live/?participantId=C3FAAFFFF17545B2A116353BDDE85F84&assignmentId=e4a9ab2c-5bf2-4702-ae6b-393d5d9b8f58&projectId=a0a8f18c-a66e-4ba7-a170-23efbdc67501","C3FAAFFFF17545B2A116353BDDE85F84-2024-11-24-18-43-35","","null","","images/schematic_sequence/flight_scheme/flight_scheme_2.png","null","",""
"","","","","","image-button-response","125","555008","0.0-16.0-1.0-1.1","C3FAAFFFF17545B2A116353BDDE85F84","C3FAAFFFF17545B2A116353BDDE85F84","e4a9ab2c-5bf2-4702-ae6b-393d5d9b8f58","a0a8f18c-a66e-4ba7-a170-23efbdc67501","{""participantId"":""C3FAAFFFF17545B2A116353BDDE85F84"",""assignmentId"":""e4a9ab2c-5bf2-4702-ae6b-393d5d9b8f58"",""projectId"":""a0a8f18c-a66e-4ba7-a170-23efbdc67501""}","https://test12345.live/?participantId=C3FAAFFFF17545B2A116353BDDE85F84&assignmentId=e4a9ab2c-5bf2-4702-ae6b-393d5d9b8f58&projectId=a0a8f18c-a66e-4ba7-a170-23efbdc67501","C3FAAFFFF17545B2A116353BDDE85F84-2024-11-24-18-43-35","","1626","","images/schematic_sequence/flight_scheme/flight_scheme_2.png","1","",""
"","","","","","image-button-response","126","556812","0.0-16.0-1.0-2.1","C3FAAFFFF17545B2A116353BDDE85F84","C3FAAFFFF17545B2A116353BDDE85F84","e4a9ab2c-5bf2-4702-ae6b-393d5d9b8f58","a0a8f18c-a66e-4ba7-a170-23efbdc67501","{""participantId"":""C3FAAFFFF17545B2A116353BDDE85F84"",""assignmentId"":""e4a9ab2c-5bf2-4702-ae6b-393d5d9b8f58"",""projectId"":""a0a8f18c-a66e-4ba7-a170-23efbdc67501""}","https://test12345.live/?participantId=C3FAAFFFF17545B2A116353BDDE85F84&assignmentId=e4a9ab2c-5bf2-4702-ae6b-393d5d9b8f58&projectId=a0a8f18c-a66e-4ba7-a170-23efbdc67501","C3FAAFFFF17545B2A116353BDDE85F84-2024-11-24-18-43-35","","null","","[]","null","",""
"","","","","","image-button-response","127","561321","0.0-16.0-1.0-0.2","C3FAAFFFF17545B2A116353BDDE85F84","C3FAAFFFF17545B2A116353BDDE85F84","e4a9ab2c-5bf2-4702-ae6b-393d5d9b8f58","a0a8f18c-a66e-4ba7-a170-23efbdc67501","{""participantId"":""C3FAAFFFF17545B2A116353BDDE85F84"",""assignmentId"":""e4a9ab2c-5bf2-4702-ae6b-393d5d9b8f58"",""projectId"":""a0a8f18c-a66e-4ba7-a170-23efbdc67501""}","https://test12345.live/?participantId=C3FAAFFFF17545B2A116353BDDE85F84&assignmentId=e4a9ab2c-5bf2-4702-ae6b-393d5d9b8f58&projectId=a0a8f18c-a66e-4ba7-a170-23efbdc67501","C3FAAFFFF17545B2A116353BDDE85F84-2024-11-24-18-43-35","","null","","images/schematic_sequence/flight_scheme/flight_scheme_3.png","null","",""
"","","","","","image-button-response","128","562360","0.0-16.0-1.0-1.2","C3FAAFFFF17545B2A116353BDDE85F84","C3FAAFFFF17545B2A116353BDDE85F84","e4a9ab2c-5bf2-4702-ae6b-393d5d9b8f58","a0a8f18c-a66e-4ba7-a170-23efbdc67501","{""participantId"":""C3FAAFFFF17545B2A116353BDDE85F84"",""assignmentId"":""e4a9ab2c-5bf2-4702-ae6b-393d5d9b8f58"",""projectId"":""a0a8f18c-a66e-4ba7-a170-23efbdc67501""}","https://test12345.live/?participantId=C3FAAFFFF17545B2A116353BDDE85F84&assignmentId=e4a9ab2c-5bf2-4702-ae6b-393d5d9b8f58&projectId=a0a8f18c-a66e-4ba7-a170-23efbdc67501","C3FAAFFFF17545B2A116353BDDE85F84-2024-11-24-18-43-35","","1038","","images/schematic_sequence/flight_scheme/flight_scheme_3.png","0","",""
"","","","","","image-button-response","129","564164","0.0-16.0-1.0-2.2","C3FAAFFFF17545B2A116353BDDE85F84","C3FAAFFFF17545B2A116353BDDE85F84","e4a9ab2c-5bf2-4702-ae6b-393d5d9b8f58","a0a8f18c-a66e-4ba7-a170-23efbdc67501","{""participantId"":""C3FAAFFFF17545B2A116353BDDE85F84"",""assignmentId"":""e4a9ab2c-5bf2-4702-ae6b-393d5d9b8f58"",""projectId"":""a0a8f18c-a66e-4ba7-a170-23efbdc67501""}","https://test12345.live/?participantId=C3FAAFFFF17545B2A116353BDDE85F84&assignmentId=e4a9ab2c-5bf2-4702-ae6b-393d5d9b8f58&projectId=a0a8f18c-a66e-4ba7-a170-23efbdc67501","C3FAAFFFF17545B2A116353BDDE85F84-2024-11-24-18-43-35","","null","","[]","null","",""
"","","","","","image-button-response","130","568671","0.0-16.0-1.0-0.3","C3FAAFFFF17545B2A116353BDDE85F84","C3FAAFFFF17545B2A116353BDDE85F84","e4a9ab2c-5bf2-4702-ae6b-393d5d9b8f58","a0a8f18c-a66e-4ba7-a170-23efbdc67501","{""participantId"":""C3FAAFFFF17545B2A116353BDDE85F84"",""assignmentId"":""e4a9ab2c-5bf2-4702-ae6b-393d5d9b8f58"",""projectId"":""a0a8f18c-a66e-4ba7-a170-23efbdc67501""}","https://test12345.live/?participantId=C3FAAFFFF17545B2A116353BDDE85F84&assignmentId=e4a9ab2c-5bf2-4702-ae6b-393d5d9b8f58&projectId=a0a8f18c-a66e-4ba7-a170-23efbdc67501","C3FAAFFFF17545B2A116353BDDE85F84-2024-11-24-18-43-35","","null","","images/schematic_sequence/flight_scheme/flight_scheme_4.png","null","",""
"","","","","","image-button-response","131","570438","0.0-16.0-1.0-1.3","C3FAAFFFF17545B2A116353BDDE85F84","C3FAAFFFF17545B2A116353BDDE85F84","e4a9ab2c-5bf2-4702-ae6b-393d5d9b8f58","a0a8f18c-a66e-4ba7-a170-23efbdc67501","{""participantId"":""C3FAAFFFF17545B2A116353BDDE85F84"",""assignmentId"":""e4a9ab2c-5bf2-4702-ae6b-393d5d9b8f58"",""projectId"":""a0a8f18c-a66e-4ba7-a170-23efbdc67501""}","https://test12345.live/?participantId=C3FAAFFFF17545B2A116353BDDE85F84&assignmentId=e4a9ab2c-5bf2-4702-ae6b-393d5d9b8f58&projectId=a0a8f18c-a66e-4ba7-a170-23efbdc67501","C3FAAFFFF17545B2A116353BDDE85F84-2024-11-24-18-43-35","","1765","","images/schematic_sequence/flight_scheme/flight_scheme_4.png","0","",""
"","","","","","image-button-response","132","572241","0.0-16.0-1.0-2.3","C3FAAFFFF17545B2A116353BDDE85F84","C3FAAFFFF17545B2A116353BDDE85F84","e4a9ab2c-5bf2-4702-ae6b-393d5d9b8f58","a0a8f18c-a66e-4ba7-a170-23efbdc67501","{""participantId"":""C3FAAFFFF17545B2A116353BDDE85F84"",""assignmentId"":""e4a9ab2c-5bf2-4702-ae6b-393d5d9b8f58"",""projectId"":""a0a8f18c-a66e-4ba7-a170-23efbdc67501""}","https://test12345.live/?participantId=C3FAAFFFF17545B2A116353BDDE85F84&assignmentId=e4a9ab2c-5bf2-4702-ae6b-393d5d9b8f58&projectId=a0a8f18c-a66e-4ba7-a170-23efbdc67501","C3FAAFFFF17545B2A116353BDDE85F84-2024-11-24-18-43-35","","null","","[]","null","",""
"","","","","","image-button-response","133","576751","0.0-16.0-1.0-0.4","C3FAAFFFF17545B2A116353BDDE85F84","C3FAAFFFF17545B2A116353BDDE85F84","e4a9ab2c-5bf2-4702-ae6b-393d5d9b8f58","a0a8f18c-a66e-4ba7-a170-23efbdc67501","{""participantId"":""C3FAAFFFF17545B2A116353BDDE85F84"",""assignmentId"":""e4a9ab2c-5bf2-4702-ae6b-393d5d9b8f58"",""projectId"":""a0a8f18c-a66e-4ba7-a170-23efbdc67501""}","https://test12345.live/?participantId=C3FAAFFFF17545B2A116353BDDE85F84&assignmentId=e4a9ab2c-5bf2-4702-ae6b-393d5d9b8f58&projectId=a0a8f18c-a66e-4ba7-a170-23efbdc67501","C3FAAFFFF17545B2A116353BDDE85F84-2024-11-24-18-43-35","","null","","images/schematic_sequence/flight_scheme/flight_scheme_5.png","null","",""
"","","","","","image-button-response","134","578343","0.0-16.0-1.0-1.4","C3FAAFFFF17545B2A116353BDDE85F84","C3FAAFFFF17545B2A116353BDDE85F84","e4a9ab2c-5bf2-4702-ae6b-393d5d9b8f58","a0a8f18c-a66e-4ba7-a170-23efbdc67501","{""participantId"":""C3FAAFFFF17545B2A116353BDDE85F84"",""assignmentId"":""e4a9ab2c-5bf2-4702-ae6b-393d5d9b8f58"",""projectId"":""a0a8f18c-a66e-4ba7-a170-23efbdc67501""}","https://test12345.live/?participantId=C3FAAFFFF17545B2A116353BDDE85F84&assignmentId=e4a9ab2c-5bf2-4702-ae6b-393d5d9b8f58&projectId=a0a8f18c-a66e-4ba7-a170-23efbdc67501","C3FAAFFFF17545B2A116353BDDE85F84-2024-11-24-18-43-35","","1590","","images/schematic_sequence/flight_scheme/flight_scheme_5.png","0","",""
"","","","","","image-button-response","135","580160","0.0-16.0-1.0-2.4","C3FAAFFFF17545B2A116353BDDE85F84","C3FAAFFFF17545B2A116353BDDE85F84","e4a9ab2c-5bf2-4702-ae6b-393d5d9b8f58","a0a8f18c-a66e-4ba7-a170-23efbdc67501","{""participantId"":""C3FAAFFFF17545B2A116353BDDE85F84"",""assignmentId"":""e4a9ab2c-5bf2-4702-ae6b-393d5d9b8f58"",""projectId"":""a0a8f18c-a66e-4ba7-a170-23efbdc67501""}","https://test12345.live/?participantId=C3FAAFFFF17545B2A116353BDDE85F84&assignmentId=e4a9ab2c-5bf2-4702-ae6b-393d5d9b8f58&projectId=a0a8f18c-a66e-4ba7-a170-23efbdc67501","C3FAAFFFF17545B2A116353BDDE85F84-2024-11-24-18-43-35","","null","","[]","null","",""
"","","","","","image-button-response","136","584663","0.0-16.0-1.0-0.5","C3FAAFFFF17545B2A116353BDDE85F84","C3FAAFFFF17545B2A116353BDDE85F84","e4a9ab2c-5bf2-4702-ae6b-393d5d9b8f58","a0a8f18c-a66e-4ba7-a170-23efbdc67501","{""participantId"":""C3FAAFFFF17545B2A116353BDDE85F84"",""assignmentId"":""e4a9ab2c-5bf2-4702-ae6b-393d5d9b8f58"",""projectId"":""a0a8f18c-a66e-4ba7-a170-23efbdc67501""}","https://test12345.live/?participantId=C3FAAFFFF17545B2A116353BDDE85F84&assignmentId=e4a9ab2c-5bf2-4702-ae6b-393d5d9b8f58&projectId=a0a8f18c-a66e-4ba7-a170-23efbdc67501","C3FAAFFFF17545B2A116353BDDE85F84-2024-11-24-18-43-35","","null","","images/schematic_sequence/flight_scheme/flight_scheme_6.png","null","",""
"","","","","","image-button-response","137","585672","0.0-16.0-1.0-1.5","C3FAAFFFF17545B2A116353BDDE85F84","C3FAAFFFF17545B2A116353BDDE85F84","e4a9ab2c-5bf2-4702-ae6b-393d5d9b8f58","a0a8f18c-a66e-4ba7-a170-23efbdc67501","{""participantId"":""C3FAAFFFF17545B2A116353BDDE85F84"",""assignmentId"":""e4a9ab2c-5bf2-4702-ae6b-393d5d9b8f58"",""projectId"":""a0a8f18c-a66e-4ba7-a170-23efbdc67501""}","https://test12345.live/?participantId=C3FAAFFFF17545B2A116353BDDE85F84&assignmentId=e4a9ab2c-5bf2-4702-ae6b-393d5d9b8f58&projectId=a0a8f18c-a66e-4ba7-a170-23efbdc67501","C3FAAFFFF17545B2A116353BDDE85F84-2024-11-24-18-43-35","","1008","","images/schematic_sequence/flight_scheme/flight_scheme_6.png","1","",""
"","","","","","image-button-response","138","587474","0.0-16.0-1.0-2.5","C3FAAFFFF17545B2A116353BDDE85F84","C3FAAFFFF17545B2A116353BDDE85F84","e4a9ab2c-5bf2-4702-ae6b-393d5d9b8f58","a0a8f18c-a66e-4ba7-a170-23efbdc67501","{""participantId"":""C3FAAFFFF17545B2A116353BDDE85F84"",""assignmentId"":""e4a9ab2c-5bf2-4702-ae6b-393d5d9b8f58"",""projectId"":""a0a8f18c-a66e-4ba7-a170-23efbdc67501""}","https://test12345.live/?participantId=C3FAAFFFF17545B2A116353BDDE85F84&assignmentId=e4a9ab2c-5bf2-4702-ae6b-393d5d9b8f58&projectId=a0a8f18c-a66e-4ba7-a170-23efbdc67501","C3FAAFFFF17545B2A116353BDDE85F84-2024-11-24-18-43-35","","null","","[]","null","",""
"","","","","","image-button-response","139","591990","0.0-16.0-1.0-0.6","C3FAAFFFF17545B2A116353BDDE85F84","C3FAAFFFF17545B2A116353BDDE85F84","e4a9ab2c-5bf2-4702-ae6b-393d5d9b8f58","a0a8f18c-a66e-4ba7-a170-23efbdc67501","{""participantId"":""C3FAAFFFF17545B2A116353BDDE85F84"",""assignmentId"":""e4a9ab2c-5bf2-4702-ae6b-393d5d9b8f58"",""projectId"":""a0a8f18c-a66e-4ba7-a170-23efbdc67501""}","https://test12345.live/?participantId=C3FAAFFFF17545B2A116353BDDE85F84&assignmentId=e4a9ab2c-5bf2-4702-ae6b-393d5d9b8f58&projectId=a0a8f18c-a66e-4ba7-a170-23efbdc67501","C3FAAFFFF17545B2A116353BDDE85F84-2024-11-24-18-43-35","","null","","images/schematic_sequence/flight_scheme/flight_scheme_7.png","null","",""
"","","","","","image-button-response","140","593741","0.0-16.0-1.0-1.6","C3FAAFFFF17545B2A116353BDDE85F84","C3FAAFFFF17545B2A116353BDDE85F84","e4a9ab2c-5bf2-4702-ae6b-393d5d9b8f58","a0a8f18c-a66e-4ba7-a170-23efbdc67501","{""participantId"":""C3FAAFFFF17545B2A116353BDDE85F84"",""assignmentId"":""e4a9ab2c-5bf2-4702-ae6b-393d5d9b8f58"",""projectId"":""a0a8f18c-a66e-4ba7-a170-23efbdc67501""}","https://test12345.live/?participantId=C3FAAFFFF17545B2A116353BDDE85F84&assignmentId=e4a9ab2c-5bf2-4702-ae6b-393d5d9b8f58&projectId=a0a8f18c-a66e-4ba7-a170-23efbdc67501","C3FAAFFFF17545B2A116353BDDE85F84-2024-11-24-18-43-35","","1749","","images/schematic_sequence/flight_scheme/flight_scheme_7.png","1","",""
"","","","","","image-button-response","141","595545","0.0-16.0-1.0-2.6","C3FAAFFFF17545B2A116353BDDE85F84","C3FAAFFFF17545B2A116353BDDE85F84","e4a9ab2c-5bf2-4702-ae6b-393d5d9b8f58","a0a8f18c-a66e-4ba7-a170-23efbdc67501","{""participantId"":""C3FAAFFFF17545B2A116353BDDE85F84"",""assignmentId"":""e4a9ab2c-5bf2-4702-ae6b-393d5d9b8f58"",""projectId"":""a0a8f18c-a66e-4ba7-a170-23efbdc67501""}","https://test12345.live/?participantId=C3FAAFFFF17545B2A116353BDDE85F84&assignmentId=e4a9ab2c-5bf2-4702-ae6b-393d5d9b8f58&projectId=a0a8f18c-a66e-4ba7-a170-23efbdc67501","C3FAAFFFF17545B2A116353BDDE85F84-2024-11-24-18-43-35","","null","","[]","null","",""
"","","","","","image-button-response","142","600053","0.0-16.0-1.0-0.7","C3FAAFFFF17545B2A116353BDDE85F84","C3FAAFFFF17545B2A116353BDDE85F84","e4a9ab2c-5bf2-4702-ae6b-393d5d9b8f58","a0a8f18c-a66e-4ba7-a170-23efbdc67501","{""participantId"":""C3FAAFFFF17545B2A116353BDDE85F84"",""assignmentId"":""e4a9ab2c-5bf2-4702-ae6b-393d5d9b8f58"",""projectId"":""a0a8f18c-a66e-4ba7-a170-23efbdc67501""}","https://test12345.live/?participantId=C3FAAFFFF17545B2A116353BDDE85F84&assignmentId=e4a9ab2c-5bf2-4702-ae6b-393d5d9b8f58&projectId=a0a8f18c-a66e-4ba7-a170-23efbdc67501","C3FAAFFFF17545B2A116353BDDE85F84-2024-11-24-18-43-35","","null","","images/schematic_sequence/flight_scheme/flight_scheme_8.png","null","",""
