"success","timeout","failed_images","failed_audio","failed_video","trial_type","trial_index","time_elapsed","internal_node_id","subject","subject_id","study_id","session_id","urlvar","current_url","audio_id","view_history","rt","device_id","stimulus","response","estimated_stimulus_onset","seq_name"
"true","false","[]","[]","[]","preload","0","5816","0.0-0.0","C51207452FEA4017A69F62A19AC5A5FA","C51207452FEA4017A69F62A19AC5A5FA","798dec17-168a-4aee-843a-9f9f9b5bf9a9","051c06f1-75cc-4548-856d-4923ddaba0dc","{""num_scrambled_semantic"":""8"",""num_scrambled_causal"":""4"",""num_scrambled_schematic"":""4"",""participantId"":""C51207452FEA4017A69F62A19AC5A5FA"",""assignmentId"":""798dec17-168a-4aee-843a-9f9f9b5bf9a9"",""projectId"":""051c06f1-75cc-4548-856d-4923ddaba0dc""}","https://test12345.live/?num_scrambled_semantic=8&num_scrambled_causal=4&num_scrambled_schematic=4&participantId=C51207452FEA4017A69F62A19AC5A5FA&assignmentId=798dec17-168a-4aee-843a-9f9f9b5bf9a9&projectId=051c06f1-75cc-4548-856d-4923ddaba0dc","C51207452FEA4017A69F62A19AC5A5FA-2025-05-15-19-19-31","","","","","","",""
"","","","","","instructions","1","33290","0.0-1.0","C51207452FEA4017A69F62A19AC5A5FA","C51207452FEA4017A69F62A19AC5A5FA","798dec17-168a-4aee-843a-9f9f9b5bf9a9","051c06f1-75cc-4548-856d-4923ddaba0dc","{""num_scrambled_semantic"":""8"",""num_scrambled_causal"":""4"",""num_scrambled_schematic"":""4"",""participantId"":""C51207452FEA4017A69F62A19AC5A5FA"",""assignmentId"":""798dec17-168a-4aee-843a-9f9f9b5bf9a9"",""projectId"":""051c06f1-75cc-4548-856d-4923ddaba0dc""}","https://test12345.live/?num_scrambled_semantic=8&num_scrambled_causal=4&num_scrambled_schematic=4&participantId=C51207452FEA4017A69F62A19AC5A5FA&assignmentId=798dec17-168a-4aee-843a-9f9f9b5bf9a9&projectId=051c06f1-75cc-4548-856d-4923ddaba0dc","C51207452FEA4017A69F62A19AC5A5FA-2025-05-15-19-19-31","[{""page_index"":0,""viewing_time"":27473}]","27473","","","","",""
"","","","","","instructions","2","59744","0.0-2.0","C51207452FEA4017A69F62A19AC5A5FA","C51207452FEA4017A69F62A19AC5A5FA","798dec17-168a-4aee-843a-9f9f9b5bf9a9","051c06f1-75cc-4548-856d-4923ddaba0dc","{""num_scrambled_semantic"":""8"",""num_scrambled_causal"":""4"",""num_scrambled_schematic"":""4"",""participantId"":""C51207452FEA4017A69F62A19AC5A5FA"",""assignmentId"":""798dec17-168a-4aee-843a-9f9f9b5bf9a9"",""projectId"":""051c06f1-75cc-4548-856d-4923ddaba0dc""}","https://test12345.live/?num_scrambled_semantic=8&num_scrambled_causal=4&num_scrambled_schematic=4&participantId=C51207452FEA4017A69F62A19AC5A5FA&assignmentId=798dec17-168a-4aee-843a-9f9f9b5bf9a9&projectId=051c06f1-75cc-4548-856d-4923ddaba0dc","C51207452FEA4017A69F62A19AC5A5FA-2025-05-15-19-19-31","[{""page_index"":0,""viewing_time"":26454}]","26454","","","","",""
"true","","","","","fullscreen","3","63501","0.0-3.0","C51207452FEA4017A69F62A19AC5A5FA","C51207452FEA4017A69F62A19AC5A5FA","798dec17-168a-4aee-843a-9f9f9b5bf9a9","051c06f1-75cc-4548-856d-4923ddaba0dc","{""num_scrambled_semantic"":""8"",""num_scrambled_causal"":""4"",""num_scrambled_schematic"":""4"",""participantId"":""C51207452FEA4017A69F62A19AC5A5FA"",""assignmentId"":""798dec17-168a-4aee-843a-9f9f9b5bf9a9"",""projectId"":""051c06f1-75cc-4548-856d-4923ddaba0dc""}","https://test12345.live/?num_scrambled_semantic=8&num_scrambled_causal=4&num_scrambled_schematic=4&participantId=C51207452FEA4017A69F62A19AC5A5FA&assignmentId=798dec17-168a-4aee-843a-9f9f9b5bf9a9&projectId=051c06f1-75cc-4548-856d-4923ddaba0dc","C51207452FEA4017A69F62A19AC5A5FA-2025-05-15-19-19-31","","2741","","","","",""
"","","","","","initialize-microphone","4","68738","0.0-4.0-0.0","C51207452FEA4017A69F62A19AC5A5FA","C51207452FEA4017A69F62A19AC5A5FA","798dec17-168a-4aee-843a-9f9f9b5bf9a9","051c06f1-75cc-4548-856d-4923ddaba0dc","{""num_scrambled_semantic"":""8"",""num_scrambled_causal"":""4"",""num_scrambled_schematic"":""4"",""participantId"":""C51207452FEA4017A69F62A19AC5A5FA"",""assignmentId"":""798dec17-168a-4aee-843a-9f9f9b5bf9a9"",""projectId"":""051c06f1-75cc-4548-856d-4923ddaba0dc""}","https://test12345.live/?num_scrambled_semantic=8&num_scrambled_causal=4&num_scrambled_schematic=4&participantId=C51207452FEA4017A69F62A19AC5A5FA&assignmentId=798dec17-168a-4aee-843a-9f9f9b5bf9a9&projectId=051c06f1-75cc-4548-856d-4923ddaba0dc","C51207452FEA4017A69F62A19AC5A5FA-2025-05-15-19-19-31","","","f2cedfe166f2bb07883224e30c23c29f78407bd9f77b513e04af30e1e474ad38","","","",""
"","","","","","html-audio-response","5","81336","0.0-4.0-1.0","C51207452FEA4017A69F62A19AC5A5FA","C51207452FEA4017A69F62A19AC5A5FA","798dec17-168a-4aee-843a-9f9f9b5bf9a9","051c06f1-75cc-4548-856d-4923ddaba0dc","{""num_scrambled_semantic"":""8"",""num_scrambled_causal"":""4"",""num_scrambled_schematic"":""4"",""participantId"":""C51207452FEA4017A69F62A19AC5A5FA"",""assignmentId"":""798dec17-168a-4aee-843a-9f9f9b5bf9a9"",""projectId"":""051c06f1-75cc-4548-856d-4923ddaba0dc""}","https://test12345.live/?num_scrambled_semantic=8&num_scrambled_causal=4&num_scrambled_schematic=4&participantId=C51207452FEA4017A69F62A19AC5A5FA&assignmentId=798dec17-168a-4aee-843a-9f9f9b5bf9a9&projectId=051c06f1-75cc-4548-856d-4923ddaba0dc","C51207452FEA4017A69F62A19AC5A5FA-2025-05-15-19-19-31","","4819","","<span style=""color: red; font-size: 24px""> NOW RECORDING</span>
        <p>Please test Microphone</p>","","3",""
"","","","","","html-button-response","6","83491","0.0-4.0-2.0","C51207452FEA4017A69F62A19AC5A5FA","C51207452FEA4017A69F62A19AC5A5FA","798dec17-168a-4aee-843a-9f9f9b5bf9a9","051c06f1-75cc-4548-856d-4923ddaba0dc","{""num_scrambled_semantic"":""8"",""num_scrambled_causal"":""4"",""num_scrambled_schematic"":""4"",""participantId"":""C51207452FEA4017A69F62A19AC5A5FA"",""assignmentId"":""798dec17-168a-4aee-843a-9f9f9b5bf9a9"",""projectId"":""051c06f1-75cc-4548-856d-4923ddaba0dc""}","https://test12345.live/?num_scrambled_semantic=8&num_scrambled_causal=4&num_scrambled_schematic=4&participantId=C51207452FEA4017A69F62A19AC5A5FA&assignmentId=798dec17-168a-4aee-843a-9f9f9b5bf9a9&projectId=051c06f1-75cc-4548-856d-4923ddaba0dc","C51207452FEA4017A69F62A19AC5A5FA-2025-05-15-19-19-31","","2153","","<p style=""font-size:48px; color:red;"">Is Microphone OK?</p>","1","",""
"","","","","","instructions","7","97182","0.0-5.0","C51207452FEA4017A69F62A19AC5A5FA","C51207452FEA4017A69F62A19AC5A5FA","798dec17-168a-4aee-843a-9f9f9b5bf9a9","051c06f1-75cc-4548-856d-4923ddaba0dc","{""num_scrambled_semantic"":""8"",""num_scrambled_causal"":""4"",""num_scrambled_schematic"":""4"",""participantId"":""C51207452FEA4017A69F62A19AC5A5FA"",""assignmentId"":""798dec17-168a-4aee-843a-9f9f9b5bf9a9"",""projectId"":""051c06f1-75cc-4548-856d-4923ddaba0dc""}","https://test12345.live/?num_scrambled_semantic=8&num_scrambled_causal=4&num_scrambled_schematic=4&participantId=C51207452FEA4017A69F62A19AC5A5FA&assignmentId=798dec17-168a-4aee-843a-9f9f9b5bf9a9&projectId=051c06f1-75cc-4548-856d-4923ddaba0dc","C51207452FEA4017A69F62A19AC5A5FA-2025-05-15-19-19-31","[{""page_index"":0,""viewing_time"":7496},{""page_index"":1,""viewing_time"":6195}]","13691","","","","",""
"","","","","","image-button-response","8","103199","0.0-6.0-0.0","C51207452FEA4017A69F62A19AC5A5FA","C51207452FEA4017A69F62A19AC5A5FA","798dec17-168a-4aee-843a-9f9f9b5bf9a9","051c06f1-75cc-4548-856d-4923ddaba0dc","{""num_scrambled_semantic"":""8"",""num_scrambled_causal"":""4"",""num_scrambled_schematic"":""4"",""participantId"":""C51207452FEA4017A69F62A19AC5A5FA"",""assignmentId"":""798dec17-168a-4aee-843a-9f9f9b5bf9a9"",""projectId"":""051c06f1-75cc-4548-856d-4923ddaba0dc""}","https://test12345.live/?num_scrambled_semantic=8&num_scrambled_causal=4&num_scrambled_schematic=4&participantId=C51207452FEA4017A69F62A19AC5A5FA&assignmentId=798dec17-168a-4aee-843a-9f9f9b5bf9a9&projectId=051c06f1-75cc-4548-856d-4923ddaba0dc","C51207452FEA4017A69F62A19AC5A5FA-2025-05-15-19-19-31","","null","","images/instructions/movie_0.png","null","",""
"","","","","","image-button-response","9","107719","0.0-6.0-1.0-0.0","C51207452FEA4017A69F62A19AC5A5FA","C51207452FEA4017A69F62A19AC5A5FA","798dec17-168a-4aee-843a-9f9f9b5bf9a9","051c06f1-75cc-4548-856d-4923ddaba0dc","{""num_scrambled_semantic"":""8"",""num_scrambled_causal"":""4"",""num_scrambled_schematic"":""4"",""participantId"":""C51207452FEA4017A69F62A19AC5A5FA"",""assignmentId"":""798dec17-168a-4aee-843a-9f9f9b5bf9a9"",""projectId"":""051c06f1-75cc-4548-856d-4923ddaba0dc""}","https://test12345.live/?num_scrambled_semantic=8&num_scrambled_causal=4&num_scrambled_schematic=4&participantId=C51207452FEA4017A69F62A19AC5A5FA&assignmentId=798dec17-168a-4aee-843a-9f9f9b5bf9a9&projectId=051c06f1-75cc-4548-856d-4923ddaba0dc","C51207452FEA4017A69F62A19AC5A5FA-2025-05-15-19-19-31","","null","","images/instructions/movie_1.png","null","",""
"","","","","","image-button-response","10","109633","0.0-6.0-1.0-1.0","C51207452FEA4017A69F62A19AC5A5FA","C51207452FEA4017A69F62A19AC5A5FA","798dec17-168a-4aee-843a-9f9f9b5bf9a9","051c06f1-75cc-4548-856d-4923ddaba0dc","{""num_scrambled_semantic"":""8"",""num_scrambled_causal"":""4"",""num_scrambled_schematic"":""4"",""participantId"":""C51207452FEA4017A69F62A19AC5A5FA"",""assignmentId"":""798dec17-168a-4aee-843a-9f9f9b5bf9a9"",""projectId"":""051c06f1-75cc-4548-856d-4923ddaba0dc""}","https://test12345.live/?num_scrambled_semantic=8&num_scrambled_causal=4&num_scrambled_schematic=4&participantId=C51207452FEA4017A69F62A19AC5A5FA&assignmentId=798dec17-168a-4aee-843a-9f9f9b5bf9a9&projectId=051c06f1-75cc-4548-856d-4923ddaba0dc","C51207452FEA4017A69F62A19AC5A5FA-2025-05-15-19-19-31","","1914","","images/instructions/movie_1.png","0","",""
"","","","","","image-button-response","11","111441","0.0-6.0-1.0-2.0","C51207452FEA4017A69F62A19AC5A5FA","C51207452FEA4017A69F62A19AC5A5FA","798dec17-168a-4aee-843a-9f9f9b5bf9a9","051c06f1-75cc-4548-856d-4923ddaba0dc","{""num_scrambled_semantic"":""8"",""num_scrambled_causal"":""4"",""num_scrambled_schematic"":""4"",""participantId"":""C51207452FEA4017A69F62A19AC5A5FA"",""assignmentId"":""798dec17-168a-4aee-843a-9f9f9b5bf9a9"",""projectId"":""051c06f1-75cc-4548-856d-4923ddaba0dc""}","https://test12345.live/?num_scrambled_semantic=8&num_scrambled_causal=4&num_scrambled_schematic=4&participantId=C51207452FEA4017A69F62A19AC5A5FA&assignmentId=798dec17-168a-4aee-843a-9f9f9b5bf9a9&projectId=051c06f1-75cc-4548-856d-4923ddaba0dc","C51207452FEA4017A69F62A19AC5A5FA-2025-05-15-19-19-31","","null","","[]","null","",""
"","","","","","image-button-response","12","115954","0.0-6.0-1.0-0.1","C51207452FEA4017A69F62A19AC5A5FA","C51207452FEA4017A69F62A19AC5A5FA","798dec17-168a-4aee-843a-9f9f9b5bf9a9","051c06f1-75cc-4548-856d-4923ddaba0dc","{""num_scrambled_semantic"":""8"",""num_scrambled_causal"":""4"",""num_scrambled_schematic"":""4"",""participantId"":""C51207452FEA4017A69F62A19AC5A5FA"",""assignmentId"":""798dec17-168a-4aee-843a-9f9f9b5bf9a9"",""projectId"":""051c06f1-75cc-4548-856d-4923ddaba0dc""}","https://test12345.live/?num_scrambled_semantic=8&num_scrambled_causal=4&num_scrambled_schematic=4&participantId=C51207452FEA4017A69F62A19AC5A5FA&assignmentId=798dec17-168a-4aee-843a-9f9f9b5bf9a9&projectId=051c06f1-75cc-4548-856d-4923ddaba0dc","C51207452FEA4017A69F62A19AC5A5FA-2025-05-15-19-19-31","","null","","images/instructions/movie_2.png","null","",""
"","","","","","image-button-response","13","119310","0.0-6.0-1.0-1.1","C51207452FEA4017A69F62A19AC5A5FA","C51207452FEA4017A69F62A19AC5A5FA","798dec17-168a-4aee-843a-9f9f9b5bf9a9","051c06f1-75cc-4548-856d-4923ddaba0dc","{""num_scrambled_semantic"":""8"",""num_scrambled_causal"":""4"",""num_scrambled_schematic"":""4"",""participantId"":""C51207452FEA4017A69F62A19AC5A5FA"",""assignmentId"":""798dec17-168a-4aee-843a-9f9f9b5bf9a9"",""projectId"":""051c06f1-75cc-4548-856d-4923ddaba0dc""}","https://test12345.live/?num_scrambled_semantic=8&num_scrambled_causal=4&num_scrambled_schematic=4&participantId=C51207452FEA4017A69F62A19AC5A5FA&assignmentId=798dec17-168a-4aee-843a-9f9f9b5bf9a9&projectId=051c06f1-75cc-4548-856d-4923ddaba0dc","C51207452FEA4017A69F62A19AC5A5FA-2025-05-15-19-19-31","","3356","","images/instructions/movie_2.png","0","",""
"","","","","","image-button-response","14","121115","0.0-6.0-1.0-2.1","C51207452FEA4017A69F62A19AC5A5FA","C51207452FEA4017A69F62A19AC5A5FA","798dec17-168a-4aee-843a-9f9f9b5bf9a9","051c06f1-75cc-4548-856d-4923ddaba0dc","{""num_scrambled_semantic"":""8"",""num_scrambled_causal"":""4"",""num_scrambled_schematic"":""4"",""participantId"":""C51207452FEA4017A69F62A19AC5A5FA"",""assignmentId"":""798dec17-168a-4aee-843a-9f9f9b5bf9a9"",""projectId"":""051c06f1-75cc-4548-856d-4923ddaba0dc""}","https://test12345.live/?num_scrambled_semantic=8&num_scrambled_causal=4&num_scrambled_schematic=4&participantId=C51207452FEA4017A69F62A19AC5A5FA&assignmentId=798dec17-168a-4aee-843a-9f9f9b5bf9a9&projectId=051c06f1-75cc-4548-856d-4923ddaba0dc","C51207452FEA4017A69F62A19AC5A5FA-2025-05-15-19-19-31","","null","","[]","null","",""
"","","","","","image-button-response","15","125617","0.0-6.0-1.0-0.2","C51207452FEA4017A69F62A19AC5A5FA","C51207452FEA4017A69F62A19AC5A5FA","798dec17-168a-4aee-843a-9f9f9b5bf9a9","051c06f1-75cc-4548-856d-4923ddaba0dc","{""num_scrambled_semantic"":""8"",""num_scrambled_causal"":""4"",""num_scrambled_schematic"":""4"",""participantId"":""C51207452FEA4017A69F62A19AC5A5FA"",""assignmentId"":""798dec17-168a-4aee-843a-9f9f9b5bf9a9"",""projectId"":""051c06f1-75cc-4548-856d-4923ddaba0dc""}","https://test12345.live/?num_scrambled_semantic=8&num_scrambled_causal=4&num_scrambled_schematic=4&participantId=C51207452FEA4017A69F62A19AC5A5FA&assignmentId=798dec17-168a-4aee-843a-9f9f9b5bf9a9&projectId=051c06f1-75cc-4548-856d-4923ddaba0dc","C51207452FEA4017A69F62A19AC5A5FA-2025-05-15-19-19-31","","null","","images/instructions/movie_3.png","null","",""
"","","","","","image-button-response","16","127706","0.0-6.0-1.0-1.2","C51207452FEA4017A69F62A19AC5A5FA","C51207452FEA4017A69F62A19AC5A5FA","798dec17-168a-4aee-843a-9f9f9b5bf9a9","051c06f1-75cc-4548-856d-4923ddaba0dc","{""num_scrambled_semantic"":""8"",""num_scrambled_causal"":""4"",""num_scrambled_schematic"":""4"",""participantId"":""C51207452FEA4017A69F62A19AC5A5FA"",""assignmentId"":""798dec17-168a-4aee-843a-9f9f9b5bf9a9"",""projectId"":""051c06f1-75cc-4548-856d-4923ddaba0dc""}","https://test12345.live/?num_scrambled_semantic=8&num_scrambled_causal=4&num_scrambled_schematic=4&participantId=C51207452FEA4017A69F62A19AC5A5FA&assignmentId=798dec17-168a-4aee-843a-9f9f9b5bf9a9&projectId=051c06f1-75cc-4548-856d-4923ddaba0dc","C51207452FEA4017A69F62A19AC5A5FA-2025-05-15-19-19-31","","2089","","images/instructions/movie_3.png","0","",""
"","","","","","image-button-response","17","129510","0.0-6.0-1.0-2.2","C51207452FEA4017A69F62A19AC5A5FA","C51207452FEA4017A69F62A19AC5A5FA","798dec17-168a-4aee-843a-9f9f9b5bf9a9","051c06f1-75cc-4548-856d-4923ddaba0dc","{""num_scrambled_semantic"":""8"",""num_scrambled_causal"":""4"",""num_scrambled_schematic"":""4"",""participantId"":""C51207452FEA4017A69F62A19AC5A5FA"",""assignmentId"":""798dec17-168a-4aee-843a-9f9f9b5bf9a9"",""projectId"":""051c06f1-75cc-4548-856d-4923ddaba0dc""}","https://test12345.live/?num_scrambled_semantic=8&num_scrambled_causal=4&num_scrambled_schematic=4&participantId=C51207452FEA4017A69F62A19AC5A5FA&assignmentId=798dec17-168a-4aee-843a-9f9f9b5bf9a9&projectId=051c06f1-75cc-4548-856d-4923ddaba0dc","C51207452FEA4017A69F62A19AC5A5FA-2025-05-15-19-19-31","","null","","[]","null","",""
"","","","","","image-button-response","18","134018","0.0-6.0-1.0-0.3","C51207452FEA4017A69F62A19AC5A5FA","C51207452FEA4017A69F62A19AC5A5FA","798dec17-168a-4aee-843a-9f9f9b5bf9a9","051c06f1-75cc-4548-856d-4923ddaba0dc","{""num_scrambled_semantic"":""8"",""num_scrambled_causal"":""4"",""num_scrambled_schematic"":""4"",""participantId"":""C51207452FEA4017A69F62A19AC5A5FA"",""assignmentId"":""798dec17-168a-4aee-843a-9f9f9b5bf9a9"",""projectId"":""051c06f1-75cc-4548-856d-4923ddaba0dc""}","https://test12345.live/?num_scrambled_semantic=8&num_scrambled_causal=4&num_scrambled_schematic=4&participantId=C51207452FEA4017A69F62A19AC5A5FA&assignmentId=798dec17-168a-4aee-843a-9f9f9b5bf9a9&projectId=051c06f1-75cc-4548-856d-4923ddaba0dc","C51207452FEA4017A69F62A19AC5A5FA-2025-05-15-19-19-31","","null","","images/instructions/movie_4.png","null","",""
"","","","","","image-button-response","19","136409","0.0-6.0-1.0-1.3","C51207452FEA4017A69F62A19AC5A5FA","C51207452FEA4017A69F62A19AC5A5FA","798dec17-168a-4aee-843a-9f9f9b5bf9a9","051c06f1-75cc-4548-856d-4923ddaba0dc","{""num_scrambled_semantic"":""8"",""num_scrambled_causal"":""4"",""num_scrambled_schematic"":""4"",""participantId"":""C51207452FEA4017A69F62A19AC5A5FA"",""assignmentId"":""798dec17-168a-4aee-843a-9f9f9b5bf9a9"",""projectId"":""051c06f1-75cc-4548-856d-4923ddaba0dc""}","https://test12345.live/?num_scrambled_semantic=8&num_scrambled_causal=4&num_scrambled_schematic=4&participantId=C51207452FEA4017A69F62A19AC5A5FA&assignmentId=798dec17-168a-4aee-843a-9f9f9b5bf9a9&projectId=051c06f1-75cc-4548-856d-4923ddaba0dc","C51207452FEA4017A69F62A19AC5A5FA-2025-05-15-19-19-31","","2390","","images/instructions/movie_4.png","0","",""
"","","","","","image-button-response","20","138224","0.0-6.0-1.0-2.3","C51207452FEA4017A69F62A19AC5A5FA","C51207452FEA4017A69F62A19AC5A5FA","798dec17-168a-4aee-843a-9f9f9b5bf9a9","051c06f1-75cc-4548-856d-4923ddaba0dc","{""num_scrambled_semantic"":""8"",""num_scrambled_causal"":""4"",""num_scrambled_schematic"":""4"",""participantId"":""C51207452FEA4017A69F62A19AC5A5FA"",""assignmentId"":""798dec17-168a-4aee-843a-9f9f9b5bf9a9"",""projectId"":""051c06f1-75cc-4548-856d-4923ddaba0dc""}","https://test12345.live/?num_scrambled_semantic=8&num_scrambled_causal=4&num_scrambled_schematic=4&participantId=C51207452FEA4017A69F62A19AC5A5FA&assignmentId=798dec17-168a-4aee-843a-9f9f9b5bf9a9&projectId=051c06f1-75cc-4548-856d-4923ddaba0dc","C51207452FEA4017A69F62A19AC5A5FA-2025-05-15-19-19-31","","null","","[]","null","",""
"","","","","","instructions","21","150835","0.0-7.0","C51207452FEA4017A69F62A19AC5A5FA","C51207452FEA4017A69F62A19AC5A5FA","798dec17-168a-4aee-843a-9f9f9b5bf9a9","051c06f1-75cc-4548-856d-4923ddaba0dc","{""num_scrambled_semantic"":""8"",""num_scrambled_causal"":""4"",""num_scrambled_schematic"":""4"",""participantId"":""C51207452FEA4017A69F62A19AC5A5FA"",""assignmentId"":""798dec17-168a-4aee-843a-9f9f9b5bf9a9"",""projectId"":""051c06f1-75cc-4548-856d-4923ddaba0dc""}","https://test12345.live/?num_scrambled_semantic=8&num_scrambled_causal=4&num_scrambled_schematic=4&participantId=C51207452FEA4017A69F62A19AC5A5FA&assignmentId=798dec17-168a-4aee-843a-9f9f9b5bf9a9&projectId=051c06f1-75cc-4548-856d-4923ddaba0dc","C51207452FEA4017A69F62A19AC5A5FA-2025-05-15-19-19-31","[{""page_index"":0,""viewing_time"":10760},{""page_index"":1,""viewing_time"":1851}]","12611","","","","",""
"","","","","","html-audio-response","22","193096","0.0-8.0","C51207452FEA4017A69F62A19AC5A5FA","C51207452FEA4017A69F62A19AC5A5FA","798dec17-168a-4aee-843a-9f9f9b5bf9a9","051c06f1-75cc-4548-856d-4923ddaba0dc","{""num_scrambled_semantic"":""8"",""num_scrambled_causal"":""4"",""num_scrambled_schematic"":""4"",""participantId"":""C51207452FEA4017A69F62A19AC5A5FA"",""assignmentId"":""798dec17-168a-4aee-843a-9f9f9b5bf9a9"",""projectId"":""051c06f1-75cc-4548-856d-4923ddaba0dc""}","https://test12345.live/?num_scrambled_semantic=8&num_scrambled_causal=4&num_scrambled_schematic=4&participantId=C51207452FEA4017A69F62A19AC5A5FA&assignmentId=798dec17-168a-4aee-843a-9f9f9b5bf9a9&projectId=051c06f1-75cc-4548-856d-4923ddaba0dc","C51207452FEA4017A69F62A19AC5A5FA-2025-05-15-19-19-31","","20012","","[""<span style=\""color: red; font-size: 24px\""> NOW RECORDING</span><p>Please say out loud all the images you saw, as many as you can remember. The images can be said in any order.</p>""]","","1",""
"","","","","","instructions","23","195299","0.0-9.0","C51207452FEA4017A69F62A19AC5A5FA","C51207452FEA4017A69F62A19AC5A5FA","798dec17-168a-4aee-843a-9f9f9b5bf9a9","051c06f1-75cc-4548-856d-4923ddaba0dc","{""num_scrambled_semantic"":""8"",""num_scrambled_causal"":""4"",""num_scrambled_schematic"":""4"",""participantId"":""C51207452FEA4017A69F62A19AC5A5FA"",""assignmentId"":""798dec17-168a-4aee-843a-9f9f9b5bf9a9"",""projectId"":""051c06f1-75cc-4548-856d-4923ddaba0dc""}","https://test12345.live/?num_scrambled_semantic=8&num_scrambled_causal=4&num_scrambled_schematic=4&participantId=C51207452FEA4017A69F62A19AC5A5FA&assignmentId=798dec17-168a-4aee-843a-9f9f9b5bf9a9&projectId=051c06f1-75cc-4548-856d-4923ddaba0dc","C51207452FEA4017A69F62A19AC5A5FA-2025-05-15-19-19-31","[{""page_index"":0,""viewing_time"":2200}]","2200","","","","",""
"","","","","","image-button-response","24","201304","0.0-10.0-0.0","C51207452FEA4017A69F62A19AC5A5FA","C51207452FEA4017A69F62A19AC5A5FA","798dec17-168a-4aee-843a-9f9f9b5bf9a9","051c06f1-75cc-4548-856d-4923ddaba0dc","{""num_scrambled_semantic"":""8"",""num_scrambled_causal"":""4"",""num_scrambled_schematic"":""4"",""participantId"":""C51207452FEA4017A69F62A19AC5A5FA"",""assignmentId"":""798dec17-168a-4aee-843a-9f9f9b5bf9a9"",""projectId"":""051c06f1-75cc-4548-856d-4923ddaba0dc""}","https://test12345.live/?num_scrambled_semantic=8&num_scrambled_causal=4&num_scrambled_schematic=4&participantId=C51207452FEA4017A69F62A19AC5A5FA&assignmentId=798dec17-168a-4aee-843a-9f9f9b5bf9a9&projectId=051c06f1-75cc-4548-856d-4923ddaba0dc","C51207452FEA4017A69F62A19AC5A5FA-2025-05-15-19-19-31","","null","","images/semantic_sequence/market_semantic/market_semantic_0.png","null","",""
"","","","","","image-button-response","25","205809","0.0-10.0-1.0-0.0","C51207452FEA4017A69F62A19AC5A5FA","C51207452FEA4017A69F62A19AC5A5FA","798dec17-168a-4aee-843a-9f9f9b5bf9a9","051c06f1-75cc-4548-856d-4923ddaba0dc","{""num_scrambled_semantic"":""8"",""num_scrambled_causal"":""4"",""num_scrambled_schematic"":""4"",""participantId"":""C51207452FEA4017A69F62A19AC5A5FA"",""assignmentId"":""798dec17-168a-4aee-843a-9f9f9b5bf9a9"",""projectId"":""051c06f1-75cc-4548-856d-4923ddaba0dc""}","https://test12345.live/?num_scrambled_semantic=8&num_scrambled_causal=4&num_scrambled_schematic=4&participantId=C51207452FEA4017A69F62A19AC5A5FA&assignmentId=798dec17-168a-4aee-843a-9f9f9b5bf9a9&projectId=051c06f1-75cc-4548-856d-4923ddaba0dc","C51207452FEA4017A69F62A19AC5A5FA-2025-05-15-19-19-31","","null","","images/semantic_sequence/market_semantic/market_semantic_1.png","null","",""
"","","","","","image-button-response","26","209811","0.0-10.0-1.0-1.0","C51207452FEA4017A69F62A19AC5A5FA","C51207452FEA4017A69F62A19AC5A5FA","798dec17-168a-4aee-843a-9f9f9b5bf9a9","051c06f1-75cc-4548-856d-4923ddaba0dc","{""num_scrambled_semantic"":""8"",""num_scrambled_causal"":""4"",""num_scrambled_schematic"":""4"",""participantId"":""C51207452FEA4017A69F62A19AC5A5FA"",""assignmentId"":""798dec17-168a-4aee-843a-9f9f9b5bf9a9"",""projectId"":""051c06f1-75cc-4548-856d-4923ddaba0dc""}","https://test12345.live/?num_scrambled_semantic=8&num_scrambled_causal=4&num_scrambled_schematic=4&participantId=C51207452FEA4017A69F62A19AC5A5FA&assignmentId=798dec17-168a-4aee-843a-9f9f9b5bf9a9&projectId=051c06f1-75cc-4548-856d-4923ddaba0dc","C51207452FEA4017A69F62A19AC5A5FA-2025-05-15-19-19-31","","null","","images/semantic_sequence/market_semantic/market_semantic_1.png","null","",""
"","","","","","image-button-response","27","211619","0.0-10.0-1.0-2.0","C51207452FEA4017A69F62A19AC5A5FA","C51207452FEA4017A69F62A19AC5A5FA","798dec17-168a-4aee-843a-9f9f9b5bf9a9","051c06f1-75cc-4548-856d-4923ddaba0dc","{""num_scrambled_semantic"":""8"",""num_scrambled_causal"":""4"",""num_scrambled_schematic"":""4"",""participantId"":""C51207452FEA4017A69F62A19AC5A5FA"",""assignmentId"":""798dec17-168a-4aee-843a-9f9f9b5bf9a9"",""projectId"":""051c06f1-75cc-4548-856d-4923ddaba0dc""}","https://test12345.live/?num_scrambled_semantic=8&num_scrambled_causal=4&num_scrambled_schematic=4&participantId=C51207452FEA4017A69F62A19AC5A5FA&assignmentId=798dec17-168a-4aee-843a-9f9f9b5bf9a9&projectId=051c06f1-75cc-4548-856d-4923ddaba0dc","C51207452FEA4017A69F62A19AC5A5FA-2025-05-15-19-19-31","","null","","[]","null","",""
"","","","","","image-button-response","28","216130","0.0-10.0-1.0-0.1","C51207452FEA4017A69F62A19AC5A5FA","C51207452FEA4017A69F62A19AC5A5FA","798dec17-168a-4aee-843a-9f9f9b5bf9a9","051c06f1-75cc-4548-856d-4923ddaba0dc","{""num_scrambled_semantic"":""8"",""num_scrambled_causal"":""4"",""num_scrambled_schematic"":""4"",""participantId"":""C51207452FEA4017A69F62A19AC5A5FA"",""assignmentId"":""798dec17-168a-4aee-843a-9f9f9b5bf9a9"",""projectId"":""051c06f1-75cc-4548-856d-4923ddaba0dc""}","https://test12345.live/?num_scrambled_semantic=8&num_scrambled_causal=4&num_scrambled_schematic=4&participantId=C51207452FEA4017A69F62A19AC5A5FA&assignmentId=798dec17-168a-4aee-843a-9f9f9b5bf9a9&projectId=051c06f1-75cc-4548-856d-4923ddaba0dc","C51207452FEA4017A69F62A19AC5A5FA-2025-05-15-19-19-31","","null","","images/semantic_sequence/market_semantic/market_semantic_2.png","null","",""
"","","","","","image-button-response","29","216858","0.0-10.0-1.0-1.1","C51207452FEA4017A69F62A19AC5A5FA","C51207452FEA4017A69F62A19AC5A5FA","798dec17-168a-4aee-843a-9f9f9b5bf9a9","051c06f1-75cc-4548-856d-4923ddaba0dc","{""num_scrambled_semantic"":""8"",""num_scrambled_causal"":""4"",""num_scrambled_schematic"":""4"",""participantId"":""C51207452FEA4017A69F62A19AC5A5FA"",""assignmentId"":""798dec17-168a-4aee-843a-9f9f9b5bf9a9"",""projectId"":""051c06f1-75cc-4548-856d-4923ddaba0dc""}","https://test12345.live/?num_scrambled_semantic=8&num_scrambled_causal=4&num_scrambled_schematic=4&participantId=C51207452FEA4017A69F62A19AC5A5FA&assignmentId=798dec17-168a-4aee-843a-9f9f9b5bf9a9&projectId=051c06f1-75cc-4548-856d-4923ddaba0dc","C51207452FEA4017A69F62A19AC5A5FA-2025-05-15-19-19-31","","726","","images/semantic_sequence/market_semantic/market_semantic_2.png","1","",""
"","","","","","image-button-response","30","218663","0.0-10.0-1.0-2.1","C51207452FEA4017A69F62A19AC5A5FA","C51207452FEA4017A69F62A19AC5A5FA","798dec17-168a-4aee-843a-9f9f9b5bf9a9","051c06f1-75cc-4548-856d-4923ddaba0dc","{""num_scrambled_semantic"":""8"",""num_scrambled_causal"":""4"",""num_scrambled_schematic"":""4"",""participantId"":""C51207452FEA4017A69F62A19AC5A5FA"",""assignmentId"":""798dec17-168a-4aee-843a-9f9f9b5bf9a9"",""projectId"":""051c06f1-75cc-4548-856d-4923ddaba0dc""}","https://test12345.live/?num_scrambled_semantic=8&num_scrambled_causal=4&num_scrambled_schematic=4&participantId=C51207452FEA4017A69F62A19AC5A5FA&assignmentId=798dec17-168a-4aee-843a-9f9f9b5bf9a9&projectId=051c06f1-75cc-4548-856d-4923ddaba0dc","C51207452FEA4017A69F62A19AC5A5FA-2025-05-15-19-19-31","","null","","[]","null","",""
"","","","","","image-button-response","31","223168","0.0-10.0-1.0-0.2","C51207452FEA4017A69F62A19AC5A5FA","C51207452FEA4017A69F62A19AC5A5FA","798dec17-168a-4aee-843a-9f9f9b5bf9a9","051c06f1-75cc-4548-856d-4923ddaba0dc","{""num_scrambled_semantic"":""8"",""num_scrambled_causal"":""4"",""num_scrambled_schematic"":""4"",""participantId"":""C51207452FEA4017A69F62A19AC5A5FA"",""assignmentId"":""798dec17-168a-4aee-843a-9f9f9b5bf9a9"",""projectId"":""051c06f1-75cc-4548-856d-4923ddaba0dc""}","https://test12345.live/?num_scrambled_semantic=8&num_scrambled_causal=4&num_scrambled_schematic=4&participantId=C51207452FEA4017A69F62A19AC5A5FA&assignmentId=798dec17-168a-4aee-843a-9f9f9b5bf9a9&projectId=051c06f1-75cc-4548-856d-4923ddaba0dc","C51207452FEA4017A69F62A19AC5A5FA-2025-05-15-19-19-31","","null","","images/semantic_sequence/market_semantic/market_semantic_3.png","null","",""
"","","","","","image-button-response","32","224468","0.0-10.0-1.0-1.2","C51207452FEA4017A69F62A19AC5A5FA","C51207452FEA4017A69F62A19AC5A5FA","798dec17-168a-4aee-843a-9f9f9b5bf9a9","051c06f1-75cc-4548-856d-4923ddaba0dc","{""num_scrambled_semantic"":""8"",""num_scrambled_causal"":""4"",""num_scrambled_schematic"":""4"",""participantId"":""C51207452FEA4017A69F62A19AC5A5FA"",""assignmentId"":""798dec17-168a-4aee-843a-9f9f9b5bf9a9"",""projectId"":""051c06f1-75cc-4548-856d-4923ddaba0dc""}","https://test12345.live/?num_scrambled_semantic=8&num_scrambled_causal=4&num_scrambled_schematic=4&participantId=C51207452FEA4017A69F62A19AC5A5FA&assignmentId=798dec17-168a-4aee-843a-9f9f9b5bf9a9&projectId=051c06f1-75cc-4548-856d-4923ddaba0dc","C51207452FEA4017A69F62A19AC5A5FA-2025-05-15-19-19-31","","1300","","images/semantic_sequence/market_semantic/market_semantic_3.png","1","",""
"","","","","","image-button-response","33","226276","0.0-10.0-1.0-2.2","C51207452FEA4017A69F62A19AC5A5FA","C51207452FEA4017A69F62A19AC5A5FA","798dec17-168a-4aee-843a-9f9f9b5bf9a9","051c06f1-75cc-4548-856d-4923ddaba0dc","{""num_scrambled_semantic"":""8"",""num_scrambled_causal"":""4"",""num_scrambled_schematic"":""4"",""participantId"":""C51207452FEA4017A69F62A19AC5A5FA"",""assignmentId"":""798dec17-168a-4aee-843a-9f9f9b5bf9a9"",""projectId"":""051c06f1-75cc-4548-856d-4923ddaba0dc""}","https://test12345.live/?num_scrambled_semantic=8&num_scrambled_causal=4&num_scrambled_schematic=4&participantId=C51207452FEA4017A69F62A19AC5A5FA&assignmentId=798dec17-168a-4aee-843a-9f9f9b5bf9a9&projectId=051c06f1-75cc-4548-856d-4923ddaba0dc","C51207452FEA4017A69F62A19AC5A5FA-2025-05-15-19-19-31","","null","","[]","null","",""
"","","","","","image-button-response","34","230784","0.0-10.0-1.0-0.3","C51207452FEA4017A69F62A19AC5A5FA","C51207452FEA4017A69F62A19AC5A5FA","798dec17-168a-4aee-843a-9f9f9b5bf9a9","051c06f1-75cc-4548-856d-4923ddaba0dc","{""num_scrambled_semantic"":""8"",""num_scrambled_causal"":""4"",""num_scrambled_schematic"":""4"",""participantId"":""C51207452FEA4017A69F62A19AC5A5FA"",""assignmentId"":""798dec17-168a-4aee-843a-9f9f9b5bf9a9"",""projectId"":""051c06f1-75cc-4548-856d-4923ddaba0dc""}","https://test12345.live/?num_scrambled_semantic=8&num_scrambled_causal=4&num_scrambled_schematic=4&participantId=C51207452FEA4017A69F62A19AC5A5FA&assignmentId=798dec17-168a-4aee-843a-9f9f9b5bf9a9&projectId=051c06f1-75cc-4548-856d-4923ddaba0dc","C51207452FEA4017A69F62A19AC5A5FA-2025-05-15-19-19-31","","null","","images/semantic_sequence/market_semantic/market_semantic_4.png","null","",""
"","","","","","image-button-response","35","232096","0.0-10.0-1.0-1.3","C51207452FEA4017A69F62A19AC5A5FA","C51207452FEA4017A69F62A19AC5A5FA","798dec17-168a-4aee-843a-9f9f9b5bf9a9","051c06f1-75cc-4548-856d-4923ddaba0dc","{""num_scrambled_semantic"":""8"",""num_scrambled_causal"":""4"",""num_scrambled_schematic"":""4"",""participantId"":""C51207452FEA4017A69F62A19AC5A5FA"",""assignmentId"":""798dec17-168a-4aee-843a-9f9f9b5bf9a9"",""projectId"":""051c06f1-75cc-4548-856d-4923ddaba0dc""}","https://test12345.live/?num_scrambled_semantic=8&num_scrambled_causal=4&num_scrambled_schematic=4&participantId=C51207452FEA4017A69F62A19AC5A5FA&assignmentId=798dec17-168a-4aee-843a-9f9f9b5bf9a9&projectId=051c06f1-75cc-4548-856d-4923ddaba0dc","C51207452FEA4017A69F62A19AC5A5FA-2025-05-15-19-19-31","","1311","","images/semantic_sequence/market_semantic/market_semantic_4.png","0","",""
"","","","","","image-button-response","36","233901","0.0-10.0-1.0-2.3","C51207452FEA4017A69F62A19AC5A5FA","C51207452FEA4017A69F62A19AC5A5FA","798dec17-168a-4aee-843a-9f9f9b5bf9a9","051c06f1-75cc-4548-856d-4923ddaba0dc","{""num_scrambled_semantic"":""8"",""num_scrambled_causal"":""4"",""num_scrambled_schematic"":""4"",""participantId"":""C51207452FEA4017A69F62A19AC5A5FA"",""assignmentId"":""798dec17-168a-4aee-843a-9f9f9b5bf9a9"",""projectId"":""051c06f1-75cc-4548-856d-4923ddaba0dc""}","https://test12345.live/?num_scrambled_semantic=8&num_scrambled_causal=4&num_scrambled_schematic=4&participantId=C51207452FEA4017A69F62A19AC5A5FA&assignmentId=798dec17-168a-4aee-843a-9f9f9b5bf9a9&projectId=051c06f1-75cc-4548-856d-4923ddaba0dc","C51207452FEA4017A69F62A19AC5A5FA-2025-05-15-19-19-31","","null","","[]","null","",""
"","","","","","image-button-response","37","238407","0.0-10.0-1.0-0.4","C51207452FEA4017A69F62A19AC5A5FA","C51207452FEA4017A69F62A19AC5A5FA","798dec17-168a-4aee-843a-9f9f9b5bf9a9","051c06f1-75cc-4548-856d-4923ddaba0dc","{""num_scrambled_semantic"":""8"",""num_scrambled_causal"":""4"",""num_scrambled_schematic"":""4"",""participantId"":""C51207452FEA4017A69F62A19AC5A5FA"",""assignmentId"":""798dec17-168a-4aee-843a-9f9f9b5bf9a9"",""projectId"":""051c06f1-75cc-4548-856d-4923ddaba0dc""}","https://test12345.live/?num_scrambled_semantic=8&num_scrambled_causal=4&num_scrambled_schematic=4&participantId=C51207452FEA4017A69F62A19AC5A5FA&assignmentId=798dec17-168a-4aee-843a-9f9f9b5bf9a9&projectId=051c06f1-75cc-4548-856d-4923ddaba0dc","C51207452FEA4017A69F62A19AC5A5FA-2025-05-15-19-19-31","","null","","images/semantic_sequence/market_semantic/market_semantic_5.png","null","",""
"","","","","","image-button-response","38","241695","0.0-10.0-1.0-1.4","C51207452FEA4017A69F62A19AC5A5FA","C51207452FEA4017A69F62A19AC5A5FA","798dec17-168a-4aee-843a-9f9f9b5bf9a9","051c06f1-75cc-4548-856d-4923ddaba0dc","{""num_scrambled_semantic"":""8"",""num_scrambled_causal"":""4"",""num_scrambled_schematic"":""4"",""participantId"":""C51207452FEA4017A69F62A19AC5A5FA"",""assignmentId"":""798dec17-168a-4aee-843a-9f9f9b5bf9a9"",""projectId"":""051c06f1-75cc-4548-856d-4923ddaba0dc""}","https://test12345.live/?num_scrambled_semantic=8&num_scrambled_causal=4&num_scrambled_schematic=4&participantId=C51207452FEA4017A69F62A19AC5A5FA&assignmentId=798dec17-168a-4aee-843a-9f9f9b5bf9a9&projectId=051c06f1-75cc-4548-856d-4923ddaba0dc","C51207452FEA4017A69F62A19AC5A5FA-2025-05-15-19-19-31","","3287","","images/semantic_sequence/market_semantic/market_semantic_5.png","1","",""
"","","","","","image-button-response","39","243515","0.0-10.0-1.0-2.4","C51207452FEA4017A69F62A19AC5A5FA","C51207452FEA4017A69F62A19AC5A5FA","798dec17-168a-4aee-843a-9f9f9b5bf9a9","051c06f1-75cc-4548-856d-4923ddaba0dc","{""num_scrambled_semantic"":""8"",""num_scrambled_causal"":""4"",""num_scrambled_schematic"":""4"",""participantId"":""C51207452FEA4017A69F62A19AC5A5FA"",""assignmentId"":""798dec17-168a-4aee-843a-9f9f9b5bf9a9"",""projectId"":""051c06f1-75cc-4548-856d-4923ddaba0dc""}","https://test12345.live/?num_scrambled_semantic=8&num_scrambled_causal=4&num_scrambled_schematic=4&participantId=C51207452FEA4017A69F62A19AC5A5FA&assignmentId=798dec17-168a-4aee-843a-9f9f9b5bf9a9&projectId=051c06f1-75cc-4548-856d-4923ddaba0dc","C51207452FEA4017A69F62A19AC5A5FA-2025-05-15-19-19-31","","null","","[]","null","",""
"","","","","","image-button-response","40","248017","0.0-10.0-1.0-0.5","C51207452FEA4017A69F62A19AC5A5FA","C51207452FEA4017A69F62A19AC5A5FA","798dec17-168a-4aee-843a-9f9f9b5bf9a9","051c06f1-75cc-4548-856d-4923ddaba0dc","{""num_scrambled_semantic"":""8"",""num_scrambled_causal"":""4"",""num_scrambled_schematic"":""4"",""participantId"":""C51207452FEA4017A69F62A19AC5A5FA"",""assignmentId"":""798dec17-168a-4aee-843a-9f9f9b5bf9a9"",""projectId"":""051c06f1-75cc-4548-856d-4923ddaba0dc""}","https://test12345.live/?num_scrambled_semantic=8&num_scrambled_causal=4&num_scrambled_schematic=4&participantId=C51207452FEA4017A69F62A19AC5A5FA&assignmentId=798dec17-168a-4aee-843a-9f9f9b5bf9a9&projectId=051c06f1-75cc-4548-856d-4923ddaba0dc","C51207452FEA4017A69F62A19AC5A5FA-2025-05-15-19-19-31","","null","","images/semantic_sequence/market_semantic/market_semantic_6.png","null","",""
"","","","","","image-button-response","41","250272","0.0-10.0-1.0-1.5","C51207452FEA4017A69F62A19AC5A5FA","C51207452FEA4017A69F62A19AC5A5FA","798dec17-168a-4aee-843a-9f9f9b5bf9a9","051c06f1-75cc-4548-856d-4923ddaba0dc","{""num_scrambled_semantic"":""8"",""num_scrambled_causal"":""4"",""num_scrambled_schematic"":""4"",""participantId"":""C51207452FEA4017A69F62A19AC5A5FA"",""assignmentId"":""798dec17-168a-4aee-843a-9f9f9b5bf9a9"",""projectId"":""051c06f1-75cc-4548-856d-4923ddaba0dc""}","https://test12345.live/?num_scrambled_semantic=8&num_scrambled_causal=4&num_scrambled_schematic=4&participantId=C51207452FEA4017A69F62A19AC5A5FA&assignmentId=798dec17-168a-4aee-843a-9f9f9b5bf9a9&projectId=051c06f1-75cc-4548-856d-4923ddaba0dc","C51207452FEA4017A69F62A19AC5A5FA-2025-05-15-19-19-31","","2254","","images/semantic_sequence/market_semantic/market_semantic_6.png","1","",""
"","","","","","image-button-response","42","252088","0.0-10.0-1.0-2.5","C51207452FEA4017A69F62A19AC5A5FA","C51207452FEA4017A69F62A19AC5A5FA","798dec17-168a-4aee-843a-9f9f9b5bf9a9","051c06f1-75cc-4548-856d-4923ddaba0dc","{""num_scrambled_semantic"":""8"",""num_scrambled_causal"":""4"",""num_scrambled_schematic"":""4"",""participantId"":""C51207452FEA4017A69F62A19AC5A5FA"",""assignmentId"":""798dec17-168a-4aee-843a-9f9f9b5bf9a9"",""projectId"":""051c06f1-75cc-4548-856d-4923ddaba0dc""}","https://test12345.live/?num_scrambled_semantic=8&num_scrambled_causal=4&num_scrambled_schematic=4&participantId=C51207452FEA4017A69F62A19AC5A5FA&assignmentId=798dec17-168a-4aee-843a-9f9f9b5bf9a9&projectId=051c06f1-75cc-4548-856d-4923ddaba0dc","C51207452FEA4017A69F62A19AC5A5FA-2025-05-15-19-19-31","","null","","[]","null","",""
"","","","","","image-button-response","43","256594","0.0-10.0-1.0-0.6","C51207452FEA4017A69F62A19AC5A5FA","C51207452FEA4017A69F62A19AC5A5FA","798dec17-168a-4aee-843a-9f9f9b5bf9a9","051c06f1-75cc-4548-856d-4923ddaba0dc","{""num_scrambled_semantic"":""8"",""num_scrambled_causal"":""4"",""num_scrambled_schematic"":""4"",""participantId"":""C51207452FEA4017A69F62A19AC5A5FA"",""assignmentId"":""798dec17-168a-4aee-843a-9f9f9b5bf9a9"",""projectId"":""051c06f1-75cc-4548-856d-4923ddaba0dc""}","https://test12345.live/?num_scrambled_semantic=8&num_scrambled_causal=4&num_scrambled_schematic=4&participantId=C51207452FEA4017A69F62A19AC5A5FA&assignmentId=798dec17-168a-4aee-843a-9f9f9b5bf9a9&projectId=051c06f1-75cc-4548-856d-4923ddaba0dc","C51207452FEA4017A69F62A19AC5A5FA-2025-05-15-19-19-31","","null","","images/semantic_sequence/market_semantic/market_semantic_7.png","null","",""
"","","","","","image-button-response","44","259507","0.0-10.0-1.0-1.6","C51207452FEA4017A69F62A19AC5A5FA","C51207452FEA4017A69F62A19AC5A5FA","798dec17-168a-4aee-843a-9f9f9b5bf9a9","051c06f1-75cc-4548-856d-4923ddaba0dc","{""num_scrambled_semantic"":""8"",""num_scrambled_causal"":""4"",""num_scrambled_schematic"":""4"",""participantId"":""C51207452FEA4017A69F62A19AC5A5FA"",""assignmentId"":""798dec17-168a-4aee-843a-9f9f9b5bf9a9"",""projectId"":""051c06f1-75cc-4548-856d-4923ddaba0dc""}","https://test12345.live/?num_scrambled_semantic=8&num_scrambled_causal=4&num_scrambled_schematic=4&participantId=C51207452FEA4017A69F62A19AC5A5FA&assignmentId=798dec17-168a-4aee-843a-9f9f9b5bf9a9&projectId=051c06f1-75cc-4548-856d-4923ddaba0dc","C51207452FEA4017A69F62A19AC5A5FA-2025-05-15-19-19-31","","2912","","images/semantic_sequence/market_semantic/market_semantic_7.png","0","",""
"","","","","","image-button-response","45","261309","0.0-10.0-1.0-2.6","C51207452FEA4017A69F62A19AC5A5FA","C51207452FEA4017A69F62A19AC5A5FA","798dec17-168a-4aee-843a-9f9f9b5bf9a9","051c06f1-75cc-4548-856d-4923ddaba0dc","{""num_scrambled_semantic"":""8"",""num_scrambled_causal"":""4"",""num_scrambled_schematic"":""4"",""participantId"":""C51207452FEA4017A69F62A19AC5A5FA"",""assignmentId"":""798dec17-168a-4aee-843a-9f9f9b5bf9a9"",""projectId"":""051c06f1-75cc-4548-856d-4923ddaba0dc""}","https://test12345.live/?num_scrambled_semantic=8&num_scrambled_causal=4&num_scrambled_schematic=4&participantId=C51207452FEA4017A69F62A19AC5A5FA&assignmentId=798dec17-168a-4aee-843a-9f9f9b5bf9a9&projectId=051c06f1-75cc-4548-856d-4923ddaba0dc","C51207452FEA4017A69F62A19AC5A5FA-2025-05-15-19-19-31","","null","","[]","null","",""
"","","","","","image-button-response","46","265825","0.0-10.0-1.0-0.7","C51207452FEA4017A69F62A19AC5A5FA","C51207452FEA4017A69F62A19AC5A5FA","798dec17-168a-4aee-843a-9f9f9b5bf9a9","051c06f1-75cc-4548-856d-4923ddaba0dc","{""num_scrambled_semantic"":""8"",""num_scrambled_causal"":""4"",""num_scrambled_schematic"":""4"",""participantId"":""C51207452FEA4017A69F62A19AC5A5FA"",""assignmentId"":""798dec17-168a-4aee-843a-9f9f9b5bf9a9"",""projectId"":""051c06f1-75cc-4548-856d-4923ddaba0dc""}","https://test12345.live/?num_scrambled_semantic=8&num_scrambled_causal=4&num_scrambled_schematic=4&participantId=C51207452FEA4017A69F62A19AC5A5FA&assignmentId=798dec17-168a-4aee-843a-9f9f9b5bf9a9&projectId=051c06f1-75cc-4548-856d-4923ddaba0dc","C51207452FEA4017A69F62A19AC5A5FA-2025-05-15-19-19-31","","null","","images/semantic_sequence/market_semantic/market_semantic_8.png","null","",""
"","","","","","image-button-response","47","267582","0.0-10.0-1.0-1.7","C51207452FEA4017A69F62A19AC5A5FA","C51207452FEA4017A69F62A19AC5A5FA","798dec17-168a-4aee-843a-9f9f9b5bf9a9","051c06f1-75cc-4548-856d-4923ddaba0dc","{""num_scrambled_semantic"":""8"",""num_scrambled_causal"":""4"",""num_scrambled_schematic"":""4"",""participantId"":""C51207452FEA4017A69F62A19AC5A5FA"",""assignmentId"":""798dec17-168a-4aee-843a-9f9f9b5bf9a9"",""projectId"":""051c06f1-75cc-4548-856d-4923ddaba0dc""}","https://test12345.live/?num_scrambled_semantic=8&num_scrambled_causal=4&num_scrambled_schematic=4&participantId=C51207452FEA4017A69F62A19AC5A5FA&assignmentId=798dec17-168a-4aee-843a-9f9f9b5bf9a9&projectId=051c06f1-75cc-4548-856d-4923ddaba0dc","C51207452FEA4017A69F62A19AC5A5FA-2025-05-15-19-19-31","","1756","","images/semantic_sequence/market_semantic/market_semantic_8.png","1","",""
"","","","","","image-button-response","48","269385","0.0-10.0-1.0-2.7","C51207452FEA4017A69F62A19AC5A5FA","C51207452FEA4017A69F62A19AC5A5FA","798dec17-168a-4aee-843a-9f9f9b5bf9a9","051c06f1-75cc-4548-856d-4923ddaba0dc","{""num_scrambled_semantic"":""8"",""num_scrambled_causal"":""4"",""num_scrambled_schematic"":""4"",""participantId"":""C51207452FEA4017A69F62A19AC5A5FA"",""assignmentId"":""798dec17-168a-4aee-843a-9f9f9b5bf9a9"",""projectId"":""051c06f1-75cc-4548-856d-4923ddaba0dc""}","https://test12345.live/?num_scrambled_semantic=8&num_scrambled_causal=4&num_scrambled_schematic=4&participantId=C51207452FEA4017A69F62A19AC5A5FA&assignmentId=798dec17-168a-4aee-843a-9f9f9b5bf9a9&projectId=051c06f1-75cc-4548-856d-4923ddaba0dc","C51207452FEA4017A69F62A19AC5A5FA-2025-05-15-19-19-31","","null","","[]","null","",""
"","","","","","image-button-response","49","273892","0.0-10.0-1.0-0.8","C51207452FEA4017A69F62A19AC5A5FA","C51207452FEA4017A69F62A19AC5A5FA","798dec17-168a-4aee-843a-9f9f9b5bf9a9","051c06f1-75cc-4548-856d-4923ddaba0dc","{""num_scrambled_semantic"":""8"",""num_scrambled_causal"":""4"",""num_scrambled_schematic"":""4"",""participantId"":""C51207452FEA4017A69F62A19AC5A5FA"",""assignmentId"":""798dec17-168a-4aee-843a-9f9f9b5bf9a9"",""projectId"":""051c06f1-75cc-4548-856d-4923ddaba0dc""}","https://test12345.live/?num_scrambled_semantic=8&num_scrambled_causal=4&num_scrambled_schematic=4&participantId=C51207452FEA4017A69F62A19AC5A5FA&assignmentId=798dec17-168a-4aee-843a-9f9f9b5bf9a9&projectId=051c06f1-75cc-4548-856d-4923ddaba0dc","C51207452FEA4017A69F62A19AC5A5FA-2025-05-15-19-19-31","","null","","images/semantic_sequence/market_semantic/market_semantic_9.png","null","",""
"","","","","","image-button-response","50","277906","0.0-10.0-1.0-1.8","C51207452FEA4017A69F62A19AC5A5FA","C51207452FEA4017A69F62A19AC5A5FA","798dec17-168a-4aee-843a-9f9f9b5bf9a9","051c06f1-75cc-4548-856d-4923ddaba0dc","{""num_scrambled_semantic"":""8"",""num_scrambled_causal"":""4"",""num_scrambled_schematic"":""4"",""participantId"":""C51207452FEA4017A69F62A19AC5A5FA"",""assignmentId"":""798dec17-168a-4aee-843a-9f9f9b5bf9a9"",""projectId"":""051c06f1-75cc-4548-856d-4923ddaba0dc""}","https://test12345.live/?num_scrambled_semantic=8&num_scrambled_causal=4&num_scrambled_schematic=4&participantId=C51207452FEA4017A69F62A19AC5A5FA&assignmentId=798dec17-168a-4aee-843a-9f9f9b5bf9a9&projectId=051c06f1-75cc-4548-856d-4923ddaba0dc","C51207452FEA4017A69F62A19AC5A5FA-2025-05-15-19-19-31","","null","","images/semantic_sequence/market_semantic/market_semantic_9.png","null","",""
"","","","","","image-button-response","51","279715","0.0-10.0-1.0-2.8","C51207452FEA4017A69F62A19AC5A5FA","C51207452FEA4017A69F62A19AC5A5FA","798dec17-168a-4aee-843a-9f9f9b5bf9a9","051c06f1-75cc-4548-856d-4923ddaba0dc","{""num_scrambled_semantic"":""8"",""num_scrambled_causal"":""4"",""num_scrambled_schematic"":""4"",""participantId"":""C51207452FEA4017A69F62A19AC5A5FA"",""assignmentId"":""798dec17-168a-4aee-843a-9f9f9b5bf9a9"",""projectId"":""051c06f1-75cc-4548-856d-4923ddaba0dc""}","https://test12345.live/?num_scrambled_semantic=8&num_scrambled_causal=4&num_scrambled_schematic=4&participantId=C51207452FEA4017A69F62A19AC5A5FA&assignmentId=798dec17-168a-4aee-843a-9f9f9b5bf9a9&projectId=051c06f1-75cc-4548-856d-4923ddaba0dc","C51207452FEA4017A69F62A19AC5A5FA-2025-05-15-19-19-31","","null","","[]","null","",""
"","","","","","image-button-response","52","284217","0.0-10.0-1.0-0.9","C51207452FEA4017A69F62A19AC5A5FA","C51207452FEA4017A69F62A19AC5A5FA","798dec17-168a-4aee-843a-9f9f9b5bf9a9","051c06f1-75cc-4548-856d-4923ddaba0dc","{""num_scrambled_semantic"":""8"",""num_scrambled_causal"":""4"",""num_scrambled_schematic"":""4"",""participantId"":""C51207452FEA4017A69F62A19AC5A5FA"",""assignmentId"":""798dec17-168a-4aee-843a-9f9f9b5bf9a9"",""projectId"":""051c06f1-75cc-4548-856d-4923ddaba0dc""}","https://test12345.live/?num_scrambled_semantic=8&num_scrambled_causal=4&num_scrambled_schematic=4&participantId=C51207452FEA4017A69F62A19AC5A5FA&assignmentId=798dec17-168a-4aee-843a-9f9f9b5bf9a9&projectId=051c06f1-75cc-4548-856d-4923ddaba0dc","C51207452FEA4017A69F62A19AC5A5FA-2025-05-15-19-19-31","","null","","images/semantic_sequence/market_semantic/market_semantic_ten.png","null","",""
"","","","","","image-button-response","53","287375","0.0-10.0-1.0-1.9","C51207452FEA4017A69F62A19AC5A5FA","C51207452FEA4017A69F62A19AC5A5FA","798dec17-168a-4aee-843a-9f9f9b5bf9a9","051c06f1-75cc-4548-856d-4923ddaba0dc","{""num_scrambled_semantic"":""8"",""num_scrambled_causal"":""4"",""num_scrambled_schematic"":""4"",""participantId"":""C51207452FEA4017A69F62A19AC5A5FA"",""assignmentId"":""798dec17-168a-4aee-843a-9f9f9b5bf9a9"",""projectId"":""051c06f1-75cc-4548-856d-4923ddaba0dc""}","https://test12345.live/?num_scrambled_semantic=8&num_scrambled_causal=4&num_scrambled_schematic=4&participantId=C51207452FEA4017A69F62A19AC5A5FA&assignmentId=798dec17-168a-4aee-843a-9f9f9b5bf9a9&projectId=051c06f1-75cc-4548-856d-4923ddaba0dc","C51207452FEA4017A69F62A19AC5A5FA-2025-05-15-19-19-31","","3157","","images/semantic_sequence/market_semantic/market_semantic_ten.png","1","",""
"","","","","","image-button-response","54","289189","0.0-10.0-1.0-2.9","C51207452FEA4017A69F62A19AC5A5FA","C51207452FEA4017A69F62A19AC5A5FA","798dec17-168a-4aee-843a-9f9f9b5bf9a9","051c06f1-75cc-4548-856d-4923ddaba0dc","{""num_scrambled_semantic"":""8"",""num_scrambled_causal"":""4"",""num_scrambled_schematic"":""4"",""participantId"":""C51207452FEA4017A69F62A19AC5A5FA"",""assignmentId"":""798dec17-168a-4aee-843a-9f9f9b5bf9a9"",""projectId"":""051c06f1-75cc-4548-856d-4923ddaba0dc""}","https://test12345.live/?num_scrambled_semantic=8&num_scrambled_causal=4&num_scrambled_schematic=4&participantId=C51207452FEA4017A69F62A19AC5A5FA&assignmentId=798dec17-168a-4aee-843a-9f9f9b5bf9a9&projectId=051c06f1-75cc-4548-856d-4923ddaba0dc","C51207452FEA4017A69F62A19AC5A5FA-2025-05-15-19-19-31","","null","","[]","null","",""
"","","","","","html-audio-response","55","352171","0.0-11.0","C51207452FEA4017A69F62A19AC5A5FA","C51207452FEA4017A69F62A19AC5A5FA","798dec17-168a-4aee-843a-9f9f9b5bf9a9","051c06f1-75cc-4548-856d-4923ddaba0dc","{""num_scrambled_semantic"":""8"",""num_scrambled_causal"":""4"",""num_scrambled_schematic"":""4"",""participantId"":""C51207452FEA4017A69F62A19AC5A5FA"",""assignmentId"":""798dec17-168a-4aee-843a-9f9f9b5bf9a9"",""projectId"":""051c06f1-75cc-4548-856d-4923ddaba0dc""}","https://test12345.live/?num_scrambled_semantic=8&num_scrambled_causal=4&num_scrambled_schematic=4&participantId=C51207452FEA4017A69F62A19AC5A5FA&assignmentId=798dec17-168a-4aee-843a-9f9f9b5bf9a9&projectId=051c06f1-75cc-4548-856d-4923ddaba0dc","C51207452FEA4017A69F62A19AC5A5FA-2025-05-15-19-19-31","","24129","","[""<span style=\""color: red; font-size: 24px\""> NOW RECORDING</span><p>Please say out loud all the images you saw, as many as you can remember. The images can be said in any order.</p>""]","","1","market_semantic"
"","","","","","image-button-response","56","358189","0.0-12.0-0.0","C51207452FEA4017A69F62A19AC5A5FA","C51207452FEA4017A69F62A19AC5A5FA","798dec17-168a-4aee-843a-9f9f9b5bf9a9","051c06f1-75cc-4548-856d-4923ddaba0dc","{""num_scrambled_semantic"":""8"",""num_scrambled_causal"":""4"",""num_scrambled_schematic"":""4"",""participantId"":""C51207452FEA4017A69F62A19AC5A5FA"",""assignmentId"":""798dec17-168a-4aee-843a-9f9f9b5bf9a9"",""projectId"":""051c06f1-75cc-4548-856d-4923ddaba0dc""}","https://test12345.live/?num_scrambled_semantic=8&num_scrambled_causal=4&num_scrambled_schematic=4&participantId=C51207452FEA4017A69F62A19AC5A5FA&assignmentId=798dec17-168a-4aee-843a-9f9f9b5bf9a9&projectId=051c06f1-75cc-4548-856d-4923ddaba0dc","C51207452FEA4017A69F62A19AC5A5FA-2025-05-15-19-19-31","","null","","images/schematic_sequence/interview_scheme/interview_scheme_0.png","null","",""
"","","","","","image-button-response","57","362696","0.0-12.0-1.0-0.0","C51207452FEA4017A69F62A19AC5A5FA","C51207452FEA4017A69F62A19AC5A5FA","798dec17-168a-4aee-843a-9f9f9b5bf9a9","051c06f1-75cc-4548-856d-4923ddaba0dc","{""num_scrambled_semantic"":""8"",""num_scrambled_causal"":""4"",""num_scrambled_schematic"":""4"",""participantId"":""C51207452FEA4017A69F62A19AC5A5FA"",""assignmentId"":""798dec17-168a-4aee-843a-9f9f9b5bf9a9"",""projectId"":""051c06f1-75cc-4548-856d-4923ddaba0dc""}","https://test12345.live/?num_scrambled_semantic=8&num_scrambled_causal=4&num_scrambled_schematic=4&participantId=C51207452FEA4017A69F62A19AC5A5FA&assignmentId=798dec17-168a-4aee-843a-9f9f9b5bf9a9&projectId=051c06f1-75cc-4548-856d-4923ddaba0dc","C51207452FEA4017A69F62A19AC5A5FA-2025-05-15-19-19-31","","null","","images/schematic_sequence/interview_scheme/interview_scheme_1.png","null","",""
"","","","","","image-button-response","58","365240","0.0-12.0-1.0-1.0","C51207452FEA4017A69F62A19AC5A5FA","C51207452FEA4017A69F62A19AC5A5FA","798dec17-168a-4aee-843a-9f9f9b5bf9a9","051c06f1-75cc-4548-856d-4923ddaba0dc","{""num_scrambled_semantic"":""8"",""num_scrambled_causal"":""4"",""num_scrambled_schematic"":""4"",""participantId"":""C51207452FEA4017A69F62A19AC5A5FA"",""assignmentId"":""798dec17-168a-4aee-843a-9f9f9b5bf9a9"",""projectId"":""051c06f1-75cc-4548-856d-4923ddaba0dc""}","https://test12345.live/?num_scrambled_semantic=8&num_scrambled_causal=4&num_scrambled_schematic=4&participantId=C51207452FEA4017A69F62A19AC5A5FA&assignmentId=798dec17-168a-4aee-843a-9f9f9b5bf9a9&projectId=051c06f1-75cc-4548-856d-4923ddaba0dc","C51207452FEA4017A69F62A19AC5A5FA-2025-05-15-19-19-31","","2543","","images/schematic_sequence/interview_scheme/interview_scheme_1.png","1","",""
"","","","","","image-button-response","59","367056","0.0-12.0-1.0-2.0","C51207452FEA4017A69F62A19AC5A5FA","C51207452FEA4017A69F62A19AC5A5FA","798dec17-168a-4aee-843a-9f9f9b5bf9a9","051c06f1-75cc-4548-856d-4923ddaba0dc","{""num_scrambled_semantic"":""8"",""num_scrambled_causal"":""4"",""num_scrambled_schematic"":""4"",""participantId"":""C51207452FEA4017A69F62A19AC5A5FA"",""assignmentId"":""798dec17-168a-4aee-843a-9f9f9b5bf9a9"",""projectId"":""051c06f1-75cc-4548-856d-4923ddaba0dc""}","https://test12345.live/?num_scrambled_semantic=8&num_scrambled_causal=4&num_scrambled_schematic=4&participantId=C51207452FEA4017A69F62A19AC5A5FA&assignmentId=798dec17-168a-4aee-843a-9f9f9b5bf9a9&projectId=051c06f1-75cc-4548-856d-4923ddaba0dc","C51207452FEA4017A69F62A19AC5A5FA-2025-05-15-19-19-31","","null","","[]","null","",""
"","","","","","image-button-response","60","371584","0.0-12.0-1.0-0.1","C51207452FEA4017A69F62A19AC5A5FA","C51207452FEA4017A69F62A19AC5A5FA","798dec17-168a-4aee-843a-9f9f9b5bf9a9","051c06f1-75cc-4548-856d-4923ddaba0dc","{""num_scrambled_semantic"":""8"",""num_scrambled_causal"":""4"",""num_scrambled_schematic"":""4"",""participantId"":""C51207452FEA4017A69F62A19AC5A5FA"",""assignmentId"":""798dec17-168a-4aee-843a-9f9f9b5bf9a9"",""projectId"":""051c06f1-75cc-4548-856d-4923ddaba0dc""}","https://test12345.live/?num_scrambled_semantic=8&num_scrambled_causal=4&num_scrambled_schematic=4&participantId=C51207452FEA4017A69F62A19AC5A5FA&assignmentId=798dec17-168a-4aee-843a-9f9f9b5bf9a9&projectId=051c06f1-75cc-4548-856d-4923ddaba0dc","C51207452FEA4017A69F62A19AC5A5FA-2025-05-15-19-19-31","","null","","images/schematic_sequence/interview_scheme/interview_scheme_2.png","null","",""
"","","","","","image-button-response","61","375591","0.0-12.0-1.0-1.1","C51207452FEA4017A69F62A19AC5A5FA","C51207452FEA4017A69F62A19AC5A5FA","798dec17-168a-4aee-843a-9f9f9b5bf9a9","051c06f1-75cc-4548-856d-4923ddaba0dc","{""num_scrambled_semantic"":""8"",""num_scrambled_causal"":""4"",""num_scrambled_schematic"":""4"",""participantId"":""C51207452FEA4017A69F62A19AC5A5FA"",""assignmentId"":""798dec17-168a-4aee-843a-9f9f9b5bf9a9"",""projectId"":""051c06f1-75cc-4548-856d-4923ddaba0dc""}","https://test12345.live/?num_scrambled_semantic=8&num_scrambled_causal=4&num_scrambled_schematic=4&participantId=C51207452FEA4017A69F62A19AC5A5FA&assignmentId=798dec17-168a-4aee-843a-9f9f9b5bf9a9&projectId=051c06f1-75cc-4548-856d-4923ddaba0dc","C51207452FEA4017A69F62A19AC5A5FA-2025-05-15-19-19-31","","null","","images/schematic_sequence/interview_scheme/interview_scheme_2.png","null","",""
"","","","","","image-button-response","62","377405","0.0-12.0-1.0-2.1","C51207452FEA4017A69F62A19AC5A5FA","C51207452FEA4017A69F62A19AC5A5FA","798dec17-168a-4aee-843a-9f9f9b5bf9a9","051c06f1-75cc-4548-856d-4923ddaba0dc","{""num_scrambled_semantic"":""8"",""num_scrambled_causal"":""4"",""num_scrambled_schematic"":""4"",""participantId"":""C51207452FEA4017A69F62A19AC5A5FA"",""assignmentId"":""798dec17-168a-4aee-843a-9f9f9b5bf9a9"",""projectId"":""051c06f1-75cc-4548-856d-4923ddaba0dc""}","https://test12345.live/?num_scrambled_semantic=8&num_scrambled_causal=4&num_scrambled_schematic=4&participantId=C51207452FEA4017A69F62A19AC5A5FA&assignmentId=798dec17-168a-4aee-843a-9f9f9b5bf9a9&projectId=051c06f1-75cc-4548-856d-4923ddaba0dc","C51207452FEA4017A69F62A19AC5A5FA-2025-05-15-19-19-31","","null","","[]","null","",""
"","","","","","image-button-response","63","381909","0.0-12.0-1.0-0.2","C51207452FEA4017A69F62A19AC5A5FA","C51207452FEA4017A69F62A19AC5A5FA","798dec17-168a-4aee-843a-9f9f9b5bf9a9","051c06f1-75cc-4548-856d-4923ddaba0dc","{""num_scrambled_semantic"":""8"",""num_scrambled_causal"":""4"",""num_scrambled_schematic"":""4"",""participantId"":""C51207452FEA4017A69F62A19AC5A5FA"",""assignmentId"":""798dec17-168a-4aee-843a-9f9f9b5bf9a9"",""projectId"":""051c06f1-75cc-4548-856d-4923ddaba0dc""}","https://test12345.live/?num_scrambled_semantic=8&num_scrambled_causal=4&num_scrambled_schematic=4&participantId=C51207452FEA4017A69F62A19AC5A5FA&assignmentId=798dec17-168a-4aee-843a-9f9f9b5bf9a9&projectId=051c06f1-75cc-4548-856d-4923ddaba0dc","C51207452FEA4017A69F62A19AC5A5FA-2025-05-15-19-19-31","","null","","images/schematic_sequence/interview_scheme/interview_scheme_3.png","null","",""
"","","","","","image-button-response","64","383196","0.0-12.0-1.0-1.2","C51207452FEA4017A69F62A19AC5A5FA","C51207452FEA4017A69F62A19AC5A5FA","798dec17-168a-4aee-843a-9f9f9b5bf9a9","051c06f1-75cc-4548-856d-4923ddaba0dc","{""num_scrambled_semantic"":""8"",""num_scrambled_causal"":""4"",""num_scrambled_schematic"":""4"",""participantId"":""C51207452FEA4017A69F62A19AC5A5FA"",""assignmentId"":""798dec17-168a-4aee-843a-9f9f9b5bf9a9"",""projectId"":""051c06f1-75cc-4548-856d-4923ddaba0dc""}","https://test12345.live/?num_scrambled_semantic=8&num_scrambled_causal=4&num_scrambled_schematic=4&participantId=C51207452FEA4017A69F62A19AC5A5FA&assignmentId=798dec17-168a-4aee-843a-9f9f9b5bf9a9&projectId=051c06f1-75cc-4548-856d-4923ddaba0dc","C51207452FEA4017A69F62A19AC5A5FA-2025-05-15-19-19-31","","1286","","images/schematic_sequence/interview_scheme/interview_scheme_3.png","1","",""
"","","","","","image-button-response","65","385014","0.0-12.0-1.0-2.2","C51207452FEA4017A69F62A19AC5A5FA","C51207452FEA4017A69F62A19AC5A5FA","798dec17-168a-4aee-843a-9f9f9b5bf9a9","051c06f1-75cc-4548-856d-4923ddaba0dc","{""num_scrambled_semantic"":""8"",""num_scrambled_causal"":""4"",""num_scrambled_schematic"":""4"",""participantId"":""C51207452FEA4017A69F62A19AC5A5FA"",""assignmentId"":""798dec17-168a-4aee-843a-9f9f9b5bf9a9"",""projectId"":""051c06f1-75cc-4548-856d-4923ddaba0dc""}","https://test12345.live/?num_scrambled_semantic=8&num_scrambled_causal=4&num_scrambled_schematic=4&participantId=C51207452FEA4017A69F62A19AC5A5FA&assignmentId=798dec17-168a-4aee-843a-9f9f9b5bf9a9&projectId=051c06f1-75cc-4548-856d-4923ddaba0dc","C51207452FEA4017A69F62A19AC5A5FA-2025-05-15-19-19-31","","null","","[]","null","",""
"","","","","","image-button-response","66","389528","0.0-12.0-1.0-0.3","C51207452FEA4017A69F62A19AC5A5FA","C51207452FEA4017A69F62A19AC5A5FA","798dec17-168a-4aee-843a-9f9f9b5bf9a9","051c06f1-75cc-4548-856d-4923ddaba0dc","{""num_scrambled_semantic"":""8"",""num_scrambled_causal"":""4"",""num_scrambled_schematic"":""4"",""participantId"":""C51207452FEA4017A69F62A19AC5A5FA"",""assignmentId"":""798dec17-168a-4aee-843a-9f9f9b5bf9a9"",""projectId"":""051c06f1-75cc-4548-856d-4923ddaba0dc""}","https://test12345.live/?num_scrambled_semantic=8&num_scrambled_causal=4&num_scrambled_schematic=4&participantId=C51207452FEA4017A69F62A19AC5A5FA&assignmentId=798dec17-168a-4aee-843a-9f9f9b5bf9a9&projectId=051c06f1-75cc-4548-856d-4923ddaba0dc","C51207452FEA4017A69F62A19AC5A5FA-2025-05-15-19-19-31","","null","","images/schematic_sequence/interview_scheme/interview_scheme_4.png","null","",""
"","","","","","image-button-response","67","391077","0.0-12.0-1.0-1.3","C51207452FEA4017A69F62A19AC5A5FA","C51207452FEA4017A69F62A19AC5A5FA","798dec17-168a-4aee-843a-9f9f9b5bf9a9","051c06f1-75cc-4548-856d-4923ddaba0dc","{""num_scrambled_semantic"":""8"",""num_scrambled_causal"":""4"",""num_scrambled_schematic"":""4"",""participantId"":""C51207452FEA4017A69F62A19AC5A5FA"",""assignmentId"":""798dec17-168a-4aee-843a-9f9f9b5bf9a9"",""projectId"":""051c06f1-75cc-4548-856d-4923ddaba0dc""}","https://test12345.live/?num_scrambled_semantic=8&num_scrambled_causal=4&num_scrambled_schematic=4&participantId=C51207452FEA4017A69F62A19AC5A5FA&assignmentId=798dec17-168a-4aee-843a-9f9f9b5bf9a9&projectId=051c06f1-75cc-4548-856d-4923ddaba0dc","C51207452FEA4017A69F62A19AC5A5FA-2025-05-15-19-19-31","","1548","","images/schematic_sequence/interview_scheme/interview_scheme_4.png","1","",""
"","","","","","image-button-response","68","392891","0.0-12.0-1.0-2.3","C51207452FEA4017A69F62A19AC5A5FA","C51207452FEA4017A69F62A19AC5A5FA","798dec17-168a-4aee-843a-9f9f9b5bf9a9","051c06f1-75cc-4548-856d-4923ddaba0dc","{""num_scrambled_semantic"":""8"",""num_scrambled_causal"":""4"",""num_scrambled_schematic"":""4"",""participantId"":""C51207452FEA4017A69F62A19AC5A5FA"",""assignmentId"":""798dec17-168a-4aee-843a-9f9f9b5bf9a9"",""projectId"":""051c06f1-75cc-4548-856d-4923ddaba0dc""}","https://test12345.live/?num_scrambled_semantic=8&num_scrambled_causal=4&num_scrambled_schematic=4&participantId=C51207452FEA4017A69F62A19AC5A5FA&assignmentId=798dec17-168a-4aee-843a-9f9f9b5bf9a9&projectId=051c06f1-75cc-4548-856d-4923ddaba0dc","C51207452FEA4017A69F62A19AC5A5FA-2025-05-15-19-19-31","","null","","[]","null","",""
"","","","","","image-button-response","69","397394","0.0-12.0-1.0-0.4","C51207452FEA4017A69F62A19AC5A5FA","C51207452FEA4017A69F62A19AC5A5FA","798dec17-168a-4aee-843a-9f9f9b5bf9a9","051c06f1-75cc-4548-856d-4923ddaba0dc","{""num_scrambled_semantic"":""8"",""num_scrambled_causal"":""4"",""num_scrambled_schematic"":""4"",""participantId"":""C51207452FEA4017A69F62A19AC5A5FA"",""assignmentId"":""798dec17-168a-4aee-843a-9f9f9b5bf9a9"",""projectId"":""051c06f1-75cc-4548-856d-4923ddaba0dc""}","https://test12345.live/?num_scrambled_semantic=8&num_scrambled_causal=4&num_scrambled_schematic=4&participantId=C51207452FEA4017A69F62A19AC5A5FA&assignmentId=798dec17-168a-4aee-843a-9f9f9b5bf9a9&projectId=051c06f1-75cc-4548-856d-4923ddaba0dc","C51207452FEA4017A69F62A19AC5A5FA-2025-05-15-19-19-31","","null","","images/schematic_sequence/interview_scheme/interview_scheme_5.png","null","",""
"","","","","","image-button-response","70","399864","0.0-12.0-1.0-1.4","C51207452FEA4017A69F62A19AC5A5FA","C51207452FEA4017A69F62A19AC5A5FA","798dec17-168a-4aee-843a-9f9f9b5bf9a9","051c06f1-75cc-4548-856d-4923ddaba0dc","{""num_scrambled_semantic"":""8"",""num_scrambled_causal"":""4"",""num_scrambled_schematic"":""4"",""participantId"":""C51207452FEA4017A69F62A19AC5A5FA"",""assignmentId"":""798dec17-168a-4aee-843a-9f9f9b5bf9a9"",""projectId"":""051c06f1-75cc-4548-856d-4923ddaba0dc""}","https://test12345.live/?num_scrambled_semantic=8&num_scrambled_causal=4&num_scrambled_schematic=4&participantId=C51207452FEA4017A69F62A19AC5A5FA&assignmentId=798dec17-168a-4aee-843a-9f9f9b5bf9a9&projectId=051c06f1-75cc-4548-856d-4923ddaba0dc","C51207452FEA4017A69F62A19AC5A5FA-2025-05-15-19-19-31","","2469","","images/schematic_sequence/interview_scheme/interview_scheme_5.png","0","",""
"","","","","","image-button-response","71","401675","0.0-12.0-1.0-2.4","C51207452FEA4017A69F62A19AC5A5FA","C51207452FEA4017A69F62A19AC5A5FA","798dec17-168a-4aee-843a-9f9f9b5bf9a9","051c06f1-75cc-4548-856d-4923ddaba0dc","{""num_scrambled_semantic"":""8"",""num_scrambled_causal"":""4"",""num_scrambled_schematic"":""4"",""participantId"":""C51207452FEA4017A69F62A19AC5A5FA"",""assignmentId"":""798dec17-168a-4aee-843a-9f9f9b5bf9a9"",""projectId"":""051c06f1-75cc-4548-856d-4923ddaba0dc""}","https://test12345.live/?num_scrambled_semantic=8&num_scrambled_causal=4&num_scrambled_schematic=4&participantId=C51207452FEA4017A69F62A19AC5A5FA&assignmentId=798dec17-168a-4aee-843a-9f9f9b5bf9a9&projectId=051c06f1-75cc-4548-856d-4923ddaba0dc","C51207452FEA4017A69F62A19AC5A5FA-2025-05-15-19-19-31","","null","","[]","null","",""
"","","","","","image-button-response","72","406180","0.0-12.0-1.0-0.5","C51207452FEA4017A69F62A19AC5A5FA","C51207452FEA4017A69F62A19AC5A5FA","798dec17-168a-4aee-843a-9f9f9b5bf9a9","051c06f1-75cc-4548-856d-4923ddaba0dc","{""num_scrambled_semantic"":""8"",""num_scrambled_causal"":""4"",""num_scrambled_schematic"":""4"",""participantId"":""C51207452FEA4017A69F62A19AC5A5FA"",""assignmentId"":""798dec17-168a-4aee-843a-9f9f9b5bf9a9"",""projectId"":""051c06f1-75cc-4548-856d-4923ddaba0dc""}","https://test12345.live/?num_scrambled_semantic=8&num_scrambled_causal=4&num_scrambled_schematic=4&participantId=C51207452FEA4017A69F62A19AC5A5FA&assignmentId=798dec17-168a-4aee-843a-9f9f9b5bf9a9&projectId=051c06f1-75cc-4548-856d-4923ddaba0dc","C51207452FEA4017A69F62A19AC5A5FA-2025-05-15-19-19-31","","null","","images/schematic_sequence/interview_scheme/interview_scheme_6.png","null","",""
"","","","","","image-button-response","73","408627","0.0-12.0-1.0-1.5","C51207452FEA4017A69F62A19AC5A5FA","C51207452FEA4017A69F62A19AC5A5FA","798dec17-168a-4aee-843a-9f9f9b5bf9a9","051c06f1-75cc-4548-856d-4923ddaba0dc","{""num_scrambled_semantic"":""8"",""num_scrambled_causal"":""4"",""num_scrambled_schematic"":""4"",""participantId"":""C51207452FEA4017A69F62A19AC5A5FA"",""assignmentId"":""798dec17-168a-4aee-843a-9f9f9b5bf9a9"",""projectId"":""051c06f1-75cc-4548-856d-4923ddaba0dc""}","https://test12345.live/?num_scrambled_semantic=8&num_scrambled_causal=4&num_scrambled_schematic=4&participantId=C51207452FEA4017A69F62A19AC5A5FA&assignmentId=798dec17-168a-4aee-843a-9f9f9b5bf9a9&projectId=051c06f1-75cc-4548-856d-4923ddaba0dc","C51207452FEA4017A69F62A19AC5A5FA-2025-05-15-19-19-31","","2446","","images/schematic_sequence/interview_scheme/interview_scheme_6.png","0","",""
"","","","","","image-button-response","74","410444","0.0-12.0-1.0-2.5","C51207452FEA4017A69F62A19AC5A5FA","C51207452FEA4017A69F62A19AC5A5FA","798dec17-168a-4aee-843a-9f9f9b5bf9a9","051c06f1-75cc-4548-856d-4923ddaba0dc","{""num_scrambled_semantic"":""8"",""num_scrambled_causal"":""4"",""num_scrambled_schematic"":""4"",""participantId"":""C51207452FEA4017A69F62A19AC5A5FA"",""assignmentId"":""798dec17-168a-4aee-843a-9f9f9b5bf9a9"",""projectId"":""051c06f1-75cc-4548-856d-4923ddaba0dc""}","https://test12345.live/?num_scrambled_semantic=8&num_scrambled_causal=4&num_scrambled_schematic=4&participantId=C51207452FEA4017A69F62A19AC5A5FA&assignmentId=798dec17-168a-4aee-843a-9f9f9b5bf9a9&projectId=051c06f1-75cc-4548-856d-4923ddaba0dc","C51207452FEA4017A69F62A19AC5A5FA-2025-05-15-19-19-31","","null","","[]","null","",""
"","","","","","image-button-response","75","414958","0.0-12.0-1.0-0.6","C51207452FEA4017A69F62A19AC5A5FA","C51207452FEA4017A69F62A19AC5A5FA","798dec17-168a-4aee-843a-9f9f9b5bf9a9","051c06f1-75cc-4548-856d-4923ddaba0dc","{""num_scrambled_semantic"":""8"",""num_scrambled_causal"":""4"",""num_scrambled_schematic"":""4"",""participantId"":""C51207452FEA4017A69F62A19AC5A5FA"",""assignmentId"":""798dec17-168a-4aee-843a-9f9f9b5bf9a9"",""projectId"":""051c06f1-75cc-4548-856d-4923ddaba0dc""}","https://test12345.live/?num_scrambled_semantic=8&num_scrambled_causal=4&num_scrambled_schematic=4&participantId=C51207452FEA4017A69F62A19AC5A5FA&assignmentId=798dec17-168a-4aee-843a-9f9f9b5bf9a9&projectId=051c06f1-75cc-4548-856d-4923ddaba0dc","C51207452FEA4017A69F62A19AC5A5FA-2025-05-15-19-19-31","","null","","images/schematic_sequence/interview_scheme/interview_scheme_7.png","null","",""
"","","","","","image-button-response","76","416919","0.0-12.0-1.0-1.6","C51207452FEA4017A69F62A19AC5A5FA","C51207452FEA4017A69F62A19AC5A5FA","798dec17-168a-4aee-843a-9f9f9b5bf9a9","051c06f1-75cc-4548-856d-4923ddaba0dc","{""num_scrambled_semantic"":""8"",""num_scrambled_causal"":""4"",""num_scrambled_schematic"":""4"",""participantId"":""C51207452FEA4017A69F62A19AC5A5FA"",""assignmentId"":""798dec17-168a-4aee-843a-9f9f9b5bf9a9"",""projectId"":""051c06f1-75cc-4548-856d-4923ddaba0dc""}","https://test12345.live/?num_scrambled_semantic=8&num_scrambled_causal=4&num_scrambled_schematic=4&participantId=C51207452FEA4017A69F62A19AC5A5FA&assignmentId=798dec17-168a-4aee-843a-9f9f9b5bf9a9&projectId=051c06f1-75cc-4548-856d-4923ddaba0dc","C51207452FEA4017A69F62A19AC5A5FA-2025-05-15-19-19-31","","1959","","images/schematic_sequence/interview_scheme/interview_scheme_7.png","0","",""
"","","","","","image-button-response","77","418729","0.0-12.0-1.0-2.6","C51207452FEA4017A69F62A19AC5A5FA","C51207452FEA4017A69F62A19AC5A5FA","798dec17-168a-4aee-843a-9f9f9b5bf9a9","051c06f1-75cc-4548-856d-4923ddaba0dc","{""num_scrambled_semantic"":""8"",""num_scrambled_causal"":""4"",""num_scrambled_schematic"":""4"",""participantId"":""C51207452FEA4017A69F62A19AC5A5FA"",""assignmentId"":""798dec17-168a-4aee-843a-9f9f9b5bf9a9"",""projectId"":""051c06f1-75cc-4548-856d-4923ddaba0dc""}","https://test12345.live/?num_scrambled_semantic=8&num_scrambled_causal=4&num_scrambled_schematic=4&participantId=C51207452FEA4017A69F62A19AC5A5FA&assignmentId=798dec17-168a-4aee-843a-9f9f9b5bf9a9&projectId=051c06f1-75cc-4548-856d-4923ddaba0dc","C51207452FEA4017A69F62A19AC5A5FA-2025-05-15-19-19-31","","null","","[]","null","",""
"","","","","","image-button-response","78","423233","0.0-12.0-1.0-0.7","C51207452FEA4017A69F62A19AC5A5FA","C51207452FEA4017A69F62A19AC5A5FA","798dec17-168a-4aee-843a-9f9f9b5bf9a9","051c06f1-75cc-4548-856d-4923ddaba0dc","{""num_scrambled_semantic"":""8"",""num_scrambled_causal"":""4"",""num_scrambled_schematic"":""4"",""participantId"":""C51207452FEA4017A69F62A19AC5A5FA"",""assignmentId"":""798dec17-168a-4aee-843a-9f9f9b5bf9a9"",""projectId"":""051c06f1-75cc-4548-856d-4923ddaba0dc""}","https://test12345.live/?num_scrambled_semantic=8&num_scrambled_causal=4&num_scrambled_schematic=4&participantId=C51207452FEA4017A69F62A19AC5A5FA&assignmentId=798dec17-168a-4aee-843a-9f9f9b5bf9a9&projectId=051c06f1-75cc-4548-856d-4923ddaba0dc","C51207452FEA4017A69F62A19AC5A5FA-2025-05-15-19-19-31","","null","","images/schematic_sequence/interview_scheme/interview_scheme_8.png","null","",""
"","","","","","image-button-response","79","424975","0.0-12.0-1.0-1.7","C51207452FEA4017A69F62A19AC5A5FA","C51207452FEA4017A69F62A19AC5A5FA","798dec17-168a-4aee-843a-9f9f9b5bf9a9","051c06f1-75cc-4548-856d-4923ddaba0dc","{""num_scrambled_semantic"":""8"",""num_scrambled_causal"":""4"",""num_scrambled_schematic"":""4"",""participantId"":""C51207452FEA4017A69F62A19AC5A5FA"",""assignmentId"":""798dec17-168a-4aee-843a-9f9f9b5bf9a9"",""projectId"":""051c06f1-75cc-4548-856d-4923ddaba0dc""}","https://test12345.live/?num_scrambled_semantic=8&num_scrambled_causal=4&num_scrambled_schematic=4&participantId=C51207452FEA4017A69F62A19AC5A5FA&assignmentId=798dec17-168a-4aee-843a-9f9f9b5bf9a9&projectId=051c06f1-75cc-4548-856d-4923ddaba0dc","C51207452FEA4017A69F62A19AC5A5FA-2025-05-15-19-19-31","","1741","","images/schematic_sequence/interview_scheme/interview_scheme_8.png","0","",""
"","","","","","image-button-response","80","426795","0.0-12.0-1.0-2.7","C51207452FEA4017A69F62A19AC5A5FA","C51207452FEA4017A69F62A19AC5A5FA","798dec17-168a-4aee-843a-9f9f9b5bf9a9","051c06f1-75cc-4548-856d-4923ddaba0dc","{""num_scrambled_semantic"":""8"",""num_scrambled_causal"":""4"",""num_scrambled_schematic"":""4"",""participantId"":""C51207452FEA4017A69F62A19AC5A5FA"",""assignmentId"":""798dec17-168a-4aee-843a-9f9f9b5bf9a9"",""projectId"":""051c06f1-75cc-4548-856d-4923ddaba0dc""}","https://test12345.live/?num_scrambled_semantic=8&num_scrambled_causal=4&num_scrambled_schematic=4&participantId=C51207452FEA4017A69F62A19AC5A5FA&assignmentId=798dec17-168a-4aee-843a-9f9f9b5bf9a9&projectId=051c06f1-75cc-4548-856d-4923ddaba0dc","C51207452FEA4017A69F62A19AC5A5FA-2025-05-15-19-19-31","","null","","[]","null","",""
"","","","","","image-button-response","81","431311","0.0-12.0-1.0-0.8","C51207452FEA4017A69F62A19AC5A5FA","C51207452FEA4017A69F62A19AC5A5FA","798dec17-168a-4aee-843a-9f9f9b5bf9a9","051c06f1-75cc-4548-856d-4923ddaba0dc","{""num_scrambled_semantic"":""8"",""num_scrambled_causal"":""4"",""num_scrambled_schematic"":""4"",""participantId"":""C51207452FEA4017A69F62A19AC5A5FA"",""assignmentId"":""798dec17-168a-4aee-843a-9f9f9b5bf9a9"",""projectId"":""051c06f1-75cc-4548-856d-4923ddaba0dc""}","https://test12345.live/?num_scrambled_semantic=8&num_scrambled_causal=4&num_scrambled_schematic=4&participantId=C51207452FEA4017A69F62A19AC5A5FA&assignmentId=798dec17-168a-4aee-843a-9f9f9b5bf9a9&projectId=051c06f1-75cc-4548-856d-4923ddaba0dc","C51207452FEA4017A69F62A19AC5A5FA-2025-05-15-19-19-31","","null","","images/schematic_sequence/interview_scheme/interview_scheme_9.png","null","",""
"","","","","","image-button-response","82","435324","0.0-12.0-1.0-1.8","C51207452FEA4017A69F62A19AC5A5FA","C51207452FEA4017A69F62A19AC5A5FA","798dec17-168a-4aee-843a-9f9f9b5bf9a9","051c06f1-75cc-4548-856d-4923ddaba0dc","{""num_scrambled_semantic"":""8"",""num_scrambled_causal"":""4"",""num_scrambled_schematic"":""4"",""participantId"":""C51207452FEA4017A69F62A19AC5A5FA"",""assignmentId"":""798dec17-168a-4aee-843a-9f9f9b5bf9a9"",""projectId"":""051c06f1-75cc-4548-856d-4923ddaba0dc""}","https://test12345.live/?num_scrambled_semantic=8&num_scrambled_causal=4&num_scrambled_schematic=4&participantId=C51207452FEA4017A69F62A19AC5A5FA&assignmentId=798dec17-168a-4aee-843a-9f9f9b5bf9a9&projectId=051c06f1-75cc-4548-856d-4923ddaba0dc","C51207452FEA4017A69F62A19AC5A5FA-2025-05-15-19-19-31","","null","","images/schematic_sequence/interview_scheme/interview_scheme_9.png","null","",""
"","","","","","image-button-response","83","437141","0.0-12.0-1.0-2.8","C51207452FEA4017A69F62A19AC5A5FA","C51207452FEA4017A69F62A19AC5A5FA","798dec17-168a-4aee-843a-9f9f9b5bf9a9","051c06f1-75cc-4548-856d-4923ddaba0dc","{""num_scrambled_semantic"":""8"",""num_scrambled_causal"":""4"",""num_scrambled_schematic"":""4"",""participantId"":""C51207452FEA4017A69F62A19AC5A5FA"",""assignmentId"":""798dec17-168a-4aee-843a-9f9f9b5bf9a9"",""projectId"":""051c06f1-75cc-4548-856d-4923ddaba0dc""}","https://test12345.live/?num_scrambled_semantic=8&num_scrambled_causal=4&num_scrambled_schematic=4&participantId=C51207452FEA4017A69F62A19AC5A5FA&assignmentId=798dec17-168a-4aee-843a-9f9f9b5bf9a9&projectId=051c06f1-75cc-4548-856d-4923ddaba0dc","C51207452FEA4017A69F62A19AC5A5FA-2025-05-15-19-19-31","","null","","[]","null","",""
"","","","","","image-button-response","84","441644","0.0-12.0-1.0-0.9","C51207452FEA4017A69F62A19AC5A5FA","C51207452FEA4017A69F62A19AC5A5FA","798dec17-168a-4aee-843a-9f9f9b5bf9a9","051c06f1-75cc-4548-856d-4923ddaba0dc","{""num_scrambled_semantic"":""8"",""num_scrambled_causal"":""4"",""num_scrambled_schematic"":""4"",""participantId"":""C51207452FEA4017A69F62A19AC5A5FA"",""assignmentId"":""798dec17-168a-4aee-843a-9f9f9b5bf9a9"",""projectId"":""051c06f1-75cc-4548-856d-4923ddaba0dc""}","https://test12345.live/?num_scrambled_semantic=8&num_scrambled_causal=4&num_scrambled_schematic=4&participantId=C51207452FEA4017A69F62A19AC5A5FA&assignmentId=798dec17-168a-4aee-843a-9f9f9b5bf9a9&projectId=051c06f1-75cc-4548-856d-4923ddaba0dc","C51207452FEA4017A69F62A19AC5A5FA-2025-05-15-19-19-31","","null","","images/schematic_sequence/interview_scheme/interview_scheme_ten.png","null","",""
"","","","","","image-button-response","85","445088","0.0-12.0-1.0-1.9","C51207452FEA4017A69F62A19AC5A5FA","C51207452FEA4017A69F62A19AC5A5FA","798dec17-168a-4aee-843a-9f9f9b5bf9a9","051c06f1-75cc-4548-856d-4923ddaba0dc","{""num_scrambled_semantic"":""8"",""num_scrambled_causal"":""4"",""num_scrambled_schematic"":""4"",""participantId"":""C51207452FEA4017A69F62A19AC5A5FA"",""assignmentId"":""798dec17-168a-4aee-843a-9f9f9b5bf9a9"",""projectId"":""051c06f1-75cc-4548-856d-4923ddaba0dc""}","https://test12345.live/?num_scrambled_semantic=8&num_scrambled_causal=4&num_scrambled_schematic=4&participantId=C51207452FEA4017A69F62A19AC5A5FA&assignmentId=798dec17-168a-4aee-843a-9f9f9b5bf9a9&projectId=051c06f1-75cc-4548-856d-4923ddaba0dc","C51207452FEA4017A69F62A19AC5A5FA-2025-05-15-19-19-31","","3443","","images/schematic_sequence/interview_scheme/interview_scheme_ten.png","0","",""
"","","","","","image-button-response","86","446904","0.0-12.0-1.0-2.9","C51207452FEA4017A69F62A19AC5A5FA","C51207452FEA4017A69F62A19AC5A5FA","798dec17-168a-4aee-843a-9f9f9b5bf9a9","051c06f1-75cc-4548-856d-4923ddaba0dc","{""num_scrambled_semantic"":""8"",""num_scrambled_causal"":""4"",""num_scrambled_schematic"":""4"",""participantId"":""C51207452FEA4017A69F62A19AC5A5FA"",""assignmentId"":""798dec17-168a-4aee-843a-9f9f9b5bf9a9"",""projectId"":""051c06f1-75cc-4548-856d-4923ddaba0dc""}","https://test12345.live/?num_scrambled_semantic=8&num_scrambled_causal=4&num_scrambled_schematic=4&participantId=C51207452FEA4017A69F62A19AC5A5FA&assignmentId=798dec17-168a-4aee-843a-9f9f9b5bf9a9&projectId=051c06f1-75cc-4548-856d-4923ddaba0dc","C51207452FEA4017A69F62A19AC5A5FA-2025-05-15-19-19-31","","null","","[]","null","",""
"","","","","","html-audio-response","87","489132","0.0-13.0","C51207452FEA4017A69F62A19AC5A5FA","C51207452FEA4017A69F62A19AC5A5FA","798dec17-168a-4aee-843a-9f9f9b5bf9a9","051c06f1-75cc-4548-856d-4923ddaba0dc","{""num_scrambled_semantic"":""8"",""num_scrambled_causal"":""4"",""num_scrambled_schematic"":""4"",""participantId"":""C51207452FEA4017A69F62A19AC5A5FA"",""assignmentId"":""798dec17-168a-4aee-843a-9f9f9b5bf9a9"",""projectId"":""051c06f1-75cc-4548-856d-4923ddaba0dc""}","https://test12345.live/?num_scrambled_semantic=8&num_scrambled_causal=4&num_scrambled_schematic=4&participantId=C51207452FEA4017A69F62A19AC5A5FA&assignmentId=798dec17-168a-4aee-843a-9f9f9b5bf9a9&projectId=051c06f1-75cc-4548-856d-4923ddaba0dc","C51207452FEA4017A69F62A19AC5A5FA-2025-05-15-19-19-31","","19363","","[""<span style=\""color: red; font-size: 24px\""> NOW RECORDING</span><p>Please say out loud all the images you saw, as many as you can remember. The images can be said in any order.</p>""]","","1","interview_scheme"
"","","","","","image-button-response","88","495139","0.0-14.0-0.0","C51207452FEA4017A69F62A19AC5A5FA","C51207452FEA4017A69F62A19AC5A5FA","798dec17-168a-4aee-843a-9f9f9b5bf9a9","051c06f1-75cc-4548-856d-4923ddaba0dc","{""num_scrambled_semantic"":""8"",""num_scrambled_causal"":""4"",""num_scrambled_schematic"":""4"",""participantId"":""C51207452FEA4017A69F62A19AC5A5FA"",""assignmentId"":""798dec17-168a-4aee-843a-9f9f9b5bf9a9"",""projectId"":""051c06f1-75cc-4548-856d-4923ddaba0dc""}","https://test12345.live/?num_scrambled_semantic=8&num_scrambled_causal=4&num_scrambled_schematic=4&participantId=C51207452FEA4017A69F62A19AC5A5FA&assignmentId=798dec17-168a-4aee-843a-9f9f9b5bf9a9&projectId=051c06f1-75cc-4548-856d-4923ddaba0dc","C51207452FEA4017A69F62A19AC5A5FA-2025-05-15-19-19-31","","null","","images/causal_sequence/coin_causal/coin_causal_0.png","null","",""
"","","","","","image-button-response","89","499645","0.0-14.0-1.0-0.0","C51207452FEA4017A69F62A19AC5A5FA","C51207452FEA4017A69F62A19AC5A5FA","798dec17-168a-4aee-843a-9f9f9b5bf9a9","051c06f1-75cc-4548-856d-4923ddaba0dc","{""num_scrambled_semantic"":""8"",""num_scrambled_causal"":""4"",""num_scrambled_schematic"":""4"",""participantId"":""C51207452FEA4017A69F62A19AC5A5FA"",""assignmentId"":""798dec17-168a-4aee-843a-9f9f9b5bf9a9"",""projectId"":""051c06f1-75cc-4548-856d-4923ddaba0dc""}","https://test12345.live/?num_scrambled_semantic=8&num_scrambled_causal=4&num_scrambled_schematic=4&participantId=C51207452FEA4017A69F62A19AC5A5FA&assignmentId=798dec17-168a-4aee-843a-9f9f9b5bf9a9&projectId=051c06f1-75cc-4548-856d-4923ddaba0dc","C51207452FEA4017A69F62A19AC5A5FA-2025-05-15-19-19-31","","null","","images/causal_sequence/coin_causal/coin_causal_1.png","null","",""
"","","","","","image-button-response","90","503658","0.0-14.0-1.0-1.0","C51207452FEA4017A69F62A19AC5A5FA","C51207452FEA4017A69F62A19AC5A5FA","798dec17-168a-4aee-843a-9f9f9b5bf9a9","051c06f1-75cc-4548-856d-4923ddaba0dc","{""num_scrambled_semantic"":""8"",""num_scrambled_causal"":""4"",""num_scrambled_schematic"":""4"",""participantId"":""C51207452FEA4017A69F62A19AC5A5FA"",""assignmentId"":""798dec17-168a-4aee-843a-9f9f9b5bf9a9"",""projectId"":""051c06f1-75cc-4548-856d-4923ddaba0dc""}","https://test12345.live/?num_scrambled_semantic=8&num_scrambled_causal=4&num_scrambled_schematic=4&participantId=C51207452FEA4017A69F62A19AC5A5FA&assignmentId=798dec17-168a-4aee-843a-9f9f9b5bf9a9&projectId=051c06f1-75cc-4548-856d-4923ddaba0dc","C51207452FEA4017A69F62A19AC5A5FA-2025-05-15-19-19-31","","null","","images/causal_sequence/coin_causal/coin_causal_1.png","null","",""
"","","","","","image-button-response","91","505459","0.0-14.0-1.0-2.0","C51207452FEA4017A69F62A19AC5A5FA","C51207452FEA4017A69F62A19AC5A5FA","798dec17-168a-4aee-843a-9f9f9b5bf9a9","051c06f1-75cc-4548-856d-4923ddaba0dc","{""num_scrambled_semantic"":""8"",""num_scrambled_causal"":""4"",""num_scrambled_schematic"":""4"",""participantId"":""C51207452FEA4017A69F62A19AC5A5FA"",""assignmentId"":""798dec17-168a-4aee-843a-9f9f9b5bf9a9"",""projectId"":""051c06f1-75cc-4548-856d-4923ddaba0dc""}","https://test12345.live/?num_scrambled_semantic=8&num_scrambled_causal=4&num_scrambled_schematic=4&participantId=C51207452FEA4017A69F62A19AC5A5FA&assignmentId=798dec17-168a-4aee-843a-9f9f9b5bf9a9&projectId=051c06f1-75cc-4548-856d-4923ddaba0dc","C51207452FEA4017A69F62A19AC5A5FA-2025-05-15-19-19-31","","null","","[]","null","",""
"","","","","","image-button-response","92","509966","0.0-14.0-1.0-0.1","C51207452FEA4017A69F62A19AC5A5FA","C51207452FEA4017A69F62A19AC5A5FA","798dec17-168a-4aee-843a-9f9f9b5bf9a9","051c06f1-75cc-4548-856d-4923ddaba0dc","{""num_scrambled_semantic"":""8"",""num_scrambled_causal"":""4"",""num_scrambled_schematic"":""4"",""participantId"":""C51207452FEA4017A69F62A19AC5A5FA"",""assignmentId"":""798dec17-168a-4aee-843a-9f9f9b5bf9a9"",""projectId"":""051c06f1-75cc-4548-856d-4923ddaba0dc""}","https://test12345.live/?num_scrambled_semantic=8&num_scrambled_causal=4&num_scrambled_schematic=4&participantId=C51207452FEA4017A69F62A19AC5A5FA&assignmentId=798dec17-168a-4aee-843a-9f9f9b5bf9a9&projectId=051c06f1-75cc-4548-856d-4923ddaba0dc","C51207452FEA4017A69F62A19AC5A5FA-2025-05-15-19-19-31","","null","","images/causal_sequence/coin_causal/coin_causal_2.png","null","",""
"","","","","","image-button-response","93","511143","0.0-14.0-1.0-1.1","C51207452FEA4017A69F62A19AC5A5FA","C51207452FEA4017A69F62A19AC5A5FA","798dec17-168a-4aee-843a-9f9f9b5bf9a9","051c06f1-75cc-4548-856d-4923ddaba0dc","{""num_scrambled_semantic"":""8"",""num_scrambled_causal"":""4"",""num_scrambled_schematic"":""4"",""participantId"":""C51207452FEA4017A69F62A19AC5A5FA"",""assignmentId"":""798dec17-168a-4aee-843a-9f9f9b5bf9a9"",""projectId"":""051c06f1-75cc-4548-856d-4923ddaba0dc""}","https://test12345.live/?num_scrambled_semantic=8&num_scrambled_causal=4&num_scrambled_schematic=4&participantId=C51207452FEA4017A69F62A19AC5A5FA&assignmentId=798dec17-168a-4aee-843a-9f9f9b5bf9a9&projectId=051c06f1-75cc-4548-856d-4923ddaba0dc","C51207452FEA4017A69F62A19AC5A5FA-2025-05-15-19-19-31","","1175","","images/causal_sequence/coin_causal/coin_causal_2.png","0","",""
"","","","","","image-button-response","94","512955","0.0-14.0-1.0-2.1","C51207452FEA4017A69F62A19AC5A5FA","C51207452FEA4017A69F62A19AC5A5FA","798dec17-168a-4aee-843a-9f9f9b5bf9a9","051c06f1-75cc-4548-856d-4923ddaba0dc","{""num_scrambled_semantic"":""8"",""num_scrambled_causal"":""4"",""num_scrambled_schematic"":""4"",""participantId"":""C51207452FEA4017A69F62A19AC5A5FA"",""assignmentId"":""798dec17-168a-4aee-843a-9f9f9b5bf9a9"",""projectId"":""051c06f1-75cc-4548-856d-4923ddaba0dc""}","https://test12345.live/?num_scrambled_semantic=8&num_scrambled_causal=4&num_scrambled_schematic=4&participantId=C51207452FEA4017A69F62A19AC5A5FA&assignmentId=798dec17-168a-4aee-843a-9f9f9b5bf9a9&projectId=051c06f1-75cc-4548-856d-4923ddaba0dc","C51207452FEA4017A69F62A19AC5A5FA-2025-05-15-19-19-31","","null","","[]","null","",""
"","","","","","image-button-response","95","517460","0.0-14.0-1.0-0.2","C51207452FEA4017A69F62A19AC5A5FA","C51207452FEA4017A69F62A19AC5A5FA","798dec17-168a-4aee-843a-9f9f9b5bf9a9","051c06f1-75cc-4548-856d-4923ddaba0dc","{""num_scrambled_semantic"":""8"",""num_scrambled_causal"":""4"",""num_scrambled_schematic"":""4"",""participantId"":""C51207452FEA4017A69F62A19AC5A5FA"",""assignmentId"":""798dec17-168a-4aee-843a-9f9f9b5bf9a9"",""projectId"":""051c06f1-75cc-4548-856d-4923ddaba0dc""}","https://test12345.live/?num_scrambled_semantic=8&num_scrambled_causal=4&num_scrambled_schematic=4&participantId=C51207452FEA4017A69F62A19AC5A5FA&assignmentId=798dec17-168a-4aee-843a-9f9f9b5bf9a9&projectId=051c06f1-75cc-4548-856d-4923ddaba0dc","C51207452FEA4017A69F62A19AC5A5FA-2025-05-15-19-19-31","","null","","images/causal_sequence/coin_causal/coin_causal_3.png","null","",""
"","","","","","image-button-response","96","518634","0.0-14.0-1.0-1.2","C51207452FEA4017A69F62A19AC5A5FA","C51207452FEA4017A69F62A19AC5A5FA","798dec17-168a-4aee-843a-9f9f9b5bf9a9","051c06f1-75cc-4548-856d-4923ddaba0dc","{""num_scrambled_semantic"":""8"",""num_scrambled_causal"":""4"",""num_scrambled_schematic"":""4"",""participantId"":""C51207452FEA4017A69F62A19AC5A5FA"",""assignmentId"":""798dec17-168a-4aee-843a-9f9f9b5bf9a9"",""projectId"":""051c06f1-75cc-4548-856d-4923ddaba0dc""}","https://test12345.live/?num_scrambled_semantic=8&num_scrambled_causal=4&num_scrambled_schematic=4&participantId=C51207452FEA4017A69F62A19AC5A5FA&assignmentId=798dec17-168a-4aee-843a-9f9f9b5bf9a9&projectId=051c06f1-75cc-4548-856d-4923ddaba0dc","C51207452FEA4017A69F62A19AC5A5FA-2025-05-15-19-19-31","","1174","","images/causal_sequence/coin_causal/coin_causal_3.png","0","",""
"","","","","","image-button-response","97","520446","0.0-14.0-1.0-2.2","C51207452FEA4017A69F62A19AC5A5FA","C51207452FEA4017A69F62A19AC5A5FA","798dec17-168a-4aee-843a-9f9f9b5bf9a9","051c06f1-75cc-4548-856d-4923ddaba0dc","{""num_scrambled_semantic"":""8"",""num_scrambled_causal"":""4"",""num_scrambled_schematic"":""4"",""participantId"":""C51207452FEA4017A69F62A19AC5A5FA"",""assignmentId"":""798dec17-168a-4aee-843a-9f9f9b5bf9a9"",""projectId"":""051c06f1-75cc-4548-856d-4923ddaba0dc""}","https://test12345.live/?num_scrambled_semantic=8&num_scrambled_causal=4&num_scrambled_schematic=4&participantId=C51207452FEA4017A69F62A19AC5A5FA&assignmentId=798dec17-168a-4aee-843a-9f9f9b5bf9a9&projectId=051c06f1-75cc-4548-856d-4923ddaba0dc","C51207452FEA4017A69F62A19AC5A5FA-2025-05-15-19-19-31","","null","","[]","null","",""
"","","","","","image-button-response","98","524948","0.0-14.0-1.0-0.3","C51207452FEA4017A69F62A19AC5A5FA","C51207452FEA4017A69F62A19AC5A5FA","798dec17-168a-4aee-843a-9f9f9b5bf9a9","051c06f1-75cc-4548-856d-4923ddaba0dc","{""num_scrambled_semantic"":""8"",""num_scrambled_causal"":""4"",""num_scrambled_schematic"":""4"",""participantId"":""C51207452FEA4017A69F62A19AC5A5FA"",""assignmentId"":""798dec17-168a-4aee-843a-9f9f9b5bf9a9"",""projectId"":""051c06f1-75cc-4548-856d-4923ddaba0dc""}","https://test12345.live/?num_scrambled_semantic=8&num_scrambled_causal=4&num_scrambled_schematic=4&participantId=C51207452FEA4017A69F62A19AC5A5FA&assignmentId=798dec17-168a-4aee-843a-9f9f9b5bf9a9&projectId=051c06f1-75cc-4548-856d-4923ddaba0dc","C51207452FEA4017A69F62A19AC5A5FA-2025-05-15-19-19-31","","null","","images/causal_sequence/coin_causal/coin_causal_4.png","null","",""
"","","","","","image-button-response","99","526643","0.0-14.0-1.0-1.3","C51207452FEA4017A69F62A19AC5A5FA","C51207452FEA4017A69F62A19AC5A5FA","798dec17-168a-4aee-843a-9f9f9b5bf9a9","051c06f1-75cc-4548-856d-4923ddaba0dc","{""num_scrambled_semantic"":""8"",""num_scrambled_causal"":""4"",""num_scrambled_schematic"":""4"",""participantId"":""C51207452FEA4017A69F62A19AC5A5FA"",""assignmentId"":""798dec17-168a-4aee-843a-9f9f9b5bf9a9"",""projectId"":""051c06f1-75cc-4548-856d-4923ddaba0dc""}","https://test12345.live/?num_scrambled_semantic=8&num_scrambled_causal=4&num_scrambled_schematic=4&participantId=C51207452FEA4017A69F62A19AC5A5FA&assignmentId=798dec17-168a-4aee-843a-9f9f9b5bf9a9&projectId=051c06f1-75cc-4548-856d-4923ddaba0dc","C51207452FEA4017A69F62A19AC5A5FA-2025-05-15-19-19-31","","1694","","images/causal_sequence/coin_causal/coin_causal_4.png","0","",""
"","","","","","image-button-response","100","528457","0.0-14.0-1.0-2.3","C51207452FEA4017A69F62A19AC5A5FA","C51207452FEA4017A69F62A19AC5A5FA","798dec17-168a-4aee-843a-9f9f9b5bf9a9","051c06f1-75cc-4548-856d-4923ddaba0dc","{""num_scrambled_semantic"":""8"",""num_scrambled_causal"":""4"",""num_scrambled_schematic"":""4"",""participantId"":""C51207452FEA4017A69F62A19AC5A5FA"",""assignmentId"":""798dec17-168a-4aee-843a-9f9f9b5bf9a9"",""projectId"":""051c06f1-75cc-4548-856d-4923ddaba0dc""}","https://test12345.live/?num_scrambled_semantic=8&num_scrambled_causal=4&num_scrambled_schematic=4&participantId=C51207452FEA4017A69F62A19AC5A5FA&assignmentId=798dec17-168a-4aee-843a-9f9f9b5bf9a9&projectId=051c06f1-75cc-4548-856d-4923ddaba0dc","C51207452FEA4017A69F62A19AC5A5FA-2025-05-15-19-19-31","","null","","[]","null","",""
"","","","","","image-button-response","101","532961","0.0-14.0-1.0-0.4","C51207452FEA4017A69F62A19AC5A5FA","C51207452FEA4017A69F62A19AC5A5FA","798dec17-168a-4aee-843a-9f9f9b5bf9a9","051c06f1-75cc-4548-856d-4923ddaba0dc","{""num_scrambled_semantic"":""8"",""num_scrambled_causal"":""4"",""num_scrambled_schematic"":""4"",""participantId"":""C51207452FEA4017A69F62A19AC5A5FA"",""assignmentId"":""798dec17-168a-4aee-843a-9f9f9b5bf9a9"",""projectId"":""051c06f1-75cc-4548-856d-4923ddaba0dc""}","https://test12345.live/?num_scrambled_semantic=8&num_scrambled_causal=4&num_scrambled_schematic=4&participantId=C51207452FEA4017A69F62A19AC5A5FA&assignmentId=798dec17-168a-4aee-843a-9f9f9b5bf9a9&projectId=051c06f1-75cc-4548-856d-4923ddaba0dc","C51207452FEA4017A69F62A19AC5A5FA-2025-05-15-19-19-31","","null","","images/causal_sequence/coin_causal/coin_causal_5.png","null","",""
"","","","","","image-button-response","102","535643","0.0-14.0-1.0-1.4","C51207452FEA4017A69F62A19AC5A5FA","C51207452FEA4017A69F62A19AC5A5FA","798dec17-168a-4aee-843a-9f9f9b5bf9a9","051c06f1-75cc-4548-856d-4923ddaba0dc","{""num_scrambled_semantic"":""8"",""num_scrambled_causal"":""4"",""num_scrambled_schematic"":""4"",""participantId"":""C51207452FEA4017A69F62A19AC5A5FA"",""assignmentId"":""798dec17-168a-4aee-843a-9f9f9b5bf9a9"",""projectId"":""051c06f1-75cc-4548-856d-4923ddaba0dc""}","https://test12345.live/?num_scrambled_semantic=8&num_scrambled_causal=4&num_scrambled_schematic=4&participantId=C51207452FEA4017A69F62A19AC5A5FA&assignmentId=798dec17-168a-4aee-843a-9f9f9b5bf9a9&projectId=051c06f1-75cc-4548-856d-4923ddaba0dc","C51207452FEA4017A69F62A19AC5A5FA-2025-05-15-19-19-31","","2680","","images/causal_sequence/coin_causal/coin_causal_5.png","0","",""
"","","","","","image-button-response","103","537453","0.0-14.0-1.0-2.4","C51207452FEA4017A69F62A19AC5A5FA","C51207452FEA4017A69F62A19AC5A5FA","798dec17-168a-4aee-843a-9f9f9b5bf9a9","051c06f1-75cc-4548-856d-4923ddaba0dc","{""num_scrambled_semantic"":""8"",""num_scrambled_causal"":""4"",""num_scrambled_schematic"":""4"",""participantId"":""C51207452FEA4017A69F62A19AC5A5FA"",""assignmentId"":""798dec17-168a-4aee-843a-9f9f9b5bf9a9"",""projectId"":""051c06f1-75cc-4548-856d-4923ddaba0dc""}","https://test12345.live/?num_scrambled_semantic=8&num_scrambled_causal=4&num_scrambled_schematic=4&participantId=C51207452FEA4017A69F62A19AC5A5FA&assignmentId=798dec17-168a-4aee-843a-9f9f9b5bf9a9&projectId=051c06f1-75cc-4548-856d-4923ddaba0dc","C51207452FEA4017A69F62A19AC5A5FA-2025-05-15-19-19-31","","null","","[]","null","",""
"","","","","","image-button-response","104","541966","0.0-14.0-1.0-0.5","C51207452FEA4017A69F62A19AC5A5FA","C51207452FEA4017A69F62A19AC5A5FA","798dec17-168a-4aee-843a-9f9f9b5bf9a9","051c06f1-75cc-4548-856d-4923ddaba0dc","{""num_scrambled_semantic"":""8"",""num_scrambled_causal"":""4"",""num_scrambled_schematic"":""4"",""participantId"":""C51207452FEA4017A69F62A19AC5A5FA"",""assignmentId"":""798dec17-168a-4aee-843a-9f9f9b5bf9a9"",""projectId"":""051c06f1-75cc-4548-856d-4923ddaba0dc""}","https://test12345.live/?num_scrambled_semantic=8&num_scrambled_causal=4&num_scrambled_schematic=4&participantId=C51207452FEA4017A69F62A19AC5A5FA&assignmentId=798dec17-168a-4aee-843a-9f9f9b5bf9a9&projectId=051c06f1-75cc-4548-856d-4923ddaba0dc","C51207452FEA4017A69F62A19AC5A5FA-2025-05-15-19-19-31","","null","","images/causal_sequence/coin_causal/coin_causal_6.png","null","",""
"","","","","","image-button-response","105","543501","0.0-14.0-1.0-1.5","C51207452FEA4017A69F62A19AC5A5FA","C51207452FEA4017A69F62A19AC5A5FA","798dec17-168a-4aee-843a-9f9f9b5bf9a9","051c06f1-75cc-4548-856d-4923ddaba0dc","{""num_scrambled_semantic"":""8"",""num_scrambled_causal"":""4"",""num_scrambled_schematic"":""4"",""participantId"":""C51207452FEA4017A69F62A19AC5A5FA"",""assignmentId"":""798dec17-168a-4aee-843a-9f9f9b5bf9a9"",""projectId"":""051c06f1-75cc-4548-856d-4923ddaba0dc""}","https://test12345.live/?num_scrambled_semantic=8&num_scrambled_causal=4&num_scrambled_schematic=4&participantId=C51207452FEA4017A69F62A19AC5A5FA&assignmentId=798dec17-168a-4aee-843a-9f9f9b5bf9a9&projectId=051c06f1-75cc-4548-856d-4923ddaba0dc","C51207452FEA4017A69F62A19AC5A5FA-2025-05-15-19-19-31","","1535","","images/causal_sequence/coin_causal/coin_causal_6.png","0","",""
"","","","","","image-button-response","106","545303","0.0-14.0-1.0-2.5","C51207452FEA4017A69F62A19AC5A5FA","C51207452FEA4017A69F62A19AC5A5FA","798dec17-168a-4aee-843a-9f9f9b5bf9a9","051c06f1-75cc-4548-856d-4923ddaba0dc","{""num_scrambled_semantic"":""8"",""num_scrambled_causal"":""4"",""num_scrambled_schematic"":""4"",""participantId"":""C51207452FEA4017A69F62A19AC5A5FA"",""assignmentId"":""798dec17-168a-4aee-843a-9f9f9b5bf9a9"",""projectId"":""051c06f1-75cc-4548-856d-4923ddaba0dc""}","https://test12345.live/?num_scrambled_semantic=8&num_scrambled_causal=4&num_scrambled_schematic=4&participantId=C51207452FEA4017A69F62A19AC5A5FA&assignmentId=798dec17-168a-4aee-843a-9f9f9b5bf9a9&projectId=051c06f1-75cc-4548-856d-4923ddaba0dc","C51207452FEA4017A69F62A19AC5A5FA-2025-05-15-19-19-31","","null","","[]","null","",""
"","","","","","image-button-response","107","549811","0.0-14.0-1.0-0.6","C51207452FEA4017A69F62A19AC5A5FA","C51207452FEA4017A69F62A19AC5A5FA","798dec17-168a-4aee-843a-9f9f9b5bf9a9","051c06f1-75cc-4548-856d-4923ddaba0dc","{""num_scrambled_semantic"":""8"",""num_scrambled_causal"":""4"",""num_scrambled_schematic"":""4"",""participantId"":""C51207452FEA4017A69F62A19AC5A5FA"",""assignmentId"":""798dec17-168a-4aee-843a-9f9f9b5bf9a9"",""projectId"":""051c06f1-75cc-4548-856d-4923ddaba0dc""}","https://test12345.live/?num_scrambled_semantic=8&num_scrambled_causal=4&num_scrambled_schematic=4&participantId=C51207452FEA4017A69F62A19AC5A5FA&assignmentId=798dec17-168a-4aee-843a-9f9f9b5bf9a9&projectId=051c06f1-75cc-4548-856d-4923ddaba0dc","C51207452FEA4017A69F62A19AC5A5FA-2025-05-15-19-19-31","","null","","images/causal_sequence/coin_causal/coin_causal_7.png","null","",""
"","","","","","image-button-response","108","551940","0.0-14.0-1.0-1.6","C51207452FEA4017A69F62A19AC5A5FA","C51207452FEA4017A69F62A19AC5A5FA","798dec17-168a-4aee-843a-9f9f9b5bf9a9","051c06f1-75cc-4548-856d-4923ddaba0dc","{""num_scrambled_semantic"":""8"",""num_scrambled_causal"":""4"",""num_scrambled_schematic"":""4"",""participantId"":""C51207452FEA4017A69F62A19AC5A5FA"",""assignmentId"":""798dec17-168a-4aee-843a-9f9f9b5bf9a9"",""projectId"":""051c06f1-75cc-4548-856d-4923ddaba0dc""}","https://test12345.live/?num_scrambled_semantic=8&num_scrambled_causal=4&num_scrambled_schematic=4&participantId=C51207452FEA4017A69F62A19AC5A5FA&assignmentId=798dec17-168a-4aee-843a-9f9f9b5bf9a9&projectId=051c06f1-75cc-4548-856d-4923ddaba0dc","C51207452FEA4017A69F62A19AC5A5FA-2025-05-15-19-19-31","","2128","","images/causal_sequence/coin_causal/coin_causal_7.png","1","",""
"","","","","","image-button-response","109","553758","0.0-14.0-1.0-2.6","C51207452FEA4017A69F62A19AC5A5FA","C51207452FEA4017A69F62A19AC5A5FA","798dec17-168a-4aee-843a-9f9f9b5bf9a9","051c06f1-75cc-4548-856d-4923ddaba0dc","{""num_scrambled_semantic"":""8"",""num_scrambled_causal"":""4"",""num_scrambled_schematic"":""4"",""participantId"":""C51207452FEA4017A69F62A19AC5A5FA"",""assignmentId"":""798dec17-168a-4aee-843a-9f9f9b5bf9a9"",""projectId"":""051c06f1-75cc-4548-856d-4923ddaba0dc""}","https://test12345.live/?num_scrambled_semantic=8&num_scrambled_causal=4&num_scrambled_schematic=4&participantId=C51207452FEA4017A69F62A19AC5A5FA&assignmentId=798dec17-168a-4aee-843a-9f9f9b5bf9a9&projectId=051c06f1-75cc-4548-856d-4923ddaba0dc","C51207452FEA4017A69F62A19AC5A5FA-2025-05-15-19-19-31","","null","","[]","null","",""
"","","","","","image-button-response","110","558273","0.0-14.0-1.0-0.7","C51207452FEA4017A69F62A19AC5A5FA","C51207452FEA4017A69F62A19AC5A5FA","798dec17-168a-4aee-843a-9f9f9b5bf9a9","051c06f1-75cc-4548-856d-4923ddaba0dc","{""num_scrambled_semantic"":""8"",""num_scrambled_causal"":""4"",""num_scrambled_schematic"":""4"",""participantId"":""C51207452FEA4017A69F62A19AC5A5FA"",""assignmentId"":""798dec17-168a-4aee-843a-9f9f9b5bf9a9"",""projectId"":""051c06f1-75cc-4548-856d-4923ddaba0dc""}","https://test12345.live/?num_scrambled_semantic=8&num_scrambled_causal=4&num_scrambled_schematic=4&participantId=C51207452FEA4017A69F62A19AC5A5FA&assignmentId=798dec17-168a-4aee-843a-9f9f9b5bf9a9&projectId=051c06f1-75cc-4548-856d-4923ddaba0dc","C51207452FEA4017A69F62A19AC5A5FA-2025-05-15-19-19-31","","null","","images/causal_sequence/coin_causal/coin_causal_8.png","null","",""
"","","","","","image-button-response","111","559538","0.0-14.0-1.0-1.7","C51207452FEA4017A69F62A19AC5A5FA","C51207452FEA4017A69F62A19AC5A5FA","798dec17-168a-4aee-843a-9f9f9b5bf9a9","051c06f1-75cc-4548-856d-4923ddaba0dc","{""num_scrambled_semantic"":""8"",""num_scrambled_causal"":""4"",""num_scrambled_schematic"":""4"",""participantId"":""C51207452FEA4017A69F62A19AC5A5FA"",""assignmentId"":""798dec17-168a-4aee-843a-9f9f9b5bf9a9"",""projectId"":""051c06f1-75cc-4548-856d-4923ddaba0dc""}","https://test12345.live/?num_scrambled_semantic=8&num_scrambled_causal=4&num_scrambled_schematic=4&participantId=C51207452FEA4017A69F62A19AC5A5FA&assignmentId=798dec17-168a-4aee-843a-9f9f9b5bf9a9&projectId=051c06f1-75cc-4548-856d-4923ddaba0dc","C51207452FEA4017A69F62A19AC5A5FA-2025-05-15-19-19-31","","1264","","images/causal_sequence/coin_causal/coin_causal_8.png","0","",""
"","","","","","image-button-response","112","561353","0.0-14.0-1.0-2.7","C51207452FEA4017A69F62A19AC5A5FA","C51207452FEA4017A69F62A19AC5A5FA","798dec17-168a-4aee-843a-9f9f9b5bf9a9","051c06f1-75cc-4548-856d-4923ddaba0dc","{""num_scrambled_semantic"":""8"",""num_scrambled_causal"":""4"",""num_scrambled_schematic"":""4"",""participantId"":""C51207452FEA4017A69F62A19AC5A5FA"",""assignmentId"":""798dec17-168a-4aee-843a-9f9f9b5bf9a9"",""projectId"":""051c06f1-75cc-4548-856d-4923ddaba0dc""}","https://test12345.live/?num_scrambled_semantic=8&num_scrambled_causal=4&num_scrambled_schematic=4&participantId=C51207452FEA4017A69F62A19AC5A5FA&assignmentId=798dec17-168a-4aee-843a-9f9f9b5bf9a9&projectId=051c06f1-75cc-4548-856d-4923ddaba0dc","C51207452FEA4017A69F62A19AC5A5FA-2025-05-15-19-19-31","","null","","[]","null","",""
"","","","","","image-button-response","113","565860","0.0-14.0-1.0-0.8","C51207452FEA4017A69F62A19AC5A5FA","C51207452FEA4017A69F62A19AC5A5FA","798dec17-168a-4aee-843a-9f9f9b5bf9a9","051c06f1-75cc-4548-856d-4923ddaba0dc","{""num_scrambled_semantic"":""8"",""num_scrambled_causal"":""4"",""num_scrambled_schematic"":""4"",""participantId"":""C51207452FEA4017A69F62A19AC5A5FA"",""assignmentId"":""798dec17-168a-4aee-843a-9f9f9b5bf9a9"",""projectId"":""051c06f1-75cc-4548-856d-4923ddaba0dc""}","https://test12345.live/?num_scrambled_semantic=8&num_scrambled_causal=4&num_scrambled_schematic=4&participantId=C51207452FEA4017A69F62A19AC5A5FA&assignmentId=798dec17-168a-4aee-843a-9f9f9b5bf9a9&projectId=051c06f1-75cc-4548-856d-4923ddaba0dc","C51207452FEA4017A69F62A19AC5A5FA-2025-05-15-19-19-31","","null","","images/causal_sequence/coin_causal/coin_causal_9.png","null","",""
"","","","","","image-button-response","114","568123","0.0-14.0-1.0-1.8","C51207452FEA4017A69F62A19AC5A5FA","C51207452FEA4017A69F62A19AC5A5FA","798dec17-168a-4aee-843a-9f9f9b5bf9a9","051c06f1-75cc-4548-856d-4923ddaba0dc","{""num_scrambled_semantic"":""8"",""num_scrambled_causal"":""4"",""num_scrambled_schematic"":""4"",""participantId"":""C51207452FEA4017A69F62A19AC5A5FA"",""assignmentId"":""798dec17-168a-4aee-843a-9f9f9b5bf9a9"",""projectId"":""051c06f1-75cc-4548-856d-4923ddaba0dc""}","https://test12345.live/?num_scrambled_semantic=8&num_scrambled_causal=4&num_scrambled_schematic=4&participantId=C51207452FEA4017A69F62A19AC5A5FA&assignmentId=798dec17-168a-4aee-843a-9f9f9b5bf9a9&projectId=051c06f1-75cc-4548-856d-4923ddaba0dc","C51207452FEA4017A69F62A19AC5A5FA-2025-05-15-19-19-31","","2262","","images/causal_sequence/coin_causal/coin_causal_9.png","0","",""
