"success","timeout","failed_images","failed_audio","failed_video","trial_type","trial_index","time_elapsed","internal_node_id","subject","subject_id","study_id","session_id","urlvar","current_url","audio_id","view_history","rt","device_id","stimulus","response","estimated_stimulus_onset","seq_name"
"true","false","[]","[]","[]","preload","0","12655","0.0-0.0","C55DBD61D6B84AC885B5E01AE5FF6CC0","C55DBD61D6B84AC885B5E01AE5FF6CC0","cda894b2-8690-43f3-ad08-fb92ee0b3fa1","051c06f1-75cc-4548-856d-4923ddaba0dc","{""num_scrambled_semantic"":""8"",""num_scrambled_causal"":""4"",""num_scrambled_schematic"":""4"",""participantId"":""C55DBD61D6B84AC885B5E01AE5FF6CC0"",""assignmentId"":""cda894b2-8690-43f3-ad08-fb92ee0b3fa1"",""projectId"":""051c06f1-75cc-4548-856d-4923ddaba0dc""}","https://test12345.live/?num_scrambled_semantic=8&num_scrambled_causal=4&num_scrambled_schematic=4&participantId=C55DBD61D6B84AC885B5E01AE5FF6CC0&assignmentId=cda894b2-8690-43f3-ad08-fb92ee0b3fa1&projectId=051c06f1-75cc-4548-856d-4923ddaba0dc","C55DBD61D6B84AC885B5E01AE5FF6CC0-2025-05-15-19-31-57","","","","","","",""
"","","","","","instructions","1","167416","0.0-1.0","C55DBD61D6B84AC885B5E01AE5FF6CC0","C55DBD61D6B84AC885B5E01AE5FF6CC0","cda894b2-8690-43f3-ad08-fb92ee0b3fa1","051c06f1-75cc-4548-856d-4923ddaba0dc","{""num_scrambled_semantic"":""8"",""num_scrambled_causal"":""4"",""num_scrambled_schematic"":""4"",""participantId"":""C55DBD61D6B84AC885B5E01AE5FF6CC0"",""assignmentId"":""cda894b2-8690-43f3-ad08-fb92ee0b3fa1"",""projectId"":""051c06f1-75cc-4548-856d-4923ddaba0dc""}","https://test12345.live/?num_scrambled_semantic=8&num_scrambled_causal=4&num_scrambled_schematic=4&participantId=C55DBD61D6B84AC885B5E01AE5FF6CC0&assignmentId=cda894b2-8690-43f3-ad08-fb92ee0b3fa1&projectId=051c06f1-75cc-4548-856d-4923ddaba0dc","C55DBD61D6B84AC885B5E01AE5FF6CC0-2025-05-15-19-31-57","[{""page_index"":0,""viewing_time"":154757}]","154759","","","","",""
"","","","","","instructions","2","174175","0.0-2.0","C55DBD61D6B84AC885B5E01AE5FF6CC0","C55DBD61D6B84AC885B5E01AE5FF6CC0","cda894b2-8690-43f3-ad08-fb92ee0b3fa1","051c06f1-75cc-4548-856d-4923ddaba0dc","{""num_scrambled_semantic"":""8"",""num_scrambled_causal"":""4"",""num_scrambled_schematic"":""4"",""participantId"":""C55DBD61D6B84AC885B5E01AE5FF6CC0"",""assignmentId"":""cda894b2-8690-43f3-ad08-fb92ee0b3fa1"",""projectId"":""051c06f1-75cc-4548-856d-4923ddaba0dc""}","https://test12345.live/?num_scrambled_semantic=8&num_scrambled_causal=4&num_scrambled_schematic=4&participantId=C55DBD61D6B84AC885B5E01AE5FF6CC0&assignmentId=cda894b2-8690-43f3-ad08-fb92ee0b3fa1&projectId=051c06f1-75cc-4548-856d-4923ddaba0dc","C55DBD61D6B84AC885B5E01AE5FF6CC0-2025-05-15-19-31-57","[{""page_index"":0,""viewing_time"":6754}]","6755","","","","",""
"true","","","","","fullscreen","3","178850","0.0-3.0","C55DBD61D6B84AC885B5E01AE5FF6CC0","C55DBD61D6B84AC885B5E01AE5FF6CC0","cda894b2-8690-43f3-ad08-fb92ee0b3fa1","051c06f1-75cc-4548-856d-4923ddaba0dc","{""num_scrambled_semantic"":""8"",""num_scrambled_causal"":""4"",""num_scrambled_schematic"":""4"",""participantId"":""C55DBD61D6B84AC885B5E01AE5FF6CC0"",""assignmentId"":""cda894b2-8690-43f3-ad08-fb92ee0b3fa1"",""projectId"":""051c06f1-75cc-4548-856d-4923ddaba0dc""}","https://test12345.live/?num_scrambled_semantic=8&num_scrambled_causal=4&num_scrambled_schematic=4&participantId=C55DBD61D6B84AC885B5E01AE5FF6CC0&assignmentId=cda894b2-8690-43f3-ad08-fb92ee0b3fa1&projectId=051c06f1-75cc-4548-856d-4923ddaba0dc","C55DBD61D6B84AC885B5E01AE5FF6CC0-2025-05-15-19-31-57","","3667","","","","",""
"","","","","","initialize-microphone","4","183499","0.0-4.0-0.0","C55DBD61D6B84AC885B5E01AE5FF6CC0","C55DBD61D6B84AC885B5E01AE5FF6CC0","cda894b2-8690-43f3-ad08-fb92ee0b3fa1","051c06f1-75cc-4548-856d-4923ddaba0dc","{""num_scrambled_semantic"":""8"",""num_scrambled_causal"":""4"",""num_scrambled_schematic"":""4"",""participantId"":""C55DBD61D6B84AC885B5E01AE5FF6CC0"",""assignmentId"":""cda894b2-8690-43f3-ad08-fb92ee0b3fa1"",""projectId"":""051c06f1-75cc-4548-856d-4923ddaba0dc""}","https://test12345.live/?num_scrambled_semantic=8&num_scrambled_causal=4&num_scrambled_schematic=4&participantId=C55DBD61D6B84AC885B5E01AE5FF6CC0&assignmentId=cda894b2-8690-43f3-ad08-fb92ee0b3fa1&projectId=051c06f1-75cc-4548-856d-4923ddaba0dc","C55DBD61D6B84AC885B5E01AE5FF6CC0-2025-05-15-19-31-57","","","70947b90650af14cf99af0dd307f60a126443c7168e38afc2b209df53d68a18c","","","",""
"","","","","","html-audio-response","5","209623","0.0-4.0-1.0","C55DBD61D6B84AC885B5E01AE5FF6CC0","C55DBD61D6B84AC885B5E01AE5FF6CC0","cda894b2-8690-43f3-ad08-fb92ee0b3fa1","051c06f1-75cc-4548-856d-4923ddaba0dc","{""num_scrambled_semantic"":""8"",""num_scrambled_causal"":""4"",""num_scrambled_schematic"":""4"",""participantId"":""C55DBD61D6B84AC885B5E01AE5FF6CC0"",""assignmentId"":""cda894b2-8690-43f3-ad08-fb92ee0b3fa1"",""projectId"":""051c06f1-75cc-4548-856d-4923ddaba0dc""}","https://test12345.live/?num_scrambled_semantic=8&num_scrambled_causal=4&num_scrambled_schematic=4&participantId=C55DBD61D6B84AC885B5E01AE5FF6CC0&assignmentId=cda894b2-8690-43f3-ad08-fb92ee0b3fa1&projectId=051c06f1-75cc-4548-856d-4923ddaba0dc","C55DBD61D6B84AC885B5E01AE5FF6CC0-2025-05-15-19-31-57","","11136","","<span style=""color: red; font-size: 24px""> NOW RECORDING</span>
        <p>Please test Microphone</p>","","7",""
"","","","","","html-button-response","6","213111","0.0-4.0-2.0","C55DBD61D6B84AC885B5E01AE5FF6CC0","C55DBD61D6B84AC885B5E01AE5FF6CC0","cda894b2-8690-43f3-ad08-fb92ee0b3fa1","051c06f1-75cc-4548-856d-4923ddaba0dc","{""num_scrambled_semantic"":""8"",""num_scrambled_causal"":""4"",""num_scrambled_schematic"":""4"",""participantId"":""C55DBD61D6B84AC885B5E01AE5FF6CC0"",""assignmentId"":""cda894b2-8690-43f3-ad08-fb92ee0b3fa1"",""projectId"":""051c06f1-75cc-4548-856d-4923ddaba0dc""}","https://test12345.live/?num_scrambled_semantic=8&num_scrambled_causal=4&num_scrambled_schematic=4&participantId=C55DBD61D6B84AC885B5E01AE5FF6CC0&assignmentId=cda894b2-8690-43f3-ad08-fb92ee0b3fa1&projectId=051c06f1-75cc-4548-856d-4923ddaba0dc","C55DBD61D6B84AC885B5E01AE5FF6CC0-2025-05-15-19-31-57","","3483","","<p style=""font-size:48px; color:red;"">Is Microphone OK?</p>","1","",""
"","","","","","instructions","7","223124","0.0-5.0","C55DBD61D6B84AC885B5E01AE5FF6CC0","C55DBD61D6B84AC885B5E01AE5FF6CC0","cda894b2-8690-43f3-ad08-fb92ee0b3fa1","051c06f1-75cc-4548-856d-4923ddaba0dc","{""num_scrambled_semantic"":""8"",""num_scrambled_causal"":""4"",""num_scrambled_schematic"":""4"",""participantId"":""C55DBD61D6B84AC885B5E01AE5FF6CC0"",""assignmentId"":""cda894b2-8690-43f3-ad08-fb92ee0b3fa1"",""projectId"":""051c06f1-75cc-4548-856d-4923ddaba0dc""}","https://test12345.live/?num_scrambled_semantic=8&num_scrambled_causal=4&num_scrambled_schematic=4&participantId=C55DBD61D6B84AC885B5E01AE5FF6CC0&assignmentId=cda894b2-8690-43f3-ad08-fb92ee0b3fa1&projectId=051c06f1-75cc-4548-856d-4923ddaba0dc","C55DBD61D6B84AC885B5E01AE5FF6CC0-2025-05-15-19-31-57","[{""page_index"":0,""viewing_time"":4187},{""page_index"":1,""viewing_time"":5821}]","10011","","","","",""
"","","","","","image-button-response","8","229142","0.0-6.0-0.0","C55DBD61D6B84AC885B5E01AE5FF6CC0","C55DBD61D6B84AC885B5E01AE5FF6CC0","cda894b2-8690-43f3-ad08-fb92ee0b3fa1","051c06f1-75cc-4548-856d-4923ddaba0dc","{""num_scrambled_semantic"":""8"",""num_scrambled_causal"":""4"",""num_scrambled_schematic"":""4"",""participantId"":""C55DBD61D6B84AC885B5E01AE5FF6CC0"",""assignmentId"":""cda894b2-8690-43f3-ad08-fb92ee0b3fa1"",""projectId"":""051c06f1-75cc-4548-856d-4923ddaba0dc""}","https://test12345.live/?num_scrambled_semantic=8&num_scrambled_causal=4&num_scrambled_schematic=4&participantId=C55DBD61D6B84AC885B5E01AE5FF6CC0&assignmentId=cda894b2-8690-43f3-ad08-fb92ee0b3fa1&projectId=051c06f1-75cc-4548-856d-4923ddaba0dc","C55DBD61D6B84AC885B5E01AE5FF6CC0-2025-05-15-19-31-57","","null","","images/instructions/movie_0.png","null","",""
"","","","","","image-button-response","9","233662","0.0-6.0-1.0-0.0","C55DBD61D6B84AC885B5E01AE5FF6CC0","C55DBD61D6B84AC885B5E01AE5FF6CC0","cda894b2-8690-43f3-ad08-fb92ee0b3fa1","051c06f1-75cc-4548-856d-4923ddaba0dc","{""num_scrambled_semantic"":""8"",""num_scrambled_causal"":""4"",""num_scrambled_schematic"":""4"",""participantId"":""C55DBD61D6B84AC885B5E01AE5FF6CC0"",""assignmentId"":""cda894b2-8690-43f3-ad08-fb92ee0b3fa1"",""projectId"":""051c06f1-75cc-4548-856d-4923ddaba0dc""}","https://test12345.live/?num_scrambled_semantic=8&num_scrambled_causal=4&num_scrambled_schematic=4&participantId=C55DBD61D6B84AC885B5E01AE5FF6CC0&assignmentId=cda894b2-8690-43f3-ad08-fb92ee0b3fa1&projectId=051c06f1-75cc-4548-856d-4923ddaba0dc","C55DBD61D6B84AC885B5E01AE5FF6CC0-2025-05-15-19-31-57","","null","","images/instructions/movie_1.png","null","",""
"","","","","","image-button-response","10","237672","0.0-6.0-1.0-1.0","C55DBD61D6B84AC885B5E01AE5FF6CC0","C55DBD61D6B84AC885B5E01AE5FF6CC0","cda894b2-8690-43f3-ad08-fb92ee0b3fa1","051c06f1-75cc-4548-856d-4923ddaba0dc","{""num_scrambled_semantic"":""8"",""num_scrambled_causal"":""4"",""num_scrambled_schematic"":""4"",""participantId"":""C55DBD61D6B84AC885B5E01AE5FF6CC0"",""assignmentId"":""cda894b2-8690-43f3-ad08-fb92ee0b3fa1"",""projectId"":""051c06f1-75cc-4548-856d-4923ddaba0dc""}","https://test12345.live/?num_scrambled_semantic=8&num_scrambled_causal=4&num_scrambled_schematic=4&participantId=C55DBD61D6B84AC885B5E01AE5FF6CC0&assignmentId=cda894b2-8690-43f3-ad08-fb92ee0b3fa1&projectId=051c06f1-75cc-4548-856d-4923ddaba0dc","C55DBD61D6B84AC885B5E01AE5FF6CC0-2025-05-15-19-31-57","","null","","images/instructions/movie_1.png","null","",""
"","","","","","image-button-response","11","239479","0.0-6.0-1.0-2.0","C55DBD61D6B84AC885B5E01AE5FF6CC0","C55DBD61D6B84AC885B5E01AE5FF6CC0","cda894b2-8690-43f3-ad08-fb92ee0b3fa1","051c06f1-75cc-4548-856d-4923ddaba0dc","{""num_scrambled_semantic"":""8"",""num_scrambled_causal"":""4"",""num_scrambled_schematic"":""4"",""participantId"":""C55DBD61D6B84AC885B5E01AE5FF6CC0"",""assignmentId"":""cda894b2-8690-43f3-ad08-fb92ee0b3fa1"",""projectId"":""051c06f1-75cc-4548-856d-4923ddaba0dc""}","https://test12345.live/?num_scrambled_semantic=8&num_scrambled_causal=4&num_scrambled_schematic=4&participantId=C55DBD61D6B84AC885B5E01AE5FF6CC0&assignmentId=cda894b2-8690-43f3-ad08-fb92ee0b3fa1&projectId=051c06f1-75cc-4548-856d-4923ddaba0dc","C55DBD61D6B84AC885B5E01AE5FF6CC0-2025-05-15-19-31-57","","null","","[]","null","",""
"","","","","","image-button-response","12","243992","0.0-6.0-1.0-0.1","C55DBD61D6B84AC885B5E01AE5FF6CC0","C55DBD61D6B84AC885B5E01AE5FF6CC0","cda894b2-8690-43f3-ad08-fb92ee0b3fa1","051c06f1-75cc-4548-856d-4923ddaba0dc","{""num_scrambled_semantic"":""8"",""num_scrambled_causal"":""4"",""num_scrambled_schematic"":""4"",""participantId"":""C55DBD61D6B84AC885B5E01AE5FF6CC0"",""assignmentId"":""cda894b2-8690-43f3-ad08-fb92ee0b3fa1"",""projectId"":""051c06f1-75cc-4548-856d-4923ddaba0dc""}","https://test12345.live/?num_scrambled_semantic=8&num_scrambled_causal=4&num_scrambled_schematic=4&participantId=C55DBD61D6B84AC885B5E01AE5FF6CC0&assignmentId=cda894b2-8690-43f3-ad08-fb92ee0b3fa1&projectId=051c06f1-75cc-4548-856d-4923ddaba0dc","C55DBD61D6B84AC885B5E01AE5FF6CC0-2025-05-15-19-31-57","","null","","images/instructions/movie_2.png","null","",""
"","","","","","image-button-response","13","247958","0.0-6.0-1.0-1.1","C55DBD61D6B84AC885B5E01AE5FF6CC0","C55DBD61D6B84AC885B5E01AE5FF6CC0","cda894b2-8690-43f3-ad08-fb92ee0b3fa1","051c06f1-75cc-4548-856d-4923ddaba0dc","{""num_scrambled_semantic"":""8"",""num_scrambled_causal"":""4"",""num_scrambled_schematic"":""4"",""participantId"":""C55DBD61D6B84AC885B5E01AE5FF6CC0"",""assignmentId"":""cda894b2-8690-43f3-ad08-fb92ee0b3fa1"",""projectId"":""051c06f1-75cc-4548-856d-4923ddaba0dc""}","https://test12345.live/?num_scrambled_semantic=8&num_scrambled_causal=4&num_scrambled_schematic=4&participantId=C55DBD61D6B84AC885B5E01AE5FF6CC0&assignmentId=cda894b2-8690-43f3-ad08-fb92ee0b3fa1&projectId=051c06f1-75cc-4548-856d-4923ddaba0dc","C55DBD61D6B84AC885B5E01AE5FF6CC0-2025-05-15-19-31-57","","3963","","images/instructions/movie_2.png","0","",""
"","","","","","image-button-response","14","249780","0.0-6.0-1.0-2.1","C55DBD61D6B84AC885B5E01AE5FF6CC0","C55DBD61D6B84AC885B5E01AE5FF6CC0","cda894b2-8690-43f3-ad08-fb92ee0b3fa1","051c06f1-75cc-4548-856d-4923ddaba0dc","{""num_scrambled_semantic"":""8"",""num_scrambled_causal"":""4"",""num_scrambled_schematic"":""4"",""participantId"":""C55DBD61D6B84AC885B5E01AE5FF6CC0"",""assignmentId"":""cda894b2-8690-43f3-ad08-fb92ee0b3fa1"",""projectId"":""051c06f1-75cc-4548-856d-4923ddaba0dc""}","https://test12345.live/?num_scrambled_semantic=8&num_scrambled_causal=4&num_scrambled_schematic=4&participantId=C55DBD61D6B84AC885B5E01AE5FF6CC0&assignmentId=cda894b2-8690-43f3-ad08-fb92ee0b3fa1&projectId=051c06f1-75cc-4548-856d-4923ddaba0dc","C55DBD61D6B84AC885B5E01AE5FF6CC0-2025-05-15-19-31-57","","null","","[]","null","",""
"","","","","","image-button-response","15","254285","0.0-6.0-1.0-0.2","C55DBD61D6B84AC885B5E01AE5FF6CC0","C55DBD61D6B84AC885B5E01AE5FF6CC0","cda894b2-8690-43f3-ad08-fb92ee0b3fa1","051c06f1-75cc-4548-856d-4923ddaba0dc","{""num_scrambled_semantic"":""8"",""num_scrambled_causal"":""4"",""num_scrambled_schematic"":""4"",""participantId"":""C55DBD61D6B84AC885B5E01AE5FF6CC0"",""assignmentId"":""cda894b2-8690-43f3-ad08-fb92ee0b3fa1"",""projectId"":""051c06f1-75cc-4548-856d-4923ddaba0dc""}","https://test12345.live/?num_scrambled_semantic=8&num_scrambled_causal=4&num_scrambled_schematic=4&participantId=C55DBD61D6B84AC885B5E01AE5FF6CC0&assignmentId=cda894b2-8690-43f3-ad08-fb92ee0b3fa1&projectId=051c06f1-75cc-4548-856d-4923ddaba0dc","C55DBD61D6B84AC885B5E01AE5FF6CC0-2025-05-15-19-31-57","","null","","images/instructions/movie_3.png","null","",""
"","","","","","image-button-response","16","255576","0.0-6.0-1.0-1.2","C55DBD61D6B84AC885B5E01AE5FF6CC0","C55DBD61D6B84AC885B5E01AE5FF6CC0","cda894b2-8690-43f3-ad08-fb92ee0b3fa1","051c06f1-75cc-4548-856d-4923ddaba0dc","{""num_scrambled_semantic"":""8"",""num_scrambled_causal"":""4"",""num_scrambled_schematic"":""4"",""participantId"":""C55DBD61D6B84AC885B5E01AE5FF6CC0"",""assignmentId"":""cda894b2-8690-43f3-ad08-fb92ee0b3fa1"",""projectId"":""051c06f1-75cc-4548-856d-4923ddaba0dc""}","https://test12345.live/?num_scrambled_semantic=8&num_scrambled_causal=4&num_scrambled_schematic=4&participantId=C55DBD61D6B84AC885B5E01AE5FF6CC0&assignmentId=cda894b2-8690-43f3-ad08-fb92ee0b3fa1&projectId=051c06f1-75cc-4548-856d-4923ddaba0dc","C55DBD61D6B84AC885B5E01AE5FF6CC0-2025-05-15-19-31-57","","1287","","images/instructions/movie_3.png","0","",""
"","","","","","image-button-response","17","257381","0.0-6.0-1.0-2.2","C55DBD61D6B84AC885B5E01AE5FF6CC0","C55DBD61D6B84AC885B5E01AE5FF6CC0","cda894b2-8690-43f3-ad08-fb92ee0b3fa1","051c06f1-75cc-4548-856d-4923ddaba0dc","{""num_scrambled_semantic"":""8"",""num_scrambled_causal"":""4"",""num_scrambled_schematic"":""4"",""participantId"":""C55DBD61D6B84AC885B5E01AE5FF6CC0"",""assignmentId"":""cda894b2-8690-43f3-ad08-fb92ee0b3fa1"",""projectId"":""051c06f1-75cc-4548-856d-4923ddaba0dc""}","https://test12345.live/?num_scrambled_semantic=8&num_scrambled_causal=4&num_scrambled_schematic=4&participantId=C55DBD61D6B84AC885B5E01AE5FF6CC0&assignmentId=cda894b2-8690-43f3-ad08-fb92ee0b3fa1&projectId=051c06f1-75cc-4548-856d-4923ddaba0dc","C55DBD61D6B84AC885B5E01AE5FF6CC0-2025-05-15-19-31-57","","null","","[]","null","",""
"","","","","","image-button-response","18","261896","0.0-6.0-1.0-0.3","C55DBD61D6B84AC885B5E01AE5FF6CC0","C55DBD61D6B84AC885B5E01AE5FF6CC0","cda894b2-8690-43f3-ad08-fb92ee0b3fa1","051c06f1-75cc-4548-856d-4923ddaba0dc","{""num_scrambled_semantic"":""8"",""num_scrambled_causal"":""4"",""num_scrambled_schematic"":""4"",""participantId"":""C55DBD61D6B84AC885B5E01AE5FF6CC0"",""assignmentId"":""cda894b2-8690-43f3-ad08-fb92ee0b3fa1"",""projectId"":""051c06f1-75cc-4548-856d-4923ddaba0dc""}","https://test12345.live/?num_scrambled_semantic=8&num_scrambled_causal=4&num_scrambled_schematic=4&participantId=C55DBD61D6B84AC885B5E01AE5FF6CC0&assignmentId=cda894b2-8690-43f3-ad08-fb92ee0b3fa1&projectId=051c06f1-75cc-4548-856d-4923ddaba0dc","C55DBD61D6B84AC885B5E01AE5FF6CC0-2025-05-15-19-31-57","","null","","images/instructions/movie_4.png","null","",""
"","","","","","image-button-response","19","262922","0.0-6.0-1.0-1.3","C55DBD61D6B84AC885B5E01AE5FF6CC0","C55DBD61D6B84AC885B5E01AE5FF6CC0","cda894b2-8690-43f3-ad08-fb92ee0b3fa1","051c06f1-75cc-4548-856d-4923ddaba0dc","{""num_scrambled_semantic"":""8"",""num_scrambled_causal"":""4"",""num_scrambled_schematic"":""4"",""participantId"":""C55DBD61D6B84AC885B5E01AE5FF6CC0"",""assignmentId"":""cda894b2-8690-43f3-ad08-fb92ee0b3fa1"",""projectId"":""051c06f1-75cc-4548-856d-4923ddaba0dc""}","https://test12345.live/?num_scrambled_semantic=8&num_scrambled_causal=4&num_scrambled_schematic=4&participantId=C55DBD61D6B84AC885B5E01AE5FF6CC0&assignmentId=cda894b2-8690-43f3-ad08-fb92ee0b3fa1&projectId=051c06f1-75cc-4548-856d-4923ddaba0dc","C55DBD61D6B84AC885B5E01AE5FF6CC0-2025-05-15-19-31-57","","1023","","images/instructions/movie_4.png","0","",""
"","","","","","image-button-response","20","264740","0.0-6.0-1.0-2.3","C55DBD61D6B84AC885B5E01AE5FF6CC0","C55DBD61D6B84AC885B5E01AE5FF6CC0","cda894b2-8690-43f3-ad08-fb92ee0b3fa1","051c06f1-75cc-4548-856d-4923ddaba0dc","{""num_scrambled_semantic"":""8"",""num_scrambled_causal"":""4"",""num_scrambled_schematic"":""4"",""participantId"":""C55DBD61D6B84AC885B5E01AE5FF6CC0"",""assignmentId"":""cda894b2-8690-43f3-ad08-fb92ee0b3fa1"",""projectId"":""051c06f1-75cc-4548-856d-4923ddaba0dc""}","https://test12345.live/?num_scrambled_semantic=8&num_scrambled_causal=4&num_scrambled_schematic=4&participantId=C55DBD61D6B84AC885B5E01AE5FF6CC0&assignmentId=cda894b2-8690-43f3-ad08-fb92ee0b3fa1&projectId=051c06f1-75cc-4548-856d-4923ddaba0dc","C55DBD61D6B84AC885B5E01AE5FF6CC0-2025-05-15-19-31-57","","null","","[]","null","",""
"","","","","","instructions","21","276840","0.0-7.0","C55DBD61D6B84AC885B5E01AE5FF6CC0","C55DBD61D6B84AC885B5E01AE5FF6CC0","cda894b2-8690-43f3-ad08-fb92ee0b3fa1","051c06f1-75cc-4548-856d-4923ddaba0dc","{""num_scrambled_semantic"":""8"",""num_scrambled_causal"":""4"",""num_scrambled_schematic"":""4"",""participantId"":""C55DBD61D6B84AC885B5E01AE5FF6CC0"",""assignmentId"":""cda894b2-8690-43f3-ad08-fb92ee0b3fa1"",""projectId"":""051c06f1-75cc-4548-856d-4923ddaba0dc""}","https://test12345.live/?num_scrambled_semantic=8&num_scrambled_causal=4&num_scrambled_schematic=4&participantId=C55DBD61D6B84AC885B5E01AE5FF6CC0&assignmentId=cda894b2-8690-43f3-ad08-fb92ee0b3fa1&projectId=051c06f1-75cc-4548-856d-4923ddaba0dc","C55DBD61D6B84AC885B5E01AE5FF6CC0-2025-05-15-19-31-57","[{""page_index"":0,""viewing_time"":7908},{""page_index"":1,""viewing_time"":4191}]","12099","","","","",""
"","","","","","html-audio-response","22","348587","0.0-8.0","C55DBD61D6B84AC885B5E01AE5FF6CC0","C55DBD61D6B84AC885B5E01AE5FF6CC0","cda894b2-8690-43f3-ad08-fb92ee0b3fa1","051c06f1-75cc-4548-856d-4923ddaba0dc","{""num_scrambled_semantic"":""8"",""num_scrambled_causal"":""4"",""num_scrambled_schematic"":""4"",""participantId"":""C55DBD61D6B84AC885B5E01AE5FF6CC0"",""assignmentId"":""cda894b2-8690-43f3-ad08-fb92ee0b3fa1"",""projectId"":""051c06f1-75cc-4548-856d-4923ddaba0dc""}","https://test12345.live/?num_scrambled_semantic=8&num_scrambled_causal=4&num_scrambled_schematic=4&participantId=C55DBD61D6B84AC885B5E01AE5FF6CC0&assignmentId=cda894b2-8690-43f3-ad08-fb92ee0b3fa1&projectId=051c06f1-75cc-4548-856d-4923ddaba0dc","C55DBD61D6B84AC885B5E01AE5FF6CC0-2025-05-15-19-31-57","","27478","","[""<span style=\""color: red; font-size: 24px\""> NOW RECORDING</span><p>Please say out loud all the images you saw, as many as you can remember. The images can be said in any order.</p>""]","","3",""
"","","","","","instructions","23","350562","0.0-9.0","C55DBD61D6B84AC885B5E01AE5FF6CC0","C55DBD61D6B84AC885B5E01AE5FF6CC0","cda894b2-8690-43f3-ad08-fb92ee0b3fa1","051c06f1-75cc-4548-856d-4923ddaba0dc","{""num_scrambled_semantic"":""8"",""num_scrambled_causal"":""4"",""num_scrambled_schematic"":""4"",""participantId"":""C55DBD61D6B84AC885B5E01AE5FF6CC0"",""assignmentId"":""cda894b2-8690-43f3-ad08-fb92ee0b3fa1"",""projectId"":""051c06f1-75cc-4548-856d-4923ddaba0dc""}","https://test12345.live/?num_scrambled_semantic=8&num_scrambled_causal=4&num_scrambled_schematic=4&participantId=C55DBD61D6B84AC885B5E01AE5FF6CC0&assignmentId=cda894b2-8690-43f3-ad08-fb92ee0b3fa1&projectId=051c06f1-75cc-4548-856d-4923ddaba0dc","C55DBD61D6B84AC885B5E01AE5FF6CC0-2025-05-15-19-31-57","[{""page_index"":0,""viewing_time"":1960}]","1960","","","","",""
"","","","","","image-button-response","24","356570","0.0-10.0-0.0","C55DBD61D6B84AC885B5E01AE5FF6CC0","C55DBD61D6B84AC885B5E01AE5FF6CC0","cda894b2-8690-43f3-ad08-fb92ee0b3fa1","051c06f1-75cc-4548-856d-4923ddaba0dc","{""num_scrambled_semantic"":""8"",""num_scrambled_causal"":""4"",""num_scrambled_schematic"":""4"",""participantId"":""C55DBD61D6B84AC885B5E01AE5FF6CC0"",""assignmentId"":""cda894b2-8690-43f3-ad08-fb92ee0b3fa1"",""projectId"":""051c06f1-75cc-4548-856d-4923ddaba0dc""}","https://test12345.live/?num_scrambled_semantic=8&num_scrambled_causal=4&num_scrambled_schematic=4&participantId=C55DBD61D6B84AC885B5E01AE5FF6CC0&assignmentId=cda894b2-8690-43f3-ad08-fb92ee0b3fa1&projectId=051c06f1-75cc-4548-856d-4923ddaba0dc","C55DBD61D6B84AC885B5E01AE5FF6CC0-2025-05-15-19-31-57","","null","","images/semantic_sequence/exploring_nature_semantic/exploring_nature_semantic_0.png","null","",""
"","","","","","image-button-response","25","361073","0.0-10.0-1.0-0.0","C55DBD61D6B84AC885B5E01AE5FF6CC0","C55DBD61D6B84AC885B5E01AE5FF6CC0","cda894b2-8690-43f3-ad08-fb92ee0b3fa1","051c06f1-75cc-4548-856d-4923ddaba0dc","{""num_scrambled_semantic"":""8"",""num_scrambled_causal"":""4"",""num_scrambled_schematic"":""4"",""participantId"":""C55DBD61D6B84AC885B5E01AE5FF6CC0"",""assignmentId"":""cda894b2-8690-43f3-ad08-fb92ee0b3fa1"",""projectId"":""051c06f1-75cc-4548-856d-4923ddaba0dc""}","https://test12345.live/?num_scrambled_semantic=8&num_scrambled_causal=4&num_scrambled_schematic=4&participantId=C55DBD61D6B84AC885B5E01AE5FF6CC0&assignmentId=cda894b2-8690-43f3-ad08-fb92ee0b3fa1&projectId=051c06f1-75cc-4548-856d-4923ddaba0dc","C55DBD61D6B84AC885B5E01AE5FF6CC0-2025-05-15-19-31-57","","null","","images/semantic_sequence/exploring_nature_semantic/exploring_nature_semantic_1.png","null","",""
"","","","","","image-button-response","26","362313","0.0-10.0-1.0-1.0","C55DBD61D6B84AC885B5E01AE5FF6CC0","C55DBD61D6B84AC885B5E01AE5FF6CC0","cda894b2-8690-43f3-ad08-fb92ee0b3fa1","051c06f1-75cc-4548-856d-4923ddaba0dc","{""num_scrambled_semantic"":""8"",""num_scrambled_causal"":""4"",""num_scrambled_schematic"":""4"",""participantId"":""C55DBD61D6B84AC885B5E01AE5FF6CC0"",""assignmentId"":""cda894b2-8690-43f3-ad08-fb92ee0b3fa1"",""projectId"":""051c06f1-75cc-4548-856d-4923ddaba0dc""}","https://test12345.live/?num_scrambled_semantic=8&num_scrambled_causal=4&num_scrambled_schematic=4&participantId=C55DBD61D6B84AC885B5E01AE5FF6CC0&assignmentId=cda894b2-8690-43f3-ad08-fb92ee0b3fa1&projectId=051c06f1-75cc-4548-856d-4923ddaba0dc","C55DBD61D6B84AC885B5E01AE5FF6CC0-2025-05-15-19-31-57","","1237","","images/semantic_sequence/exploring_nature_semantic/exploring_nature_semantic_1.png","0","",""
"","","","","","image-button-response","27","364123","0.0-10.0-1.0-2.0","C55DBD61D6B84AC885B5E01AE5FF6CC0","C55DBD61D6B84AC885B5E01AE5FF6CC0","cda894b2-8690-43f3-ad08-fb92ee0b3fa1","051c06f1-75cc-4548-856d-4923ddaba0dc","{""num_scrambled_semantic"":""8"",""num_scrambled_causal"":""4"",""num_scrambled_schematic"":""4"",""participantId"":""C55DBD61D6B84AC885B5E01AE5FF6CC0"",""assignmentId"":""cda894b2-8690-43f3-ad08-fb92ee0b3fa1"",""projectId"":""051c06f1-75cc-4548-856d-4923ddaba0dc""}","https://test12345.live/?num_scrambled_semantic=8&num_scrambled_causal=4&num_scrambled_schematic=4&participantId=C55DBD61D6B84AC885B5E01AE5FF6CC0&assignmentId=cda894b2-8690-43f3-ad08-fb92ee0b3fa1&projectId=051c06f1-75cc-4548-856d-4923ddaba0dc","C55DBD61D6B84AC885B5E01AE5FF6CC0-2025-05-15-19-31-57","","null","","[]","null","",""
"","","","","","image-button-response","28","368636","0.0-10.0-1.0-0.1","C55DBD61D6B84AC885B5E01AE5FF6CC0","C55DBD61D6B84AC885B5E01AE5FF6CC0","cda894b2-8690-43f3-ad08-fb92ee0b3fa1","051c06f1-75cc-4548-856d-4923ddaba0dc","{""num_scrambled_semantic"":""8"",""num_scrambled_causal"":""4"",""num_scrambled_schematic"":""4"",""participantId"":""C55DBD61D6B84AC885B5E01AE5FF6CC0"",""assignmentId"":""cda894b2-8690-43f3-ad08-fb92ee0b3fa1"",""projectId"":""051c06f1-75cc-4548-856d-4923ddaba0dc""}","https://test12345.live/?num_scrambled_semantic=8&num_scrambled_causal=4&num_scrambled_schematic=4&participantId=C55DBD61D6B84AC885B5E01AE5FF6CC0&assignmentId=cda894b2-8690-43f3-ad08-fb92ee0b3fa1&projectId=051c06f1-75cc-4548-856d-4923ddaba0dc","C55DBD61D6B84AC885B5E01AE5FF6CC0-2025-05-15-19-31-57","","null","","images/semantic_sequence/exploring_nature_semantic/exploring_nature_semantic_ten.png","null","",""
"","","","","","image-button-response","29","369979","0.0-10.0-1.0-1.1","C55DBD61D6B84AC885B5E01AE5FF6CC0","C55DBD61D6B84AC885B5E01AE5FF6CC0","cda894b2-8690-43f3-ad08-fb92ee0b3fa1","051c06f1-75cc-4548-856d-4923ddaba0dc","{""num_scrambled_semantic"":""8"",""num_scrambled_causal"":""4"",""num_scrambled_schematic"":""4"",""participantId"":""C55DBD61D6B84AC885B5E01AE5FF6CC0"",""assignmentId"":""cda894b2-8690-43f3-ad08-fb92ee0b3fa1"",""projectId"":""051c06f1-75cc-4548-856d-4923ddaba0dc""}","https://test12345.live/?num_scrambled_semantic=8&num_scrambled_causal=4&num_scrambled_schematic=4&participantId=C55DBD61D6B84AC885B5E01AE5FF6CC0&assignmentId=cda894b2-8690-43f3-ad08-fb92ee0b3fa1&projectId=051c06f1-75cc-4548-856d-4923ddaba0dc","C55DBD61D6B84AC885B5E01AE5FF6CC0-2025-05-15-19-31-57","","1339","","images/semantic_sequence/exploring_nature_semantic/exploring_nature_semantic_ten.png","0","",""
"","","","","","image-button-response","30","371783","0.0-10.0-1.0-2.1","C55DBD61D6B84AC885B5E01AE5FF6CC0","C55DBD61D6B84AC885B5E01AE5FF6CC0","cda894b2-8690-43f3-ad08-fb92ee0b3fa1","051c06f1-75cc-4548-856d-4923ddaba0dc","{""num_scrambled_semantic"":""8"",""num_scrambled_causal"":""4"",""num_scrambled_schematic"":""4"",""participantId"":""C55DBD61D6B84AC885B5E01AE5FF6CC0"",""assignmentId"":""cda894b2-8690-43f3-ad08-fb92ee0b3fa1"",""projectId"":""051c06f1-75cc-4548-856d-4923ddaba0dc""}","https://test12345.live/?num_scrambled_semantic=8&num_scrambled_causal=4&num_scrambled_schematic=4&participantId=C55DBD61D6B84AC885B5E01AE5FF6CC0&assignmentId=cda894b2-8690-43f3-ad08-fb92ee0b3fa1&projectId=051c06f1-75cc-4548-856d-4923ddaba0dc","C55DBD61D6B84AC885B5E01AE5FF6CC0-2025-05-15-19-31-57","","null","","[]","null","",""
"","","","","","image-button-response","31","376305","0.0-10.0-1.0-0.2","C55DBD61D6B84AC885B5E01AE5FF6CC0","C55DBD61D6B84AC885B5E01AE5FF6CC0","cda894b2-8690-43f3-ad08-fb92ee0b3fa1","051c06f1-75cc-4548-856d-4923ddaba0dc","{""num_scrambled_semantic"":""8"",""num_scrambled_causal"":""4"",""num_scrambled_schematic"":""4"",""participantId"":""C55DBD61D6B84AC885B5E01AE5FF6CC0"",""assignmentId"":""cda894b2-8690-43f3-ad08-fb92ee0b3fa1"",""projectId"":""051c06f1-75cc-4548-856d-4923ddaba0dc""}","https://test12345.live/?num_scrambled_semantic=8&num_scrambled_causal=4&num_scrambled_schematic=4&participantId=C55DBD61D6B84AC885B5E01AE5FF6CC0&assignmentId=cda894b2-8690-43f3-ad08-fb92ee0b3fa1&projectId=051c06f1-75cc-4548-856d-4923ddaba0dc","C55DBD61D6B84AC885B5E01AE5FF6CC0-2025-05-15-19-31-57","","null","","images/semantic_sequence/exploring_nature_semantic/exploring_nature_semantic_5.png","null","",""
"","","","","","image-button-response","32","377365","0.0-10.0-1.0-1.2","C55DBD61D6B84AC885B5E01AE5FF6CC0","C55DBD61D6B84AC885B5E01AE5FF6CC0","cda894b2-8690-43f3-ad08-fb92ee0b3fa1","051c06f1-75cc-4548-856d-4923ddaba0dc","{""num_scrambled_semantic"":""8"",""num_scrambled_causal"":""4"",""num_scrambled_schematic"":""4"",""participantId"":""C55DBD61D6B84AC885B5E01AE5FF6CC0"",""assignmentId"":""cda894b2-8690-43f3-ad08-fb92ee0b3fa1"",""projectId"":""051c06f1-75cc-4548-856d-4923ddaba0dc""}","https://test12345.live/?num_scrambled_semantic=8&num_scrambled_causal=4&num_scrambled_schematic=4&participantId=C55DBD61D6B84AC885B5E01AE5FF6CC0&assignmentId=cda894b2-8690-43f3-ad08-fb92ee0b3fa1&projectId=051c06f1-75cc-4548-856d-4923ddaba0dc","C55DBD61D6B84AC885B5E01AE5FF6CC0-2025-05-15-19-31-57","","1057","","images/semantic_sequence/exploring_nature_semantic/exploring_nature_semantic_5.png","0","",""
"","","","","","image-button-response","33","379172","0.0-10.0-1.0-2.2","C55DBD61D6B84AC885B5E01AE5FF6CC0","C55DBD61D6B84AC885B5E01AE5FF6CC0","cda894b2-8690-43f3-ad08-fb92ee0b3fa1","051c06f1-75cc-4548-856d-4923ddaba0dc","{""num_scrambled_semantic"":""8"",""num_scrambled_causal"":""4"",""num_scrambled_schematic"":""4"",""participantId"":""C55DBD61D6B84AC885B5E01AE5FF6CC0"",""assignmentId"":""cda894b2-8690-43f3-ad08-fb92ee0b3fa1"",""projectId"":""051c06f1-75cc-4548-856d-4923ddaba0dc""}","https://test12345.live/?num_scrambled_semantic=8&num_scrambled_causal=4&num_scrambled_schematic=4&participantId=C55DBD61D6B84AC885B5E01AE5FF6CC0&assignmentId=cda894b2-8690-43f3-ad08-fb92ee0b3fa1&projectId=051c06f1-75cc-4548-856d-4923ddaba0dc","C55DBD61D6B84AC885B5E01AE5FF6CC0-2025-05-15-19-31-57","","null","","[]","null","",""
"","","","","","image-button-response","34","383683","0.0-10.0-1.0-0.3","C55DBD61D6B84AC885B5E01AE5FF6CC0","C55DBD61D6B84AC885B5E01AE5FF6CC0","cda894b2-8690-43f3-ad08-fb92ee0b3fa1","051c06f1-75cc-4548-856d-4923ddaba0dc","{""num_scrambled_semantic"":""8"",""num_scrambled_causal"":""4"",""num_scrambled_schematic"":""4"",""participantId"":""C55DBD61D6B84AC885B5E01AE5FF6CC0"",""assignmentId"":""cda894b2-8690-43f3-ad08-fb92ee0b3fa1"",""projectId"":""051c06f1-75cc-4548-856d-4923ddaba0dc""}","https://test12345.live/?num_scrambled_semantic=8&num_scrambled_causal=4&num_scrambled_schematic=4&participantId=C55DBD61D6B84AC885B5E01AE5FF6CC0&assignmentId=cda894b2-8690-43f3-ad08-fb92ee0b3fa1&projectId=051c06f1-75cc-4548-856d-4923ddaba0dc","C55DBD61D6B84AC885B5E01AE5FF6CC0-2025-05-15-19-31-57","","null","","images/semantic_sequence/exploring_nature_semantic/exploring_nature_semantic_6.png","null","",""
"","","","","","image-button-response","35","385032","0.0-10.0-1.0-1.3","C55DBD61D6B84AC885B5E01AE5FF6CC0","C55DBD61D6B84AC885B5E01AE5FF6CC0","cda894b2-8690-43f3-ad08-fb92ee0b3fa1","051c06f1-75cc-4548-856d-4923ddaba0dc","{""num_scrambled_semantic"":""8"",""num_scrambled_causal"":""4"",""num_scrambled_schematic"":""4"",""participantId"":""C55DBD61D6B84AC885B5E01AE5FF6CC0"",""assignmentId"":""cda894b2-8690-43f3-ad08-fb92ee0b3fa1"",""projectId"":""051c06f1-75cc-4548-856d-4923ddaba0dc""}","https://test12345.live/?num_scrambled_semantic=8&num_scrambled_causal=4&num_scrambled_schematic=4&participantId=C55DBD61D6B84AC885B5E01AE5FF6CC0&assignmentId=cda894b2-8690-43f3-ad08-fb92ee0b3fa1&projectId=051c06f1-75cc-4548-856d-4923ddaba0dc","C55DBD61D6B84AC885B5E01AE5FF6CC0-2025-05-15-19-31-57","","1344","","images/semantic_sequence/exploring_nature_semantic/exploring_nature_semantic_6.png","0","",""
"","","","","","image-button-response","36","386839","0.0-10.0-1.0-2.3","C55DBD61D6B84AC885B5E01AE5FF6CC0","C55DBD61D6B84AC885B5E01AE5FF6CC0","cda894b2-8690-43f3-ad08-fb92ee0b3fa1","051c06f1-75cc-4548-856d-4923ddaba0dc","{""num_scrambled_semantic"":""8"",""num_scrambled_causal"":""4"",""num_scrambled_schematic"":""4"",""participantId"":""C55DBD61D6B84AC885B5E01AE5FF6CC0"",""assignmentId"":""cda894b2-8690-43f3-ad08-fb92ee0b3fa1"",""projectId"":""051c06f1-75cc-4548-856d-4923ddaba0dc""}","https://test12345.live/?num_scrambled_semantic=8&num_scrambled_causal=4&num_scrambled_schematic=4&participantId=C55DBD61D6B84AC885B5E01AE5FF6CC0&assignmentId=cda894b2-8690-43f3-ad08-fb92ee0b3fa1&projectId=051c06f1-75cc-4548-856d-4923ddaba0dc","C55DBD61D6B84AC885B5E01AE5FF6CC0-2025-05-15-19-31-57","","null","","[]","null","",""
"","","","","","image-button-response","37","391346","0.0-10.0-1.0-0.4","C55DBD61D6B84AC885B5E01AE5FF6CC0","C55DBD61D6B84AC885B5E01AE5FF6CC0","cda894b2-8690-43f3-ad08-fb92ee0b3fa1","051c06f1-75cc-4548-856d-4923ddaba0dc","{""num_scrambled_semantic"":""8"",""num_scrambled_causal"":""4"",""num_scrambled_schematic"":""4"",""participantId"":""C55DBD61D6B84AC885B5E01AE5FF6CC0"",""assignmentId"":""cda894b2-8690-43f3-ad08-fb92ee0b3fa1"",""projectId"":""051c06f1-75cc-4548-856d-4923ddaba0dc""}","https://test12345.live/?num_scrambled_semantic=8&num_scrambled_causal=4&num_scrambled_schematic=4&participantId=C55DBD61D6B84AC885B5E01AE5FF6CC0&assignmentId=cda894b2-8690-43f3-ad08-fb92ee0b3fa1&projectId=051c06f1-75cc-4548-856d-4923ddaba0dc","C55DBD61D6B84AC885B5E01AE5FF6CC0-2025-05-15-19-31-57","","null","","images/semantic_sequence/exploring_nature_semantic/exploring_nature_semantic_2.png","null","",""
"","","","","","image-button-response","38","392171","0.0-10.0-1.0-1.4","C55DBD61D6B84AC885B5E01AE5FF6CC0","C55DBD61D6B84AC885B5E01AE5FF6CC0","cda894b2-8690-43f3-ad08-fb92ee0b3fa1","051c06f1-75cc-4548-856d-4923ddaba0dc","{""num_scrambled_semantic"":""8"",""num_scrambled_causal"":""4"",""num_scrambled_schematic"":""4"",""participantId"":""C55DBD61D6B84AC885B5E01AE5FF6CC0"",""assignmentId"":""cda894b2-8690-43f3-ad08-fb92ee0b3fa1"",""projectId"":""051c06f1-75cc-4548-856d-4923ddaba0dc""}","https://test12345.live/?num_scrambled_semantic=8&num_scrambled_causal=4&num_scrambled_schematic=4&participantId=C55DBD61D6B84AC885B5E01AE5FF6CC0&assignmentId=cda894b2-8690-43f3-ad08-fb92ee0b3fa1&projectId=051c06f1-75cc-4548-856d-4923ddaba0dc","C55DBD61D6B84AC885B5E01AE5FF6CC0-2025-05-15-19-31-57","","822","","images/semantic_sequence/exploring_nature_semantic/exploring_nature_semantic_2.png","0","",""
"","","","","","image-button-response","39","393975","0.0-10.0-1.0-2.4","C55DBD61D6B84AC885B5E01AE5FF6CC0","C55DBD61D6B84AC885B5E01AE5FF6CC0","cda894b2-8690-43f3-ad08-fb92ee0b3fa1","051c06f1-75cc-4548-856d-4923ddaba0dc","{""num_scrambled_semantic"":""8"",""num_scrambled_causal"":""4"",""num_scrambled_schematic"":""4"",""participantId"":""C55DBD61D6B84AC885B5E01AE5FF6CC0"",""assignmentId"":""cda894b2-8690-43f3-ad08-fb92ee0b3fa1"",""projectId"":""051c06f1-75cc-4548-856d-4923ddaba0dc""}","https://test12345.live/?num_scrambled_semantic=8&num_scrambled_causal=4&num_scrambled_schematic=4&participantId=C55DBD61D6B84AC885B5E01AE5FF6CC0&assignmentId=cda894b2-8690-43f3-ad08-fb92ee0b3fa1&projectId=051c06f1-75cc-4548-856d-4923ddaba0dc","C55DBD61D6B84AC885B5E01AE5FF6CC0-2025-05-15-19-31-57","","null","","[]","null","",""
"","","","","","image-button-response","40","398487","0.0-10.0-1.0-0.5","C55DBD61D6B84AC885B5E01AE5FF6CC0","C55DBD61D6B84AC885B5E01AE5FF6CC0","cda894b2-8690-43f3-ad08-fb92ee0b3fa1","051c06f1-75cc-4548-856d-4923ddaba0dc","{""num_scrambled_semantic"":""8"",""num_scrambled_causal"":""4"",""num_scrambled_schematic"":""4"",""participantId"":""C55DBD61D6B84AC885B5E01AE5FF6CC0"",""assignmentId"":""cda894b2-8690-43f3-ad08-fb92ee0b3fa1"",""projectId"":""051c06f1-75cc-4548-856d-4923ddaba0dc""}","https://test12345.live/?num_scrambled_semantic=8&num_scrambled_causal=4&num_scrambled_schematic=4&participantId=C55DBD61D6B84AC885B5E01AE5FF6CC0&assignmentId=cda894b2-8690-43f3-ad08-fb92ee0b3fa1&projectId=051c06f1-75cc-4548-856d-4923ddaba0dc","C55DBD61D6B84AC885B5E01AE5FF6CC0-2025-05-15-19-31-57","","null","","images/semantic_sequence/exploring_nature_semantic/exploring_nature_semantic_9.png","null","",""
"","","","","","image-button-response","41","399672","0.0-10.0-1.0-1.5","C55DBD61D6B84AC885B5E01AE5FF6CC0","C55DBD61D6B84AC885B5E01AE5FF6CC0","cda894b2-8690-43f3-ad08-fb92ee0b3fa1","051c06f1-75cc-4548-856d-4923ddaba0dc","{""num_scrambled_semantic"":""8"",""num_scrambled_causal"":""4"",""num_scrambled_schematic"":""4"",""participantId"":""C55DBD61D6B84AC885B5E01AE5FF6CC0"",""assignmentId"":""cda894b2-8690-43f3-ad08-fb92ee0b3fa1"",""projectId"":""051c06f1-75cc-4548-856d-4923ddaba0dc""}","https://test12345.live/?num_scrambled_semantic=8&num_scrambled_causal=4&num_scrambled_schematic=4&participantId=C55DBD61D6B84AC885B5E01AE5FF6CC0&assignmentId=cda894b2-8690-43f3-ad08-fb92ee0b3fa1&projectId=051c06f1-75cc-4548-856d-4923ddaba0dc","C55DBD61D6B84AC885B5E01AE5FF6CC0-2025-05-15-19-31-57","","1182","","images/semantic_sequence/exploring_nature_semantic/exploring_nature_semantic_9.png","0","",""
"","","","","","image-button-response","42","401475","0.0-10.0-1.0-2.5","C55DBD61D6B84AC885B5E01AE5FF6CC0","C55DBD61D6B84AC885B5E01AE5FF6CC0","cda894b2-8690-43f3-ad08-fb92ee0b3fa1","051c06f1-75cc-4548-856d-4923ddaba0dc","{""num_scrambled_semantic"":""8"",""num_scrambled_causal"":""4"",""num_scrambled_schematic"":""4"",""participantId"":""C55DBD61D6B84AC885B5E01AE5FF6CC0"",""assignmentId"":""cda894b2-8690-43f3-ad08-fb92ee0b3fa1"",""projectId"":""051c06f1-75cc-4548-856d-4923ddaba0dc""}","https://test12345.live/?num_scrambled_semantic=8&num_scrambled_causal=4&num_scrambled_schematic=4&participantId=C55DBD61D6B84AC885B5E01AE5FF6CC0&assignmentId=cda894b2-8690-43f3-ad08-fb92ee0b3fa1&projectId=051c06f1-75cc-4548-856d-4923ddaba0dc","C55DBD61D6B84AC885B5E01AE5FF6CC0-2025-05-15-19-31-57","","null","","[]","null","",""
"","","","","","image-button-response","43","405991","0.0-10.0-1.0-0.6","C55DBD61D6B84AC885B5E01AE5FF6CC0","C55DBD61D6B84AC885B5E01AE5FF6CC0","cda894b2-8690-43f3-ad08-fb92ee0b3fa1","051c06f1-75cc-4548-856d-4923ddaba0dc","{""num_scrambled_semantic"":""8"",""num_scrambled_causal"":""4"",""num_scrambled_schematic"":""4"",""participantId"":""C55DBD61D6B84AC885B5E01AE5FF6CC0"",""assignmentId"":""cda894b2-8690-43f3-ad08-fb92ee0b3fa1"",""projectId"":""051c06f1-75cc-4548-856d-4923ddaba0dc""}","https://test12345.live/?num_scrambled_semantic=8&num_scrambled_causal=4&num_scrambled_schematic=4&participantId=C55DBD61D6B84AC885B5E01AE5FF6CC0&assignmentId=cda894b2-8690-43f3-ad08-fb92ee0b3fa1&projectId=051c06f1-75cc-4548-856d-4923ddaba0dc","C55DBD61D6B84AC885B5E01AE5FF6CC0-2025-05-15-19-31-57","","null","","images/semantic_sequence/exploring_nature_semantic/exploring_nature_semantic_8.png","null","",""
"","","","","","image-button-response","44","407410","0.0-10.0-1.0-1.6","C55DBD61D6B84AC885B5E01AE5FF6CC0","C55DBD61D6B84AC885B5E01AE5FF6CC0","cda894b2-8690-43f3-ad08-fb92ee0b3fa1","051c06f1-75cc-4548-856d-4923ddaba0dc","{""num_scrambled_semantic"":""8"",""num_scrambled_causal"":""4"",""num_scrambled_schematic"":""4"",""participantId"":""C55DBD61D6B84AC885B5E01AE5FF6CC0"",""assignmentId"":""cda894b2-8690-43f3-ad08-fb92ee0b3fa1"",""projectId"":""051c06f1-75cc-4548-856d-4923ddaba0dc""}","https://test12345.live/?num_scrambled_semantic=8&num_scrambled_causal=4&num_scrambled_schematic=4&participantId=C55DBD61D6B84AC885B5E01AE5FF6CC0&assignmentId=cda894b2-8690-43f3-ad08-fb92ee0b3fa1&projectId=051c06f1-75cc-4548-856d-4923ddaba0dc","C55DBD61D6B84AC885B5E01AE5FF6CC0-2025-05-15-19-31-57","","1415","","images/semantic_sequence/exploring_nature_semantic/exploring_nature_semantic_8.png","0","",""
"","","","","","image-button-response","45","409219","0.0-10.0-1.0-2.6","C55DBD61D6B84AC885B5E01AE5FF6CC0","C55DBD61D6B84AC885B5E01AE5FF6CC0","cda894b2-8690-43f3-ad08-fb92ee0b3fa1","051c06f1-75cc-4548-856d-4923ddaba0dc","{""num_scrambled_semantic"":""8"",""num_scrambled_causal"":""4"",""num_scrambled_schematic"":""4"",""participantId"":""C55DBD61D6B84AC885B5E01AE5FF6CC0"",""assignmentId"":""cda894b2-8690-43f3-ad08-fb92ee0b3fa1"",""projectId"":""051c06f1-75cc-4548-856d-4923ddaba0dc""}","https://test12345.live/?num_scrambled_semantic=8&num_scrambled_causal=4&num_scrambled_schematic=4&participantId=C55DBD61D6B84AC885B5E01AE5FF6CC0&assignmentId=cda894b2-8690-43f3-ad08-fb92ee0b3fa1&projectId=051c06f1-75cc-4548-856d-4923ddaba0dc","C55DBD61D6B84AC885B5E01AE5FF6CC0-2025-05-15-19-31-57","","null","","[]","null","",""
"","","","","","image-button-response","46","413729","0.0-10.0-1.0-0.7","C55DBD61D6B84AC885B5E01AE5FF6CC0","C55DBD61D6B84AC885B5E01AE5FF6CC0","cda894b2-8690-43f3-ad08-fb92ee0b3fa1","051c06f1-75cc-4548-856d-4923ddaba0dc","{""num_scrambled_semantic"":""8"",""num_scrambled_causal"":""4"",""num_scrambled_schematic"":""4"",""participantId"":""C55DBD61D6B84AC885B5E01AE5FF6CC0"",""assignmentId"":""cda894b2-8690-43f3-ad08-fb92ee0b3fa1"",""projectId"":""051c06f1-75cc-4548-856d-4923ddaba0dc""}","https://test12345.live/?num_scrambled_semantic=8&num_scrambled_causal=4&num_scrambled_schematic=4&participantId=C55DBD61D6B84AC885B5E01AE5FF6CC0&assignmentId=cda894b2-8690-43f3-ad08-fb92ee0b3fa1&projectId=051c06f1-75cc-4548-856d-4923ddaba0dc","C55DBD61D6B84AC885B5E01AE5FF6CC0-2025-05-15-19-31-57","","null","","images/semantic_sequence/exploring_nature_semantic/exploring_nature_semantic_7.png","null","",""
"","","","","","image-button-response","47","415015","0.0-10.0-1.0-1.7","C55DBD61D6B84AC885B5E01AE5FF6CC0","C55DBD61D6B84AC885B5E01AE5FF6CC0","cda894b2-8690-43f3-ad08-fb92ee0b3fa1","051c06f1-75cc-4548-856d-4923ddaba0dc","{""num_scrambled_semantic"":""8"",""num_scrambled_causal"":""4"",""num_scrambled_schematic"":""4"",""participantId"":""C55DBD61D6B84AC885B5E01AE5FF6CC0"",""assignmentId"":""cda894b2-8690-43f3-ad08-fb92ee0b3fa1"",""projectId"":""051c06f1-75cc-4548-856d-4923ddaba0dc""}","https://test12345.live/?num_scrambled_semantic=8&num_scrambled_causal=4&num_scrambled_schematic=4&participantId=C55DBD61D6B84AC885B5E01AE5FF6CC0&assignmentId=cda894b2-8690-43f3-ad08-fb92ee0b3fa1&projectId=051c06f1-75cc-4548-856d-4923ddaba0dc","C55DBD61D6B84AC885B5E01AE5FF6CC0-2025-05-15-19-31-57","","1282","","images/semantic_sequence/exploring_nature_semantic/exploring_nature_semantic_7.png","0","",""
"","","","","","image-button-response","48","416820","0.0-10.0-1.0-2.7","C55DBD61D6B84AC885B5E01AE5FF6CC0","C55DBD61D6B84AC885B5E01AE5FF6CC0","cda894b2-8690-43f3-ad08-fb92ee0b3fa1","051c06f1-75cc-4548-856d-4923ddaba0dc","{""num_scrambled_semantic"":""8"",""num_scrambled_causal"":""4"",""num_scrambled_schematic"":""4"",""participantId"":""C55DBD61D6B84AC885B5E01AE5FF6CC0"",""assignmentId"":""cda894b2-8690-43f3-ad08-fb92ee0b3fa1"",""projectId"":""051c06f1-75cc-4548-856d-4923ddaba0dc""}","https://test12345.live/?num_scrambled_semantic=8&num_scrambled_causal=4&num_scrambled_schematic=4&participantId=C55DBD61D6B84AC885B5E01AE5FF6CC0&assignmentId=cda894b2-8690-43f3-ad08-fb92ee0b3fa1&projectId=051c06f1-75cc-4548-856d-4923ddaba0dc","C55DBD61D6B84AC885B5E01AE5FF6CC0-2025-05-15-19-31-57","","null","","[]","null","",""
"","","","","","image-button-response","49","421338","0.0-10.0-1.0-0.8","C55DBD61D6B84AC885B5E01AE5FF6CC0","C55DBD61D6B84AC885B5E01AE5FF6CC0","cda894b2-8690-43f3-ad08-fb92ee0b3fa1","051c06f1-75cc-4548-856d-4923ddaba0dc","{""num_scrambled_semantic"":""8"",""num_scrambled_causal"":""4"",""num_scrambled_schematic"":""4"",""participantId"":""C55DBD61D6B84AC885B5E01AE5FF6CC0"",""assignmentId"":""cda894b2-8690-43f3-ad08-fb92ee0b3fa1"",""projectId"":""051c06f1-75cc-4548-856d-4923ddaba0dc""}","https://test12345.live/?num_scrambled_semantic=8&num_scrambled_causal=4&num_scrambled_schematic=4&participantId=C55DBD61D6B84AC885B5E01AE5FF6CC0&assignmentId=cda894b2-8690-43f3-ad08-fb92ee0b3fa1&projectId=051c06f1-75cc-4548-856d-4923ddaba0dc","C55DBD61D6B84AC885B5E01AE5FF6CC0-2025-05-15-19-31-57","","null","","images/semantic_sequence/exploring_nature_semantic/exploring_nature_semantic_4.png","null","",""
"","","","","","image-button-response","50","422768","0.0-10.0-1.0-1.8","C55DBD61D6B84AC885B5E01AE5FF6CC0","C55DBD61D6B84AC885B5E01AE5FF6CC0","cda894b2-8690-43f3-ad08-fb92ee0b3fa1","051c06f1-75cc-4548-856d-4923ddaba0dc","{""num_scrambled_semantic"":""8"",""num_scrambled_causal"":""4"",""num_scrambled_schematic"":""4"",""participantId"":""C55DBD61D6B84AC885B5E01AE5FF6CC0"",""assignmentId"":""cda894b2-8690-43f3-ad08-fb92ee0b3fa1"",""projectId"":""051c06f1-75cc-4548-856d-4923ddaba0dc""}","https://test12345.live/?num_scrambled_semantic=8&num_scrambled_causal=4&num_scrambled_schematic=4&participantId=C55DBD61D6B84AC885B5E01AE5FF6CC0&assignmentId=cda894b2-8690-43f3-ad08-fb92ee0b3fa1&projectId=051c06f1-75cc-4548-856d-4923ddaba0dc","C55DBD61D6B84AC885B5E01AE5FF6CC0-2025-05-15-19-31-57","","1427","","images/semantic_sequence/exploring_nature_semantic/exploring_nature_semantic_4.png","0","",""
"","","","","","image-button-response","51","424578","0.0-10.0-1.0-2.8","C55DBD61D6B84AC885B5E01AE5FF6CC0","C55DBD61D6B84AC885B5E01AE5FF6CC0","cda894b2-8690-43f3-ad08-fb92ee0b3fa1","051c06f1-75cc-4548-856d-4923ddaba0dc","{""num_scrambled_semantic"":""8"",""num_scrambled_causal"":""4"",""num_scrambled_schematic"":""4"",""participantId"":""C55DBD61D6B84AC885B5E01AE5FF6CC0"",""assignmentId"":""cda894b2-8690-43f3-ad08-fb92ee0b3fa1"",""projectId"":""051c06f1-75cc-4548-856d-4923ddaba0dc""}","https://test12345.live/?num_scrambled_semantic=8&num_scrambled_causal=4&num_scrambled_schematic=4&participantId=C55DBD61D6B84AC885B5E01AE5FF6CC0&assignmentId=cda894b2-8690-43f3-ad08-fb92ee0b3fa1&projectId=051c06f1-75cc-4548-856d-4923ddaba0dc","C55DBD61D6B84AC885B5E01AE5FF6CC0-2025-05-15-19-31-57","","null","","[]","null","",""
"","","","","","image-button-response","52","429085","0.0-10.0-1.0-0.9","C55DBD61D6B84AC885B5E01AE5FF6CC0","C55DBD61D6B84AC885B5E01AE5FF6CC0","cda894b2-8690-43f3-ad08-fb92ee0b3fa1","051c06f1-75cc-4548-856d-4923ddaba0dc","{""num_scrambled_semantic"":""8"",""num_scrambled_causal"":""4"",""num_scrambled_schematic"":""4"",""participantId"":""C55DBD61D6B84AC885B5E01AE5FF6CC0"",""assignmentId"":""cda894b2-8690-43f3-ad08-fb92ee0b3fa1"",""projectId"":""051c06f1-75cc-4548-856d-4923ddaba0dc""}","https://test12345.live/?num_scrambled_semantic=8&num_scrambled_causal=4&num_scrambled_schematic=4&participantId=C55DBD61D6B84AC885B5E01AE5FF6CC0&assignmentId=cda894b2-8690-43f3-ad08-fb92ee0b3fa1&projectId=051c06f1-75cc-4548-856d-4923ddaba0dc","C55DBD61D6B84AC885B5E01AE5FF6CC0-2025-05-15-19-31-57","","null","","images/semantic_sequence/exploring_nature_semantic/exploring_nature_semantic_3.png","null","",""
"","","","","","image-button-response","53","430808","0.0-10.0-1.0-1.9","C55DBD61D6B84AC885B5E01AE5FF6CC0","C55DBD61D6B84AC885B5E01AE5FF6CC0","cda894b2-8690-43f3-ad08-fb92ee0b3fa1","051c06f1-75cc-4548-856d-4923ddaba0dc","{""num_scrambled_semantic"":""8"",""num_scrambled_causal"":""4"",""num_scrambled_schematic"":""4"",""participantId"":""C55DBD61D6B84AC885B5E01AE5FF6CC0"",""assignmentId"":""cda894b2-8690-43f3-ad08-fb92ee0b3fa1"",""projectId"":""051c06f1-75cc-4548-856d-4923ddaba0dc""}","https://test12345.live/?num_scrambled_semantic=8&num_scrambled_causal=4&num_scrambled_schematic=4&participantId=C55DBD61D6B84AC885B5E01AE5FF6CC0&assignmentId=cda894b2-8690-43f3-ad08-fb92ee0b3fa1&projectId=051c06f1-75cc-4548-856d-4923ddaba0dc","C55DBD61D6B84AC885B5E01AE5FF6CC0-2025-05-15-19-31-57","","1721","","images/semantic_sequence/exploring_nature_semantic/exploring_nature_semantic_3.png","0","",""
"","","","","","image-button-response","54","432619","0.0-10.0-1.0-2.9","C55DBD61D6B84AC885B5E01AE5FF6CC0","C55DBD61D6B84AC885B5E01AE5FF6CC0","cda894b2-8690-43f3-ad08-fb92ee0b3fa1","051c06f1-75cc-4548-856d-4923ddaba0dc","{""num_scrambled_semantic"":""8"",""num_scrambled_causal"":""4"",""num_scrambled_schematic"":""4"",""participantId"":""C55DBD61D6B84AC885B5E01AE5FF6CC0"",""assignmentId"":""cda894b2-8690-43f3-ad08-fb92ee0b3fa1"",""projectId"":""051c06f1-75cc-4548-856d-4923ddaba0dc""}","https://test12345.live/?num_scrambled_semantic=8&num_scrambled_causal=4&num_scrambled_schematic=4&participantId=C55DBD61D6B84AC885B5E01AE5FF6CC0&assignmentId=cda894b2-8690-43f3-ad08-fb92ee0b3fa1&projectId=051c06f1-75cc-4548-856d-4923ddaba0dc","C55DBD61D6B84AC885B5E01AE5FF6CC0-2025-05-15-19-31-57","","null","","[]","null","",""
"","","","","","html-audio-response","55","555188","0.0-11.0","C55DBD61D6B84AC885B5E01AE5FF6CC0","C55DBD61D6B84AC885B5E01AE5FF6CC0","cda894b2-8690-43f3-ad08-fb92ee0b3fa1","051c06f1-75cc-4548-856d-4923ddaba0dc","{""num_scrambled_semantic"":""8"",""num_scrambled_causal"":""4"",""num_scrambled_schematic"":""4"",""participantId"":""C55DBD61D6B84AC885B5E01AE5FF6CC0"",""assignmentId"":""cda894b2-8690-43f3-ad08-fb92ee0b3fa1"",""projectId"":""051c06f1-75cc-4548-856d-4923ddaba0dc""}","https://test12345.live/?num_scrambled_semantic=8&num_scrambled_causal=4&num_scrambled_schematic=4&participantId=C55DBD61D6B84AC885B5E01AE5FF6CC0&assignmentId=cda894b2-8690-43f3-ad08-fb92ee0b3fa1&projectId=051c06f1-75cc-4548-856d-4923ddaba0dc","C55DBD61D6B84AC885B5E01AE5FF6CC0-2025-05-15-19-31-57","","46101","","[""<span style=\""color: red; font-size: 24px\""> NOW RECORDING</span><p>Please say out loud all the images you saw, as many as you can remember. The images can be said in any order.</p>""]","","2","exploring_nature_semantic"
"","","","","","image-button-response","56","561219","0.0-12.0-0.0","C55DBD61D6B84AC885B5E01AE5FF6CC0","C55DBD61D6B84AC885B5E01AE5FF6CC0","cda894b2-8690-43f3-ad08-fb92ee0b3fa1","051c06f1-75cc-4548-856d-4923ddaba0dc","{""num_scrambled_semantic"":""8"",""num_scrambled_causal"":""4"",""num_scrambled_schematic"":""4"",""participantId"":""C55DBD61D6B84AC885B5E01AE5FF6CC0"",""assignmentId"":""cda894b2-8690-43f3-ad08-fb92ee0b3fa1"",""projectId"":""051c06f1-75cc-4548-856d-4923ddaba0dc""}","https://test12345.live/?num_scrambled_semantic=8&num_scrambled_causal=4&num_scrambled_schematic=4&participantId=C55DBD61D6B84AC885B5E01AE5FF6CC0&assignmentId=cda894b2-8690-43f3-ad08-fb92ee0b3fa1&projectId=051c06f1-75cc-4548-856d-4923ddaba0dc","C55DBD61D6B84AC885B5E01AE5FF6CC0-2025-05-15-19-31-57","","null","","images/semantic_sequence/self_care_activities_semantic/self_care_activities_semantic_0.png","null","",""
"","","","","","image-button-response","57","565736","0.0-12.0-1.0-0.0","C55DBD61D6B84AC885B5E01AE5FF6CC0","C55DBD61D6B84AC885B5E01AE5FF6CC0","cda894b2-8690-43f3-ad08-fb92ee0b3fa1","051c06f1-75cc-4548-856d-4923ddaba0dc","{""num_scrambled_semantic"":""8"",""num_scrambled_causal"":""4"",""num_scrambled_schematic"":""4"",""participantId"":""C55DBD61D6B84AC885B5E01AE5FF6CC0"",""assignmentId"":""cda894b2-8690-43f3-ad08-fb92ee0b3fa1"",""projectId"":""051c06f1-75cc-4548-856d-4923ddaba0dc""}","https://test12345.live/?num_scrambled_semantic=8&num_scrambled_causal=4&num_scrambled_schematic=4&participantId=C55DBD61D6B84AC885B5E01AE5FF6CC0&assignmentId=cda894b2-8690-43f3-ad08-fb92ee0b3fa1&projectId=051c06f1-75cc-4548-856d-4923ddaba0dc","C55DBD61D6B84AC885B5E01AE5FF6CC0-2025-05-15-19-31-57","","null","","images/semantic_sequence/self_care_activities_semantic/self_care_activities_semantic_2.png","null","",""
"","","","","","image-button-response","58","567995","0.0-12.0-1.0-1.0","C55DBD61D6B84AC885B5E01AE5FF6CC0","C55DBD61D6B84AC885B5E01AE5FF6CC0","cda894b2-8690-43f3-ad08-fb92ee0b3fa1","051c06f1-75cc-4548-856d-4923ddaba0dc","{""num_scrambled_semantic"":""8"",""num_scrambled_causal"":""4"",""num_scrambled_schematic"":""4"",""participantId"":""C55DBD61D6B84AC885B5E01AE5FF6CC0"",""assignmentId"":""cda894b2-8690-43f3-ad08-fb92ee0b3fa1"",""projectId"":""051c06f1-75cc-4548-856d-4923ddaba0dc""}","https://test12345.live/?num_scrambled_semantic=8&num_scrambled_causal=4&num_scrambled_schematic=4&participantId=C55DBD61D6B84AC885B5E01AE5FF6CC0&assignmentId=cda894b2-8690-43f3-ad08-fb92ee0b3fa1&projectId=051c06f1-75cc-4548-856d-4923ddaba0dc","C55DBD61D6B84AC885B5E01AE5FF6CC0-2025-05-15-19-31-57","","2256","","images/semantic_sequence/self_care_activities_semantic/self_care_activities_semantic_2.png","0","",""
"","","","","","image-button-response","59","569812","0.0-12.0-1.0-2.0","C55DBD61D6B84AC885B5E01AE5FF6CC0","C55DBD61D6B84AC885B5E01AE5FF6CC0","cda894b2-8690-43f3-ad08-fb92ee0b3fa1","051c06f1-75cc-4548-856d-4923ddaba0dc","{""num_scrambled_semantic"":""8"",""num_scrambled_causal"":""4"",""num_scrambled_schematic"":""4"",""participantId"":""C55DBD61D6B84AC885B5E01AE5FF6CC0"",""assignmentId"":""cda894b2-8690-43f3-ad08-fb92ee0b3fa1"",""projectId"":""051c06f1-75cc-4548-856d-4923ddaba0dc""}","https://test12345.live/?num_scrambled_semantic=8&num_scrambled_causal=4&num_scrambled_schematic=4&participantId=C55DBD61D6B84AC885B5E01AE5FF6CC0&assignmentId=cda894b2-8690-43f3-ad08-fb92ee0b3fa1&projectId=051c06f1-75cc-4548-856d-4923ddaba0dc","C55DBD61D6B84AC885B5E01AE5FF6CC0-2025-05-15-19-31-57","","null","","[]","null","",""
"","","","","","image-button-response","60","574319","0.0-12.0-1.0-0.1","C55DBD61D6B84AC885B5E01AE5FF6CC0","C55DBD61D6B84AC885B5E01AE5FF6CC0","cda894b2-8690-43f3-ad08-fb92ee0b3fa1","051c06f1-75cc-4548-856d-4923ddaba0dc","{""num_scrambled_semantic"":""8"",""num_scrambled_causal"":""4"",""num_scrambled_schematic"":""4"",""participantId"":""C55DBD61D6B84AC885B5E01AE5FF6CC0"",""assignmentId"":""cda894b2-8690-43f3-ad08-fb92ee0b3fa1"",""projectId"":""051c06f1-75cc-4548-856d-4923ddaba0dc""}","https://test12345.live/?num_scrambled_semantic=8&num_scrambled_causal=4&num_scrambled_schematic=4&participantId=C55DBD61D6B84AC885B5E01AE5FF6CC0&assignmentId=cda894b2-8690-43f3-ad08-fb92ee0b3fa1&projectId=051c06f1-75cc-4548-856d-4923ddaba0dc","C55DBD61D6B84AC885B5E01AE5FF6CC0-2025-05-15-19-31-57","","null","","images/semantic_sequence/self_care_activities_semantic/self_care_activities_semantic_5.png","null","",""
"","","","","","image-button-response","61","575507","0.0-12.0-1.0-1.1","C55DBD61D6B84AC885B5E01AE5FF6CC0","C55DBD61D6B84AC885B5E01AE5FF6CC0","cda894b2-8690-43f3-ad08-fb92ee0b3fa1","051c06f1-75cc-4548-856d-4923ddaba0dc","{""num_scrambled_semantic"":""8"",""num_scrambled_causal"":""4"",""num_scrambled_schematic"":""4"",""participantId"":""C55DBD61D6B84AC885B5E01AE5FF6CC0"",""assignmentId"":""cda894b2-8690-43f3-ad08-fb92ee0b3fa1"",""projectId"":""051c06f1-75cc-4548-856d-4923ddaba0dc""}","https://test12345.live/?num_scrambled_semantic=8&num_scrambled_causal=4&num_scrambled_schematic=4&participantId=C55DBD61D6B84AC885B5E01AE5FF6CC0&assignmentId=cda894b2-8690-43f3-ad08-fb92ee0b3fa1&projectId=051c06f1-75cc-4548-856d-4923ddaba0dc","C55DBD61D6B84AC885B5E01AE5FF6CC0-2025-05-15-19-31-57","","1184","","images/semantic_sequence/self_care_activities_semantic/self_care_activities_semantic_5.png","0","",""
"","","","","","image-button-response","62","577318","0.0-12.0-1.0-2.1","C55DBD61D6B84AC885B5E01AE5FF6CC0","C55DBD61D6B84AC885B5E01AE5FF6CC0","cda894b2-8690-43f3-ad08-fb92ee0b3fa1","051c06f1-75cc-4548-856d-4923ddaba0dc","{""num_scrambled_semantic"":""8"",""num_scrambled_causal"":""4"",""num_scrambled_schematic"":""4"",""participantId"":""C55DBD61D6B84AC885B5E01AE5FF6CC0"",""assignmentId"":""cda894b2-8690-43f3-ad08-fb92ee0b3fa1"",""projectId"":""051c06f1-75cc-4548-856d-4923ddaba0dc""}","https://test12345.live/?num_scrambled_semantic=8&num_scrambled_causal=4&num_scrambled_schematic=4&participantId=C55DBD61D6B84AC885B5E01AE5FF6CC0&assignmentId=cda894b2-8690-43f3-ad08-fb92ee0b3fa1&projectId=051c06f1-75cc-4548-856d-4923ddaba0dc","C55DBD61D6B84AC885B5E01AE5FF6CC0-2025-05-15-19-31-57","","null","","[]","null","",""
"","","","","","image-button-response","63","581830","0.0-12.0-1.0-0.2","C55DBD61D6B84AC885B5E01AE5FF6CC0","C55DBD61D6B84AC885B5E01AE5FF6CC0","cda894b2-8690-43f3-ad08-fb92ee0b3fa1","051c06f1-75cc-4548-856d-4923ddaba0dc","{""num_scrambled_semantic"":""8"",""num_scrambled_causal"":""4"",""num_scrambled_schematic"":""4"",""participantId"":""C55DBD61D6B84AC885B5E01AE5FF6CC0"",""assignmentId"":""cda894b2-8690-43f3-ad08-fb92ee0b3fa1"",""projectId"":""051c06f1-75cc-4548-856d-4923ddaba0dc""}","https://test12345.live/?num_scrambled_semantic=8&num_scrambled_causal=4&num_scrambled_schematic=4&participantId=C55DBD61D6B84AC885B5E01AE5FF6CC0&assignmentId=cda894b2-8690-43f3-ad08-fb92ee0b3fa1&projectId=051c06f1-75cc-4548-856d-4923ddaba0dc","C55DBD61D6B84AC885B5E01AE5FF6CC0-2025-05-15-19-31-57","","null","","images/semantic_sequence/self_care_activities_semantic/self_care_activities_semantic_9.png","null","",""
"","","","","","image-button-response","64","583047","0.0-12.0-1.0-1.2","C55DBD61D6B84AC885B5E01AE5FF6CC0","C55DBD61D6B84AC885B5E01AE5FF6CC0","cda894b2-8690-43f3-ad08-fb92ee0b3fa1","051c06f1-75cc-4548-856d-4923ddaba0dc","{""num_scrambled_semantic"":""8"",""num_scrambled_causal"":""4"",""num_scrambled_schematic"":""4"",""participantId"":""C55DBD61D6B84AC885B5E01AE5FF6CC0"",""assignmentId"":""cda894b2-8690-43f3-ad08-fb92ee0b3fa1"",""projectId"":""051c06f1-75cc-4548-856d-4923ddaba0dc""}","https://test12345.live/?num_scrambled_semantic=8&num_scrambled_causal=4&num_scrambled_schematic=4&participantId=C55DBD61D6B84AC885B5E01AE5FF6CC0&assignmentId=cda894b2-8690-43f3-ad08-fb92ee0b3fa1&projectId=051c06f1-75cc-4548-856d-4923ddaba0dc","C55DBD61D6B84AC885B5E01AE5FF6CC0-2025-05-15-19-31-57","","1215","","images/semantic_sequence/self_care_activities_semantic/self_care_activities_semantic_9.png","0","",""
"","","","","","image-button-response","65","584865","0.0-12.0-1.0-2.2","C55DBD61D6B84AC885B5E01AE5FF6CC0","C55DBD61D6B84AC885B5E01AE5FF6CC0","cda894b2-8690-43f3-ad08-fb92ee0b3fa1","051c06f1-75cc-4548-856d-4923ddaba0dc","{""num_scrambled_semantic"":""8"",""num_scrambled_causal"":""4"",""num_scrambled_schematic"":""4"",""participantId"":""C55DBD61D6B84AC885B5E01AE5FF6CC0"",""assignmentId"":""cda894b2-8690-43f3-ad08-fb92ee0b3fa1"",""projectId"":""051c06f1-75cc-4548-856d-4923ddaba0dc""}","https://test12345.live/?num_scrambled_semantic=8&num_scrambled_causal=4&num_scrambled_schematic=4&participantId=C55DBD61D6B84AC885B5E01AE5FF6CC0&assignmentId=cda894b2-8690-43f3-ad08-fb92ee0b3fa1&projectId=051c06f1-75cc-4548-856d-4923ddaba0dc","C55DBD61D6B84AC885B5E01AE5FF6CC0-2025-05-15-19-31-57","","null","","[]","null","",""
"","","","","","image-button-response","66","589377","0.0-12.0-1.0-0.3","C55DBD61D6B84AC885B5E01AE5FF6CC0","C55DBD61D6B84AC885B5E01AE5FF6CC0","cda894b2-8690-43f3-ad08-fb92ee0b3fa1","051c06f1-75cc-4548-856d-4923ddaba0dc","{""num_scrambled_semantic"":""8"",""num_scrambled_causal"":""4"",""num_scrambled_schematic"":""4"",""participantId"":""C55DBD61D6B84AC885B5E01AE5FF6CC0"",""assignmentId"":""cda894b2-8690-43f3-ad08-fb92ee0b3fa1"",""projectId"":""051c06f1-75cc-4548-856d-4923ddaba0dc""}","https://test12345.live/?num_scrambled_semantic=8&num_scrambled_causal=4&num_scrambled_schematic=4&participantId=C55DBD61D6B84AC885B5E01AE5FF6CC0&assignmentId=cda894b2-8690-43f3-ad08-fb92ee0b3fa1&projectId=051c06f1-75cc-4548-856d-4923ddaba0dc","C55DBD61D6B84AC885B5E01AE5FF6CC0-2025-05-15-19-31-57","","null","","images/semantic_sequence/self_care_activities_semantic/self_care_activities_semantic_ten.png","null","",""
"","","","","","image-button-response","67","590561","0.0-12.0-1.0-1.3","C55DBD61D6B84AC885B5E01AE5FF6CC0","C55DBD61D6B84AC885B5E01AE5FF6CC0","cda894b2-8690-43f3-ad08-fb92ee0b3fa1","051c06f1-75cc-4548-856d-4923ddaba0dc","{""num_scrambled_semantic"":""8"",""num_scrambled_causal"":""4"",""num_scrambled_schematic"":""4"",""participantId"":""C55DBD61D6B84AC885B5E01AE5FF6CC0"",""assignmentId"":""cda894b2-8690-43f3-ad08-fb92ee0b3fa1"",""projectId"":""051c06f1-75cc-4548-856d-4923ddaba0dc""}","https://test12345.live/?num_scrambled_semantic=8&num_scrambled_causal=4&num_scrambled_schematic=4&participantId=C55DBD61D6B84AC885B5E01AE5FF6CC0&assignmentId=cda894b2-8690-43f3-ad08-fb92ee0b3fa1&projectId=051c06f1-75cc-4548-856d-4923ddaba0dc","C55DBD61D6B84AC885B5E01AE5FF6CC0-2025-05-15-19-31-57","","1181","","images/semantic_sequence/self_care_activities_semantic/self_care_activities_semantic_ten.png","0","",""
"","","","","","image-button-response","68","592376","0.0-12.0-1.0-2.3","C55DBD61D6B84AC885B5E01AE5FF6CC0","C55DBD61D6B84AC885B5E01AE5FF6CC0","cda894b2-8690-43f3-ad08-fb92ee0b3fa1","051c06f1-75cc-4548-856d-4923ddaba0dc","{""num_scrambled_semantic"":""8"",""num_scrambled_causal"":""4"",""num_scrambled_schematic"":""4"",""participantId"":""C55DBD61D6B84AC885B5E01AE5FF6CC0"",""assignmentId"":""cda894b2-8690-43f3-ad08-fb92ee0b3fa1"",""projectId"":""051c06f1-75cc-4548-856d-4923ddaba0dc""}","https://test12345.live/?num_scrambled_semantic=8&num_scrambled_causal=4&num_scrambled_schematic=4&participantId=C55DBD61D6B84AC885B5E01AE5FF6CC0&assignmentId=cda894b2-8690-43f3-ad08-fb92ee0b3fa1&projectId=051c06f1-75cc-4548-856d-4923ddaba0dc","C55DBD61D6B84AC885B5E01AE5FF6CC0-2025-05-15-19-31-57","","null","","[]","null","",""
"","","","","","image-button-response","69","596886","0.0-12.0-1.0-0.4","C55DBD61D6B84AC885B5E01AE5FF6CC0","C55DBD61D6B84AC885B5E01AE5FF6CC0","cda894b2-8690-43f3-ad08-fb92ee0b3fa1","051c06f1-75cc-4548-856d-4923ddaba0dc","{""num_scrambled_semantic"":""8"",""num_scrambled_causal"":""4"",""num_scrambled_schematic"":""4"",""participantId"":""C55DBD61D6B84AC885B5E01AE5FF6CC0"",""assignmentId"":""cda894b2-8690-43f3-ad08-fb92ee0b3fa1"",""projectId"":""051c06f1-75cc-4548-856d-4923ddaba0dc""}","https://test12345.live/?num_scrambled_semantic=8&num_scrambled_causal=4&num_scrambled_schematic=4&participantId=C55DBD61D6B84AC885B5E01AE5FF6CC0&assignmentId=cda894b2-8690-43f3-ad08-fb92ee0b3fa1&projectId=051c06f1-75cc-4548-856d-4923ddaba0dc","C55DBD61D6B84AC885B5E01AE5FF6CC0-2025-05-15-19-31-57","","null","","images/semantic_sequence/self_care_activities_semantic/self_care_activities_semantic_7.png","null","",""
"","","","","","image-button-response","70","598350","0.0-12.0-1.0-1.4","C55DBD61D6B84AC885B5E01AE5FF6CC0","C55DBD61D6B84AC885B5E01AE5FF6CC0","cda894b2-8690-43f3-ad08-fb92ee0b3fa1","051c06f1-75cc-4548-856d-4923ddaba0dc","{""num_scrambled_semantic"":""8"",""num_scrambled_causal"":""4"",""num_scrambled_schematic"":""4"",""participantId"":""C55DBD61D6B84AC885B5E01AE5FF6CC0"",""assignmentId"":""cda894b2-8690-43f3-ad08-fb92ee0b3fa1"",""projectId"":""051c06f1-75cc-4548-856d-4923ddaba0dc""}","https://test12345.live/?num_scrambled_semantic=8&num_scrambled_causal=4&num_scrambled_schematic=4&participantId=C55DBD61D6B84AC885B5E01AE5FF6CC0&assignmentId=cda894b2-8690-43f3-ad08-fb92ee0b3fa1&projectId=051c06f1-75cc-4548-856d-4923ddaba0dc","C55DBD61D6B84AC885B5E01AE5FF6CC0-2025-05-15-19-31-57","","1462","","images/semantic_sequence/self_care_activities_semantic/self_care_activities_semantic_7.png","0","",""
"","","","","","image-button-response","71","600158","0.0-12.0-1.0-2.4","C55DBD61D6B84AC885B5E01AE5FF6CC0","C55DBD61D6B84AC885B5E01AE5FF6CC0","cda894b2-8690-43f3-ad08-fb92ee0b3fa1","051c06f1-75cc-4548-856d-4923ddaba0dc","{""num_scrambled_semantic"":""8"",""num_scrambled_causal"":""4"",""num_scrambled_schematic"":""4"",""participantId"":""C55DBD61D6B84AC885B5E01AE5FF6CC0"",""assignmentId"":""cda894b2-8690-43f3-ad08-fb92ee0b3fa1"",""projectId"":""051c06f1-75cc-4548-856d-4923ddaba0dc""}","https://test12345.live/?num_scrambled_semantic=8&num_scrambled_causal=4&num_scrambled_schematic=4&participantId=C55DBD61D6B84AC885B5E01AE5FF6CC0&assignmentId=cda894b2-8690-43f3-ad08-fb92ee0b3fa1&projectId=051c06f1-75cc-4548-856d-4923ddaba0dc","C55DBD61D6B84AC885B5E01AE5FF6CC0-2025-05-15-19-31-57","","null","","[]","null","",""
"","","","","","image-button-response","72","604665","0.0-12.0-1.0-0.5","C55DBD61D6B84AC885B5E01AE5FF6CC0","C55DBD61D6B84AC885B5E01AE5FF6CC0","cda894b2-8690-43f3-ad08-fb92ee0b3fa1","051c06f1-75cc-4548-856d-4923ddaba0dc","{""num_scrambled_semantic"":""8"",""num_scrambled_causal"":""4"",""num_scrambled_schematic"":""4"",""participantId"":""C55DBD61D6B84AC885B5E01AE5FF6CC0"",""assignmentId"":""cda894b2-8690-43f3-ad08-fb92ee0b3fa1"",""projectId"":""051c06f1-75cc-4548-856d-4923ddaba0dc""}","https://test12345.live/?num_scrambled_semantic=8&num_scrambled_causal=4&num_scrambled_schematic=4&participantId=C55DBD61D6B84AC885B5E01AE5FF6CC0&assignmentId=cda894b2-8690-43f3-ad08-fb92ee0b3fa1&projectId=051c06f1-75cc-4548-856d-4923ddaba0dc","C55DBD61D6B84AC885B5E01AE5FF6CC0-2025-05-15-19-31-57","","null","","images/semantic_sequence/self_care_activities_semantic/self_care_activities_semantic_6.png","null","",""
"","","","","","image-button-response","73","606252","0.0-12.0-1.0-1.5","C55DBD61D6B84AC885B5E01AE5FF6CC0","C55DBD61D6B84AC885B5E01AE5FF6CC0","cda894b2-8690-43f3-ad08-fb92ee0b3fa1","051c06f1-75cc-4548-856d-4923ddaba0dc","{""num_scrambled_semantic"":""8"",""num_scrambled_causal"":""4"",""num_scrambled_schematic"":""4"",""participantId"":""C55DBD61D6B84AC885B5E01AE5FF6CC0"",""assignmentId"":""cda894b2-8690-43f3-ad08-fb92ee0b3fa1"",""projectId"":""051c06f1-75cc-4548-856d-4923ddaba0dc""}","https://test12345.live/?num_scrambled_semantic=8&num_scrambled_causal=4&num_scrambled_schematic=4&participantId=C55DBD61D6B84AC885B5E01AE5FF6CC0&assignmentId=cda894b2-8690-43f3-ad08-fb92ee0b3fa1&projectId=051c06f1-75cc-4548-856d-4923ddaba0dc","C55DBD61D6B84AC885B5E01AE5FF6CC0-2025-05-15-19-31-57","","1584","","images/semantic_sequence/self_care_activities_semantic/self_care_activities_semantic_6.png","0","",""
"","","","","","image-button-response","74","608056","0.0-12.0-1.0-2.5","C55DBD61D6B84AC885B5E01AE5FF6CC0","C55DBD61D6B84AC885B5E01AE5FF6CC0","cda894b2-8690-43f3-ad08-fb92ee0b3fa1","051c06f1-75cc-4548-856d-4923ddaba0dc","{""num_scrambled_semantic"":""8"",""num_scrambled_causal"":""4"",""num_scrambled_schematic"":""4"",""participantId"":""C55DBD61D6B84AC885B5E01AE5FF6CC0"",""assignmentId"":""cda894b2-8690-43f3-ad08-fb92ee0b3fa1"",""projectId"":""051c06f1-75cc-4548-856d-4923ddaba0dc""}","https://test12345.live/?num_scrambled_semantic=8&num_scrambled_causal=4&num_scrambled_schematic=4&participantId=C55DBD61D6B84AC885B5E01AE5FF6CC0&assignmentId=cda894b2-8690-43f3-ad08-fb92ee0b3fa1&projectId=051c06f1-75cc-4548-856d-4923ddaba0dc","C55DBD61D6B84AC885B5E01AE5FF6CC0-2025-05-15-19-31-57","","null","","[]","null","",""
"","","","","","image-button-response","75","612569","0.0-12.0-1.0-0.6","C55DBD61D6B84AC885B5E01AE5FF6CC0","C55DBD61D6B84AC885B5E01AE5FF6CC0","cda894b2-8690-43f3-ad08-fb92ee0b3fa1","051c06f1-75cc-4548-856d-4923ddaba0dc","{""num_scrambled_semantic"":""8"",""num_scrambled_causal"":""4"",""num_scrambled_schematic"":""4"",""participantId"":""C55DBD61D6B84AC885B5E01AE5FF6CC0"",""assignmentId"":""cda894b2-8690-43f3-ad08-fb92ee0b3fa1"",""projectId"":""051c06f1-75cc-4548-856d-4923ddaba0dc""}","https://test12345.live/?num_scrambled_semantic=8&num_scrambled_causal=4&num_scrambled_schematic=4&participantId=C55DBD61D6B84AC885B5E01AE5FF6CC0&assignmentId=cda894b2-8690-43f3-ad08-fb92ee0b3fa1&projectId=051c06f1-75cc-4548-856d-4923ddaba0dc","C55DBD61D6B84AC885B5E01AE5FF6CC0-2025-05-15-19-31-57","","null","","images/semantic_sequence/self_care_activities_semantic/self_care_activities_semantic_4.png","null","",""
"","","","","","image-button-response","76","613828","0.0-12.0-1.0-1.6","C55DBD61D6B84AC885B5E01AE5FF6CC0","C55DBD61D6B84AC885B5E01AE5FF6CC0","cda894b2-8690-43f3-ad08-fb92ee0b3fa1","051c06f1-75cc-4548-856d-4923ddaba0dc","{""num_scrambled_semantic"":""8"",""num_scrambled_causal"":""4"",""num_scrambled_schematic"":""4"",""participantId"":""C55DBD61D6B84AC885B5E01AE5FF6CC0"",""assignmentId"":""cda894b2-8690-43f3-ad08-fb92ee0b3fa1"",""projectId"":""051c06f1-75cc-4548-856d-4923ddaba0dc""}","https://test12345.live/?num_scrambled_semantic=8&num_scrambled_causal=4&num_scrambled_schematic=4&participantId=C55DBD61D6B84AC885B5E01AE5FF6CC0&assignmentId=cda894b2-8690-43f3-ad08-fb92ee0b3fa1&projectId=051c06f1-75cc-4548-856d-4923ddaba0dc","C55DBD61D6B84AC885B5E01AE5FF6CC0-2025-05-15-19-31-57","","1255","","images/semantic_sequence/self_care_activities_semantic/self_care_activities_semantic_4.png","0","",""
"","","","","","image-button-response","77","615643","0.0-12.0-1.0-2.6","C55DBD61D6B84AC885B5E01AE5FF6CC0","C55DBD61D6B84AC885B5E01AE5FF6CC0","cda894b2-8690-43f3-ad08-fb92ee0b3fa1","051c06f1-75cc-4548-856d-4923ddaba0dc","{""num_scrambled_semantic"":""8"",""num_scrambled_causal"":""4"",""num_scrambled_schematic"":""4"",""participantId"":""C55DBD61D6B84AC885B5E01AE5FF6CC0"",""assignmentId"":""cda894b2-8690-43f3-ad08-fb92ee0b3fa1"",""projectId"":""051c06f1-75cc-4548-856d-4923ddaba0dc""}","https://test12345.live/?num_scrambled_semantic=8&num_scrambled_causal=4&num_scrambled_schematic=4&participantId=C55DBD61D6B84AC885B5E01AE5FF6CC0&assignmentId=cda894b2-8690-43f3-ad08-fb92ee0b3fa1&projectId=051c06f1-75cc-4548-856d-4923ddaba0dc","C55DBD61D6B84AC885B5E01AE5FF6CC0-2025-05-15-19-31-57","","null","","[]","null","",""
"","","","","","image-button-response","78","620162","0.0-12.0-1.0-0.7","C55DBD61D6B84AC885B5E01AE5FF6CC0","C55DBD61D6B84AC885B5E01AE5FF6CC0","cda894b2-8690-43f3-ad08-fb92ee0b3fa1","051c06f1-75cc-4548-856d-4923ddaba0dc","{""num_scrambled_semantic"":""8"",""num_scrambled_causal"":""4"",""num_scrambled_schematic"":""4"",""participantId"":""C55DBD61D6B84AC885B5E01AE5FF6CC0"",""assignmentId"":""cda894b2-8690-43f3-ad08-fb92ee0b3fa1"",""projectId"":""051c06f1-75cc-4548-856d-4923ddaba0dc""}","https://test12345.live/?num_scrambled_semantic=8&num_scrambled_causal=4&num_scrambled_schematic=4&participantId=C55DBD61D6B84AC885B5E01AE5FF6CC0&assignmentId=cda894b2-8690-43f3-ad08-fb92ee0b3fa1&projectId=051c06f1-75cc-4548-856d-4923ddaba0dc","C55DBD61D6B84AC885B5E01AE5FF6CC0-2025-05-15-19-31-57","","null","","images/semantic_sequence/self_care_activities_semantic/self_care_activities_semantic_8.png","null","",""
"","","","","","image-button-response","79","621328","0.0-12.0-1.0-1.7","C55DBD61D6B84AC885B5E01AE5FF6CC0","C55DBD61D6B84AC885B5E01AE5FF6CC0","cda894b2-8690-43f3-ad08-fb92ee0b3fa1","051c06f1-75cc-4548-856d-4923ddaba0dc","{""num_scrambled_semantic"":""8"",""num_scrambled_causal"":""4"",""num_scrambled_schematic"":""4"",""participantId"":""C55DBD61D6B84AC885B5E01AE5FF6CC0"",""assignmentId"":""cda894b2-8690-43f3-ad08-fb92ee0b3fa1"",""projectId"":""051c06f1-75cc-4548-856d-4923ddaba0dc""}","https://test12345.live/?num_scrambled_semantic=8&num_scrambled_causal=4&num_scrambled_schematic=4&participantId=C55DBD61D6B84AC885B5E01AE5FF6CC0&assignmentId=cda894b2-8690-43f3-ad08-fb92ee0b3fa1&projectId=051c06f1-75cc-4548-856d-4923ddaba0dc","C55DBD61D6B84AC885B5E01AE5FF6CC0-2025-05-15-19-31-57","","1163","","images/semantic_sequence/self_care_activities_semantic/self_care_activities_semantic_8.png","0","",""
"","","","","","image-button-response","80","623136","0.0-12.0-1.0-2.7","C55DBD61D6B84AC885B5E01AE5FF6CC0","C55DBD61D6B84AC885B5E01AE5FF6CC0","cda894b2-8690-43f3-ad08-fb92ee0b3fa1","051c06f1-75cc-4548-856d-4923ddaba0dc","{""num_scrambled_semantic"":""8"",""num_scrambled_causal"":""4"",""num_scrambled_schematic"":""4"",""participantId"":""C55DBD61D6B84AC885B5E01AE5FF6CC0"",""assignmentId"":""cda894b2-8690-43f3-ad08-fb92ee0b3fa1"",""projectId"":""051c06f1-75cc-4548-856d-4923ddaba0dc""}","https://test12345.live/?num_scrambled_semantic=8&num_scrambled_causal=4&num_scrambled_schematic=4&participantId=C55DBD61D6B84AC885B5E01AE5FF6CC0&assignmentId=cda894b2-8690-43f3-ad08-fb92ee0b3fa1&projectId=051c06f1-75cc-4548-856d-4923ddaba0dc","C55DBD61D6B84AC885B5E01AE5FF6CC0-2025-05-15-19-31-57","","null","","[]","null","",""
"","","","","","image-button-response","81","627642","0.0-12.0-1.0-0.8","C55DBD61D6B84AC885B5E01AE5FF6CC0","C55DBD61D6B84AC885B5E01AE5FF6CC0","cda894b2-8690-43f3-ad08-fb92ee0b3fa1","051c06f1-75cc-4548-856d-4923ddaba0dc","{""num_scrambled_semantic"":""8"",""num_scrambled_causal"":""4"",""num_scrambled_schematic"":""4"",""participantId"":""C55DBD61D6B84AC885B5E01AE5FF6CC0"",""assignmentId"":""cda894b2-8690-43f3-ad08-fb92ee0b3fa1"",""projectId"":""051c06f1-75cc-4548-856d-4923ddaba0dc""}","https://test12345.live/?num_scrambled_semantic=8&num_scrambled_causal=4&num_scrambled_schematic=4&participantId=C55DBD61D6B84AC885B5E01AE5FF6CC0&assignmentId=cda894b2-8690-43f3-ad08-fb92ee0b3fa1&projectId=051c06f1-75cc-4548-856d-4923ddaba0dc","C55DBD61D6B84AC885B5E01AE5FF6CC0-2025-05-15-19-31-57","","null","","images/semantic_sequence/self_care_activities_semantic/self_care_activities_semantic_1.png","null","",""
"","","","","","image-button-response","82","630468","0.0-12.0-1.0-1.8","C55DBD61D6B84AC885B5E01AE5FF6CC0","C55DBD61D6B84AC885B5E01AE5FF6CC0","cda894b2-8690-43f3-ad08-fb92ee0b3fa1","051c06f1-75cc-4548-856d-4923ddaba0dc","{""num_scrambled_semantic"":""8"",""num_scrambled_causal"":""4"",""num_scrambled_schematic"":""4"",""participantId"":""C55DBD61D6B84AC885B5E01AE5FF6CC0"",""assignmentId"":""cda894b2-8690-43f3-ad08-fb92ee0b3fa1"",""projectId"":""051c06f1-75cc-4548-856d-4923ddaba0dc""}","https://test12345.live/?num_scrambled_semantic=8&num_scrambled_causal=4&num_scrambled_schematic=4&participantId=C55DBD61D6B84AC885B5E01AE5FF6CC0&assignmentId=cda894b2-8690-43f3-ad08-fb92ee0b3fa1&projectId=051c06f1-75cc-4548-856d-4923ddaba0dc","C55DBD61D6B84AC885B5E01AE5FF6CC0-2025-05-15-19-31-57","","2823","","images/semantic_sequence/self_care_activities_semantic/self_care_activities_semantic_1.png","0","",""
"","","","","","image-button-response","83","632276","0.0-12.0-1.0-2.8","C55DBD61D6B84AC885B5E01AE5FF6CC0","C55DBD61D6B84AC885B5E01AE5FF6CC0","cda894b2-8690-43f3-ad08-fb92ee0b3fa1","051c06f1-75cc-4548-856d-4923ddaba0dc","{""num_scrambled_semantic"":""8"",""num_scrambled_causal"":""4"",""num_scrambled_schematic"":""4"",""participantId"":""C55DBD61D6B84AC885B5E01AE5FF6CC0"",""assignmentId"":""cda894b2-8690-43f3-ad08-fb92ee0b3fa1"",""projectId"":""051c06f1-75cc-4548-856d-4923ddaba0dc""}","https://test12345.live/?num_scrambled_semantic=8&num_scrambled_causal=4&num_scrambled_schematic=4&participantId=C55DBD61D6B84AC885B5E01AE5FF6CC0&assignmentId=cda894b2-8690-43f3-ad08-fb92ee0b3fa1&projectId=051c06f1-75cc-4548-856d-4923ddaba0dc","C55DBD61D6B84AC885B5E01AE5FF6CC0-2025-05-15-19-31-57","","null","","[]","null","",""
"","","","","","image-button-response","84","636788","0.0-12.0-1.0-0.9","C55DBD61D6B84AC885B5E01AE5FF6CC0","C55DBD61D6B84AC885B5E01AE5FF6CC0","cda894b2-8690-43f3-ad08-fb92ee0b3fa1","051c06f1-75cc-4548-856d-4923ddaba0dc","{""num_scrambled_semantic"":""8"",""num_scrambled_causal"":""4"",""num_scrambled_schematic"":""4"",""participantId"":""C55DBD61D6B84AC885B5E01AE5FF6CC0"",""assignmentId"":""cda894b2-8690-43f3-ad08-fb92ee0b3fa1"",""projectId"":""051c06f1-75cc-4548-856d-4923ddaba0dc""}","https://test12345.live/?num_scrambled_semantic=8&num_scrambled_causal=4&num_scrambled_schematic=4&participantId=C55DBD61D6B84AC885B5E01AE5FF6CC0&assignmentId=cda894b2-8690-43f3-ad08-fb92ee0b3fa1&projectId=051c06f1-75cc-4548-856d-4923ddaba0dc","C55DBD61D6B84AC885B5E01AE5FF6CC0-2025-05-15-19-31-57","","null","","images/semantic_sequence/self_care_activities_semantic/self_care_activities_semantic_3.png","null","",""
"","","","","","image-button-response","85","638146","0.0-12.0-1.0-1.9","C55DBD61D6B84AC885B5E01AE5FF6CC0","C55DBD61D6B84AC885B5E01AE5FF6CC0","cda894b2-8690-43f3-ad08-fb92ee0b3fa1","051c06f1-75cc-4548-856d-4923ddaba0dc","{""num_scrambled_semantic"":""8"",""num_scrambled_causal"":""4"",""num_scrambled_schematic"":""4"",""participantId"":""C55DBD61D6B84AC885B5E01AE5FF6CC0"",""assignmentId"":""cda894b2-8690-43f3-ad08-fb92ee0b3fa1"",""projectId"":""051c06f1-75cc-4548-856d-4923ddaba0dc""}","https://test12345.live/?num_scrambled_semantic=8&num_scrambled_causal=4&num_scrambled_schematic=4&participantId=C55DBD61D6B84AC885B5E01AE5FF6CC0&assignmentId=cda894b2-8690-43f3-ad08-fb92ee0b3fa1&projectId=051c06f1-75cc-4548-856d-4923ddaba0dc","C55DBD61D6B84AC885B5E01AE5FF6CC0-2025-05-15-19-31-57","","1356","","images/semantic_sequence/self_care_activities_semantic/self_care_activities_semantic_3.png","0","",""
"","","","","","image-button-response","86","639957","0.0-12.0-1.0-2.9","C55DBD61D6B84AC885B5E01AE5FF6CC0","C55DBD61D6B84AC885B5E01AE5FF6CC0","cda894b2-8690-43f3-ad08-fb92ee0b3fa1","051c06f1-75cc-4548-856d-4923ddaba0dc","{""num_scrambled_semantic"":""8"",""num_scrambled_causal"":""4"",""num_scrambled_schematic"":""4"",""participantId"":""C55DBD61D6B84AC885B5E01AE5FF6CC0"",""assignmentId"":""cda894b2-8690-43f3-ad08-fb92ee0b3fa1"",""projectId"":""051c06f1-75cc-4548-856d-4923ddaba0dc""}","https://test12345.live/?num_scrambled_semantic=8&num_scrambled_causal=4&num_scrambled_schematic=4&participantId=C55DBD61D6B84AC885B5E01AE5FF6CC0&assignmentId=cda894b2-8690-43f3-ad08-fb92ee0b3fa1&projectId=051c06f1-75cc-4548-856d-4923ddaba0dc","C55DBD61D6B84AC885B5E01AE5FF6CC0-2025-05-15-19-31-57","","null","","[]","null","",""
"","","","","","html-audio-response","87","746809","0.0-13.0","C55DBD61D6B84AC885B5E01AE5FF6CC0","C55DBD61D6B84AC885B5E01AE5FF6CC0","cda894b2-8690-43f3-ad08-fb92ee0b3fa1","051c06f1-75cc-4548-856d-4923ddaba0dc","{""num_scrambled_semantic"":""8"",""num_scrambled_causal"":""4"",""num_scrambled_schematic"":""4"",""participantId"":""C55DBD61D6B84AC885B5E01AE5FF6CC0"",""assignmentId"":""cda894b2-8690-43f3-ad08-fb92ee0b3fa1"",""projectId"":""051c06f1-75cc-4548-856d-4923ddaba0dc""}","https://test12345.live/?num_scrambled_semantic=8&num_scrambled_causal=4&num_scrambled_schematic=4&participantId=C55DBD61D6B84AC885B5E01AE5FF6CC0&assignmentId=cda894b2-8690-43f3-ad08-fb92ee0b3fa1&projectId=051c06f1-75cc-4548-856d-4923ddaba0dc","C55DBD61D6B84AC885B5E01AE5FF6CC0-2025-05-15-19-31-57","","41871","","[""<span style=\""color: red; font-size: 24px\""> NOW RECORDING</span><p>Please say out loud all the images you saw, as many as you can remember. The images can be said in any order.</p>""]","","3","self_care_activities_semantic"
"","","","","","image-button-response","88","752835","0.0-14.0-0.0","C55DBD61D6B84AC885B5E01AE5FF6CC0","C55DBD61D6B84AC885B5E01AE5FF6CC0","cda894b2-8690-43f3-ad08-fb92ee0b3fa1","051c06f1-75cc-4548-856d-4923ddaba0dc","{""num_scrambled_semantic"":""8"",""num_scrambled_causal"":""4"",""num_scrambled_schematic"":""4"",""participantId"":""C55DBD61D6B84AC885B5E01AE5FF6CC0"",""assignmentId"":""cda894b2-8690-43f3-ad08-fb92ee0b3fa1"",""projectId"":""051c06f1-75cc-4548-856d-4923ddaba0dc""}","https://test12345.live/?num_scrambled_semantic=8&num_scrambled_causal=4&num_scrambled_schematic=4&participantId=C55DBD61D6B84AC885B5E01AE5FF6CC0&assignmentId=cda894b2-8690-43f3-ad08-fb92ee0b3fa1&projectId=051c06f1-75cc-4548-856d-4923ddaba0dc","C55DBD61D6B84AC885B5E01AE5FF6CC0-2025-05-15-19-31-57","","null","","images/causal_sequence/coin_causal/coin_causal_0.png","null","",""
"","","","","","image-button-response","89","757342","0.0-14.0-1.0-0.0","C55DBD61D6B84AC885B5E01AE5FF6CC0","C55DBD61D6B84AC885B5E01AE5FF6CC0","cda894b2-8690-43f3-ad08-fb92ee0b3fa1","051c06f1-75cc-4548-856d-4923ddaba0dc","{""num_scrambled_semantic"":""8"",""num_scrambled_causal"":""4"",""num_scrambled_schematic"":""4"",""participantId"":""C55DBD61D6B84AC885B5E01AE5FF6CC0"",""assignmentId"":""cda894b2-8690-43f3-ad08-fb92ee0b3fa1"",""projectId"":""051c06f1-75cc-4548-856d-4923ddaba0dc""}","https://test12345.live/?num_scrambled_semantic=8&num_scrambled_causal=4&num_scrambled_schematic=4&participantId=C55DBD61D6B84AC885B5E01AE5FF6CC0&assignmentId=cda894b2-8690-43f3-ad08-fb92ee0b3fa1&projectId=051c06f1-75cc-4548-856d-4923ddaba0dc","C55DBD61D6B84AC885B5E01AE5FF6CC0-2025-05-15-19-31-57","","null","","images/causal_sequence/coin_causal/coin_causal_7.png","null","",""
"","","","","","image-button-response","90","761356","0.0-14.0-1.0-1.0","C55DBD61D6B84AC885B5E01AE5FF6CC0","C55DBD61D6B84AC885B5E01AE5FF6CC0","cda894b2-8690-43f3-ad08-fb92ee0b3fa1","051c06f1-75cc-4548-856d-4923ddaba0dc","{""num_scrambled_semantic"":""8"",""num_scrambled_causal"":""4"",""num_scrambled_schematic"":""4"",""participantId"":""C55DBD61D6B84AC885B5E01AE5FF6CC0"",""assignmentId"":""cda894b2-8690-43f3-ad08-fb92ee0b3fa1"",""projectId"":""051c06f1-75cc-4548-856d-4923ddaba0dc""}","https://test12345.live/?num_scrambled_semantic=8&num_scrambled_causal=4&num_scrambled_schematic=4&participantId=C55DBD61D6B84AC885B5E01AE5FF6CC0&assignmentId=cda894b2-8690-43f3-ad08-fb92ee0b3fa1&projectId=051c06f1-75cc-4548-856d-4923ddaba0dc","C55DBD61D6B84AC885B5E01AE5FF6CC0-2025-05-15-19-31-57","","null","","images/causal_sequence/coin_causal/coin_causal_7.png","null","",""
"","","","","","image-button-response","91","763164","0.0-14.0-1.0-2.0","C55DBD61D6B84AC885B5E01AE5FF6CC0","C55DBD61D6B84AC885B5E01AE5FF6CC0","cda894b2-8690-43f3-ad08-fb92ee0b3fa1","051c06f1-75cc-4548-856d-4923ddaba0dc","{""num_scrambled_semantic"":""8"",""num_scrambled_causal"":""4"",""num_scrambled_schematic"":""4"",""participantId"":""C55DBD61D6B84AC885B5E01AE5FF6CC0"",""assignmentId"":""cda894b2-8690-43f3-ad08-fb92ee0b3fa1"",""projectId"":""051c06f1-75cc-4548-856d-4923ddaba0dc""}","https://test12345.live/?num_scrambled_semantic=8&num_scrambled_causal=4&num_scrambled_schematic=4&participantId=C55DBD61D6B84AC885B5E01AE5FF6CC0&assignmentId=cda894b2-8690-43f3-ad08-fb92ee0b3fa1&projectId=051c06f1-75cc-4548-856d-4923ddaba0dc","C55DBD61D6B84AC885B5E01AE5FF6CC0-2025-05-15-19-31-57","","null","","[]","null","",""
"","","","","","image-button-response","92","767679","0.0-14.0-1.0-0.1","C55DBD61D6B84AC885B5E01AE5FF6CC0","C55DBD61D6B84AC885B5E01AE5FF6CC0","cda894b2-8690-43f3-ad08-fb92ee0b3fa1","051c06f1-75cc-4548-856d-4923ddaba0dc","{""num_scrambled_semantic"":""8"",""num_scrambled_causal"":""4"",""num_scrambled_schematic"":""4"",""participantId"":""C55DBD61D6B84AC885B5E01AE5FF6CC0"",""assignmentId"":""cda894b2-8690-43f3-ad08-fb92ee0b3fa1"",""projectId"":""051c06f1-75cc-4548-856d-4923ddaba0dc""}","https://test12345.live/?num_scrambled_semantic=8&num_scrambled_causal=4&num_scrambled_schematic=4&participantId=C55DBD61D6B84AC885B5E01AE5FF6CC0&assignmentId=cda894b2-8690-43f3-ad08-fb92ee0b3fa1&projectId=051c06f1-75cc-4548-856d-4923ddaba0dc","C55DBD61D6B84AC885B5E01AE5FF6CC0-2025-05-15-19-31-57","","null","","images/causal_sequence/coin_causal/coin_causal_6.png","null","",""
"","","","","","image-button-response","93","769626","0.0-14.0-1.0-1.1","C55DBD61D6B84AC885B5E01AE5FF6CC0","C55DBD61D6B84AC885B5E01AE5FF6CC0","cda894b2-8690-43f3-ad08-fb92ee0b3fa1","051c06f1-75cc-4548-856d-4923ddaba0dc","{""num_scrambled_semantic"":""8"",""num_scrambled_causal"":""4"",""num_scrambled_schematic"":""4"",""participantId"":""C55DBD61D6B84AC885B5E01AE5FF6CC0"",""assignmentId"":""cda894b2-8690-43f3-ad08-fb92ee0b3fa1"",""projectId"":""051c06f1-75cc-4548-856d-4923ddaba0dc""}","https://test12345.live/?num_scrambled_semantic=8&num_scrambled_causal=4&num_scrambled_schematic=4&participantId=C55DBD61D6B84AC885B5E01AE5FF6CC0&assignmentId=cda894b2-8690-43f3-ad08-fb92ee0b3fa1&projectId=051c06f1-75cc-4548-856d-4923ddaba0dc","C55DBD61D6B84AC885B5E01AE5FF6CC0-2025-05-15-19-31-57","","1945","","images/causal_sequence/coin_causal/coin_causal_6.png","0","",""
"","","","","","image-button-response","94","771432","0.0-14.0-1.0-2.1","C55DBD61D6B84AC885B5E01AE5FF6CC0","C55DBD61D6B84AC885B5E01AE5FF6CC0","cda894b2-8690-43f3-ad08-fb92ee0b3fa1","051c06f1-75cc-4548-856d-4923ddaba0dc","{""num_scrambled_semantic"":""8"",""num_scrambled_causal"":""4"",""num_scrambled_schematic"":""4"",""participantId"":""C55DBD61D6B84AC885B5E01AE5FF6CC0"",""assignmentId"":""cda894b2-8690-43f3-ad08-fb92ee0b3fa1"",""projectId"":""051c06f1-75cc-4548-856d-4923ddaba0dc""}","https://test12345.live/?num_scrambled_semantic=8&num_scrambled_causal=4&num_scrambled_schematic=4&participantId=C55DBD61D6B84AC885B5E01AE5FF6CC0&assignmentId=cda894b2-8690-43f3-ad08-fb92ee0b3fa1&projectId=051c06f1-75cc-4548-856d-4923ddaba0dc","C55DBD61D6B84AC885B5E01AE5FF6CC0-2025-05-15-19-31-57","","null","","[]","null","",""
"","","","","","image-button-response","95","775940","0.0-14.0-1.0-0.2","C55DBD61D6B84AC885B5E01AE5FF6CC0","C55DBD61D6B84AC885B5E01AE5FF6CC0","cda894b2-8690-43f3-ad08-fb92ee0b3fa1","051c06f1-75cc-4548-856d-4923ddaba0dc","{""num_scrambled_semantic"":""8"",""num_scrambled_causal"":""4"",""num_scrambled_schematic"":""4"",""participantId"":""C55DBD61D6B84AC885B5E01AE5FF6CC0"",""assignmentId"":""cda894b2-8690-43f3-ad08-fb92ee0b3fa1"",""projectId"":""051c06f1-75cc-4548-856d-4923ddaba0dc""}","https://test12345.live/?num_scrambled_semantic=8&num_scrambled_causal=4&num_scrambled_schematic=4&participantId=C55DBD61D6B84AC885B5E01AE5FF6CC0&assignmentId=cda894b2-8690-43f3-ad08-fb92ee0b3fa1&projectId=051c06f1-75cc-4548-856d-4923ddaba0dc","C55DBD61D6B84AC885B5E01AE5FF6CC0-2025-05-15-19-31-57","","null","","images/causal_sequence/coin_causal/coin_causal_ten.png","null","",""
"","","","","","image-button-response","96","776940","0.0-14.0-1.0-1.2","C55DBD61D6B84AC885B5E01AE5FF6CC0","C55DBD61D6B84AC885B5E01AE5FF6CC0","cda894b2-8690-43f3-ad08-fb92ee0b3fa1","051c06f1-75cc-4548-856d-4923ddaba0dc","{""num_scrambled_semantic"":""8"",""num_scrambled_causal"":""4"",""num_scrambled_schematic"":""4"",""participantId"":""C55DBD61D6B84AC885B5E01AE5FF6CC0"",""assignmentId"":""cda894b2-8690-43f3-ad08-fb92ee0b3fa1"",""projectId"":""051c06f1-75cc-4548-856d-4923ddaba0dc""}","https://test12345.live/?num_scrambled_semantic=8&num_scrambled_causal=4&num_scrambled_schematic=4&participantId=C55DBD61D6B84AC885B5E01AE5FF6CC0&assignmentId=cda894b2-8690-43f3-ad08-fb92ee0b3fa1&projectId=051c06f1-75cc-4548-856d-4923ddaba0dc","C55DBD61D6B84AC885B5E01AE5FF6CC0-2025-05-15-19-31-57","","998","","images/causal_sequence/coin_causal/coin_causal_ten.png","0","",""
"","","","","","image-button-response","97","778750","0.0-14.0-1.0-2.2","C55DBD61D6B84AC885B5E01AE5FF6CC0","C55DBD61D6B84AC885B5E01AE5FF6CC0","cda894b2-8690-43f3-ad08-fb92ee0b3fa1","051c06f1-75cc-4548-856d-4923ddaba0dc","{""num_scrambled_semantic"":""8"",""num_scrambled_causal"":""4"",""num_scrambled_schematic"":""4"",""participantId"":""C55DBD61D6B84AC885B5E01AE5FF6CC0"",""assignmentId"":""cda894b2-8690-43f3-ad08-fb92ee0b3fa1"",""projectId"":""051c06f1-75cc-4548-856d-4923ddaba0dc""}","https://test12345.live/?num_scrambled_semantic=8&num_scrambled_causal=4&num_scrambled_schematic=4&participantId=C55DBD61D6B84AC885B5E01AE5FF6CC0&assignmentId=cda894b2-8690-43f3-ad08-fb92ee0b3fa1&projectId=051c06f1-75cc-4548-856d-4923ddaba0dc","C55DBD61D6B84AC885B5E01AE5FF6CC0-2025-05-15-19-31-57","","null","","[]","null","",""
"","","","","","image-button-response","98","783258","0.0-14.0-1.0-0.3","C55DBD61D6B84AC885B5E01AE5FF6CC0","C55DBD61D6B84AC885B5E01AE5FF6CC0","cda894b2-8690-43f3-ad08-fb92ee0b3fa1","051c06f1-75cc-4548-856d-4923ddaba0dc","{""num_scrambled_semantic"":""8"",""num_scrambled_causal"":""4"",""num_scrambled_schematic"":""4"",""participantId"":""C55DBD61D6B84AC885B5E01AE5FF6CC0"",""assignmentId"":""cda894b2-8690-43f3-ad08-fb92ee0b3fa1"",""projectId"":""051c06f1-75cc-4548-856d-4923ddaba0dc""}","https://test12345.live/?num_scrambled_semantic=8&num_scrambled_causal=4&num_scrambled_schematic=4&participantId=C55DBD61D6B84AC885B5E01AE5FF6CC0&assignmentId=cda894b2-8690-43f3-ad08-fb92ee0b3fa1&projectId=051c06f1-75cc-4548-856d-4923ddaba0dc","C55DBD61D6B84AC885B5E01AE5FF6CC0-2025-05-15-19-31-57","","null","","images/causal_sequence/coin_causal/coin_causal_1.png","null","",""
"","","","","","image-button-response","99","785947","0.0-14.0-1.0-1.3","C55DBD61D6B84AC885B5E01AE5FF6CC0","C55DBD61D6B84AC885B5E01AE5FF6CC0","cda894b2-8690-43f3-ad08-fb92ee0b3fa1","051c06f1-75cc-4548-856d-4923ddaba0dc","{""num_scrambled_semantic"":""8"",""num_scrambled_causal"":""4"",""num_scrambled_schematic"":""4"",""participantId"":""C55DBD61D6B84AC885B5E01AE5FF6CC0"",""assignmentId"":""cda894b2-8690-43f3-ad08-fb92ee0b3fa1"",""projectId"":""051c06f1-75cc-4548-856d-4923ddaba0dc""}","https://test12345.live/?num_scrambled_semantic=8&num_scrambled_causal=4&num_scrambled_schematic=4&participantId=C55DBD61D6B84AC885B5E01AE5FF6CC0&assignmentId=cda894b2-8690-43f3-ad08-fb92ee0b3fa1&projectId=051c06f1-75cc-4548-856d-4923ddaba0dc","C55DBD61D6B84AC885B5E01AE5FF6CC0-2025-05-15-19-31-57","","2687","","images/causal_sequence/coin_causal/coin_causal_1.png","0","",""
"","","","","","image-button-response","100","787759","0.0-14.0-1.0-2.3","C55DBD61D6B84AC885B5E01AE5FF6CC0","C55DBD61D6B84AC885B5E01AE5FF6CC0","cda894b2-8690-43f3-ad08-fb92ee0b3fa1","051c06f1-75cc-4548-856d-4923ddaba0dc","{""num_scrambled_semantic"":""8"",""num_scrambled_causal"":""4"",""num_scrambled_schematic"":""4"",""participantId"":""C55DBD61D6B84AC885B5E01AE5FF6CC0"",""assignmentId"":""cda894b2-8690-43f3-ad08-fb92ee0b3fa1"",""projectId"":""051c06f1-75cc-4548-856d-4923ddaba0dc""}","https://test12345.live/?num_scrambled_semantic=8&num_scrambled_causal=4&num_scrambled_schematic=4&participantId=C55DBD61D6B84AC885B5E01AE5FF6CC0&assignmentId=cda894b2-8690-43f3-ad08-fb92ee0b3fa1&projectId=051c06f1-75cc-4548-856d-4923ddaba0dc","C55DBD61D6B84AC885B5E01AE5FF6CC0-2025-05-15-19-31-57","","null","","[]","null","",""
"","","","","","image-button-response","101","792277","0.0-14.0-1.0-0.4","C55DBD61D6B84AC885B5E01AE5FF6CC0","C55DBD61D6B84AC885B5E01AE5FF6CC0","cda894b2-8690-43f3-ad08-fb92ee0b3fa1","051c06f1-75cc-4548-856d-4923ddaba0dc","{""num_scrambled_semantic"":""8"",""num_scrambled_causal"":""4"",""num_scrambled_schematic"":""4"",""participantId"":""C55DBD61D6B84AC885B5E01AE5FF6CC0"",""assignmentId"":""cda894b2-8690-43f3-ad08-fb92ee0b3fa1"",""projectId"":""051c06f1-75cc-4548-856d-4923ddaba0dc""}","https://test12345.live/?num_scrambled_semantic=8&num_scrambled_causal=4&num_scrambled_schematic=4&participantId=C55DBD61D6B84AC885B5E01AE5FF6CC0&assignmentId=cda894b2-8690-43f3-ad08-fb92ee0b3fa1&projectId=051c06f1-75cc-4548-856d-4923ddaba0dc","C55DBD61D6B84AC885B5E01AE5FF6CC0-2025-05-15-19-31-57","","null","","images/causal_sequence/coin_causal/coin_causal_9.png","null","",""
"","","","","","image-button-response","102","794601","0.0-14.0-1.0-1.4","C55DBD61D6B84AC885B5E01AE5FF6CC0","C55DBD61D6B84AC885B5E01AE5FF6CC0","cda894b2-8690-43f3-ad08-fb92ee0b3fa1","051c06f1-75cc-4548-856d-4923ddaba0dc","{""num_scrambled_semantic"":""8"",""num_scrambled_causal"":""4"",""num_scrambled_schematic"":""4"",""participantId"":""C55DBD61D6B84AC885B5E01AE5FF6CC0"",""assignmentId"":""cda894b2-8690-43f3-ad08-fb92ee0b3fa1"",""projectId"":""051c06f1-75cc-4548-856d-4923ddaba0dc""}","https://test12345.live/?num_scrambled_semantic=8&num_scrambled_causal=4&num_scrambled_schematic=4&participantId=C55DBD61D6B84AC885B5E01AE5FF6CC0&assignmentId=cda894b2-8690-43f3-ad08-fb92ee0b3fa1&projectId=051c06f1-75cc-4548-856d-4923ddaba0dc","C55DBD61D6B84AC885B5E01AE5FF6CC0-2025-05-15-19-31-57","","2321","","images/causal_sequence/coin_causal/coin_causal_9.png","0","",""
"","","","","","image-button-response","103","796416","0.0-14.0-1.0-2.4","C55DBD61D6B84AC885B5E01AE5FF6CC0","C55DBD61D6B84AC885B5E01AE5FF6CC0","cda894b2-8690-43f3-ad08-fb92ee0b3fa1","051c06f1-75cc-4548-856d-4923ddaba0dc","{""num_scrambled_semantic"":""8"",""num_scrambled_causal"":""4"",""num_scrambled_schematic"":""4"",""participantId"":""C55DBD61D6B84AC885B5E01AE5FF6CC0"",""assignmentId"":""cda894b2-8690-43f3-ad08-fb92ee0b3fa1"",""projectId"":""051c06f1-75cc-4548-856d-4923ddaba0dc""}","https://test12345.live/?num_scrambled_semantic=8&num_scrambled_causal=4&num_scrambled_schematic=4&participantId=C55DBD61D6B84AC885B5E01AE5FF6CC0&assignmentId=cda894b2-8690-43f3-ad08-fb92ee0b3fa1&projectId=051c06f1-75cc-4548-856d-4923ddaba0dc","C55DBD61D6B84AC885B5E01AE5FF6CC0-2025-05-15-19-31-57","","null","","[]","null","",""
"","","","","","image-button-response","104","800919","0.0-14.0-1.0-0.5","C55DBD61D6B84AC885B5E01AE5FF6CC0","C55DBD61D6B84AC885B5E01AE5FF6CC0","cda894b2-8690-43f3-ad08-fb92ee0b3fa1","051c06f1-75cc-4548-856d-4923ddaba0dc","{""num_scrambled_semantic"":""8"",""num_scrambled_causal"":""4"",""num_scrambled_schematic"":""4"",""participantId"":""C55DBD61D6B84AC885B5E01AE5FF6CC0"",""assignmentId"":""cda894b2-8690-43f3-ad08-fb92ee0b3fa1"",""projectId"":""051c06f1-75cc-4548-856d-4923ddaba0dc""}","https://test12345.live/?num_scrambled_semantic=8&num_scrambled_causal=4&num_scrambled_schematic=4&participantId=C55DBD61D6B84AC885B5E01AE5FF6CC0&assignmentId=cda894b2-8690-43f3-ad08-fb92ee0b3fa1&projectId=051c06f1-75cc-4548-856d-4923ddaba0dc","C55DBD61D6B84AC885B5E01AE5FF6CC0-2025-05-15-19-31-57","","null","","images/causal_sequence/coin_causal/coin_causal_2.png","null","",""
"","","","","","image-button-response","105","804922","0.0-14.0-1.0-1.5","C55DBD61D6B84AC885B5E01AE5FF6CC0","C55DBD61D6B84AC885B5E01AE5FF6CC0","cda894b2-8690-43f3-ad08-fb92ee0b3fa1","051c06f1-75cc-4548-856d-4923ddaba0dc","{""num_scrambled_semantic"":""8"",""num_scrambled_causal"":""4"",""num_scrambled_schematic"":""4"",""participantId"":""C55DBD61D6B84AC885B5E01AE5FF6CC0"",""assignmentId"":""cda894b2-8690-43f3-ad08-fb92ee0b3fa1"",""projectId"":""051c06f1-75cc-4548-856d-4923ddaba0dc""}","https://test12345.live/?num_scrambled_semantic=8&num_scrambled_causal=4&num_scrambled_schematic=4&participantId=C55DBD61D6B84AC885B5E01AE5FF6CC0&assignmentId=cda894b2-8690-43f3-ad08-fb92ee0b3fa1&projectId=051c06f1-75cc-4548-856d-4923ddaba0dc","C55DBD61D6B84AC885B5E01AE5FF6CC0-2025-05-15-19-31-57","","null","","images/causal_sequence/coin_causal/coin_causal_2.png","null","",""
"","","","","","image-button-response","106","806736","0.0-14.0-1.0-2.5","C55DBD61D6B84AC885B5E01AE5FF6CC0","C55DBD61D6B84AC885B5E01AE5FF6CC0","cda894b2-8690-43f3-ad08-fb92ee0b3fa1","051c06f1-75cc-4548-856d-4923ddaba0dc","{""num_scrambled_semantic"":""8"",""num_scrambled_causal"":""4"",""num_scrambled_schematic"":""4"",""participantId"":""C55DBD61D6B84AC885B5E01AE5FF6CC0"",""assignmentId"":""cda894b2-8690-43f3-ad08-fb92ee0b3fa1"",""projectId"":""051c06f1-75cc-4548-856d-4923ddaba0dc""}","https://test12345.live/?num_scrambled_semantic=8&num_scrambled_causal=4&num_scrambled_schematic=4&participantId=C55DBD61D6B84AC885B5E01AE5FF6CC0&assignmentId=cda894b2-8690-43f3-ad08-fb92ee0b3fa1&projectId=051c06f1-75cc-4548-856d-4923ddaba0dc","C55DBD61D6B84AC885B5E01AE5FF6CC0-2025-05-15-19-31-57","","null","","[]","null","",""
"","","","","","image-button-response","107","811249","0.0-14.0-1.0-0.6","C55DBD61D6B84AC885B5E01AE5FF6CC0","C55DBD61D6B84AC885B5E01AE5FF6CC0","cda894b2-8690-43f3-ad08-fb92ee0b3fa1","051c06f1-75cc-4548-856d-4923ddaba0dc","{""num_scrambled_semantic"":""8"",""num_scrambled_causal"":""4"",""num_scrambled_schematic"":""4"",""participantId"":""C55DBD61D6B84AC885B5E01AE5FF6CC0"",""assignmentId"":""cda894b2-8690-43f3-ad08-fb92ee0b3fa1"",""projectId"":""051c06f1-75cc-4548-856d-4923ddaba0dc""}","https://test12345.live/?num_scrambled_semantic=8&num_scrambled_causal=4&num_scrambled_schematic=4&participantId=C55DBD61D6B84AC885B5E01AE5FF6CC0&assignmentId=cda894b2-8690-43f3-ad08-fb92ee0b3fa1&projectId=051c06f1-75cc-4548-856d-4923ddaba0dc","C55DBD61D6B84AC885B5E01AE5FF6CC0-2025-05-15-19-31-57","","null","","images/causal_sequence/coin_causal/coin_causal_3.png","null","",""
"","","","","","image-button-response","108","815255","0.0-14.0-1.0-1.6","C55DBD61D6B84AC885B5E01AE5FF6CC0","C55DBD61D6B84AC885B5E01AE5FF6CC0","cda894b2-8690-43f3-ad08-fb92ee0b3fa1","051c06f1-75cc-4548-856d-4923ddaba0dc","{""num_scrambled_semantic"":""8"",""num_scrambled_causal"":""4"",""num_scrambled_schematic"":""4"",""participantId"":""C55DBD61D6B84AC885B5E01AE5FF6CC0"",""assignmentId"":""cda894b2-8690-43f3-ad08-fb92ee0b3fa1"",""projectId"":""051c06f1-75cc-4548-856d-4923ddaba0dc""}","https://test12345.live/?num_scrambled_semantic=8&num_scrambled_causal=4&num_scrambled_schematic=4&participantId=C55DBD61D6B84AC885B5E01AE5FF6CC0&assignmentId=cda894b2-8690-43f3-ad08-fb92ee0b3fa1&projectId=051c06f1-75cc-4548-856d-4923ddaba0dc","C55DBD61D6B84AC885B5E01AE5FF6CC0-2025-05-15-19-31-57","","null","","images/causal_sequence/coin_causal/coin_causal_3.png","null","",""
"","","","","","image-button-response","109","817068","0.0-14.0-1.0-2.6","C55DBD61D6B84AC885B5E01AE5FF6CC0","C55DBD61D6B84AC885B5E01AE5FF6CC0","cda894b2-8690-43f3-ad08-fb92ee0b3fa1","051c06f1-75cc-4548-856d-4923ddaba0dc","{""num_scrambled_semantic"":""8"",""num_scrambled_causal"":""4"",""num_scrambled_schematic"":""4"",""participantId"":""C55DBD61D6B84AC885B5E01AE5FF6CC0"",""assignmentId"":""cda894b2-8690-43f3-ad08-fb92ee0b3fa1"",""projectId"":""051c06f1-75cc-4548-856d-4923ddaba0dc""}","https://test12345.live/?num_scrambled_semantic=8&num_scrambled_causal=4&num_scrambled_schematic=4&participantId=C55DBD61D6B84AC885B5E01AE5FF6CC0&assignmentId=cda894b2-8690-43f3-ad08-fb92ee0b3fa1&projectId=051c06f1-75cc-4548-856d-4923ddaba0dc","C55DBD61D6B84AC885B5E01AE5FF6CC0-2025-05-15-19-31-57","","null","","[]","null","",""
"","","","","","image-button-response","110","821578","0.0-14.0-1.0-0.7","C55DBD61D6B84AC885B5E01AE5FF6CC0","C55DBD61D6B84AC885B5E01AE5FF6CC0","cda894b2-8690-43f3-ad08-fb92ee0b3fa1","051c06f1-75cc-4548-856d-4923ddaba0dc","{""num_scrambled_semantic"":""8"",""num_scrambled_causal"":""4"",""num_scrambled_schematic"":""4"",""participantId"":""C55DBD61D6B84AC885B5E01AE5FF6CC0"",""assignmentId"":""cda894b2-8690-43f3-ad08-fb92ee0b3fa1"",""projectId"":""051c06f1-75cc-4548-856d-4923ddaba0dc""}","https://test12345.live/?num_scrambled_semantic=8&num_scrambled_causal=4&num_scrambled_schematic=4&participantId=C55DBD61D6B84AC885B5E01AE5FF6CC0&assignmentId=cda894b2-8690-43f3-ad08-fb92ee0b3fa1&projectId=051c06f1-75cc-4548-856d-4923ddaba0dc","C55DBD61D6B84AC885B5E01AE5FF6CC0-2025-05-15-19-31-57","","null","","images/causal_sequence/coin_causal/coin_causal_8.png","null","",""
"","","","","","image-button-response","111","823469","0.0-14.0-1.0-1.7","C55DBD61D6B84AC885B5E01AE5FF6CC0","C55DBD61D6B84AC885B5E01AE5FF6CC0","cda894b2-8690-43f3-ad08-fb92ee0b3fa1","051c06f1-75cc-4548-856d-4923ddaba0dc","{""num_scrambled_semantic"":""8"",""num_scrambled_causal"":""4"",""num_scrambled_schematic"":""4"",""participantId"":""C55DBD61D6B84AC885B5E01AE5FF6CC0"",""assignmentId"":""cda894b2-8690-43f3-ad08-fb92ee0b3fa1"",""projectId"":""051c06f1-75cc-4548-856d-4923ddaba0dc""}","https://test12345.live/?num_scrambled_semantic=8&num_scrambled_causal=4&num_scrambled_schematic=4&participantId=C55DBD61D6B84AC885B5E01AE5FF6CC0&assignmentId=cda894b2-8690-43f3-ad08-fb92ee0b3fa1&projectId=051c06f1-75cc-4548-856d-4923ddaba0dc","C55DBD61D6B84AC885B5E01AE5FF6CC0-2025-05-15-19-31-57","","1889","","images/causal_sequence/coin_causal/coin_causal_8.png","0","",""
"","","","","","image-button-response","112","825283","0.0-14.0-1.0-2.7","C55DBD61D6B84AC885B5E01AE5FF6CC0","C55DBD61D6B84AC885B5E01AE5FF6CC0","cda894b2-8690-43f3-ad08-fb92ee0b3fa1","051c06f1-75cc-4548-856d-4923ddaba0dc","{""num_scrambled_semantic"":""8"",""num_scrambled_causal"":""4"",""num_scrambled_schematic"":""4"",""participantId"":""C55DBD61D6B84AC885B5E01AE5FF6CC0"",""assignmentId"":""cda894b2-8690-43f3-ad08-fb92ee0b3fa1"",""projectId"":""051c06f1-75cc-4548-856d-4923ddaba0dc""}","https://test12345.live/?num_scrambled_semantic=8&num_scrambled_causal=4&num_scrambled_schematic=4&participantId=C55DBD61D6B84AC885B5E01AE5FF6CC0&assignmentId=cda894b2-8690-43f3-ad08-fb92ee0b3fa1&projectId=051c06f1-75cc-4548-856d-4923ddaba0dc","C55DBD61D6B84AC885B5E01AE5FF6CC0-2025-05-15-19-31-57","","null","","[]","null","",""
"","","","","","image-button-response","113","829792","0.0-14.0-1.0-0.8","C55DBD61D6B84AC885B5E01AE5FF6CC0","C55DBD61D6B84AC885B5E01AE5FF6CC0","cda894b2-8690-43f3-ad08-fb92ee0b3fa1","051c06f1-75cc-4548-856d-4923ddaba0dc","{""num_scrambled_semantic"":""8"",""num_scrambled_causal"":""4"",""num_scrambled_schematic"":""4"",""participantId"":""C55DBD61D6B84AC885B5E01AE5FF6CC0"",""assignmentId"":""cda894b2-8690-43f3-ad08-fb92ee0b3fa1"",""projectId"":""051c06f1-75cc-4548-856d-4923ddaba0dc""}","https://test12345.live/?num_scrambled_semantic=8&num_scrambled_causal=4&num_scrambled_schematic=4&participantId=C55DBD61D6B84AC885B5E01AE5FF6CC0&assignmentId=cda894b2-8690-43f3-ad08-fb92ee0b3fa1&projectId=051c06f1-75cc-4548-856d-4923ddaba0dc","C55DBD61D6B84AC885B5E01AE5FF6CC0-2025-05-15-19-31-57","","null","","images/causal_sequence/coin_causal/coin_causal_4.png","null","",""
