"success","timeout","failed_images","failed_audio","failed_video","trial_type","trial_index","time_elapsed","internal_node_id","subject","subject_id","study_id","session_id","urlvar","current_url","audio_id","view_history","rt","device_id","stimulus","response","estimated_stimulus_onset","seq_name"
"true","false","[]","[]","[]","preload","0","22978","0.0-0.0","C6C57035021645E38F43495607B44726","C6C57035021645E38F43495607B44726","eff8c4d7-ba7a-490c-8542-eacf5e3fd56d","a6b6d205-fa41-4c5b-a7a5-7fc4b51b0cea","{""num_scrambled_semantic"":""8"",""num_scrambled_causal"":""4"",""num_scrambled_schematic"":""4"",""participantId"":""C6C57035021645E38F43495607B44726"",""assignmentId"":""eff8c4d7-ba7a-490c-8542-eacf5e3fd56d"",""projectId"":""a6b6d205-fa41-4c5b-a7a5-7fc4b51b0cea""}","https://test12345.live/?num_scrambled_semantic=8&num_scrambled_causal=4&num_scrambled_schematic=4&participantId=C6C57035021645E38F43495607B44726&assignmentId=eff8c4d7-ba7a-490c-8542-eacf5e3fd56d&projectId=a6b6d205-fa41-4c5b-a7a5-7fc4b51b0cea","C6C57035021645E38F43495607B44726-2025-05-27-18-36-54","","","","","","",""
"","","","","","instructions","1","46913","0.0-1.0","C6C57035021645E38F43495607B44726","C6C57035021645E38F43495607B44726","eff8c4d7-ba7a-490c-8542-eacf5e3fd56d","a6b6d205-fa41-4c5b-a7a5-7fc4b51b0cea","{""num_scrambled_semantic"":""8"",""num_scrambled_causal"":""4"",""num_scrambled_schematic"":""4"",""participantId"":""C6C57035021645E38F43495607B44726"",""assignmentId"":""eff8c4d7-ba7a-490c-8542-eacf5e3fd56d"",""projectId"":""a6b6d205-fa41-4c5b-a7a5-7fc4b51b0cea""}","https://test12345.live/?num_scrambled_semantic=8&num_scrambled_causal=4&num_scrambled_schematic=4&participantId=C6C57035021645E38F43495607B44726&assignmentId=eff8c4d7-ba7a-490c-8542-eacf5e3fd56d&projectId=a6b6d205-fa41-4c5b-a7a5-7fc4b51b0cea","C6C57035021645E38F43495607B44726-2025-05-27-18-36-54","[{""page_index"":0,""viewing_time"":23931}]","23933","","","","",""
"","","","","","instructions","2","78414","0.0-2.0","C6C57035021645E38F43495607B44726","C6C57035021645E38F43495607B44726","eff8c4d7-ba7a-490c-8542-eacf5e3fd56d","a6b6d205-fa41-4c5b-a7a5-7fc4b51b0cea","{""num_scrambled_semantic"":""8"",""num_scrambled_causal"":""4"",""num_scrambled_schematic"":""4"",""participantId"":""C6C57035021645E38F43495607B44726"",""assignmentId"":""eff8c4d7-ba7a-490c-8542-eacf5e3fd56d"",""projectId"":""a6b6d205-fa41-4c5b-a7a5-7fc4b51b0cea""}","https://test12345.live/?num_scrambled_semantic=8&num_scrambled_causal=4&num_scrambled_schematic=4&participantId=C6C57035021645E38F43495607B44726&assignmentId=eff8c4d7-ba7a-490c-8542-eacf5e3fd56d&projectId=a6b6d205-fa41-4c5b-a7a5-7fc4b51b0cea","C6C57035021645E38F43495607B44726-2025-05-27-18-36-54","[{""page_index"":0,""viewing_time"":31494}]","31494","","","","",""
"true","","","","","fullscreen","3","82036","0.0-3.0","C6C57035021645E38F43495607B44726","C6C57035021645E38F43495607B44726","eff8c4d7-ba7a-490c-8542-eacf5e3fd56d","a6b6d205-fa41-4c5b-a7a5-7fc4b51b0cea","{""num_scrambled_semantic"":""8"",""num_scrambled_causal"":""4"",""num_scrambled_schematic"":""4"",""participantId"":""C6C57035021645E38F43495607B44726"",""assignmentId"":""eff8c4d7-ba7a-490c-8542-eacf5e3fd56d"",""projectId"":""a6b6d205-fa41-4c5b-a7a5-7fc4b51b0cea""}","https://test12345.live/?num_scrambled_semantic=8&num_scrambled_causal=4&num_scrambled_schematic=4&participantId=C6C57035021645E38F43495607B44726&assignmentId=eff8c4d7-ba7a-490c-8542-eacf5e3fd56d&projectId=a6b6d205-fa41-4c5b-a7a5-7fc4b51b0cea","C6C57035021645E38F43495607B44726-2025-05-27-18-36-54","","2602","","","","",""
"","","","","","initialize-microphone","4","106653","0.0-4.0-0.0","C6C57035021645E38F43495607B44726","C6C57035021645E38F43495607B44726","eff8c4d7-ba7a-490c-8542-eacf5e3fd56d","a6b6d205-fa41-4c5b-a7a5-7fc4b51b0cea","{""num_scrambled_semantic"":""8"",""num_scrambled_causal"":""4"",""num_scrambled_schematic"":""4"",""participantId"":""C6C57035021645E38F43495607B44726"",""assignmentId"":""eff8c4d7-ba7a-490c-8542-eacf5e3fd56d"",""projectId"":""a6b6d205-fa41-4c5b-a7a5-7fc4b51b0cea""}","https://test12345.live/?num_scrambled_semantic=8&num_scrambled_causal=4&num_scrambled_schematic=4&participantId=C6C57035021645E38F43495607B44726&assignmentId=eff8c4d7-ba7a-490c-8542-eacf5e3fd56d&projectId=a6b6d205-fa41-4c5b-a7a5-7fc4b51b0cea","C6C57035021645E38F43495607B44726-2025-05-27-18-36-54","","","b8345f69f06ca62917fcc944bf6ae30d3038a1fb63bd9e4873ac17b31e82cd68","","","",""
"","","","","","html-audio-response","5","119043","0.0-4.0-1.0","C6C57035021645E38F43495607B44726","C6C57035021645E38F43495607B44726","eff8c4d7-ba7a-490c-8542-eacf5e3fd56d","a6b6d205-fa41-4c5b-a7a5-7fc4b51b0cea","{""num_scrambled_semantic"":""8"",""num_scrambled_causal"":""4"",""num_scrambled_schematic"":""4"",""participantId"":""C6C57035021645E38F43495607B44726"",""assignmentId"":""eff8c4d7-ba7a-490c-8542-eacf5e3fd56d"",""projectId"":""a6b6d205-fa41-4c5b-a7a5-7fc4b51b0cea""}","https://test12345.live/?num_scrambled_semantic=8&num_scrambled_causal=4&num_scrambled_schematic=4&participantId=C6C57035021645E38F43495607B44726&assignmentId=eff8c4d7-ba7a-490c-8542-eacf5e3fd56d&projectId=a6b6d205-fa41-4c5b-a7a5-7fc4b51b0cea","C6C57035021645E38F43495607B44726-2025-05-27-18-36-54","","5237","","<span style=""color: red; font-size: 24px""> NOW RECORDING</span>
        <p>Please test Microphone</p>","","38",""
"","","","","","html-button-response","6","120581","0.0-4.0-2.0","C6C57035021645E38F43495607B44726","C6C57035021645E38F43495607B44726","eff8c4d7-ba7a-490c-8542-eacf5e3fd56d","a6b6d205-fa41-4c5b-a7a5-7fc4b51b0cea","{""num_scrambled_semantic"":""8"",""num_scrambled_causal"":""4"",""num_scrambled_schematic"":""4"",""participantId"":""C6C57035021645E38F43495607B44726"",""assignmentId"":""eff8c4d7-ba7a-490c-8542-eacf5e3fd56d"",""projectId"":""a6b6d205-fa41-4c5b-a7a5-7fc4b51b0cea""}","https://test12345.live/?num_scrambled_semantic=8&num_scrambled_causal=4&num_scrambled_schematic=4&participantId=C6C57035021645E38F43495607B44726&assignmentId=eff8c4d7-ba7a-490c-8542-eacf5e3fd56d&projectId=a6b6d205-fa41-4c5b-a7a5-7fc4b51b0cea","C6C57035021645E38F43495607B44726-2025-05-27-18-36-54","","1534","","<p style=""font-size:48px; color:red;"">Is Microphone OK?</p>","1","",""
"","","","","","instructions","7","136099","0.0-5.0","C6C57035021645E38F43495607B44726","C6C57035021645E38F43495607B44726","eff8c4d7-ba7a-490c-8542-eacf5e3fd56d","a6b6d205-fa41-4c5b-a7a5-7fc4b51b0cea","{""num_scrambled_semantic"":""8"",""num_scrambled_causal"":""4"",""num_scrambled_schematic"":""4"",""participantId"":""C6C57035021645E38F43495607B44726"",""assignmentId"":""eff8c4d7-ba7a-490c-8542-eacf5e3fd56d"",""projectId"":""a6b6d205-fa41-4c5b-a7a5-7fc4b51b0cea""}","https://test12345.live/?num_scrambled_semantic=8&num_scrambled_causal=4&num_scrambled_schematic=4&participantId=C6C57035021645E38F43495607B44726&assignmentId=eff8c4d7-ba7a-490c-8542-eacf5e3fd56d&projectId=a6b6d205-fa41-4c5b-a7a5-7fc4b51b0cea","C6C57035021645E38F43495607B44726-2025-05-27-18-36-54","[{""page_index"":0,""viewing_time"":5565},{""page_index"":1,""viewing_time"":9951}]","15516","","","","",""
"","","","","","image-button-response","8","142122","0.0-6.0-0.0","C6C57035021645E38F43495607B44726","C6C57035021645E38F43495607B44726","eff8c4d7-ba7a-490c-8542-eacf5e3fd56d","a6b6d205-fa41-4c5b-a7a5-7fc4b51b0cea","{""num_scrambled_semantic"":""8"",""num_scrambled_causal"":""4"",""num_scrambled_schematic"":""4"",""participantId"":""C6C57035021645E38F43495607B44726"",""assignmentId"":""eff8c4d7-ba7a-490c-8542-eacf5e3fd56d"",""projectId"":""a6b6d205-fa41-4c5b-a7a5-7fc4b51b0cea""}","https://test12345.live/?num_scrambled_semantic=8&num_scrambled_causal=4&num_scrambled_schematic=4&participantId=C6C57035021645E38F43495607B44726&assignmentId=eff8c4d7-ba7a-490c-8542-eacf5e3fd56d&projectId=a6b6d205-fa41-4c5b-a7a5-7fc4b51b0cea","C6C57035021645E38F43495607B44726-2025-05-27-18-36-54","","null","","images/instructions/movie_0.png","null","",""
"","","","","","image-button-response","9","146632","0.0-6.0-1.0-0.0","C6C57035021645E38F43495607B44726","C6C57035021645E38F43495607B44726","eff8c4d7-ba7a-490c-8542-eacf5e3fd56d","a6b6d205-fa41-4c5b-a7a5-7fc4b51b0cea","{""num_scrambled_semantic"":""8"",""num_scrambled_causal"":""4"",""num_scrambled_schematic"":""4"",""participantId"":""C6C57035021645E38F43495607B44726"",""assignmentId"":""eff8c4d7-ba7a-490c-8542-eacf5e3fd56d"",""projectId"":""a6b6d205-fa41-4c5b-a7a5-7fc4b51b0cea""}","https://test12345.live/?num_scrambled_semantic=8&num_scrambled_causal=4&num_scrambled_schematic=4&participantId=C6C57035021645E38F43495607B44726&assignmentId=eff8c4d7-ba7a-490c-8542-eacf5e3fd56d&projectId=a6b6d205-fa41-4c5b-a7a5-7fc4b51b0cea","C6C57035021645E38F43495607B44726-2025-05-27-18-36-54","","null","","images/instructions/movie_1.png","null","",""
"","","","","","image-button-response","10","149550","0.0-6.0-1.0-1.0","C6C57035021645E38F43495607B44726","C6C57035021645E38F43495607B44726","eff8c4d7-ba7a-490c-8542-eacf5e3fd56d","a6b6d205-fa41-4c5b-a7a5-7fc4b51b0cea","{""num_scrambled_semantic"":""8"",""num_scrambled_causal"":""4"",""num_scrambled_schematic"":""4"",""participantId"":""C6C57035021645E38F43495607B44726"",""assignmentId"":""eff8c4d7-ba7a-490c-8542-eacf5e3fd56d"",""projectId"":""a6b6d205-fa41-4c5b-a7a5-7fc4b51b0cea""}","https://test12345.live/?num_scrambled_semantic=8&num_scrambled_causal=4&num_scrambled_schematic=4&participantId=C6C57035021645E38F43495607B44726&assignmentId=eff8c4d7-ba7a-490c-8542-eacf5e3fd56d&projectId=a6b6d205-fa41-4c5b-a7a5-7fc4b51b0cea","C6C57035021645E38F43495607B44726-2025-05-27-18-36-54","","2916","","images/instructions/movie_1.png","0","",""
"","","","","","image-button-response","11","151363","0.0-6.0-1.0-2.0","C6C57035021645E38F43495607B44726","C6C57035021645E38F43495607B44726","eff8c4d7-ba7a-490c-8542-eacf5e3fd56d","a6b6d205-fa41-4c5b-a7a5-7fc4b51b0cea","{""num_scrambled_semantic"":""8"",""num_scrambled_causal"":""4"",""num_scrambled_schematic"":""4"",""participantId"":""C6C57035021645E38F43495607B44726"",""assignmentId"":""eff8c4d7-ba7a-490c-8542-eacf5e3fd56d"",""projectId"":""a6b6d205-fa41-4c5b-a7a5-7fc4b51b0cea""}","https://test12345.live/?num_scrambled_semantic=8&num_scrambled_causal=4&num_scrambled_schematic=4&participantId=C6C57035021645E38F43495607B44726&assignmentId=eff8c4d7-ba7a-490c-8542-eacf5e3fd56d&projectId=a6b6d205-fa41-4c5b-a7a5-7fc4b51b0cea","C6C57035021645E38F43495607B44726-2025-05-27-18-36-54","","null","","[]","null","",""
"","","","","","image-button-response","12","155872","0.0-6.0-1.0-0.1","C6C57035021645E38F43495607B44726","C6C57035021645E38F43495607B44726","eff8c4d7-ba7a-490c-8542-eacf5e3fd56d","a6b6d205-fa41-4c5b-a7a5-7fc4b51b0cea","{""num_scrambled_semantic"":""8"",""num_scrambled_causal"":""4"",""num_scrambled_schematic"":""4"",""participantId"":""C6C57035021645E38F43495607B44726"",""assignmentId"":""eff8c4d7-ba7a-490c-8542-eacf5e3fd56d"",""projectId"":""a6b6d205-fa41-4c5b-a7a5-7fc4b51b0cea""}","https://test12345.live/?num_scrambled_semantic=8&num_scrambled_causal=4&num_scrambled_schematic=4&participantId=C6C57035021645E38F43495607B44726&assignmentId=eff8c4d7-ba7a-490c-8542-eacf5e3fd56d&projectId=a6b6d205-fa41-4c5b-a7a5-7fc4b51b0cea","C6C57035021645E38F43495607B44726-2025-05-27-18-36-54","","null","","images/instructions/movie_2.png","null","",""
"","","","","","image-button-response","13","158672","0.0-6.0-1.0-1.1","C6C57035021645E38F43495607B44726","C6C57035021645E38F43495607B44726","eff8c4d7-ba7a-490c-8542-eacf5e3fd56d","a6b6d205-fa41-4c5b-a7a5-7fc4b51b0cea","{""num_scrambled_semantic"":""8"",""num_scrambled_causal"":""4"",""num_scrambled_schematic"":""4"",""participantId"":""C6C57035021645E38F43495607B44726"",""assignmentId"":""eff8c4d7-ba7a-490c-8542-eacf5e3fd56d"",""projectId"":""a6b6d205-fa41-4c5b-a7a5-7fc4b51b0cea""}","https://test12345.live/?num_scrambled_semantic=8&num_scrambled_causal=4&num_scrambled_schematic=4&participantId=C6C57035021645E38F43495607B44726&assignmentId=eff8c4d7-ba7a-490c-8542-eacf5e3fd56d&projectId=a6b6d205-fa41-4c5b-a7a5-7fc4b51b0cea","C6C57035021645E38F43495607B44726-2025-05-27-18-36-54","","2798","","images/instructions/movie_2.png","0","",""
"","","","","","image-button-response","14","160482","0.0-6.0-1.0-2.1","C6C57035021645E38F43495607B44726","C6C57035021645E38F43495607B44726","eff8c4d7-ba7a-490c-8542-eacf5e3fd56d","a6b6d205-fa41-4c5b-a7a5-7fc4b51b0cea","{""num_scrambled_semantic"":""8"",""num_scrambled_causal"":""4"",""num_scrambled_schematic"":""4"",""participantId"":""C6C57035021645E38F43495607B44726"",""assignmentId"":""eff8c4d7-ba7a-490c-8542-eacf5e3fd56d"",""projectId"":""a6b6d205-fa41-4c5b-a7a5-7fc4b51b0cea""}","https://test12345.live/?num_scrambled_semantic=8&num_scrambled_causal=4&num_scrambled_schematic=4&participantId=C6C57035021645E38F43495607B44726&assignmentId=eff8c4d7-ba7a-490c-8542-eacf5e3fd56d&projectId=a6b6d205-fa41-4c5b-a7a5-7fc4b51b0cea","C6C57035021645E38F43495607B44726-2025-05-27-18-36-54","","null","","[]","null","",""
"","","","","","image-button-response","15","164988","0.0-6.0-1.0-0.2","C6C57035021645E38F43495607B44726","C6C57035021645E38F43495607B44726","eff8c4d7-ba7a-490c-8542-eacf5e3fd56d","a6b6d205-fa41-4c5b-a7a5-7fc4b51b0cea","{""num_scrambled_semantic"":""8"",""num_scrambled_causal"":""4"",""num_scrambled_schematic"":""4"",""participantId"":""C6C57035021645E38F43495607B44726"",""assignmentId"":""eff8c4d7-ba7a-490c-8542-eacf5e3fd56d"",""projectId"":""a6b6d205-fa41-4c5b-a7a5-7fc4b51b0cea""}","https://test12345.live/?num_scrambled_semantic=8&num_scrambled_causal=4&num_scrambled_schematic=4&participantId=C6C57035021645E38F43495607B44726&assignmentId=eff8c4d7-ba7a-490c-8542-eacf5e3fd56d&projectId=a6b6d205-fa41-4c5b-a7a5-7fc4b51b0cea","C6C57035021645E38F43495607B44726-2025-05-27-18-36-54","","null","","images/instructions/movie_3.png","null","",""
"","","","","","image-button-response","16","166315","0.0-6.0-1.0-1.2","C6C57035021645E38F43495607B44726","C6C57035021645E38F43495607B44726","eff8c4d7-ba7a-490c-8542-eacf5e3fd56d","a6b6d205-fa41-4c5b-a7a5-7fc4b51b0cea","{""num_scrambled_semantic"":""8"",""num_scrambled_causal"":""4"",""num_scrambled_schematic"":""4"",""participantId"":""C6C57035021645E38F43495607B44726"",""assignmentId"":""eff8c4d7-ba7a-490c-8542-eacf5e3fd56d"",""projectId"":""a6b6d205-fa41-4c5b-a7a5-7fc4b51b0cea""}","https://test12345.live/?num_scrambled_semantic=8&num_scrambled_causal=4&num_scrambled_schematic=4&participantId=C6C57035021645E38F43495607B44726&assignmentId=eff8c4d7-ba7a-490c-8542-eacf5e3fd56d&projectId=a6b6d205-fa41-4c5b-a7a5-7fc4b51b0cea","C6C57035021645E38F43495607B44726-2025-05-27-18-36-54","","1324","","images/instructions/movie_3.png","0","",""
"","","","","","image-button-response","17","168122","0.0-6.0-1.0-2.2","C6C57035021645E38F43495607B44726","C6C57035021645E38F43495607B44726","eff8c4d7-ba7a-490c-8542-eacf5e3fd56d","a6b6d205-fa41-4c5b-a7a5-7fc4b51b0cea","{""num_scrambled_semantic"":""8"",""num_scrambled_causal"":""4"",""num_scrambled_schematic"":""4"",""participantId"":""C6C57035021645E38F43495607B44726"",""assignmentId"":""eff8c4d7-ba7a-490c-8542-eacf5e3fd56d"",""projectId"":""a6b6d205-fa41-4c5b-a7a5-7fc4b51b0cea""}","https://test12345.live/?num_scrambled_semantic=8&num_scrambled_causal=4&num_scrambled_schematic=4&participantId=C6C57035021645E38F43495607B44726&assignmentId=eff8c4d7-ba7a-490c-8542-eacf5e3fd56d&projectId=a6b6d205-fa41-4c5b-a7a5-7fc4b51b0cea","C6C57035021645E38F43495607B44726-2025-05-27-18-36-54","","null","","[]","null","",""
"","","","","","image-button-response","18","172642","0.0-6.0-1.0-0.3","C6C57035021645E38F43495607B44726","C6C57035021645E38F43495607B44726","eff8c4d7-ba7a-490c-8542-eacf5e3fd56d","a6b6d205-fa41-4c5b-a7a5-7fc4b51b0cea","{""num_scrambled_semantic"":""8"",""num_scrambled_causal"":""4"",""num_scrambled_schematic"":""4"",""participantId"":""C6C57035021645E38F43495607B44726"",""assignmentId"":""eff8c4d7-ba7a-490c-8542-eacf5e3fd56d"",""projectId"":""a6b6d205-fa41-4c5b-a7a5-7fc4b51b0cea""}","https://test12345.live/?num_scrambled_semantic=8&num_scrambled_causal=4&num_scrambled_schematic=4&participantId=C6C57035021645E38F43495607B44726&assignmentId=eff8c4d7-ba7a-490c-8542-eacf5e3fd56d&projectId=a6b6d205-fa41-4c5b-a7a5-7fc4b51b0cea","C6C57035021645E38F43495607B44726-2025-05-27-18-36-54","","null","","images/instructions/movie_4.png","null","",""
"","","","","","image-button-response","19","176652","0.0-6.0-1.0-1.3","C6C57035021645E38F43495607B44726","C6C57035021645E38F43495607B44726","eff8c4d7-ba7a-490c-8542-eacf5e3fd56d","a6b6d205-fa41-4c5b-a7a5-7fc4b51b0cea","{""num_scrambled_semantic"":""8"",""num_scrambled_causal"":""4"",""num_scrambled_schematic"":""4"",""participantId"":""C6C57035021645E38F43495607B44726"",""assignmentId"":""eff8c4d7-ba7a-490c-8542-eacf5e3fd56d"",""projectId"":""a6b6d205-fa41-4c5b-a7a5-7fc4b51b0cea""}","https://test12345.live/?num_scrambled_semantic=8&num_scrambled_causal=4&num_scrambled_schematic=4&participantId=C6C57035021645E38F43495607B44726&assignmentId=eff8c4d7-ba7a-490c-8542-eacf5e3fd56d&projectId=a6b6d205-fa41-4c5b-a7a5-7fc4b51b0cea","C6C57035021645E38F43495607B44726-2025-05-27-18-36-54","","null","","images/instructions/movie_4.png","null","",""
"","","","","","image-button-response","20","178462","0.0-6.0-1.0-2.3","C6C57035021645E38F43495607B44726","C6C57035021645E38F43495607B44726","eff8c4d7-ba7a-490c-8542-eacf5e3fd56d","a6b6d205-fa41-4c5b-a7a5-7fc4b51b0cea","{""num_scrambled_semantic"":""8"",""num_scrambled_causal"":""4"",""num_scrambled_schematic"":""4"",""participantId"":""C6C57035021645E38F43495607B44726"",""assignmentId"":""eff8c4d7-ba7a-490c-8542-eacf5e3fd56d"",""projectId"":""a6b6d205-fa41-4c5b-a7a5-7fc4b51b0cea""}","https://test12345.live/?num_scrambled_semantic=8&num_scrambled_causal=4&num_scrambled_schematic=4&participantId=C6C57035021645E38F43495607B44726&assignmentId=eff8c4d7-ba7a-490c-8542-eacf5e3fd56d&projectId=a6b6d205-fa41-4c5b-a7a5-7fc4b51b0cea","C6C57035021645E38F43495607B44726-2025-05-27-18-36-54","","null","","[]","null","",""
"","","","","","instructions","21","226986","0.0-7.0","C6C57035021645E38F43495607B44726","C6C57035021645E38F43495607B44726","eff8c4d7-ba7a-490c-8542-eacf5e3fd56d","a6b6d205-fa41-4c5b-a7a5-7fc4b51b0cea","{""num_scrambled_semantic"":""8"",""num_scrambled_causal"":""4"",""num_scrambled_schematic"":""4"",""participantId"":""C6C57035021645E38F43495607B44726"",""assignmentId"":""eff8c4d7-ba7a-490c-8542-eacf5e3fd56d"",""projectId"":""a6b6d205-fa41-4c5b-a7a5-7fc4b51b0cea""}","https://test12345.live/?num_scrambled_semantic=8&num_scrambled_causal=4&num_scrambled_schematic=4&participantId=C6C57035021645E38F43495607B44726&assignmentId=eff8c4d7-ba7a-490c-8542-eacf5e3fd56d&projectId=a6b6d205-fa41-4c5b-a7a5-7fc4b51b0cea","C6C57035021645E38F43495607B44726-2025-05-27-18-36-54","[{""page_index"":0,""viewing_time"":47286},{""page_index"":1,""viewing_time"":1237}]","48523","","","","",""
"","","","","","html-audio-response","22","263214","0.0-8.0","C6C57035021645E38F43495607B44726","C6C57035021645E38F43495607B44726","eff8c4d7-ba7a-490c-8542-eacf5e3fd56d","a6b6d205-fa41-4c5b-a7a5-7fc4b51b0cea","{""num_scrambled_semantic"":""8"",""num_scrambled_causal"":""4"",""num_scrambled_schematic"":""4"",""participantId"":""C6C57035021645E38F43495607B44726"",""assignmentId"":""eff8c4d7-ba7a-490c-8542-eacf5e3fd56d"",""projectId"":""a6b6d205-fa41-4c5b-a7a5-7fc4b51b0cea""}","https://test12345.live/?num_scrambled_semantic=8&num_scrambled_causal=4&num_scrambled_schematic=4&participantId=C6C57035021645E38F43495607B44726&assignmentId=eff8c4d7-ba7a-490c-8542-eacf5e3fd56d&projectId=a6b6d205-fa41-4c5b-a7a5-7fc4b51b0cea","C6C57035021645E38F43495607B44726-2025-05-27-18-36-54","","13837","","[""<span style=\""color: red; font-size: 24px\""> NOW RECORDING</span><p>Please say out loud all the images you saw in the exact order you saw them. Try to recall as many images as you can, but remember: getting the order right is more important than the number of images you recall.</p>""]","","17",""
"","","","","","instructions","23","266433","0.0-9.0","C6C57035021645E38F43495607B44726","C6C57035021645E38F43495607B44726","eff8c4d7-ba7a-490c-8542-eacf5e3fd56d","a6b6d205-fa41-4c5b-a7a5-7fc4b51b0cea","{""num_scrambled_semantic"":""8"",""num_scrambled_causal"":""4"",""num_scrambled_schematic"":""4"",""participantId"":""C6C57035021645E38F43495607B44726"",""assignmentId"":""eff8c4d7-ba7a-490c-8542-eacf5e3fd56d"",""projectId"":""a6b6d205-fa41-4c5b-a7a5-7fc4b51b0cea""}","https://test12345.live/?num_scrambled_semantic=8&num_scrambled_causal=4&num_scrambled_schematic=4&participantId=C6C57035021645E38F43495607B44726&assignmentId=eff8c4d7-ba7a-490c-8542-eacf5e3fd56d&projectId=a6b6d205-fa41-4c5b-a7a5-7fc4b51b0cea","C6C57035021645E38F43495607B44726-2025-05-27-18-36-54","[{""page_index"":0,""viewing_time"":3208}]","3209","","","","",""
"","","","","","image-button-response","24","272447","0.0-10.0-0.0","C6C57035021645E38F43495607B44726","C6C57035021645E38F43495607B44726","eff8c4d7-ba7a-490c-8542-eacf5e3fd56d","a6b6d205-fa41-4c5b-a7a5-7fc4b51b0cea","{""num_scrambled_semantic"":""8"",""num_scrambled_causal"":""4"",""num_scrambled_schematic"":""4"",""participantId"":""C6C57035021645E38F43495607B44726"",""assignmentId"":""eff8c4d7-ba7a-490c-8542-eacf5e3fd56d"",""projectId"":""a6b6d205-fa41-4c5b-a7a5-7fc4b51b0cea""}","https://test12345.live/?num_scrambled_semantic=8&num_scrambled_causal=4&num_scrambled_schematic=4&participantId=C6C57035021645E38F43495607B44726&assignmentId=eff8c4d7-ba7a-490c-8542-eacf5e3fd56d&projectId=a6b6d205-fa41-4c5b-a7a5-7fc4b51b0cea","C6C57035021645E38F43495607B44726-2025-05-27-18-36-54","","null","","images/semantic_sequence/redecorating_semantic/redecorating_semantic_0.png","null","",""
"","","","","","image-button-response","25","276954","0.0-10.0-1.0-0.0","C6C57035021645E38F43495607B44726","C6C57035021645E38F43495607B44726","eff8c4d7-ba7a-490c-8542-eacf5e3fd56d","a6b6d205-fa41-4c5b-a7a5-7fc4b51b0cea","{""num_scrambled_semantic"":""8"",""num_scrambled_causal"":""4"",""num_scrambled_schematic"":""4"",""participantId"":""C6C57035021645E38F43495607B44726"",""assignmentId"":""eff8c4d7-ba7a-490c-8542-eacf5e3fd56d"",""projectId"":""a6b6d205-fa41-4c5b-a7a5-7fc4b51b0cea""}","https://test12345.live/?num_scrambled_semantic=8&num_scrambled_causal=4&num_scrambled_schematic=4&participantId=C6C57035021645E38F43495607B44726&assignmentId=eff8c4d7-ba7a-490c-8542-eacf5e3fd56d&projectId=a6b6d205-fa41-4c5b-a7a5-7fc4b51b0cea","C6C57035021645E38F43495607B44726-2025-05-27-18-36-54","","null","","images/semantic_sequence/redecorating_semantic/redecorating_semantic_1.png","null","",""
"","","","","","image-button-response","26","278706","0.0-10.0-1.0-1.0","C6C57035021645E38F43495607B44726","C6C57035021645E38F43495607B44726","eff8c4d7-ba7a-490c-8542-eacf5e3fd56d","a6b6d205-fa41-4c5b-a7a5-7fc4b51b0cea","{""num_scrambled_semantic"":""8"",""num_scrambled_causal"":""4"",""num_scrambled_schematic"":""4"",""participantId"":""C6C57035021645E38F43495607B44726"",""assignmentId"":""eff8c4d7-ba7a-490c-8542-eacf5e3fd56d"",""projectId"":""a6b6d205-fa41-4c5b-a7a5-7fc4b51b0cea""}","https://test12345.live/?num_scrambled_semantic=8&num_scrambled_causal=4&num_scrambled_schematic=4&participantId=C6C57035021645E38F43495607B44726&assignmentId=eff8c4d7-ba7a-490c-8542-eacf5e3fd56d&projectId=a6b6d205-fa41-4c5b-a7a5-7fc4b51b0cea","C6C57035021645E38F43495607B44726-2025-05-27-18-36-54","","1750","","images/semantic_sequence/redecorating_semantic/redecorating_semantic_1.png","0","",""
"","","","","","image-button-response","27","280508","0.0-10.0-1.0-2.0","C6C57035021645E38F43495607B44726","C6C57035021645E38F43495607B44726","eff8c4d7-ba7a-490c-8542-eacf5e3fd56d","a6b6d205-fa41-4c5b-a7a5-7fc4b51b0cea","{""num_scrambled_semantic"":""8"",""num_scrambled_causal"":""4"",""num_scrambled_schematic"":""4"",""participantId"":""C6C57035021645E38F43495607B44726"",""assignmentId"":""eff8c4d7-ba7a-490c-8542-eacf5e3fd56d"",""projectId"":""a6b6d205-fa41-4c5b-a7a5-7fc4b51b0cea""}","https://test12345.live/?num_scrambled_semantic=8&num_scrambled_causal=4&num_scrambled_schematic=4&participantId=C6C57035021645E38F43495607B44726&assignmentId=eff8c4d7-ba7a-490c-8542-eacf5e3fd56d&projectId=a6b6d205-fa41-4c5b-a7a5-7fc4b51b0cea","C6C57035021645E38F43495607B44726-2025-05-27-18-36-54","","null","","[]","null","",""
"","","","","","image-button-response","28","285013","0.0-10.0-1.0-0.1","C6C57035021645E38F43495607B44726","C6C57035021645E38F43495607B44726","eff8c4d7-ba7a-490c-8542-eacf5e3fd56d","a6b6d205-fa41-4c5b-a7a5-7fc4b51b0cea","{""num_scrambled_semantic"":""8"",""num_scrambled_causal"":""4"",""num_scrambled_schematic"":""4"",""participantId"":""C6C57035021645E38F43495607B44726"",""assignmentId"":""eff8c4d7-ba7a-490c-8542-eacf5e3fd56d"",""projectId"":""a6b6d205-fa41-4c5b-a7a5-7fc4b51b0cea""}","https://test12345.live/?num_scrambled_semantic=8&num_scrambled_causal=4&num_scrambled_schematic=4&participantId=C6C57035021645E38F43495607B44726&assignmentId=eff8c4d7-ba7a-490c-8542-eacf5e3fd56d&projectId=a6b6d205-fa41-4c5b-a7a5-7fc4b51b0cea","C6C57035021645E38F43495607B44726-2025-05-27-18-36-54","","null","","images/semantic_sequence/redecorating_semantic/redecorating_semantic_2.png","null","",""
"","","","","","image-button-response","29","286956","0.0-10.0-1.0-1.1","C6C57035021645E38F43495607B44726","C6C57035021645E38F43495607B44726","eff8c4d7-ba7a-490c-8542-eacf5e3fd56d","a6b6d205-fa41-4c5b-a7a5-7fc4b51b0cea","{""num_scrambled_semantic"":""8"",""num_scrambled_causal"":""4"",""num_scrambled_schematic"":""4"",""participantId"":""C6C57035021645E38F43495607B44726"",""assignmentId"":""eff8c4d7-ba7a-490c-8542-eacf5e3fd56d"",""projectId"":""a6b6d205-fa41-4c5b-a7a5-7fc4b51b0cea""}","https://test12345.live/?num_scrambled_semantic=8&num_scrambled_causal=4&num_scrambled_schematic=4&participantId=C6C57035021645E38F43495607B44726&assignmentId=eff8c4d7-ba7a-490c-8542-eacf5e3fd56d&projectId=a6b6d205-fa41-4c5b-a7a5-7fc4b51b0cea","C6C57035021645E38F43495607B44726-2025-05-27-18-36-54","","1940","","images/semantic_sequence/redecorating_semantic/redecorating_semantic_2.png","0","",""
"","","","","","image-button-response","30","288773","0.0-10.0-1.0-2.1","C6C57035021645E38F43495607B44726","C6C57035021645E38F43495607B44726","eff8c4d7-ba7a-490c-8542-eacf5e3fd56d","a6b6d205-fa41-4c5b-a7a5-7fc4b51b0cea","{""num_scrambled_semantic"":""8"",""num_scrambled_causal"":""4"",""num_scrambled_schematic"":""4"",""participantId"":""C6C57035021645E38F43495607B44726"",""assignmentId"":""eff8c4d7-ba7a-490c-8542-eacf5e3fd56d"",""projectId"":""a6b6d205-fa41-4c5b-a7a5-7fc4b51b0cea""}","https://test12345.live/?num_scrambled_semantic=8&num_scrambled_causal=4&num_scrambled_schematic=4&participantId=C6C57035021645E38F43495607B44726&assignmentId=eff8c4d7-ba7a-490c-8542-eacf5e3fd56d&projectId=a6b6d205-fa41-4c5b-a7a5-7fc4b51b0cea","C6C57035021645E38F43495607B44726-2025-05-27-18-36-54","","null","","[]","null","",""
"","","","","","image-button-response","31","293293","0.0-10.0-1.0-0.2","C6C57035021645E38F43495607B44726","C6C57035021645E38F43495607B44726","eff8c4d7-ba7a-490c-8542-eacf5e3fd56d","a6b6d205-fa41-4c5b-a7a5-7fc4b51b0cea","{""num_scrambled_semantic"":""8"",""num_scrambled_causal"":""4"",""num_scrambled_schematic"":""4"",""participantId"":""C6C57035021645E38F43495607B44726"",""assignmentId"":""eff8c4d7-ba7a-490c-8542-eacf5e3fd56d"",""projectId"":""a6b6d205-fa41-4c5b-a7a5-7fc4b51b0cea""}","https://test12345.live/?num_scrambled_semantic=8&num_scrambled_causal=4&num_scrambled_schematic=4&participantId=C6C57035021645E38F43495607B44726&assignmentId=eff8c4d7-ba7a-490c-8542-eacf5e3fd56d&projectId=a6b6d205-fa41-4c5b-a7a5-7fc4b51b0cea","C6C57035021645E38F43495607B44726-2025-05-27-18-36-54","","null","","images/semantic_sequence/redecorating_semantic/redecorating_semantic_3.png","null","",""
"","","","","","image-button-response","32","296313","0.0-10.0-1.0-1.2","C6C57035021645E38F43495607B44726","C6C57035021645E38F43495607B44726","eff8c4d7-ba7a-490c-8542-eacf5e3fd56d","a6b6d205-fa41-4c5b-a7a5-7fc4b51b0cea","{""num_scrambled_semantic"":""8"",""num_scrambled_causal"":""4"",""num_scrambled_schematic"":""4"",""participantId"":""C6C57035021645E38F43495607B44726"",""assignmentId"":""eff8c4d7-ba7a-490c-8542-eacf5e3fd56d"",""projectId"":""a6b6d205-fa41-4c5b-a7a5-7fc4b51b0cea""}","https://test12345.live/?num_scrambled_semantic=8&num_scrambled_causal=4&num_scrambled_schematic=4&participantId=C6C57035021645E38F43495607B44726&assignmentId=eff8c4d7-ba7a-490c-8542-eacf5e3fd56d&projectId=a6b6d205-fa41-4c5b-a7a5-7fc4b51b0cea","C6C57035021645E38F43495607B44726-2025-05-27-18-36-54","","3017","","images/semantic_sequence/redecorating_semantic/redecorating_semantic_3.png","0","",""
"","","","","","image-button-response","33","298122","0.0-10.0-1.0-2.2","C6C57035021645E38F43495607B44726","C6C57035021645E38F43495607B44726","eff8c4d7-ba7a-490c-8542-eacf5e3fd56d","a6b6d205-fa41-4c5b-a7a5-7fc4b51b0cea","{""num_scrambled_semantic"":""8"",""num_scrambled_causal"":""4"",""num_scrambled_schematic"":""4"",""participantId"":""C6C57035021645E38F43495607B44726"",""assignmentId"":""eff8c4d7-ba7a-490c-8542-eacf5e3fd56d"",""projectId"":""a6b6d205-fa41-4c5b-a7a5-7fc4b51b0cea""}","https://test12345.live/?num_scrambled_semantic=8&num_scrambled_causal=4&num_scrambled_schematic=4&participantId=C6C57035021645E38F43495607B44726&assignmentId=eff8c4d7-ba7a-490c-8542-eacf5e3fd56d&projectId=a6b6d205-fa41-4c5b-a7a5-7fc4b51b0cea","C6C57035021645E38F43495607B44726-2025-05-27-18-36-54","","null","","[]","null","",""
"","","","","","image-button-response","34","302642","0.0-10.0-1.0-0.3","C6C57035021645E38F43495607B44726","C6C57035021645E38F43495607B44726","eff8c4d7-ba7a-490c-8542-eacf5e3fd56d","a6b6d205-fa41-4c5b-a7a5-7fc4b51b0cea","{""num_scrambled_semantic"":""8"",""num_scrambled_causal"":""4"",""num_scrambled_schematic"":""4"",""participantId"":""C6C57035021645E38F43495607B44726"",""assignmentId"":""eff8c4d7-ba7a-490c-8542-eacf5e3fd56d"",""projectId"":""a6b6d205-fa41-4c5b-a7a5-7fc4b51b0cea""}","https://test12345.live/?num_scrambled_semantic=8&num_scrambled_causal=4&num_scrambled_schematic=4&participantId=C6C57035021645E38F43495607B44726&assignmentId=eff8c4d7-ba7a-490c-8542-eacf5e3fd56d&projectId=a6b6d205-fa41-4c5b-a7a5-7fc4b51b0cea","C6C57035021645E38F43495607B44726-2025-05-27-18-36-54","","null","","images/semantic_sequence/redecorating_semantic/redecorating_semantic_4.png","null","",""
"","","","","","image-button-response","35","306652","0.0-10.0-1.0-1.3","C6C57035021645E38F43495607B44726","C6C57035021645E38F43495607B44726","eff8c4d7-ba7a-490c-8542-eacf5e3fd56d","a6b6d205-fa41-4c5b-a7a5-7fc4b51b0cea","{""num_scrambled_semantic"":""8"",""num_scrambled_causal"":""4"",""num_scrambled_schematic"":""4"",""participantId"":""C6C57035021645E38F43495607B44726"",""assignmentId"":""eff8c4d7-ba7a-490c-8542-eacf5e3fd56d"",""projectId"":""a6b6d205-fa41-4c5b-a7a5-7fc4b51b0cea""}","https://test12345.live/?num_scrambled_semantic=8&num_scrambled_causal=4&num_scrambled_schematic=4&participantId=C6C57035021645E38F43495607B44726&assignmentId=eff8c4d7-ba7a-490c-8542-eacf5e3fd56d&projectId=a6b6d205-fa41-4c5b-a7a5-7fc4b51b0cea","C6C57035021645E38F43495607B44726-2025-05-27-18-36-54","","null","","images/semantic_sequence/redecorating_semantic/redecorating_semantic_4.png","null","",""
"","","","","","image-button-response","36","308462","0.0-10.0-1.0-2.3","C6C57035021645E38F43495607B44726","C6C57035021645E38F43495607B44726","eff8c4d7-ba7a-490c-8542-eacf5e3fd56d","a6b6d205-fa41-4c5b-a7a5-7fc4b51b0cea","{""num_scrambled_semantic"":""8"",""num_scrambled_causal"":""4"",""num_scrambled_schematic"":""4"",""participantId"":""C6C57035021645E38F43495607B44726"",""assignmentId"":""eff8c4d7-ba7a-490c-8542-eacf5e3fd56d"",""projectId"":""a6b6d205-fa41-4c5b-a7a5-7fc4b51b0cea""}","https://test12345.live/?num_scrambled_semantic=8&num_scrambled_causal=4&num_scrambled_schematic=4&participantId=C6C57035021645E38F43495607B44726&assignmentId=eff8c4d7-ba7a-490c-8542-eacf5e3fd56d&projectId=a6b6d205-fa41-4c5b-a7a5-7fc4b51b0cea","C6C57035021645E38F43495607B44726-2025-05-27-18-36-54","","null","","[]","null","",""
"","","","","","image-button-response","37","312972","0.0-10.0-1.0-0.4","C6C57035021645E38F43495607B44726","C6C57035021645E38F43495607B44726","eff8c4d7-ba7a-490c-8542-eacf5e3fd56d","a6b6d205-fa41-4c5b-a7a5-7fc4b51b0cea","{""num_scrambled_semantic"":""8"",""num_scrambled_causal"":""4"",""num_scrambled_schematic"":""4"",""participantId"":""C6C57035021645E38F43495607B44726"",""assignmentId"":""eff8c4d7-ba7a-490c-8542-eacf5e3fd56d"",""projectId"":""a6b6d205-fa41-4c5b-a7a5-7fc4b51b0cea""}","https://test12345.live/?num_scrambled_semantic=8&num_scrambled_causal=4&num_scrambled_schematic=4&participantId=C6C57035021645E38F43495607B44726&assignmentId=eff8c4d7-ba7a-490c-8542-eacf5e3fd56d&projectId=a6b6d205-fa41-4c5b-a7a5-7fc4b51b0cea","C6C57035021645E38F43495607B44726-2025-05-27-18-36-54","","null","","images/semantic_sequence/redecorating_semantic/redecorating_semantic_5.png","null","",""
"","","","","","image-button-response","38","314287","0.0-10.0-1.0-1.4","C6C57035021645E38F43495607B44726","C6C57035021645E38F43495607B44726","eff8c4d7-ba7a-490c-8542-eacf5e3fd56d","a6b6d205-fa41-4c5b-a7a5-7fc4b51b0cea","{""num_scrambled_semantic"":""8"",""num_scrambled_causal"":""4"",""num_scrambled_schematic"":""4"",""participantId"":""C6C57035021645E38F43495607B44726"",""assignmentId"":""eff8c4d7-ba7a-490c-8542-eacf5e3fd56d"",""projectId"":""a6b6d205-fa41-4c5b-a7a5-7fc4b51b0cea""}","https://test12345.live/?num_scrambled_semantic=8&num_scrambled_causal=4&num_scrambled_schematic=4&participantId=C6C57035021645E38F43495607B44726&assignmentId=eff8c4d7-ba7a-490c-8542-eacf5e3fd56d&projectId=a6b6d205-fa41-4c5b-a7a5-7fc4b51b0cea","C6C57035021645E38F43495607B44726-2025-05-27-18-36-54","","1313","","images/semantic_sequence/redecorating_semantic/redecorating_semantic_5.png","0","",""
"","","","","","image-button-response","39","316102","0.0-10.0-1.0-2.4","C6C57035021645E38F43495607B44726","C6C57035021645E38F43495607B44726","eff8c4d7-ba7a-490c-8542-eacf5e3fd56d","a6b6d205-fa41-4c5b-a7a5-7fc4b51b0cea","{""num_scrambled_semantic"":""8"",""num_scrambled_causal"":""4"",""num_scrambled_schematic"":""4"",""participantId"":""C6C57035021645E38F43495607B44726"",""assignmentId"":""eff8c4d7-ba7a-490c-8542-eacf5e3fd56d"",""projectId"":""a6b6d205-fa41-4c5b-a7a5-7fc4b51b0cea""}","https://test12345.live/?num_scrambled_semantic=8&num_scrambled_causal=4&num_scrambled_schematic=4&participantId=C6C57035021645E38F43495607B44726&assignmentId=eff8c4d7-ba7a-490c-8542-eacf5e3fd56d&projectId=a6b6d205-fa41-4c5b-a7a5-7fc4b51b0cea","C6C57035021645E38F43495607B44726-2025-05-27-18-36-54","","null","","[]","null","",""
"","","","","","image-button-response","40","320622","0.0-10.0-1.0-0.5","C6C57035021645E38F43495607B44726","C6C57035021645E38F43495607B44726","eff8c4d7-ba7a-490c-8542-eacf5e3fd56d","a6b6d205-fa41-4c5b-a7a5-7fc4b51b0cea","{""num_scrambled_semantic"":""8"",""num_scrambled_causal"":""4"",""num_scrambled_schematic"":""4"",""participantId"":""C6C57035021645E38F43495607B44726"",""assignmentId"":""eff8c4d7-ba7a-490c-8542-eacf5e3fd56d"",""projectId"":""a6b6d205-fa41-4c5b-a7a5-7fc4b51b0cea""}","https://test12345.live/?num_scrambled_semantic=8&num_scrambled_causal=4&num_scrambled_schematic=4&participantId=C6C57035021645E38F43495607B44726&assignmentId=eff8c4d7-ba7a-490c-8542-eacf5e3fd56d&projectId=a6b6d205-fa41-4c5b-a7a5-7fc4b51b0cea","C6C57035021645E38F43495607B44726-2025-05-27-18-36-54","","null","","images/semantic_sequence/redecorating_semantic/redecorating_semantic_6.png","null","",""
"","","","","","image-button-response","41","322025","0.0-10.0-1.0-1.5","C6C57035021645E38F43495607B44726","C6C57035021645E38F43495607B44726","eff8c4d7-ba7a-490c-8542-eacf5e3fd56d","a6b6d205-fa41-4c5b-a7a5-7fc4b51b0cea","{""num_scrambled_semantic"":""8"",""num_scrambled_causal"":""4"",""num_scrambled_schematic"":""4"",""participantId"":""C6C57035021645E38F43495607B44726"",""assignmentId"":""eff8c4d7-ba7a-490c-8542-eacf5e3fd56d"",""projectId"":""a6b6d205-fa41-4c5b-a7a5-7fc4b51b0cea""}","https://test12345.live/?num_scrambled_semantic=8&num_scrambled_causal=4&num_scrambled_schematic=4&participantId=C6C57035021645E38F43495607B44726&assignmentId=eff8c4d7-ba7a-490c-8542-eacf5e3fd56d&projectId=a6b6d205-fa41-4c5b-a7a5-7fc4b51b0cea","C6C57035021645E38F43495607B44726-2025-05-27-18-36-54","","1400","","images/semantic_sequence/redecorating_semantic/redecorating_semantic_6.png","0","",""
"","","","","","image-button-response","42","323842","0.0-10.0-1.0-2.5","C6C57035021645E38F43495607B44726","C6C57035021645E38F43495607B44726","eff8c4d7-ba7a-490c-8542-eacf5e3fd56d","a6b6d205-fa41-4c5b-a7a5-7fc4b51b0cea","{""num_scrambled_semantic"":""8"",""num_scrambled_causal"":""4"",""num_scrambled_schematic"":""4"",""participantId"":""C6C57035021645E38F43495607B44726"",""assignmentId"":""eff8c4d7-ba7a-490c-8542-eacf5e3fd56d"",""projectId"":""a6b6d205-fa41-4c5b-a7a5-7fc4b51b0cea""}","https://test12345.live/?num_scrambled_semantic=8&num_scrambled_causal=4&num_scrambled_schematic=4&participantId=C6C57035021645E38F43495607B44726&assignmentId=eff8c4d7-ba7a-490c-8542-eacf5e3fd56d&projectId=a6b6d205-fa41-4c5b-a7a5-7fc4b51b0cea","C6C57035021645E38F43495607B44726-2025-05-27-18-36-54","","null","","[]","null","",""
"","","","","","image-button-response","43","328348","0.0-10.0-1.0-0.6","C6C57035021645E38F43495607B44726","C6C57035021645E38F43495607B44726","eff8c4d7-ba7a-490c-8542-eacf5e3fd56d","a6b6d205-fa41-4c5b-a7a5-7fc4b51b0cea","{""num_scrambled_semantic"":""8"",""num_scrambled_causal"":""4"",""num_scrambled_schematic"":""4"",""participantId"":""C6C57035021645E38F43495607B44726"",""assignmentId"":""eff8c4d7-ba7a-490c-8542-eacf5e3fd56d"",""projectId"":""a6b6d205-fa41-4c5b-a7a5-7fc4b51b0cea""}","https://test12345.live/?num_scrambled_semantic=8&num_scrambled_causal=4&num_scrambled_schematic=4&participantId=C6C57035021645E38F43495607B44726&assignmentId=eff8c4d7-ba7a-490c-8542-eacf5e3fd56d&projectId=a6b6d205-fa41-4c5b-a7a5-7fc4b51b0cea","C6C57035021645E38F43495607B44726-2025-05-27-18-36-54","","null","","images/semantic_sequence/redecorating_semantic/redecorating_semantic_7.png","null","",""
"","","","","","image-button-response","44","329623","0.0-10.0-1.0-1.6","C6C57035021645E38F43495607B44726","C6C57035021645E38F43495607B44726","eff8c4d7-ba7a-490c-8542-eacf5e3fd56d","a6b6d205-fa41-4c5b-a7a5-7fc4b51b0cea","{""num_scrambled_semantic"":""8"",""num_scrambled_causal"":""4"",""num_scrambled_schematic"":""4"",""participantId"":""C6C57035021645E38F43495607B44726"",""assignmentId"":""eff8c4d7-ba7a-490c-8542-eacf5e3fd56d"",""projectId"":""a6b6d205-fa41-4c5b-a7a5-7fc4b51b0cea""}","https://test12345.live/?num_scrambled_semantic=8&num_scrambled_causal=4&num_scrambled_schematic=4&participantId=C6C57035021645E38F43495607B44726&assignmentId=eff8c4d7-ba7a-490c-8542-eacf5e3fd56d&projectId=a6b6d205-fa41-4c5b-a7a5-7fc4b51b0cea","C6C57035021645E38F43495607B44726-2025-05-27-18-36-54","","1274","","images/semantic_sequence/redecorating_semantic/redecorating_semantic_7.png","0","",""
"","","","","","image-button-response","45","331442","0.0-10.0-1.0-2.6","C6C57035021645E38F43495607B44726","C6C57035021645E38F43495607B44726","eff8c4d7-ba7a-490c-8542-eacf5e3fd56d","a6b6d205-fa41-4c5b-a7a5-7fc4b51b0cea","{""num_scrambled_semantic"":""8"",""num_scrambled_causal"":""4"",""num_scrambled_schematic"":""4"",""participantId"":""C6C57035021645E38F43495607B44726"",""assignmentId"":""eff8c4d7-ba7a-490c-8542-eacf5e3fd56d"",""projectId"":""a6b6d205-fa41-4c5b-a7a5-7fc4b51b0cea""}","https://test12345.live/?num_scrambled_semantic=8&num_scrambled_causal=4&num_scrambled_schematic=4&participantId=C6C57035021645E38F43495607B44726&assignmentId=eff8c4d7-ba7a-490c-8542-eacf5e3fd56d&projectId=a6b6d205-fa41-4c5b-a7a5-7fc4b51b0cea","C6C57035021645E38F43495607B44726-2025-05-27-18-36-54","","null","","[]","null","",""
"","","","","","image-button-response","46","335952","0.0-10.0-1.0-0.7","C6C57035021645E38F43495607B44726","C6C57035021645E38F43495607B44726","eff8c4d7-ba7a-490c-8542-eacf5e3fd56d","a6b6d205-fa41-4c5b-a7a5-7fc4b51b0cea","{""num_scrambled_semantic"":""8"",""num_scrambled_causal"":""4"",""num_scrambled_schematic"":""4"",""participantId"":""C6C57035021645E38F43495607B44726"",""assignmentId"":""eff8c4d7-ba7a-490c-8542-eacf5e3fd56d"",""projectId"":""a6b6d205-fa41-4c5b-a7a5-7fc4b51b0cea""}","https://test12345.live/?num_scrambled_semantic=8&num_scrambled_causal=4&num_scrambled_schematic=4&participantId=C6C57035021645E38F43495607B44726&assignmentId=eff8c4d7-ba7a-490c-8542-eacf5e3fd56d&projectId=a6b6d205-fa41-4c5b-a7a5-7fc4b51b0cea","C6C57035021645E38F43495607B44726-2025-05-27-18-36-54","","null","","images/semantic_sequence/redecorating_semantic/redecorating_semantic_8.png","null","",""
"","","","","","image-button-response","47","336959","0.0-10.0-1.0-1.7","C6C57035021645E38F43495607B44726","C6C57035021645E38F43495607B44726","eff8c4d7-ba7a-490c-8542-eacf5e3fd56d","a6b6d205-fa41-4c5b-a7a5-7fc4b51b0cea","{""num_scrambled_semantic"":""8"",""num_scrambled_causal"":""4"",""num_scrambled_schematic"":""4"",""participantId"":""C6C57035021645E38F43495607B44726"",""assignmentId"":""eff8c4d7-ba7a-490c-8542-eacf5e3fd56d"",""projectId"":""a6b6d205-fa41-4c5b-a7a5-7fc4b51b0cea""}","https://test12345.live/?num_scrambled_semantic=8&num_scrambled_causal=4&num_scrambled_schematic=4&participantId=C6C57035021645E38F43495607B44726&assignmentId=eff8c4d7-ba7a-490c-8542-eacf5e3fd56d&projectId=a6b6d205-fa41-4c5b-a7a5-7fc4b51b0cea","C6C57035021645E38F43495607B44726-2025-05-27-18-36-54","","1003","","images/semantic_sequence/redecorating_semantic/redecorating_semantic_8.png","0","",""
"","","","","","image-button-response","48","338773","0.0-10.0-1.0-2.7","C6C57035021645E38F43495607B44726","C6C57035021645E38F43495607B44726","eff8c4d7-ba7a-490c-8542-eacf5e3fd56d","a6b6d205-fa41-4c5b-a7a5-7fc4b51b0cea","{""num_scrambled_semantic"":""8"",""num_scrambled_causal"":""4"",""num_scrambled_schematic"":""4"",""participantId"":""C6C57035021645E38F43495607B44726"",""assignmentId"":""eff8c4d7-ba7a-490c-8542-eacf5e3fd56d"",""projectId"":""a6b6d205-fa41-4c5b-a7a5-7fc4b51b0cea""}","https://test12345.live/?num_scrambled_semantic=8&num_scrambled_causal=4&num_scrambled_schematic=4&participantId=C6C57035021645E38F43495607B44726&assignmentId=eff8c4d7-ba7a-490c-8542-eacf5e3fd56d&projectId=a6b6d205-fa41-4c5b-a7a5-7fc4b51b0cea","C6C57035021645E38F43495607B44726-2025-05-27-18-36-54","","null","","[]","null","",""
"","","","","","image-button-response","49","343282","0.0-10.0-1.0-0.8","C6C57035021645E38F43495607B44726","C6C57035021645E38F43495607B44726","eff8c4d7-ba7a-490c-8542-eacf5e3fd56d","a6b6d205-fa41-4c5b-a7a5-7fc4b51b0cea","{""num_scrambled_semantic"":""8"",""num_scrambled_causal"":""4"",""num_scrambled_schematic"":""4"",""participantId"":""C6C57035021645E38F43495607B44726"",""assignmentId"":""eff8c4d7-ba7a-490c-8542-eacf5e3fd56d"",""projectId"":""a6b6d205-fa41-4c5b-a7a5-7fc4b51b0cea""}","https://test12345.live/?num_scrambled_semantic=8&num_scrambled_causal=4&num_scrambled_schematic=4&participantId=C6C57035021645E38F43495607B44726&assignmentId=eff8c4d7-ba7a-490c-8542-eacf5e3fd56d&projectId=a6b6d205-fa41-4c5b-a7a5-7fc4b51b0cea","C6C57035021645E38F43495607B44726-2025-05-27-18-36-54","","null","","images/semantic_sequence/redecorating_semantic/redecorating_semantic_9.png","null","",""
"","","","","","image-button-response","50","344095","0.0-10.0-1.0-1.8","C6C57035021645E38F43495607B44726","C6C57035021645E38F43495607B44726","eff8c4d7-ba7a-490c-8542-eacf5e3fd56d","a6b6d205-fa41-4c5b-a7a5-7fc4b51b0cea","{""num_scrambled_semantic"":""8"",""num_scrambled_causal"":""4"",""num_scrambled_schematic"":""4"",""participantId"":""C6C57035021645E38F43495607B44726"",""assignmentId"":""eff8c4d7-ba7a-490c-8542-eacf5e3fd56d"",""projectId"":""a6b6d205-fa41-4c5b-a7a5-7fc4b51b0cea""}","https://test12345.live/?num_scrambled_semantic=8&num_scrambled_causal=4&num_scrambled_schematic=4&participantId=C6C57035021645E38F43495607B44726&assignmentId=eff8c4d7-ba7a-490c-8542-eacf5e3fd56d&projectId=a6b6d205-fa41-4c5b-a7a5-7fc4b51b0cea","C6C57035021645E38F43495607B44726-2025-05-27-18-36-54","","811","","images/semantic_sequence/redecorating_semantic/redecorating_semantic_9.png","0","",""
"","","","","","image-button-response","51","345902","0.0-10.0-1.0-2.8","C6C57035021645E38F43495607B44726","C6C57035021645E38F43495607B44726","eff8c4d7-ba7a-490c-8542-eacf5e3fd56d","a6b6d205-fa41-4c5b-a7a5-7fc4b51b0cea","{""num_scrambled_semantic"":""8"",""num_scrambled_causal"":""4"",""num_scrambled_schematic"":""4"",""participantId"":""C6C57035021645E38F43495607B44726"",""assignmentId"":""eff8c4d7-ba7a-490c-8542-eacf5e3fd56d"",""projectId"":""a6b6d205-fa41-4c5b-a7a5-7fc4b51b0cea""}","https://test12345.live/?num_scrambled_semantic=8&num_scrambled_causal=4&num_scrambled_schematic=4&participantId=C6C57035021645E38F43495607B44726&assignmentId=eff8c4d7-ba7a-490c-8542-eacf5e3fd56d&projectId=a6b6d205-fa41-4c5b-a7a5-7fc4b51b0cea","C6C57035021645E38F43495607B44726-2025-05-27-18-36-54","","null","","[]","null","",""
"","","","","","image-button-response","52","350422","0.0-10.0-1.0-0.9","C6C57035021645E38F43495607B44726","C6C57035021645E38F43495607B44726","eff8c4d7-ba7a-490c-8542-eacf5e3fd56d","a6b6d205-fa41-4c5b-a7a5-7fc4b51b0cea","{""num_scrambled_semantic"":""8"",""num_scrambled_causal"":""4"",""num_scrambled_schematic"":""4"",""participantId"":""C6C57035021645E38F43495607B44726"",""assignmentId"":""eff8c4d7-ba7a-490c-8542-eacf5e3fd56d"",""projectId"":""a6b6d205-fa41-4c5b-a7a5-7fc4b51b0cea""}","https://test12345.live/?num_scrambled_semantic=8&num_scrambled_causal=4&num_scrambled_schematic=4&participantId=C6C57035021645E38F43495607B44726&assignmentId=eff8c4d7-ba7a-490c-8542-eacf5e3fd56d&projectId=a6b6d205-fa41-4c5b-a7a5-7fc4b51b0cea","C6C57035021645E38F43495607B44726-2025-05-27-18-36-54","","null","","images/semantic_sequence/redecorating_semantic/redecorating_semantic_ten.png","null","",""
"","","","","","image-button-response","53","351193","0.0-10.0-1.0-1.9","C6C57035021645E38F43495607B44726","C6C57035021645E38F43495607B44726","eff8c4d7-ba7a-490c-8542-eacf5e3fd56d","a6b6d205-fa41-4c5b-a7a5-7fc4b51b0cea","{""num_scrambled_semantic"":""8"",""num_scrambled_causal"":""4"",""num_scrambled_schematic"":""4"",""participantId"":""C6C57035021645E38F43495607B44726"",""assignmentId"":""eff8c4d7-ba7a-490c-8542-eacf5e3fd56d"",""projectId"":""a6b6d205-fa41-4c5b-a7a5-7fc4b51b0cea""}","https://test12345.live/?num_scrambled_semantic=8&num_scrambled_causal=4&num_scrambled_schematic=4&participantId=C6C57035021645E38F43495607B44726&assignmentId=eff8c4d7-ba7a-490c-8542-eacf5e3fd56d&projectId=a6b6d205-fa41-4c5b-a7a5-7fc4b51b0cea","C6C57035021645E38F43495607B44726-2025-05-27-18-36-54","","768","","images/semantic_sequence/redecorating_semantic/redecorating_semantic_ten.png","0","",""
"","","","","","image-button-response","54","353002","0.0-10.0-1.0-2.9","C6C57035021645E38F43495607B44726","C6C57035021645E38F43495607B44726","eff8c4d7-ba7a-490c-8542-eacf5e3fd56d","a6b6d205-fa41-4c5b-a7a5-7fc4b51b0cea","{""num_scrambled_semantic"":""8"",""num_scrambled_causal"":""4"",""num_scrambled_schematic"":""4"",""participantId"":""C6C57035021645E38F43495607B44726"",""assignmentId"":""eff8c4d7-ba7a-490c-8542-eacf5e3fd56d"",""projectId"":""a6b6d205-fa41-4c5b-a7a5-7fc4b51b0cea""}","https://test12345.live/?num_scrambled_semantic=8&num_scrambled_causal=4&num_scrambled_schematic=4&participantId=C6C57035021645E38F43495607B44726&assignmentId=eff8c4d7-ba7a-490c-8542-eacf5e3fd56d&projectId=a6b6d205-fa41-4c5b-a7a5-7fc4b51b0cea","C6C57035021645E38F43495607B44726-2025-05-27-18-36-54","","null","","[]","null","",""
"","","","","","html-audio-response","55","388968","0.0-11.0","C6C57035021645E38F43495607B44726","C6C57035021645E38F43495607B44726","eff8c4d7-ba7a-490c-8542-eacf5e3fd56d","a6b6d205-fa41-4c5b-a7a5-7fc4b51b0cea","{""num_scrambled_semantic"":""8"",""num_scrambled_causal"":""4"",""num_scrambled_schematic"":""4"",""participantId"":""C6C57035021645E38F43495607B44726"",""assignmentId"":""eff8c4d7-ba7a-490c-8542-eacf5e3fd56d"",""projectId"":""a6b6d205-fa41-4c5b-a7a5-7fc4b51b0cea""}","https://test12345.live/?num_scrambled_semantic=8&num_scrambled_causal=4&num_scrambled_schematic=4&participantId=C6C57035021645E38F43495607B44726&assignmentId=eff8c4d7-ba7a-490c-8542-eacf5e3fd56d&projectId=a6b6d205-fa41-4c5b-a7a5-7fc4b51b0cea","C6C57035021645E38F43495607B44726-2025-05-27-18-36-54","","33534","","[""<span style=\""color: red; font-size: 24px\""> NOW RECORDING</span><p>Please say out loud all the images you saw, in the exact order you saw them. Try to recall as many images as you can, but remember: getting the order right is more important than the number of images you recall.</p>""]","","2","redecorating_semantic"
"","","","","","image-button-response","56","394992","0.0-12.0-0.0","C6C57035021645E38F43495607B44726","C6C57035021645E38F43495607B44726","eff8c4d7-ba7a-490c-8542-eacf5e3fd56d","a6b6d205-fa41-4c5b-a7a5-7fc4b51b0cea","{""num_scrambled_semantic"":""8"",""num_scrambled_causal"":""4"",""num_scrambled_schematic"":""4"",""participantId"":""C6C57035021645E38F43495607B44726"",""assignmentId"":""eff8c4d7-ba7a-490c-8542-eacf5e3fd56d"",""projectId"":""a6b6d205-fa41-4c5b-a7a5-7fc4b51b0cea""}","https://test12345.live/?num_scrambled_semantic=8&num_scrambled_causal=4&num_scrambled_schematic=4&participantId=C6C57035021645E38F43495607B44726&assignmentId=eff8c4d7-ba7a-490c-8542-eacf5e3fd56d&projectId=a6b6d205-fa41-4c5b-a7a5-7fc4b51b0cea","C6C57035021645E38F43495607B44726-2025-05-27-18-36-54","","null","","images/semantic_sequence/housework_semantic/housework_semantic_0.png","null","",""
"","","","","","image-button-response","57","399502","0.0-12.0-1.0-0.0","C6C57035021645E38F43495607B44726","C6C57035021645E38F43495607B44726","eff8c4d7-ba7a-490c-8542-eacf5e3fd56d","a6b6d205-fa41-4c5b-a7a5-7fc4b51b0cea","{""num_scrambled_semantic"":""8"",""num_scrambled_causal"":""4"",""num_scrambled_schematic"":""4"",""participantId"":""C6C57035021645E38F43495607B44726"",""assignmentId"":""eff8c4d7-ba7a-490c-8542-eacf5e3fd56d"",""projectId"":""a6b6d205-fa41-4c5b-a7a5-7fc4b51b0cea""}","https://test12345.live/?num_scrambled_semantic=8&num_scrambled_causal=4&num_scrambled_schematic=4&participantId=C6C57035021645E38F43495607B44726&assignmentId=eff8c4d7-ba7a-490c-8542-eacf5e3fd56d&projectId=a6b6d205-fa41-4c5b-a7a5-7fc4b51b0cea","C6C57035021645E38F43495607B44726-2025-05-27-18-36-54","","null","","images/semantic_sequence/housework_semantic/housework_semantic_3.png","null","",""
"","","","","","image-button-response","58","400789","0.0-12.0-1.0-1.0","C6C57035021645E38F43495607B44726","C6C57035021645E38F43495607B44726","eff8c4d7-ba7a-490c-8542-eacf5e3fd56d","a6b6d205-fa41-4c5b-a7a5-7fc4b51b0cea","{""num_scrambled_semantic"":""8"",""num_scrambled_causal"":""4"",""num_scrambled_schematic"":""4"",""participantId"":""C6C57035021645E38F43495607B44726"",""assignmentId"":""eff8c4d7-ba7a-490c-8542-eacf5e3fd56d"",""projectId"":""a6b6d205-fa41-4c5b-a7a5-7fc4b51b0cea""}","https://test12345.live/?num_scrambled_semantic=8&num_scrambled_causal=4&num_scrambled_schematic=4&participantId=C6C57035021645E38F43495607B44726&assignmentId=eff8c4d7-ba7a-490c-8542-eacf5e3fd56d&projectId=a6b6d205-fa41-4c5b-a7a5-7fc4b51b0cea","C6C57035021645E38F43495607B44726-2025-05-27-18-36-54","","1285","","images/semantic_sequence/housework_semantic/housework_semantic_3.png","0","",""
"","","","","","image-button-response","59","402607","0.0-12.0-1.0-2.0","C6C57035021645E38F43495607B44726","C6C57035021645E38F43495607B44726","eff8c4d7-ba7a-490c-8542-eacf5e3fd56d","a6b6d205-fa41-4c5b-a7a5-7fc4b51b0cea","{""num_scrambled_semantic"":""8"",""num_scrambled_causal"":""4"",""num_scrambled_schematic"":""4"",""participantId"":""C6C57035021645E38F43495607B44726"",""assignmentId"":""eff8c4d7-ba7a-490c-8542-eacf5e3fd56d"",""projectId"":""a6b6d205-fa41-4c5b-a7a5-7fc4b51b0cea""}","https://test12345.live/?num_scrambled_semantic=8&num_scrambled_causal=4&num_scrambled_schematic=4&participantId=C6C57035021645E38F43495607B44726&assignmentId=eff8c4d7-ba7a-490c-8542-eacf5e3fd56d&projectId=a6b6d205-fa41-4c5b-a7a5-7fc4b51b0cea","C6C57035021645E38F43495607B44726-2025-05-27-18-36-54","","null","","[]","null","",""
"","","","","","image-button-response","60","407112","0.0-12.0-1.0-0.1","C6C57035021645E38F43495607B44726","C6C57035021645E38F43495607B44726","eff8c4d7-ba7a-490c-8542-eacf5e3fd56d","a6b6d205-fa41-4c5b-a7a5-7fc4b51b0cea","{""num_scrambled_semantic"":""8"",""num_scrambled_causal"":""4"",""num_scrambled_schematic"":""4"",""participantId"":""C6C57035021645E38F43495607B44726"",""assignmentId"":""eff8c4d7-ba7a-490c-8542-eacf5e3fd56d"",""projectId"":""a6b6d205-fa41-4c5b-a7a5-7fc4b51b0cea""}","https://test12345.live/?num_scrambled_semantic=8&num_scrambled_causal=4&num_scrambled_schematic=4&participantId=C6C57035021645E38F43495607B44726&assignmentId=eff8c4d7-ba7a-490c-8542-eacf5e3fd56d&projectId=a6b6d205-fa41-4c5b-a7a5-7fc4b51b0cea","C6C57035021645E38F43495607B44726-2025-05-27-18-36-54","","null","","images/semantic_sequence/housework_semantic/housework_semantic_9.png","null","",""
"","","","","","image-button-response","61","408758","0.0-12.0-1.0-1.1","C6C57035021645E38F43495607B44726","C6C57035021645E38F43495607B44726","eff8c4d7-ba7a-490c-8542-eacf5e3fd56d","a6b6d205-fa41-4c5b-a7a5-7fc4b51b0cea","{""num_scrambled_semantic"":""8"",""num_scrambled_causal"":""4"",""num_scrambled_schematic"":""4"",""participantId"":""C6C57035021645E38F43495607B44726"",""assignmentId"":""eff8c4d7-ba7a-490c-8542-eacf5e3fd56d"",""projectId"":""a6b6d205-fa41-4c5b-a7a5-7fc4b51b0cea""}","https://test12345.live/?num_scrambled_semantic=8&num_scrambled_causal=4&num_scrambled_schematic=4&participantId=C6C57035021645E38F43495607B44726&assignmentId=eff8c4d7-ba7a-490c-8542-eacf5e3fd56d&projectId=a6b6d205-fa41-4c5b-a7a5-7fc4b51b0cea","C6C57035021645E38F43495607B44726-2025-05-27-18-36-54","","1644","","images/semantic_sequence/housework_semantic/housework_semantic_9.png","0","",""
"","","","","","image-button-response","62","410564","0.0-12.0-1.0-2.1","C6C57035021645E38F43495607B44726","C6C57035021645E38F43495607B44726","eff8c4d7-ba7a-490c-8542-eacf5e3fd56d","a6b6d205-fa41-4c5b-a7a5-7fc4b51b0cea","{""num_scrambled_semantic"":""8"",""num_scrambled_causal"":""4"",""num_scrambled_schematic"":""4"",""participantId"":""C6C57035021645E38F43495607B44726"",""assignmentId"":""eff8c4d7-ba7a-490c-8542-eacf5e3fd56d"",""projectId"":""a6b6d205-fa41-4c5b-a7a5-7fc4b51b0cea""}","https://test12345.live/?num_scrambled_semantic=8&num_scrambled_causal=4&num_scrambled_schematic=4&participantId=C6C57035021645E38F43495607B44726&assignmentId=eff8c4d7-ba7a-490c-8542-eacf5e3fd56d&projectId=a6b6d205-fa41-4c5b-a7a5-7fc4b51b0cea","C6C57035021645E38F43495607B44726-2025-05-27-18-36-54","","null","","[]","null","",""
"","","","","","image-button-response","63","415079","0.0-12.0-1.0-0.2","C6C57035021645E38F43495607B44726","C6C57035021645E38F43495607B44726","eff8c4d7-ba7a-490c-8542-eacf5e3fd56d","a6b6d205-fa41-4c5b-a7a5-7fc4b51b0cea","{""num_scrambled_semantic"":""8"",""num_scrambled_causal"":""4"",""num_scrambled_schematic"":""4"",""participantId"":""C6C57035021645E38F43495607B44726"",""assignmentId"":""eff8c4d7-ba7a-490c-8542-eacf5e3fd56d"",""projectId"":""a6b6d205-fa41-4c5b-a7a5-7fc4b51b0cea""}","https://test12345.live/?num_scrambled_semantic=8&num_scrambled_causal=4&num_scrambled_schematic=4&participantId=C6C57035021645E38F43495607B44726&assignmentId=eff8c4d7-ba7a-490c-8542-eacf5e3fd56d&projectId=a6b6d205-fa41-4c5b-a7a5-7fc4b51b0cea","C6C57035021645E38F43495607B44726-2025-05-27-18-36-54","","null","","images/semantic_sequence/housework_semantic/housework_semantic_ten.png","null","",""
"","","","","","image-button-response","64","416722","0.0-12.0-1.0-1.2","C6C57035021645E38F43495607B44726","C6C57035021645E38F43495607B44726","eff8c4d7-ba7a-490c-8542-eacf5e3fd56d","a6b6d205-fa41-4c5b-a7a5-7fc4b51b0cea","{""num_scrambled_semantic"":""8"",""num_scrambled_causal"":""4"",""num_scrambled_schematic"":""4"",""participantId"":""C6C57035021645E38F43495607B44726"",""assignmentId"":""eff8c4d7-ba7a-490c-8542-eacf5e3fd56d"",""projectId"":""a6b6d205-fa41-4c5b-a7a5-7fc4b51b0cea""}","https://test12345.live/?num_scrambled_semantic=8&num_scrambled_causal=4&num_scrambled_schematic=4&participantId=C6C57035021645E38F43495607B44726&assignmentId=eff8c4d7-ba7a-490c-8542-eacf5e3fd56d&projectId=a6b6d205-fa41-4c5b-a7a5-7fc4b51b0cea","C6C57035021645E38F43495607B44726-2025-05-27-18-36-54","","1639","","images/semantic_sequence/housework_semantic/housework_semantic_ten.png","0","",""
"","","","","","image-button-response","65","418532","0.0-12.0-1.0-2.2","C6C57035021645E38F43495607B44726","C6C57035021645E38F43495607B44726","eff8c4d7-ba7a-490c-8542-eacf5e3fd56d","a6b6d205-fa41-4c5b-a7a5-7fc4b51b0cea","{""num_scrambled_semantic"":""8"",""num_scrambled_causal"":""4"",""num_scrambled_schematic"":""4"",""participantId"":""C6C57035021645E38F43495607B44726"",""assignmentId"":""eff8c4d7-ba7a-490c-8542-eacf5e3fd56d"",""projectId"":""a6b6d205-fa41-4c5b-a7a5-7fc4b51b0cea""}","https://test12345.live/?num_scrambled_semantic=8&num_scrambled_causal=4&num_scrambled_schematic=4&participantId=C6C57035021645E38F43495607B44726&assignmentId=eff8c4d7-ba7a-490c-8542-eacf5e3fd56d&projectId=a6b6d205-fa41-4c5b-a7a5-7fc4b51b0cea","C6C57035021645E38F43495607B44726-2025-05-27-18-36-54","","null","","[]","null","",""
"","","","","","image-button-response","66","423042","0.0-12.0-1.0-0.3","C6C57035021645E38F43495607B44726","C6C57035021645E38F43495607B44726","eff8c4d7-ba7a-490c-8542-eacf5e3fd56d","a6b6d205-fa41-4c5b-a7a5-7fc4b51b0cea","{""num_scrambled_semantic"":""8"",""num_scrambled_causal"":""4"",""num_scrambled_schematic"":""4"",""participantId"":""C6C57035021645E38F43495607B44726"",""assignmentId"":""eff8c4d7-ba7a-490c-8542-eacf5e3fd56d"",""projectId"":""a6b6d205-fa41-4c5b-a7a5-7fc4b51b0cea""}","https://test12345.live/?num_scrambled_semantic=8&num_scrambled_causal=4&num_scrambled_schematic=4&participantId=C6C57035021645E38F43495607B44726&assignmentId=eff8c4d7-ba7a-490c-8542-eacf5e3fd56d&projectId=a6b6d205-fa41-4c5b-a7a5-7fc4b51b0cea","C6C57035021645E38F43495607B44726-2025-05-27-18-36-54","","null","","images/semantic_sequence/housework_semantic/housework_semantic_4.png","null","",""
"","","","","","image-button-response","67","424757","0.0-12.0-1.0-1.3","C6C57035021645E38F43495607B44726","C6C57035021645E38F43495607B44726","eff8c4d7-ba7a-490c-8542-eacf5e3fd56d","a6b6d205-fa41-4c5b-a7a5-7fc4b51b0cea","{""num_scrambled_semantic"":""8"",""num_scrambled_causal"":""4"",""num_scrambled_schematic"":""4"",""participantId"":""C6C57035021645E38F43495607B44726"",""assignmentId"":""eff8c4d7-ba7a-490c-8542-eacf5e3fd56d"",""projectId"":""a6b6d205-fa41-4c5b-a7a5-7fc4b51b0cea""}","https://test12345.live/?num_scrambled_semantic=8&num_scrambled_causal=4&num_scrambled_schematic=4&participantId=C6C57035021645E38F43495607B44726&assignmentId=eff8c4d7-ba7a-490c-8542-eacf5e3fd56d&projectId=a6b6d205-fa41-4c5b-a7a5-7fc4b51b0cea","C6C57035021645E38F43495607B44726-2025-05-27-18-36-54","","1713","","images/semantic_sequence/housework_semantic/housework_semantic_4.png","0","",""
"","","","","","image-button-response","68","426561","0.0-12.0-1.0-2.3","C6C57035021645E38F43495607B44726","C6C57035021645E38F43495607B44726","eff8c4d7-ba7a-490c-8542-eacf5e3fd56d","a6b6d205-fa41-4c5b-a7a5-7fc4b51b0cea","{""num_scrambled_semantic"":""8"",""num_scrambled_causal"":""4"",""num_scrambled_schematic"":""4"",""participantId"":""C6C57035021645E38F43495607B44726"",""assignmentId"":""eff8c4d7-ba7a-490c-8542-eacf5e3fd56d"",""projectId"":""a6b6d205-fa41-4c5b-a7a5-7fc4b51b0cea""}","https://test12345.live/?num_scrambled_semantic=8&num_scrambled_causal=4&num_scrambled_schematic=4&participantId=C6C57035021645E38F43495607B44726&assignmentId=eff8c4d7-ba7a-490c-8542-eacf5e3fd56d&projectId=a6b6d205-fa41-4c5b-a7a5-7fc4b51b0cea","C6C57035021645E38F43495607B44726-2025-05-27-18-36-54","","null","","[]","null","",""
"","","","","","image-button-response","69","431072","0.0-12.0-1.0-0.4","C6C57035021645E38F43495607B44726","C6C57035021645E38F43495607B44726","eff8c4d7-ba7a-490c-8542-eacf5e3fd56d","a6b6d205-fa41-4c5b-a7a5-7fc4b51b0cea","{""num_scrambled_semantic"":""8"",""num_scrambled_causal"":""4"",""num_scrambled_schematic"":""4"",""participantId"":""C6C57035021645E38F43495607B44726"",""assignmentId"":""eff8c4d7-ba7a-490c-8542-eacf5e3fd56d"",""projectId"":""a6b6d205-fa41-4c5b-a7a5-7fc4b51b0cea""}","https://test12345.live/?num_scrambled_semantic=8&num_scrambled_causal=4&num_scrambled_schematic=4&participantId=C6C57035021645E38F43495607B44726&assignmentId=eff8c4d7-ba7a-490c-8542-eacf5e3fd56d&projectId=a6b6d205-fa41-4c5b-a7a5-7fc4b51b0cea","C6C57035021645E38F43495607B44726-2025-05-27-18-36-54","","null","","images/semantic_sequence/housework_semantic/housework_semantic_1.png","null","",""
"","","","","","image-button-response","70","433204","0.0-12.0-1.0-1.4","C6C57035021645E38F43495607B44726","C6C57035021645E38F43495607B44726","eff8c4d7-ba7a-490c-8542-eacf5e3fd56d","a6b6d205-fa41-4c5b-a7a5-7fc4b51b0cea","{""num_scrambled_semantic"":""8"",""num_scrambled_causal"":""4"",""num_scrambled_schematic"":""4"",""participantId"":""C6C57035021645E38F43495607B44726"",""assignmentId"":""eff8c4d7-ba7a-490c-8542-eacf5e3fd56d"",""projectId"":""a6b6d205-fa41-4c5b-a7a5-7fc4b51b0cea""}","https://test12345.live/?num_scrambled_semantic=8&num_scrambled_causal=4&num_scrambled_schematic=4&participantId=C6C57035021645E38F43495607B44726&assignmentId=eff8c4d7-ba7a-490c-8542-eacf5e3fd56d&projectId=a6b6d205-fa41-4c5b-a7a5-7fc4b51b0cea","C6C57035021645E38F43495607B44726-2025-05-27-18-36-54","","2130","","images/semantic_sequence/housework_semantic/housework_semantic_1.png","0","",""
"","","","","","image-button-response","71","435018","0.0-12.0-1.0-2.4","C6C57035021645E38F43495607B44726","C6C57035021645E38F43495607B44726","eff8c4d7-ba7a-490c-8542-eacf5e3fd56d","a6b6d205-fa41-4c5b-a7a5-7fc4b51b0cea","{""num_scrambled_semantic"":""8"",""num_scrambled_causal"":""4"",""num_scrambled_schematic"":""4"",""participantId"":""C6C57035021645E38F43495607B44726"",""assignmentId"":""eff8c4d7-ba7a-490c-8542-eacf5e3fd56d"",""projectId"":""a6b6d205-fa41-4c5b-a7a5-7fc4b51b0cea""}","https://test12345.live/?num_scrambled_semantic=8&num_scrambled_causal=4&num_scrambled_schematic=4&participantId=C6C57035021645E38F43495607B44726&assignmentId=eff8c4d7-ba7a-490c-8542-eacf5e3fd56d&projectId=a6b6d205-fa41-4c5b-a7a5-7fc4b51b0cea","C6C57035021645E38F43495607B44726-2025-05-27-18-36-54","","null","","[]","null","",""
"","","","","","image-button-response","72","439527","0.0-12.0-1.0-0.5","C6C57035021645E38F43495607B44726","C6C57035021645E38F43495607B44726","eff8c4d7-ba7a-490c-8542-eacf5e3fd56d","a6b6d205-fa41-4c5b-a7a5-7fc4b51b0cea","{""num_scrambled_semantic"":""8"",""num_scrambled_causal"":""4"",""num_scrambled_schematic"":""4"",""participantId"":""C6C57035021645E38F43495607B44726"",""assignmentId"":""eff8c4d7-ba7a-490c-8542-eacf5e3fd56d"",""projectId"":""a6b6d205-fa41-4c5b-a7a5-7fc4b51b0cea""}","https://test12345.live/?num_scrambled_semantic=8&num_scrambled_causal=4&num_scrambled_schematic=4&participantId=C6C57035021645E38F43495607B44726&assignmentId=eff8c4d7-ba7a-490c-8542-eacf5e3fd56d&projectId=a6b6d205-fa41-4c5b-a7a5-7fc4b51b0cea","C6C57035021645E38F43495607B44726-2025-05-27-18-36-54","","null","","images/semantic_sequence/housework_semantic/housework_semantic_8.png","null","",""
"","","","","","image-button-response","73","440969","0.0-12.0-1.0-1.5","C6C57035021645E38F43495607B44726","C6C57035021645E38F43495607B44726","eff8c4d7-ba7a-490c-8542-eacf5e3fd56d","a6b6d205-fa41-4c5b-a7a5-7fc4b51b0cea","{""num_scrambled_semantic"":""8"",""num_scrambled_causal"":""4"",""num_scrambled_schematic"":""4"",""participantId"":""C6C57035021645E38F43495607B44726"",""assignmentId"":""eff8c4d7-ba7a-490c-8542-eacf5e3fd56d"",""projectId"":""a6b6d205-fa41-4c5b-a7a5-7fc4b51b0cea""}","https://test12345.live/?num_scrambled_semantic=8&num_scrambled_causal=4&num_scrambled_schematic=4&participantId=C6C57035021645E38F43495607B44726&assignmentId=eff8c4d7-ba7a-490c-8542-eacf5e3fd56d&projectId=a6b6d205-fa41-4c5b-a7a5-7fc4b51b0cea","C6C57035021645E38F43495607B44726-2025-05-27-18-36-54","","1440","","images/semantic_sequence/housework_semantic/housework_semantic_8.png","0","",""
"","","","","","image-button-response","74","442788","0.0-12.0-1.0-2.5","C6C57035021645E38F43495607B44726","C6C57035021645E38F43495607B44726","eff8c4d7-ba7a-490c-8542-eacf5e3fd56d","a6b6d205-fa41-4c5b-a7a5-7fc4b51b0cea","{""num_scrambled_semantic"":""8"",""num_scrambled_causal"":""4"",""num_scrambled_schematic"":""4"",""participantId"":""C6C57035021645E38F43495607B44726"",""assignmentId"":""eff8c4d7-ba7a-490c-8542-eacf5e3fd56d"",""projectId"":""a6b6d205-fa41-4c5b-a7a5-7fc4b51b0cea""}","https://test12345.live/?num_scrambled_semantic=8&num_scrambled_causal=4&num_scrambled_schematic=4&participantId=C6C57035021645E38F43495607B44726&assignmentId=eff8c4d7-ba7a-490c-8542-eacf5e3fd56d&projectId=a6b6d205-fa41-4c5b-a7a5-7fc4b51b0cea","C6C57035021645E38F43495607B44726-2025-05-27-18-36-54","","null","","[]","null","",""
"","","","","","image-button-response","75","447297","0.0-12.0-1.0-0.6","C6C57035021645E38F43495607B44726","C6C57035021645E38F43495607B44726","eff8c4d7-ba7a-490c-8542-eacf5e3fd56d","a6b6d205-fa41-4c5b-a7a5-7fc4b51b0cea","{""num_scrambled_semantic"":""8"",""num_scrambled_causal"":""4"",""num_scrambled_schematic"":""4"",""participantId"":""C6C57035021645E38F43495607B44726"",""assignmentId"":""eff8c4d7-ba7a-490c-8542-eacf5e3fd56d"",""projectId"":""a6b6d205-fa41-4c5b-a7a5-7fc4b51b0cea""}","https://test12345.live/?num_scrambled_semantic=8&num_scrambled_causal=4&num_scrambled_schematic=4&participantId=C6C57035021645E38F43495607B44726&assignmentId=eff8c4d7-ba7a-490c-8542-eacf5e3fd56d&projectId=a6b6d205-fa41-4c5b-a7a5-7fc4b51b0cea","C6C57035021645E38F43495607B44726-2025-05-27-18-36-54","","null","","images/semantic_sequence/housework_semantic/housework_semantic_2.png","null","",""
"","","","","","image-button-response","76","449030","0.0-12.0-1.0-1.6","C6C57035021645E38F43495607B44726","C6C57035021645E38F43495607B44726","eff8c4d7-ba7a-490c-8542-eacf5e3fd56d","a6b6d205-fa41-4c5b-a7a5-7fc4b51b0cea","{""num_scrambled_semantic"":""8"",""num_scrambled_causal"":""4"",""num_scrambled_schematic"":""4"",""participantId"":""C6C57035021645E38F43495607B44726"",""assignmentId"":""eff8c4d7-ba7a-490c-8542-eacf5e3fd56d"",""projectId"":""a6b6d205-fa41-4c5b-a7a5-7fc4b51b0cea""}","https://test12345.live/?num_scrambled_semantic=8&num_scrambled_causal=4&num_scrambled_schematic=4&participantId=C6C57035021645E38F43495607B44726&assignmentId=eff8c4d7-ba7a-490c-8542-eacf5e3fd56d&projectId=a6b6d205-fa41-4c5b-a7a5-7fc4b51b0cea","C6C57035021645E38F43495607B44726-2025-05-27-18-36-54","","1730","","images/semantic_sequence/housework_semantic/housework_semantic_2.png","0","",""
"","","","","","image-button-response","77","450837","0.0-12.0-1.0-2.6","C6C57035021645E38F43495607B44726","C6C57035021645E38F43495607B44726","eff8c4d7-ba7a-490c-8542-eacf5e3fd56d","a6b6d205-fa41-4c5b-a7a5-7fc4b51b0cea","{""num_scrambled_semantic"":""8"",""num_scrambled_causal"":""4"",""num_scrambled_schematic"":""4"",""participantId"":""C6C57035021645E38F43495607B44726"",""assignmentId"":""eff8c4d7-ba7a-490c-8542-eacf5e3fd56d"",""projectId"":""a6b6d205-fa41-4c5b-a7a5-7fc4b51b0cea""}","https://test12345.live/?num_scrambled_semantic=8&num_scrambled_causal=4&num_scrambled_schematic=4&participantId=C6C57035021645E38F43495607B44726&assignmentId=eff8c4d7-ba7a-490c-8542-eacf5e3fd56d&projectId=a6b6d205-fa41-4c5b-a7a5-7fc4b51b0cea","C6C57035021645E38F43495607B44726-2025-05-27-18-36-54","","null","","[]","null","",""
"","","","","","image-button-response","78","455356","0.0-12.0-1.0-0.7","C6C57035021645E38F43495607B44726","C6C57035021645E38F43495607B44726","eff8c4d7-ba7a-490c-8542-eacf5e3fd56d","a6b6d205-fa41-4c5b-a7a5-7fc4b51b0cea","{""num_scrambled_semantic"":""8"",""num_scrambled_causal"":""4"",""num_scrambled_schematic"":""4"",""participantId"":""C6C57035021645E38F43495607B44726"",""assignmentId"":""eff8c4d7-ba7a-490c-8542-eacf5e3fd56d"",""projectId"":""a6b6d205-fa41-4c5b-a7a5-7fc4b51b0cea""}","https://test12345.live/?num_scrambled_semantic=8&num_scrambled_causal=4&num_scrambled_schematic=4&participantId=C6C57035021645E38F43495607B44726&assignmentId=eff8c4d7-ba7a-490c-8542-eacf5e3fd56d&projectId=a6b6d205-fa41-4c5b-a7a5-7fc4b51b0cea","C6C57035021645E38F43495607B44726-2025-05-27-18-36-54","","null","","images/semantic_sequence/housework_semantic/housework_semantic_6.png","null","",""
"","","","","","image-button-response","79","457291","0.0-12.0-1.0-1.7","C6C57035021645E38F43495607B44726","C6C57035021645E38F43495607B44726","eff8c4d7-ba7a-490c-8542-eacf5e3fd56d","a6b6d205-fa41-4c5b-a7a5-7fc4b51b0cea","{""num_scrambled_semantic"":""8"",""num_scrambled_causal"":""4"",""num_scrambled_schematic"":""4"",""participantId"":""C6C57035021645E38F43495607B44726"",""assignmentId"":""eff8c4d7-ba7a-490c-8542-eacf5e3fd56d"",""projectId"":""a6b6d205-fa41-4c5b-a7a5-7fc4b51b0cea""}","https://test12345.live/?num_scrambled_semantic=8&num_scrambled_causal=4&num_scrambled_schematic=4&participantId=C6C57035021645E38F43495607B44726&assignmentId=eff8c4d7-ba7a-490c-8542-eacf5e3fd56d&projectId=a6b6d205-fa41-4c5b-a7a5-7fc4b51b0cea","C6C57035021645E38F43495607B44726-2025-05-27-18-36-54","","1933","","images/semantic_sequence/housework_semantic/housework_semantic_6.png","0","",""
"","","","","","image-button-response","80","459096","0.0-12.0-1.0-2.7","C6C57035021645E38F43495607B44726","C6C57035021645E38F43495607B44726","eff8c4d7-ba7a-490c-8542-eacf5e3fd56d","a6b6d205-fa41-4c5b-a7a5-7fc4b51b0cea","{""num_scrambled_semantic"":""8"",""num_scrambled_causal"":""4"",""num_scrambled_schematic"":""4"",""participantId"":""C6C57035021645E38F43495607B44726"",""assignmentId"":""eff8c4d7-ba7a-490c-8542-eacf5e3fd56d"",""projectId"":""a6b6d205-fa41-4c5b-a7a5-7fc4b51b0cea""}","https://test12345.live/?num_scrambled_semantic=8&num_scrambled_causal=4&num_scrambled_schematic=4&participantId=C6C57035021645E38F43495607B44726&assignmentId=eff8c4d7-ba7a-490c-8542-eacf5e3fd56d&projectId=a6b6d205-fa41-4c5b-a7a5-7fc4b51b0cea","C6C57035021645E38F43495607B44726-2025-05-27-18-36-54","","null","","[]","null","",""
"","","","","","image-button-response","81","463606","0.0-12.0-1.0-0.8","C6C57035021645E38F43495607B44726","C6C57035021645E38F43495607B44726","eff8c4d7-ba7a-490c-8542-eacf5e3fd56d","a6b6d205-fa41-4c5b-a7a5-7fc4b51b0cea","{""num_scrambled_semantic"":""8"",""num_scrambled_causal"":""4"",""num_scrambled_schematic"":""4"",""participantId"":""C6C57035021645E38F43495607B44726"",""assignmentId"":""eff8c4d7-ba7a-490c-8542-eacf5e3fd56d"",""projectId"":""a6b6d205-fa41-4c5b-a7a5-7fc4b51b0cea""}","https://test12345.live/?num_scrambled_semantic=8&num_scrambled_causal=4&num_scrambled_schematic=4&participantId=C6C57035021645E38F43495607B44726&assignmentId=eff8c4d7-ba7a-490c-8542-eacf5e3fd56d&projectId=a6b6d205-fa41-4c5b-a7a5-7fc4b51b0cea","C6C57035021645E38F43495607B44726-2025-05-27-18-36-54","","null","","images/semantic_sequence/housework_semantic/housework_semantic_7.png","null","",""
"","","","","","image-button-response","82","465716","0.0-12.0-1.0-1.8","C6C57035021645E38F43495607B44726","C6C57035021645E38F43495607B44726","eff8c4d7-ba7a-490c-8542-eacf5e3fd56d","a6b6d205-fa41-4c5b-a7a5-7fc4b51b0cea","{""num_scrambled_semantic"":""8"",""num_scrambled_causal"":""4"",""num_scrambled_schematic"":""4"",""participantId"":""C6C57035021645E38F43495607B44726"",""assignmentId"":""eff8c4d7-ba7a-490c-8542-eacf5e3fd56d"",""projectId"":""a6b6d205-fa41-4c5b-a7a5-7fc4b51b0cea""}","https://test12345.live/?num_scrambled_semantic=8&num_scrambled_causal=4&num_scrambled_schematic=4&participantId=C6C57035021645E38F43495607B44726&assignmentId=eff8c4d7-ba7a-490c-8542-eacf5e3fd56d&projectId=a6b6d205-fa41-4c5b-a7a5-7fc4b51b0cea","C6C57035021645E38F43495607B44726-2025-05-27-18-36-54","","2108","","images/semantic_sequence/housework_semantic/housework_semantic_7.png","0","",""
"","","","","","image-button-response","83","467531","0.0-12.0-1.0-2.8","C6C57035021645E38F43495607B44726","C6C57035021645E38F43495607B44726","eff8c4d7-ba7a-490c-8542-eacf5e3fd56d","a6b6d205-fa41-4c5b-a7a5-7fc4b51b0cea","{""num_scrambled_semantic"":""8"",""num_scrambled_causal"":""4"",""num_scrambled_schematic"":""4"",""participantId"":""C6C57035021645E38F43495607B44726"",""assignmentId"":""eff8c4d7-ba7a-490c-8542-eacf5e3fd56d"",""projectId"":""a6b6d205-fa41-4c5b-a7a5-7fc4b51b0cea""}","https://test12345.live/?num_scrambled_semantic=8&num_scrambled_causal=4&num_scrambled_schematic=4&participantId=C6C57035021645E38F43495607B44726&assignmentId=eff8c4d7-ba7a-490c-8542-eacf5e3fd56d&projectId=a6b6d205-fa41-4c5b-a7a5-7fc4b51b0cea","C6C57035021645E38F43495607B44726-2025-05-27-18-36-54","","null","","[]","null","",""
"","","","","","image-button-response","84","472035","0.0-12.0-1.0-0.9","C6C57035021645E38F43495607B44726","C6C57035021645E38F43495607B44726","eff8c4d7-ba7a-490c-8542-eacf5e3fd56d","a6b6d205-fa41-4c5b-a7a5-7fc4b51b0cea","{""num_scrambled_semantic"":""8"",""num_scrambled_causal"":""4"",""num_scrambled_schematic"":""4"",""participantId"":""C6C57035021645E38F43495607B44726"",""assignmentId"":""eff8c4d7-ba7a-490c-8542-eacf5e3fd56d"",""projectId"":""a6b6d205-fa41-4c5b-a7a5-7fc4b51b0cea""}","https://test12345.live/?num_scrambled_semantic=8&num_scrambled_causal=4&num_scrambled_schematic=4&participantId=C6C57035021645E38F43495607B44726&assignmentId=eff8c4d7-ba7a-490c-8542-eacf5e3fd56d&projectId=a6b6d205-fa41-4c5b-a7a5-7fc4b51b0cea","C6C57035021645E38F43495607B44726-2025-05-27-18-36-54","","null","","images/semantic_sequence/housework_semantic/housework_semantic_5.png","null","",""
"","","","","","image-button-response","85","476051","0.0-12.0-1.0-1.9","C6C57035021645E38F43495607B44726","C6C57035021645E38F43495607B44726","eff8c4d7-ba7a-490c-8542-eacf5e3fd56d","a6b6d205-fa41-4c5b-a7a5-7fc4b51b0cea","{""num_scrambled_semantic"":""8"",""num_scrambled_causal"":""4"",""num_scrambled_schematic"":""4"",""participantId"":""C6C57035021645E38F43495607B44726"",""assignmentId"":""eff8c4d7-ba7a-490c-8542-eacf5e3fd56d"",""projectId"":""a6b6d205-fa41-4c5b-a7a5-7fc4b51b0cea""}","https://test12345.live/?num_scrambled_semantic=8&num_scrambled_causal=4&num_scrambled_schematic=4&participantId=C6C57035021645E38F43495607B44726&assignmentId=eff8c4d7-ba7a-490c-8542-eacf5e3fd56d&projectId=a6b6d205-fa41-4c5b-a7a5-7fc4b51b0cea","C6C57035021645E38F43495607B44726-2025-05-27-18-36-54","","null","","images/semantic_sequence/housework_semantic/housework_semantic_5.png","null","",""
"","","","","","image-button-response","86","477856","0.0-12.0-1.0-2.9","C6C57035021645E38F43495607B44726","C6C57035021645E38F43495607B44726","eff8c4d7-ba7a-490c-8542-eacf5e3fd56d","a6b6d205-fa41-4c5b-a7a5-7fc4b51b0cea","{""num_scrambled_semantic"":""8"",""num_scrambled_causal"":""4"",""num_scrambled_schematic"":""4"",""participantId"":""C6C57035021645E38F43495607B44726"",""assignmentId"":""eff8c4d7-ba7a-490c-8542-eacf5e3fd56d"",""projectId"":""a6b6d205-fa41-4c5b-a7a5-7fc4b51b0cea""}","https://test12345.live/?num_scrambled_semantic=8&num_scrambled_causal=4&num_scrambled_schematic=4&participantId=C6C57035021645E38F43495607B44726&assignmentId=eff8c4d7-ba7a-490c-8542-eacf5e3fd56d&projectId=a6b6d205-fa41-4c5b-a7a5-7fc4b51b0cea","C6C57035021645E38F43495607B44726-2025-05-27-18-36-54","","null","","[]","null","",""
"","","","","","html-audio-response","87","551685","0.0-13.0","C6C57035021645E38F43495607B44726","C6C57035021645E38F43495607B44726","eff8c4d7-ba7a-490c-8542-eacf5e3fd56d","a6b6d205-fa41-4c5b-a7a5-7fc4b51b0cea","{""num_scrambled_semantic"":""8"",""num_scrambled_causal"":""4"",""num_scrambled_schematic"":""4"",""participantId"":""C6C57035021645E38F43495607B44726"",""assignmentId"":""eff8c4d7-ba7a-490c-8542-eacf5e3fd56d"",""projectId"":""a6b6d205-fa41-4c5b-a7a5-7fc4b51b0cea""}","https://test12345.live/?num_scrambled_semantic=8&num_scrambled_causal=4&num_scrambled_schematic=4&participantId=C6C57035021645E38F43495607B44726&assignmentId=eff8c4d7-ba7a-490c-8542-eacf5e3fd56d&projectId=a6b6d205-fa41-4c5b-a7a5-7fc4b51b0cea","C6C57035021645E38F43495607B44726-2025-05-27-18-36-54","","28845","","[""<span style=\""color: red; font-size: 24px\""> NOW RECORDING</span><p>Please say out loud all the images you saw, in the exact order you saw them. Try to recall as many images as you can, but remember: getting the order right is more important than the number of images you recall.</p>""]","","34","housework_semantic"
"","","","","","image-button-response","88","557716","0.0-14.0-0.0","C6C57035021645E38F43495607B44726","C6C57035021645E38F43495607B44726","eff8c4d7-ba7a-490c-8542-eacf5e3fd56d","a6b6d205-fa41-4c5b-a7a5-7fc4b51b0cea","{""num_scrambled_semantic"":""8"",""num_scrambled_causal"":""4"",""num_scrambled_schematic"":""4"",""participantId"":""C6C57035021645E38F43495607B44726"",""assignmentId"":""eff8c4d7-ba7a-490c-8542-eacf5e3fd56d"",""projectId"":""a6b6d205-fa41-4c5b-a7a5-7fc4b51b0cea""}","https://test12345.live/?num_scrambled_semantic=8&num_scrambled_causal=4&num_scrambled_schematic=4&participantId=C6C57035021645E38F43495607B44726&assignmentId=eff8c4d7-ba7a-490c-8542-eacf5e3fd56d&projectId=a6b6d205-fa41-4c5b-a7a5-7fc4b51b0cea","C6C57035021645E38F43495607B44726-2025-05-27-18-36-54","","null","","images/causal_sequence/the_performance_causal/the_performance_causal_0.png","null","",""
"","","","","","image-button-response","89","562226","0.0-14.0-1.0-0.0","C6C57035021645E38F43495607B44726","C6C57035021645E38F43495607B44726","eff8c4d7-ba7a-490c-8542-eacf5e3fd56d","a6b6d205-fa41-4c5b-a7a5-7fc4b51b0cea","{""num_scrambled_semantic"":""8"",""num_scrambled_causal"":""4"",""num_scrambled_schematic"":""4"",""participantId"":""C6C57035021645E38F43495607B44726"",""assignmentId"":""eff8c4d7-ba7a-490c-8542-eacf5e3fd56d"",""projectId"":""a6b6d205-fa41-4c5b-a7a5-7fc4b51b0cea""}","https://test12345.live/?num_scrambled_semantic=8&num_scrambled_causal=4&num_scrambled_schematic=4&participantId=C6C57035021645E38F43495607B44726&assignmentId=eff8c4d7-ba7a-490c-8542-eacf5e3fd56d&projectId=a6b6d205-fa41-4c5b-a7a5-7fc4b51b0cea","C6C57035021645E38F43495607B44726-2025-05-27-18-36-54","","null","","images/causal_sequence/the_performance_causal/the_performance_causal_1.png","null","",""
"","","","","","image-button-response","90","563690","0.0-14.0-1.0-1.0","C6C57035021645E38F43495607B44726","C6C57035021645E38F43495607B44726","eff8c4d7-ba7a-490c-8542-eacf5e3fd56d","a6b6d205-fa41-4c5b-a7a5-7fc4b51b0cea","{""num_scrambled_semantic"":""8"",""num_scrambled_causal"":""4"",""num_scrambled_schematic"":""4"",""participantId"":""C6C57035021645E38F43495607B44726"",""assignmentId"":""eff8c4d7-ba7a-490c-8542-eacf5e3fd56d"",""projectId"":""a6b6d205-fa41-4c5b-a7a5-7fc4b51b0cea""}","https://test12345.live/?num_scrambled_semantic=8&num_scrambled_causal=4&num_scrambled_schematic=4&participantId=C6C57035021645E38F43495607B44726&assignmentId=eff8c4d7-ba7a-490c-8542-eacf5e3fd56d&projectId=a6b6d205-fa41-4c5b-a7a5-7fc4b51b0cea","C6C57035021645E38F43495607B44726-2025-05-27-18-36-54","","1461","","images/causal_sequence/the_performance_causal/the_performance_causal_1.png","0","",""
"","","","","","image-button-response","91","565497","0.0-14.0-1.0-2.0","C6C57035021645E38F43495607B44726","C6C57035021645E38F43495607B44726","eff8c4d7-ba7a-490c-8542-eacf5e3fd56d","a6b6d205-fa41-4c5b-a7a5-7fc4b51b0cea","{""num_scrambled_semantic"":""8"",""num_scrambled_causal"":""4"",""num_scrambled_schematic"":""4"",""participantId"":""C6C57035021645E38F43495607B44726"",""assignmentId"":""eff8c4d7-ba7a-490c-8542-eacf5e3fd56d"",""projectId"":""a6b6d205-fa41-4c5b-a7a5-7fc4b51b0cea""}","https://test12345.live/?num_scrambled_semantic=8&num_scrambled_causal=4&num_scrambled_schematic=4&participantId=C6C57035021645E38F43495607B44726&assignmentId=eff8c4d7-ba7a-490c-8542-eacf5e3fd56d&projectId=a6b6d205-fa41-4c5b-a7a5-7fc4b51b0cea","C6C57035021645E38F43495607B44726-2025-05-27-18-36-54","","null","","[]","null","",""
"","","","","","image-button-response","92","570002","0.0-14.0-1.0-0.1","C6C57035021645E38F43495607B44726","C6C57035021645E38F43495607B44726","eff8c4d7-ba7a-490c-8542-eacf5e3fd56d","a6b6d205-fa41-4c5b-a7a5-7fc4b51b0cea","{""num_scrambled_semantic"":""8"",""num_scrambled_causal"":""4"",""num_scrambled_schematic"":""4"",""participantId"":""C6C57035021645E38F43495607B44726"",""assignmentId"":""eff8c4d7-ba7a-490c-8542-eacf5e3fd56d"",""projectId"":""a6b6d205-fa41-4c5b-a7a5-7fc4b51b0cea""}","https://test12345.live/?num_scrambled_semantic=8&num_scrambled_causal=4&num_scrambled_schematic=4&participantId=C6C57035021645E38F43495607B44726&assignmentId=eff8c4d7-ba7a-490c-8542-eacf5e3fd56d&projectId=a6b6d205-fa41-4c5b-a7a5-7fc4b51b0cea","C6C57035021645E38F43495607B44726-2025-05-27-18-36-54","","null","","images/causal_sequence/the_performance_causal/the_performance_causal_5.png","null","",""
"","","","","","image-button-response","93","573475","0.0-14.0-1.0-1.1","C6C57035021645E38F43495607B44726","C6C57035021645E38F43495607B44726","eff8c4d7-ba7a-490c-8542-eacf5e3fd56d","a6b6d205-fa41-4c5b-a7a5-7fc4b51b0cea","{""num_scrambled_semantic"":""8"",""num_scrambled_causal"":""4"",""num_scrambled_schematic"":""4"",""participantId"":""C6C57035021645E38F43495607B44726"",""assignmentId"":""eff8c4d7-ba7a-490c-8542-eacf5e3fd56d"",""projectId"":""a6b6d205-fa41-4c5b-a7a5-7fc4b51b0cea""}","https://test12345.live/?num_scrambled_semantic=8&num_scrambled_causal=4&num_scrambled_schematic=4&participantId=C6C57035021645E38F43495607B44726&assignmentId=eff8c4d7-ba7a-490c-8542-eacf5e3fd56d&projectId=a6b6d205-fa41-4c5b-a7a5-7fc4b51b0cea","C6C57035021645E38F43495607B44726-2025-05-27-18-36-54","","3472","","images/causal_sequence/the_performance_causal/the_performance_causal_5.png","0","",""
"","","","","","image-button-response","94","575287","0.0-14.0-1.0-2.1","C6C57035021645E38F43495607B44726","C6C57035021645E38F43495607B44726","eff8c4d7-ba7a-490c-8542-eacf5e3fd56d","a6b6d205-fa41-4c5b-a7a5-7fc4b51b0cea","{""num_scrambled_semantic"":""8"",""num_scrambled_causal"":""4"",""num_scrambled_schematic"":""4"",""participantId"":""C6C57035021645E38F43495607B44726"",""assignmentId"":""eff8c4d7-ba7a-490c-8542-eacf5e3fd56d"",""projectId"":""a6b6d205-fa41-4c5b-a7a5-7fc4b51b0cea""}","https://test12345.live/?num_scrambled_semantic=8&num_scrambled_causal=4&num_scrambled_schematic=4&participantId=C6C57035021645E38F43495607B44726&assignmentId=eff8c4d7-ba7a-490c-8542-eacf5e3fd56d&projectId=a6b6d205-fa41-4c5b-a7a5-7fc4b51b0cea","C6C57035021645E38F43495607B44726-2025-05-27-18-36-54","","null","","[]","null","",""
"","","","","","image-button-response","95","579806","0.0-14.0-1.0-0.2","C6C57035021645E38F43495607B44726","C6C57035021645E38F43495607B44726","eff8c4d7-ba7a-490c-8542-eacf5e3fd56d","a6b6d205-fa41-4c5b-a7a5-7fc4b51b0cea","{""num_scrambled_semantic"":""8"",""num_scrambled_causal"":""4"",""num_scrambled_schematic"":""4"",""participantId"":""C6C57035021645E38F43495607B44726"",""assignmentId"":""eff8c4d7-ba7a-490c-8542-eacf5e3fd56d"",""projectId"":""a6b6d205-fa41-4c5b-a7a5-7fc4b51b0cea""}","https://test12345.live/?num_scrambled_semantic=8&num_scrambled_causal=4&num_scrambled_schematic=4&participantId=C6C57035021645E38F43495607B44726&assignmentId=eff8c4d7-ba7a-490c-8542-eacf5e3fd56d&projectId=a6b6d205-fa41-4c5b-a7a5-7fc4b51b0cea","C6C57035021645E38F43495607B44726-2025-05-27-18-36-54","","null","","images/causal_sequence/the_performance_causal/the_performance_causal_2.png","null","",""
"","","","","","image-button-response","96","582121","0.0-14.0-1.0-1.2","C6C57035021645E38F43495607B44726","C6C57035021645E38F43495607B44726","eff8c4d7-ba7a-490c-8542-eacf5e3fd56d","a6b6d205-fa41-4c5b-a7a5-7fc4b51b0cea","{""num_scrambled_semantic"":""8"",""num_scrambled_causal"":""4"",""num_scrambled_schematic"":""4"",""participantId"":""C6C57035021645E38F43495607B44726"",""assignmentId"":""eff8c4d7-ba7a-490c-8542-eacf5e3fd56d"",""projectId"":""a6b6d205-fa41-4c5b-a7a5-7fc4b51b0cea""}","https://test12345.live/?num_scrambled_semantic=8&num_scrambled_causal=4&num_scrambled_schematic=4&participantId=C6C57035021645E38F43495607B44726&assignmentId=eff8c4d7-ba7a-490c-8542-eacf5e3fd56d&projectId=a6b6d205-fa41-4c5b-a7a5-7fc4b51b0cea","C6C57035021645E38F43495607B44726-2025-05-27-18-36-54","","2312","","images/causal_sequence/the_performance_causal/the_performance_causal_2.png","0","",""
"","","","","","image-button-response","97","583928","0.0-14.0-1.0-2.2","C6C57035021645E38F43495607B44726","C6C57035021645E38F43495607B44726","eff8c4d7-ba7a-490c-8542-eacf5e3fd56d","a6b6d205-fa41-4c5b-a7a5-7fc4b51b0cea","{""num_scrambled_semantic"":""8"",""num_scrambled_causal"":""4"",""num_scrambled_schematic"":""4"",""participantId"":""C6C57035021645E38F43495607B44726"",""assignmentId"":""eff8c4d7-ba7a-490c-8542-eacf5e3fd56d"",""projectId"":""a6b6d205-fa41-4c5b-a7a5-7fc4b51b0cea""}","https://test12345.live/?num_scrambled_semantic=8&num_scrambled_causal=4&num_scrambled_schematic=4&participantId=C6C57035021645E38F43495607B44726&assignmentId=eff8c4d7-ba7a-490c-8542-eacf5e3fd56d&projectId=a6b6d205-fa41-4c5b-a7a5-7fc4b51b0cea","C6C57035021645E38F43495607B44726-2025-05-27-18-36-54","","null","","[]","null","",""
"","","","","","image-button-response","98","588431","0.0-14.0-1.0-0.3","C6C57035021645E38F43495607B44726","C6C57035021645E38F43495607B44726","eff8c4d7-ba7a-490c-8542-eacf5e3fd56d","a6b6d205-fa41-4c5b-a7a5-7fc4b51b0cea","{""num_scrambled_semantic"":""8"",""num_scrambled_causal"":""4"",""num_scrambled_schematic"":""4"",""participantId"":""C6C57035021645E38F43495607B44726"",""assignmentId"":""eff8c4d7-ba7a-490c-8542-eacf5e3fd56d"",""projectId"":""a6b6d205-fa41-4c5b-a7a5-7fc4b51b0cea""}","https://test12345.live/?num_scrambled_semantic=8&num_scrambled_causal=4&num_scrambled_schematic=4&participantId=C6C57035021645E38F43495607B44726&assignmentId=eff8c4d7-ba7a-490c-8542-eacf5e3fd56d&projectId=a6b6d205-fa41-4c5b-a7a5-7fc4b51b0cea","C6C57035021645E38F43495607B44726-2025-05-27-18-36-54","","null","","images/causal_sequence/the_performance_causal/the_performance_causal_8.png","null","",""
"","","","","","image-button-response","99","589590","0.0-14.0-1.0-1.3","C6C57035021645E38F43495607B44726","C6C57035021645E38F43495607B44726","eff8c4d7-ba7a-490c-8542-eacf5e3fd56d","a6b6d205-fa41-4c5b-a7a5-7fc4b51b0cea","{""num_scrambled_semantic"":""8"",""num_scrambled_causal"":""4"",""num_scrambled_schematic"":""4"",""participantId"":""C6C57035021645E38F43495607B44726"",""assignmentId"":""eff8c4d7-ba7a-490c-8542-eacf5e3fd56d"",""projectId"":""a6b6d205-fa41-4c5b-a7a5-7fc4b51b0cea""}","https://test12345.live/?num_scrambled_semantic=8&num_scrambled_causal=4&num_scrambled_schematic=4&participantId=C6C57035021645E38F43495607B44726&assignmentId=eff8c4d7-ba7a-490c-8542-eacf5e3fd56d&projectId=a6b6d205-fa41-4c5b-a7a5-7fc4b51b0cea","C6C57035021645E38F43495607B44726-2025-05-27-18-36-54","","1157","","images/causal_sequence/the_performance_causal/the_performance_causal_8.png","0","",""
"","","","","","image-button-response","100","591406","0.0-14.0-1.0-2.3","C6C57035021645E38F43495607B44726","C6C57035021645E38F43495607B44726","eff8c4d7-ba7a-490c-8542-eacf5e3fd56d","a6b6d205-fa41-4c5b-a7a5-7fc4b51b0cea","{""num_scrambled_semantic"":""8"",""num_scrambled_causal"":""4"",""num_scrambled_schematic"":""4"",""participantId"":""C6C57035021645E38F43495607B44726"",""assignmentId"":""eff8c4d7-ba7a-490c-8542-eacf5e3fd56d"",""projectId"":""a6b6d205-fa41-4c5b-a7a5-7fc4b51b0cea""}","https://test12345.live/?num_scrambled_semantic=8&num_scrambled_causal=4&num_scrambled_schematic=4&participantId=C6C57035021645E38F43495607B44726&assignmentId=eff8c4d7-ba7a-490c-8542-eacf5e3fd56d&projectId=a6b6d205-fa41-4c5b-a7a5-7fc4b51b0cea","C6C57035021645E38F43495607B44726-2025-05-27-18-36-54","","null","","[]","null","",""
"","","","","","image-button-response","101","595922","0.0-14.0-1.0-0.4","C6C57035021645E38F43495607B44726","C6C57035021645E38F43495607B44726","eff8c4d7-ba7a-490c-8542-eacf5e3fd56d","a6b6d205-fa41-4c5b-a7a5-7fc4b51b0cea","{""num_scrambled_semantic"":""8"",""num_scrambled_causal"":""4"",""num_scrambled_schematic"":""4"",""participantId"":""C6C57035021645E38F43495607B44726"",""assignmentId"":""eff8c4d7-ba7a-490c-8542-eacf5e3fd56d"",""projectId"":""a6b6d205-fa41-4c5b-a7a5-7fc4b51b0cea""}","https://test12345.live/?num_scrambled_semantic=8&num_scrambled_causal=4&num_scrambled_schematic=4&participantId=C6C57035021645E38F43495607B44726&assignmentId=eff8c4d7-ba7a-490c-8542-eacf5e3fd56d&projectId=a6b6d205-fa41-4c5b-a7a5-7fc4b51b0cea","C6C57035021645E38F43495607B44726-2025-05-27-18-36-54","","null","","images/causal_sequence/the_performance_causal/the_performance_causal_4.png","null","",""
"","","","","","image-button-response","102","597075","0.0-14.0-1.0-1.4","C6C57035021645E38F43495607B44726","C6C57035021645E38F43495607B44726","eff8c4d7-ba7a-490c-8542-eacf5e3fd56d","a6b6d205-fa41-4c5b-a7a5-7fc4b51b0cea","{""num_scrambled_semantic"":""8"",""num_scrambled_causal"":""4"",""num_scrambled_schematic"":""4"",""participantId"":""C6C57035021645E38F43495607B44726"",""assignmentId"":""eff8c4d7-ba7a-490c-8542-eacf5e3fd56d"",""projectId"":""a6b6d205-fa41-4c5b-a7a5-7fc4b51b0cea""}","https://test12345.live/?num_scrambled_semantic=8&num_scrambled_causal=4&num_scrambled_schematic=4&participantId=C6C57035021645E38F43495607B44726&assignmentId=eff8c4d7-ba7a-490c-8542-eacf5e3fd56d&projectId=a6b6d205-fa41-4c5b-a7a5-7fc4b51b0cea","C6C57035021645E38F43495607B44726-2025-05-27-18-36-54","","1150","","images/causal_sequence/the_performance_causal/the_performance_causal_4.png","0","",""
"","","","","","image-button-response","103","598896","0.0-14.0-1.0-2.4","C6C57035021645E38F43495607B44726","C6C57035021645E38F43495607B44726","eff8c4d7-ba7a-490c-8542-eacf5e3fd56d","a6b6d205-fa41-4c5b-a7a5-7fc4b51b0cea","{""num_scrambled_semantic"":""8"",""num_scrambled_causal"":""4"",""num_scrambled_schematic"":""4"",""participantId"":""C6C57035021645E38F43495607B44726"",""assignmentId"":""eff8c4d7-ba7a-490c-8542-eacf5e3fd56d"",""projectId"":""a6b6d205-fa41-4c5b-a7a5-7fc4b51b0cea""}","https://test12345.live/?num_scrambled_semantic=8&num_scrambled_causal=4&num_scrambled_schematic=4&participantId=C6C57035021645E38F43495607B44726&assignmentId=eff8c4d7-ba7a-490c-8542-eacf5e3fd56d&projectId=a6b6d205-fa41-4c5b-a7a5-7fc4b51b0cea","C6C57035021645E38F43495607B44726-2025-05-27-18-36-54","","null","","[]","null","",""
"","","","","","image-button-response","104","603416","0.0-14.0-1.0-0.5","C6C57035021645E38F43495607B44726","C6C57035021645E38F43495607B44726","eff8c4d7-ba7a-490c-8542-eacf5e3fd56d","a6b6d205-fa41-4c5b-a7a5-7fc4b51b0cea","{""num_scrambled_semantic"":""8"",""num_scrambled_causal"":""4"",""num_scrambled_schematic"":""4"",""participantId"":""C6C57035021645E38F43495607B44726"",""assignmentId"":""eff8c4d7-ba7a-490c-8542-eacf5e3fd56d"",""projectId"":""a6b6d205-fa41-4c5b-a7a5-7fc4b51b0cea""}","https://test12345.live/?num_scrambled_semantic=8&num_scrambled_causal=4&num_scrambled_schematic=4&participantId=C6C57035021645E38F43495607B44726&assignmentId=eff8c4d7-ba7a-490c-8542-eacf5e3fd56d&projectId=a6b6d205-fa41-4c5b-a7a5-7fc4b51b0cea","C6C57035021645E38F43495607B44726-2025-05-27-18-36-54","","null","","images/causal_sequence/the_performance_causal/the_performance_causal_ten.png","null","",""
"","","","","","image-button-response","105","605419","0.0-14.0-1.0-1.5","C6C57035021645E38F43495607B44726","C6C57035021645E38F43495607B44726","eff8c4d7-ba7a-490c-8542-eacf5e3fd56d","a6b6d205-fa41-4c5b-a7a5-7fc4b51b0cea","{""num_scrambled_semantic"":""8"",""num_scrambled_causal"":""4"",""num_scrambled_schematic"":""4"",""participantId"":""C6C57035021645E38F43495607B44726"",""assignmentId"":""eff8c4d7-ba7a-490c-8542-eacf5e3fd56d"",""projectId"":""a6b6d205-fa41-4c5b-a7a5-7fc4b51b0cea""}","https://test12345.live/?num_scrambled_semantic=8&num_scrambled_causal=4&num_scrambled_schematic=4&participantId=C6C57035021645E38F43495607B44726&assignmentId=eff8c4d7-ba7a-490c-8542-eacf5e3fd56d&projectId=a6b6d205-fa41-4c5b-a7a5-7fc4b51b0cea","C6C57035021645E38F43495607B44726-2025-05-27-18-36-54","","2001","","images/causal_sequence/the_performance_causal/the_performance_causal_ten.png","0","",""
"","","","","","image-button-response","106","607226","0.0-14.0-1.0-2.5","C6C57035021645E38F43495607B44726","C6C57035021645E38F43495607B44726","eff8c4d7-ba7a-490c-8542-eacf5e3fd56d","a6b6d205-fa41-4c5b-a7a5-7fc4b51b0cea","{""num_scrambled_semantic"":""8"",""num_scrambled_causal"":""4"",""num_scrambled_schematic"":""4"",""participantId"":""C6C57035021645E38F43495607B44726"",""assignmentId"":""eff8c4d7-ba7a-490c-8542-eacf5e3fd56d"",""projectId"":""a6b6d205-fa41-4c5b-a7a5-7fc4b51b0cea""}","https://test12345.live/?num_scrambled_semantic=8&num_scrambled_causal=4&num_scrambled_schematic=4&participantId=C6C57035021645E38F43495607B44726&assignmentId=eff8c4d7-ba7a-490c-8542-eacf5e3fd56d&projectId=a6b6d205-fa41-4c5b-a7a5-7fc4b51b0cea","C6C57035021645E38F43495607B44726-2025-05-27-18-36-54","","null","","[]","null","",""
"","","","","","image-button-response","107","611746","0.0-14.0-1.0-0.6","C6C57035021645E38F43495607B44726","C6C57035021645E38F43495607B44726","eff8c4d7-ba7a-490c-8542-eacf5e3fd56d","a6b6d205-fa41-4c5b-a7a5-7fc4b51b0cea","{""num_scrambled_semantic"":""8"",""num_scrambled_causal"":""4"",""num_scrambled_schematic"":""4"",""participantId"":""C6C57035021645E38F43495607B44726"",""assignmentId"":""eff8c4d7-ba7a-490c-8542-eacf5e3fd56d"",""projectId"":""a6b6d205-fa41-4c5b-a7a5-7fc4b51b0cea""}","https://test12345.live/?num_scrambled_semantic=8&num_scrambled_causal=4&num_scrambled_schematic=4&participantId=C6C57035021645E38F43495607B44726&assignmentId=eff8c4d7-ba7a-490c-8542-eacf5e3fd56d&projectId=a6b6d205-fa41-4c5b-a7a5-7fc4b51b0cea","C6C57035021645E38F43495607B44726-2025-05-27-18-36-54","","null","","images/causal_sequence/the_performance_causal/the_performance_causal_3.png","null","",""
"","","","","","image-button-response","108","615756","0.0-14.0-1.0-1.6","C6C57035021645E38F43495607B44726","C6C57035021645E38F43495607B44726","eff8c4d7-ba7a-490c-8542-eacf5e3fd56d","a6b6d205-fa41-4c5b-a7a5-7fc4b51b0cea","{""num_scrambled_semantic"":""8"",""num_scrambled_causal"":""4"",""num_scrambled_schematic"":""4"",""participantId"":""C6C57035021645E38F43495607B44726"",""assignmentId"":""eff8c4d7-ba7a-490c-8542-eacf5e3fd56d"",""projectId"":""a6b6d205-fa41-4c5b-a7a5-7fc4b51b0cea""}","https://test12345.live/?num_scrambled_semantic=8&num_scrambled_causal=4&num_scrambled_schematic=4&participantId=C6C57035021645E38F43495607B44726&assignmentId=eff8c4d7-ba7a-490c-8542-eacf5e3fd56d&projectId=a6b6d205-fa41-4c5b-a7a5-7fc4b51b0cea","C6C57035021645E38F43495607B44726-2025-05-27-18-36-54","","null","","images/causal_sequence/the_performance_causal/the_performance_causal_3.png","null","",""
"","","","","","image-button-response","109","617565","0.0-14.0-1.0-2.6","C6C57035021645E38F43495607B44726","C6C57035021645E38F43495607B44726","eff8c4d7-ba7a-490c-8542-eacf5e3fd56d","a6b6d205-fa41-4c5b-a7a5-7fc4b51b0cea","{""num_scrambled_semantic"":""8"",""num_scrambled_causal"":""4"",""num_scrambled_schematic"":""4"",""participantId"":""C6C57035021645E38F43495607B44726"",""assignmentId"":""eff8c4d7-ba7a-490c-8542-eacf5e3fd56d"",""projectId"":""a6b6d205-fa41-4c5b-a7a5-7fc4b51b0cea""}","https://test12345.live/?num_scrambled_semantic=8&num_scrambled_causal=4&num_scrambled_schematic=4&participantId=C6C57035021645E38F43495607B44726&assignmentId=eff8c4d7-ba7a-490c-8542-eacf5e3fd56d&projectId=a6b6d205-fa41-4c5b-a7a5-7fc4b51b0cea","C6C57035021645E38F43495607B44726-2025-05-27-18-36-54","","null","","[]","null","",""
"","","","","","image-button-response","110","622076","0.0-14.0-1.0-0.7","C6C57035021645E38F43495607B44726","C6C57035021645E38F43495607B44726","eff8c4d7-ba7a-490c-8542-eacf5e3fd56d","a6b6d205-fa41-4c5b-a7a5-7fc4b51b0cea","{""num_scrambled_semantic"":""8"",""num_scrambled_causal"":""4"",""num_scrambled_schematic"":""4"",""participantId"":""C6C57035021645E38F43495607B44726"",""assignmentId"":""eff8c4d7-ba7a-490c-8542-eacf5e3fd56d"",""projectId"":""a6b6d205-fa41-4c5b-a7a5-7fc4b51b0cea""}","https://test12345.live/?num_scrambled_semantic=8&num_scrambled_causal=4&num_scrambled_schematic=4&participantId=C6C57035021645E38F43495607B44726&assignmentId=eff8c4d7-ba7a-490c-8542-eacf5e3fd56d&projectId=a6b6d205-fa41-4c5b-a7a5-7fc4b51b0cea","C6C57035021645E38F43495607B44726-2025-05-27-18-36-54","","null","","images/causal_sequence/the_performance_causal/the_performance_causal_9.png","null","",""
"","","","","","image-button-response","111","623392","0.0-14.0-1.0-1.7","C6C57035021645E38F43495607B44726","C6C57035021645E38F43495607B44726","eff8c4d7-ba7a-490c-8542-eacf5e3fd56d","a6b6d205-fa41-4c5b-a7a5-7fc4b51b0cea","{""num_scrambled_semantic"":""8"",""num_scrambled_causal"":""4"",""num_scrambled_schematic"":""4"",""participantId"":""C6C57035021645E38F43495607B44726"",""assignmentId"":""eff8c4d7-ba7a-490c-8542-eacf5e3fd56d"",""projectId"":""a6b6d205-fa41-4c5b-a7a5-7fc4b51b0cea""}","https://test12345.live/?num_scrambled_semantic=8&num_scrambled_causal=4&num_scrambled_schematic=4&participantId=C6C57035021645E38F43495607B44726&assignmentId=eff8c4d7-ba7a-490c-8542-eacf5e3fd56d&projectId=a6b6d205-fa41-4c5b-a7a5-7fc4b51b0cea","C6C57035021645E38F43495607B44726-2025-05-27-18-36-54","","1313","","images/causal_sequence/the_performance_causal/the_performance_causal_9.png","0","",""
"","","","","","image-button-response","112","625206","0.0-14.0-1.0-2.7","C6C57035021645E38F43495607B44726","C6C57035021645E38F43495607B44726","eff8c4d7-ba7a-490c-8542-eacf5e3fd56d","a6b6d205-fa41-4c5b-a7a5-7fc4b51b0cea","{""num_scrambled_semantic"":""8"",""num_scrambled_causal"":""4"",""num_scrambled_schematic"":""4"",""participantId"":""C6C57035021645E38F43495607B44726"",""assignmentId"":""eff8c4d7-ba7a-490c-8542-eacf5e3fd56d"",""projectId"":""a6b6d205-fa41-4c5b-a7a5-7fc4b51b0cea""}","https://test12345.live/?num_scrambled_semantic=8&num_scrambled_causal=4&num_scrambled_schematic=4&participantId=C6C57035021645E38F43495607B44726&assignmentId=eff8c4d7-ba7a-490c-8542-eacf5e3fd56d&projectId=a6b6d205-fa41-4c5b-a7a5-7fc4b51b0cea","C6C57035021645E38F43495607B44726-2025-05-27-18-36-54","","null","","[]","null","",""
"","","","","","image-button-response","113","629711","0.0-14.0-1.0-0.8","C6C57035021645E38F43495607B44726","C6C57035021645E38F43495607B44726","eff8c4d7-ba7a-490c-8542-eacf5e3fd56d","a6b6d205-fa41-4c5b-a7a5-7fc4b51b0cea","{""num_scrambled_semantic"":""8"",""num_scrambled_causal"":""4"",""num_scrambled_schematic"":""4"",""participantId"":""C6C57035021645E38F43495607B44726"",""assignmentId"":""eff8c4d7-ba7a-490c-8542-eacf5e3fd56d"",""projectId"":""a6b6d205-fa41-4c5b-a7a5-7fc4b51b0cea""}","https://test12345.live/?num_scrambled_semantic=8&num_scrambled_causal=4&num_scrambled_schematic=4&participantId=C6C57035021645E38F43495607B44726&assignmentId=eff8c4d7-ba7a-490c-8542-eacf5e3fd56d&projectId=a6b6d205-fa41-4c5b-a7a5-7fc4b51b0cea","C6C57035021645E38F43495607B44726-2025-05-27-18-36-54","","null","","images/causal_sequence/the_performance_causal/the_performance_causal_6.png","null","",""
