"success","timeout","failed_images","failed_audio","failed_video","trial_type","trial_index","time_elapsed","internal_node_id","subject","subject_id","study_id","session_id","urlvar","current_url","audio_id","view_history","rt","device_id","stimulus","response","estimated_stimulus_onset","seq_name"
"true","false","[]","[]","[]","preload","0","11413","0.0-0.0","C79E8002797D479487A51EDC4B03077C","C79E8002797D479487A51EDC4B03077C","9aea825c-123e-4357-b682-e6de7a44313e","03d12dc6-79b3-42a5-88c2-9b18a9e5f1ee","{""num_scrambled_semantic"":""8"",""num_scrambled_causal"":""4"",""num_scrambled_schematic"":""4"",""participantId"":""C79E8002797D479487A51EDC4B03077C"",""assignmentId"":""9aea825c-123e-4357-b682-e6de7a44313e"",""projectId"":""03d12dc6-79b3-42a5-88c2-9b18a9e5f1ee""}","https://test12345.live/?num_scrambled_semantic=8&num_scrambled_causal=4&num_scrambled_schematic=4&participantId=C79E8002797D479487A51EDC4B03077C&assignmentId=9aea825c-123e-4357-b682-e6de7a44313e&projectId=03d12dc6-79b3-42a5-88c2-9b18a9e5f1ee","C79E8002797D479487A51EDC4B03077C-2025-05-15-16-08-14","","","","","","",""
"","","","","","instructions","1","71494","0.0-1.0","C79E8002797D479487A51EDC4B03077C","C79E8002797D479487A51EDC4B03077C","9aea825c-123e-4357-b682-e6de7a44313e","03d12dc6-79b3-42a5-88c2-9b18a9e5f1ee","{""num_scrambled_semantic"":""8"",""num_scrambled_causal"":""4"",""num_scrambled_schematic"":""4"",""participantId"":""C79E8002797D479487A51EDC4B03077C"",""assignmentId"":""9aea825c-123e-4357-b682-e6de7a44313e"",""projectId"":""03d12dc6-79b3-42a5-88c2-9b18a9e5f1ee""}","https://test12345.live/?num_scrambled_semantic=8&num_scrambled_causal=4&num_scrambled_schematic=4&participantId=C79E8002797D479487A51EDC4B03077C&assignmentId=9aea825c-123e-4357-b682-e6de7a44313e&projectId=03d12dc6-79b3-42a5-88c2-9b18a9e5f1ee","C79E8002797D479487A51EDC4B03077C-2025-05-15-16-08-14","[{""page_index"":0,""viewing_time"":60079}]","60079","","","","",""
"","","","","","instructions","2","138280","0.0-2.0","C79E8002797D479487A51EDC4B03077C","C79E8002797D479487A51EDC4B03077C","9aea825c-123e-4357-b682-e6de7a44313e","03d12dc6-79b3-42a5-88c2-9b18a9e5f1ee","{""num_scrambled_semantic"":""8"",""num_scrambled_causal"":""4"",""num_scrambled_schematic"":""4"",""participantId"":""C79E8002797D479487A51EDC4B03077C"",""assignmentId"":""9aea825c-123e-4357-b682-e6de7a44313e"",""projectId"":""03d12dc6-79b3-42a5-88c2-9b18a9e5f1ee""}","https://test12345.live/?num_scrambled_semantic=8&num_scrambled_causal=4&num_scrambled_schematic=4&participantId=C79E8002797D479487A51EDC4B03077C&assignmentId=9aea825c-123e-4357-b682-e6de7a44313e&projectId=03d12dc6-79b3-42a5-88c2-9b18a9e5f1ee","C79E8002797D479487A51EDC4B03077C-2025-05-15-16-08-14","[{""page_index"":0,""viewing_time"":66785}]","66786","","","","",""
"true","","","","","fullscreen","3","141429","0.0-3.0","C79E8002797D479487A51EDC4B03077C","C79E8002797D479487A51EDC4B03077C","9aea825c-123e-4357-b682-e6de7a44313e","03d12dc6-79b3-42a5-88c2-9b18a9e5f1ee","{""num_scrambled_semantic"":""8"",""num_scrambled_causal"":""4"",""num_scrambled_schematic"":""4"",""participantId"":""C79E8002797D479487A51EDC4B03077C"",""assignmentId"":""9aea825c-123e-4357-b682-e6de7a44313e"",""projectId"":""03d12dc6-79b3-42a5-88c2-9b18a9e5f1ee""}","https://test12345.live/?num_scrambled_semantic=8&num_scrambled_causal=4&num_scrambled_schematic=4&participantId=C79E8002797D479487A51EDC4B03077C&assignmentId=9aea825c-123e-4357-b682-e6de7a44313e&projectId=03d12dc6-79b3-42a5-88c2-9b18a9e5f1ee","C79E8002797D479487A51EDC4B03077C-2025-05-15-16-08-14","","2144","","","","",""
"","","","","","initialize-microphone","4","161115","0.0-4.0-0.0","C79E8002797D479487A51EDC4B03077C","C79E8002797D479487A51EDC4B03077C","9aea825c-123e-4357-b682-e6de7a44313e","03d12dc6-79b3-42a5-88c2-9b18a9e5f1ee","{""num_scrambled_semantic"":""8"",""num_scrambled_causal"":""4"",""num_scrambled_schematic"":""4"",""participantId"":""C79E8002797D479487A51EDC4B03077C"",""assignmentId"":""9aea825c-123e-4357-b682-e6de7a44313e"",""projectId"":""03d12dc6-79b3-42a5-88c2-9b18a9e5f1ee""}","https://test12345.live/?num_scrambled_semantic=8&num_scrambled_causal=4&num_scrambled_schematic=4&participantId=C79E8002797D479487A51EDC4B03077C&assignmentId=9aea825c-123e-4357-b682-e6de7a44313e&projectId=03d12dc6-79b3-42a5-88c2-9b18a9e5f1ee","C79E8002797D479487A51EDC4B03077C-2025-05-15-16-08-14","","","60fafa2b704335685a0365238c1a89c0ea5c5d78785f53c4a1e01301315501ed","","","",""
"","","","","","html-audio-response","5","221244","0.0-4.0-1.0","C79E8002797D479487A51EDC4B03077C","C79E8002797D479487A51EDC4B03077C","9aea825c-123e-4357-b682-e6de7a44313e","03d12dc6-79b3-42a5-88c2-9b18a9e5f1ee","{""num_scrambled_semantic"":""8"",""num_scrambled_causal"":""4"",""num_scrambled_schematic"":""4"",""participantId"":""C79E8002797D479487A51EDC4B03077C"",""assignmentId"":""9aea825c-123e-4357-b682-e6de7a44313e"",""projectId"":""03d12dc6-79b3-42a5-88c2-9b18a9e5f1ee""}","https://test12345.live/?num_scrambled_semantic=8&num_scrambled_causal=4&num_scrambled_schematic=4&participantId=C79E8002797D479487A51EDC4B03077C&assignmentId=9aea825c-123e-4357-b682-e6de7a44313e&projectId=03d12dc6-79b3-42a5-88c2-9b18a9e5f1ee","C79E8002797D479487A51EDC4B03077C-2025-05-15-16-08-14","","5443","","<span style=""color: red; font-size: 24px""> NOW RECORDING</span>
        <p>Please test Microphone</p>","","2",""
"","","","","","html-button-response","6","234961","0.0-4.0-2.0","C79E8002797D479487A51EDC4B03077C","C79E8002797D479487A51EDC4B03077C","9aea825c-123e-4357-b682-e6de7a44313e","03d12dc6-79b3-42a5-88c2-9b18a9e5f1ee","{""num_scrambled_semantic"":""8"",""num_scrambled_causal"":""4"",""num_scrambled_schematic"":""4"",""participantId"":""C79E8002797D479487A51EDC4B03077C"",""assignmentId"":""9aea825c-123e-4357-b682-e6de7a44313e"",""projectId"":""03d12dc6-79b3-42a5-88c2-9b18a9e5f1ee""}","https://test12345.live/?num_scrambled_semantic=8&num_scrambled_causal=4&num_scrambled_schematic=4&participantId=C79E8002797D479487A51EDC4B03077C&assignmentId=9aea825c-123e-4357-b682-e6de7a44313e&projectId=03d12dc6-79b3-42a5-88c2-9b18a9e5f1ee","C79E8002797D479487A51EDC4B03077C-2025-05-15-16-08-14","","13714","","<p style=""font-size:48px; color:red;"">Is Microphone OK?</p>","1","",""
"","","","","","instructions","7","244563","0.0-5.0","C79E8002797D479487A51EDC4B03077C","C79E8002797D479487A51EDC4B03077C","9aea825c-123e-4357-b682-e6de7a44313e","03d12dc6-79b3-42a5-88c2-9b18a9e5f1ee","{""num_scrambled_semantic"":""8"",""num_scrambled_causal"":""4"",""num_scrambled_schematic"":""4"",""participantId"":""C79E8002797D479487A51EDC4B03077C"",""assignmentId"":""9aea825c-123e-4357-b682-e6de7a44313e"",""projectId"":""03d12dc6-79b3-42a5-88c2-9b18a9e5f1ee""}","https://test12345.live/?num_scrambled_semantic=8&num_scrambled_causal=4&num_scrambled_schematic=4&participantId=C79E8002797D479487A51EDC4B03077C&assignmentId=9aea825c-123e-4357-b682-e6de7a44313e&projectId=03d12dc6-79b3-42a5-88c2-9b18a9e5f1ee","C79E8002797D479487A51EDC4B03077C-2025-05-15-16-08-14","[{""page_index"":0,""viewing_time"":4348},{""page_index"":1,""viewing_time"":5252}]","9601","","","","",""
"","","","","","image-button-response","8","250568","0.0-6.0-0.0","C79E8002797D479487A51EDC4B03077C","C79E8002797D479487A51EDC4B03077C","9aea825c-123e-4357-b682-e6de7a44313e","03d12dc6-79b3-42a5-88c2-9b18a9e5f1ee","{""num_scrambled_semantic"":""8"",""num_scrambled_causal"":""4"",""num_scrambled_schematic"":""4"",""participantId"":""C79E8002797D479487A51EDC4B03077C"",""assignmentId"":""9aea825c-123e-4357-b682-e6de7a44313e"",""projectId"":""03d12dc6-79b3-42a5-88c2-9b18a9e5f1ee""}","https://test12345.live/?num_scrambled_semantic=8&num_scrambled_causal=4&num_scrambled_schematic=4&participantId=C79E8002797D479487A51EDC4B03077C&assignmentId=9aea825c-123e-4357-b682-e6de7a44313e&projectId=03d12dc6-79b3-42a5-88c2-9b18a9e5f1ee","C79E8002797D479487A51EDC4B03077C-2025-05-15-16-08-14","","null","","images/instructions/movie_0.png","null","",""
"","","","","","image-button-response","9","255071","0.0-6.0-1.0-0.0","C79E8002797D479487A51EDC4B03077C","C79E8002797D479487A51EDC4B03077C","9aea825c-123e-4357-b682-e6de7a44313e","03d12dc6-79b3-42a5-88c2-9b18a9e5f1ee","{""num_scrambled_semantic"":""8"",""num_scrambled_causal"":""4"",""num_scrambled_schematic"":""4"",""participantId"":""C79E8002797D479487A51EDC4B03077C"",""assignmentId"":""9aea825c-123e-4357-b682-e6de7a44313e"",""projectId"":""03d12dc6-79b3-42a5-88c2-9b18a9e5f1ee""}","https://test12345.live/?num_scrambled_semantic=8&num_scrambled_causal=4&num_scrambled_schematic=4&participantId=C79E8002797D479487A51EDC4B03077C&assignmentId=9aea825c-123e-4357-b682-e6de7a44313e&projectId=03d12dc6-79b3-42a5-88c2-9b18a9e5f1ee","C79E8002797D479487A51EDC4B03077C-2025-05-15-16-08-14","","null","","images/instructions/movie_1.png","null","",""
"","","","","","image-button-response","10","259074","0.0-6.0-1.0-1.0","C79E8002797D479487A51EDC4B03077C","C79E8002797D479487A51EDC4B03077C","9aea825c-123e-4357-b682-e6de7a44313e","03d12dc6-79b3-42a5-88c2-9b18a9e5f1ee","{""num_scrambled_semantic"":""8"",""num_scrambled_causal"":""4"",""num_scrambled_schematic"":""4"",""participantId"":""C79E8002797D479487A51EDC4B03077C"",""assignmentId"":""9aea825c-123e-4357-b682-e6de7a44313e"",""projectId"":""03d12dc6-79b3-42a5-88c2-9b18a9e5f1ee""}","https://test12345.live/?num_scrambled_semantic=8&num_scrambled_causal=4&num_scrambled_schematic=4&participantId=C79E8002797D479487A51EDC4B03077C&assignmentId=9aea825c-123e-4357-b682-e6de7a44313e&projectId=03d12dc6-79b3-42a5-88c2-9b18a9e5f1ee","C79E8002797D479487A51EDC4B03077C-2025-05-15-16-08-14","","null","","images/instructions/movie_1.png","null","",""
"","","","","","image-button-response","11","260877","0.0-6.0-1.0-2.0","C79E8002797D479487A51EDC4B03077C","C79E8002797D479487A51EDC4B03077C","9aea825c-123e-4357-b682-e6de7a44313e","03d12dc6-79b3-42a5-88c2-9b18a9e5f1ee","{""num_scrambled_semantic"":""8"",""num_scrambled_causal"":""4"",""num_scrambled_schematic"":""4"",""participantId"":""C79E8002797D479487A51EDC4B03077C"",""assignmentId"":""9aea825c-123e-4357-b682-e6de7a44313e"",""projectId"":""03d12dc6-79b3-42a5-88c2-9b18a9e5f1ee""}","https://test12345.live/?num_scrambled_semantic=8&num_scrambled_causal=4&num_scrambled_schematic=4&participantId=C79E8002797D479487A51EDC4B03077C&assignmentId=9aea825c-123e-4357-b682-e6de7a44313e&projectId=03d12dc6-79b3-42a5-88c2-9b18a9e5f1ee","C79E8002797D479487A51EDC4B03077C-2025-05-15-16-08-14","","null","","[]","null","",""
"","","","","","image-button-response","12","265380","0.0-6.0-1.0-0.1","C79E8002797D479487A51EDC4B03077C","C79E8002797D479487A51EDC4B03077C","9aea825c-123e-4357-b682-e6de7a44313e","03d12dc6-79b3-42a5-88c2-9b18a9e5f1ee","{""num_scrambled_semantic"":""8"",""num_scrambled_causal"":""4"",""num_scrambled_schematic"":""4"",""participantId"":""C79E8002797D479487A51EDC4B03077C"",""assignmentId"":""9aea825c-123e-4357-b682-e6de7a44313e"",""projectId"":""03d12dc6-79b3-42a5-88c2-9b18a9e5f1ee""}","https://test12345.live/?num_scrambled_semantic=8&num_scrambled_causal=4&num_scrambled_schematic=4&participantId=C79E8002797D479487A51EDC4B03077C&assignmentId=9aea825c-123e-4357-b682-e6de7a44313e&projectId=03d12dc6-79b3-42a5-88c2-9b18a9e5f1ee","C79E8002797D479487A51EDC4B03077C-2025-05-15-16-08-14","","null","","images/instructions/movie_2.png","null","",""
"","","","","","image-button-response","13","269383","0.0-6.0-1.0-1.1","C79E8002797D479487A51EDC4B03077C","C79E8002797D479487A51EDC4B03077C","9aea825c-123e-4357-b682-e6de7a44313e","03d12dc6-79b3-42a5-88c2-9b18a9e5f1ee","{""num_scrambled_semantic"":""8"",""num_scrambled_causal"":""4"",""num_scrambled_schematic"":""4"",""participantId"":""C79E8002797D479487A51EDC4B03077C"",""assignmentId"":""9aea825c-123e-4357-b682-e6de7a44313e"",""projectId"":""03d12dc6-79b3-42a5-88c2-9b18a9e5f1ee""}","https://test12345.live/?num_scrambled_semantic=8&num_scrambled_causal=4&num_scrambled_schematic=4&participantId=C79E8002797D479487A51EDC4B03077C&assignmentId=9aea825c-123e-4357-b682-e6de7a44313e&projectId=03d12dc6-79b3-42a5-88c2-9b18a9e5f1ee","C79E8002797D479487A51EDC4B03077C-2025-05-15-16-08-14","","null","","images/instructions/movie_2.png","null","",""
"","","","","","image-button-response","14","271185","0.0-6.0-1.0-2.1","C79E8002797D479487A51EDC4B03077C","C79E8002797D479487A51EDC4B03077C","9aea825c-123e-4357-b682-e6de7a44313e","03d12dc6-79b3-42a5-88c2-9b18a9e5f1ee","{""num_scrambled_semantic"":""8"",""num_scrambled_causal"":""4"",""num_scrambled_schematic"":""4"",""participantId"":""C79E8002797D479487A51EDC4B03077C"",""assignmentId"":""9aea825c-123e-4357-b682-e6de7a44313e"",""projectId"":""03d12dc6-79b3-42a5-88c2-9b18a9e5f1ee""}","https://test12345.live/?num_scrambled_semantic=8&num_scrambled_causal=4&num_scrambled_schematic=4&participantId=C79E8002797D479487A51EDC4B03077C&assignmentId=9aea825c-123e-4357-b682-e6de7a44313e&projectId=03d12dc6-79b3-42a5-88c2-9b18a9e5f1ee","C79E8002797D479487A51EDC4B03077C-2025-05-15-16-08-14","","null","","[]","null","",""
"","","","","","image-button-response","15","275687","0.0-6.0-1.0-0.2","C79E8002797D479487A51EDC4B03077C","C79E8002797D479487A51EDC4B03077C","9aea825c-123e-4357-b682-e6de7a44313e","03d12dc6-79b3-42a5-88c2-9b18a9e5f1ee","{""num_scrambled_semantic"":""8"",""num_scrambled_causal"":""4"",""num_scrambled_schematic"":""4"",""participantId"":""C79E8002797D479487A51EDC4B03077C"",""assignmentId"":""9aea825c-123e-4357-b682-e6de7a44313e"",""projectId"":""03d12dc6-79b3-42a5-88c2-9b18a9e5f1ee""}","https://test12345.live/?num_scrambled_semantic=8&num_scrambled_causal=4&num_scrambled_schematic=4&participantId=C79E8002797D479487A51EDC4B03077C&assignmentId=9aea825c-123e-4357-b682-e6de7a44313e&projectId=03d12dc6-79b3-42a5-88c2-9b18a9e5f1ee","C79E8002797D479487A51EDC4B03077C-2025-05-15-16-08-14","","null","","images/instructions/movie_3.png","null","",""
"","","","","","image-button-response","16","277437","0.0-6.0-1.0-1.2","C79E8002797D479487A51EDC4B03077C","C79E8002797D479487A51EDC4B03077C","9aea825c-123e-4357-b682-e6de7a44313e","03d12dc6-79b3-42a5-88c2-9b18a9e5f1ee","{""num_scrambled_semantic"":""8"",""num_scrambled_causal"":""4"",""num_scrambled_schematic"":""4"",""participantId"":""C79E8002797D479487A51EDC4B03077C"",""assignmentId"":""9aea825c-123e-4357-b682-e6de7a44313e"",""projectId"":""03d12dc6-79b3-42a5-88c2-9b18a9e5f1ee""}","https://test12345.live/?num_scrambled_semantic=8&num_scrambled_causal=4&num_scrambled_schematic=4&participantId=C79E8002797D479487A51EDC4B03077C&assignmentId=9aea825c-123e-4357-b682-e6de7a44313e&projectId=03d12dc6-79b3-42a5-88c2-9b18a9e5f1ee","C79E8002797D479487A51EDC4B03077C-2025-05-15-16-08-14","","1747","","images/instructions/movie_3.png","0","",""
"","","","","","image-button-response","17","279240","0.0-6.0-1.0-2.2","C79E8002797D479487A51EDC4B03077C","C79E8002797D479487A51EDC4B03077C","9aea825c-123e-4357-b682-e6de7a44313e","03d12dc6-79b3-42a5-88c2-9b18a9e5f1ee","{""num_scrambled_semantic"":""8"",""num_scrambled_causal"":""4"",""num_scrambled_schematic"":""4"",""participantId"":""C79E8002797D479487A51EDC4B03077C"",""assignmentId"":""9aea825c-123e-4357-b682-e6de7a44313e"",""projectId"":""03d12dc6-79b3-42a5-88c2-9b18a9e5f1ee""}","https://test12345.live/?num_scrambled_semantic=8&num_scrambled_causal=4&num_scrambled_schematic=4&participantId=C79E8002797D479487A51EDC4B03077C&assignmentId=9aea825c-123e-4357-b682-e6de7a44313e&projectId=03d12dc6-79b3-42a5-88c2-9b18a9e5f1ee","C79E8002797D479487A51EDC4B03077C-2025-05-15-16-08-14","","null","","[]","null","",""
"","","","","","image-button-response","18","283744","0.0-6.0-1.0-0.3","C79E8002797D479487A51EDC4B03077C","C79E8002797D479487A51EDC4B03077C","9aea825c-123e-4357-b682-e6de7a44313e","03d12dc6-79b3-42a5-88c2-9b18a9e5f1ee","{""num_scrambled_semantic"":""8"",""num_scrambled_causal"":""4"",""num_scrambled_schematic"":""4"",""participantId"":""C79E8002797D479487A51EDC4B03077C"",""assignmentId"":""9aea825c-123e-4357-b682-e6de7a44313e"",""projectId"":""03d12dc6-79b3-42a5-88c2-9b18a9e5f1ee""}","https://test12345.live/?num_scrambled_semantic=8&num_scrambled_causal=4&num_scrambled_schematic=4&participantId=C79E8002797D479487A51EDC4B03077C&assignmentId=9aea825c-123e-4357-b682-e6de7a44313e&projectId=03d12dc6-79b3-42a5-88c2-9b18a9e5f1ee","C79E8002797D479487A51EDC4B03077C-2025-05-15-16-08-14","","null","","images/instructions/movie_4.png","null","",""
"","","","","","image-button-response","19","284868","0.0-6.0-1.0-1.3","C79E8002797D479487A51EDC4B03077C","C79E8002797D479487A51EDC4B03077C","9aea825c-123e-4357-b682-e6de7a44313e","03d12dc6-79b3-42a5-88c2-9b18a9e5f1ee","{""num_scrambled_semantic"":""8"",""num_scrambled_causal"":""4"",""num_scrambled_schematic"":""4"",""participantId"":""C79E8002797D479487A51EDC4B03077C"",""assignmentId"":""9aea825c-123e-4357-b682-e6de7a44313e"",""projectId"":""03d12dc6-79b3-42a5-88c2-9b18a9e5f1ee""}","https://test12345.live/?num_scrambled_semantic=8&num_scrambled_causal=4&num_scrambled_schematic=4&participantId=C79E8002797D479487A51EDC4B03077C&assignmentId=9aea825c-123e-4357-b682-e6de7a44313e&projectId=03d12dc6-79b3-42a5-88c2-9b18a9e5f1ee","C79E8002797D479487A51EDC4B03077C-2025-05-15-16-08-14","","1122","","images/instructions/movie_4.png","0","",""
"","","","","","image-button-response","20","286670","0.0-6.0-1.0-2.3","C79E8002797D479487A51EDC4B03077C","C79E8002797D479487A51EDC4B03077C","9aea825c-123e-4357-b682-e6de7a44313e","03d12dc6-79b3-42a5-88c2-9b18a9e5f1ee","{""num_scrambled_semantic"":""8"",""num_scrambled_causal"":""4"",""num_scrambled_schematic"":""4"",""participantId"":""C79E8002797D479487A51EDC4B03077C"",""assignmentId"":""9aea825c-123e-4357-b682-e6de7a44313e"",""projectId"":""03d12dc6-79b3-42a5-88c2-9b18a9e5f1ee""}","https://test12345.live/?num_scrambled_semantic=8&num_scrambled_causal=4&num_scrambled_schematic=4&participantId=C79E8002797D479487A51EDC4B03077C&assignmentId=9aea825c-123e-4357-b682-e6de7a44313e&projectId=03d12dc6-79b3-42a5-88c2-9b18a9e5f1ee","C79E8002797D479487A51EDC4B03077C-2025-05-15-16-08-14","","null","","[]","null","",""
"","","","","","instructions","21","311152","0.0-7.0","C79E8002797D479487A51EDC4B03077C","C79E8002797D479487A51EDC4B03077C","9aea825c-123e-4357-b682-e6de7a44313e","03d12dc6-79b3-42a5-88c2-9b18a9e5f1ee","{""num_scrambled_semantic"":""8"",""num_scrambled_causal"":""4"",""num_scrambled_schematic"":""4"",""participantId"":""C79E8002797D479487A51EDC4B03077C"",""assignmentId"":""9aea825c-123e-4357-b682-e6de7a44313e"",""projectId"":""03d12dc6-79b3-42a5-88c2-9b18a9e5f1ee""}","https://test12345.live/?num_scrambled_semantic=8&num_scrambled_causal=4&num_scrambled_schematic=4&participantId=C79E8002797D479487A51EDC4B03077C&assignmentId=9aea825c-123e-4357-b682-e6de7a44313e&projectId=03d12dc6-79b3-42a5-88c2-9b18a9e5f1ee","C79E8002797D479487A51EDC4B03077C-2025-05-15-16-08-14","[{""page_index"":0,""viewing_time"":23566},{""page_index"":1,""viewing_time"":915}]","24481","","","","",""
"","","","","","html-audio-response","22","352693","0.0-8.0","C79E8002797D479487A51EDC4B03077C","C79E8002797D479487A51EDC4B03077C","9aea825c-123e-4357-b682-e6de7a44313e","03d12dc6-79b3-42a5-88c2-9b18a9e5f1ee","{""num_scrambled_semantic"":""8"",""num_scrambled_causal"":""4"",""num_scrambled_schematic"":""4"",""participantId"":""C79E8002797D479487A51EDC4B03077C"",""assignmentId"":""9aea825c-123e-4357-b682-e6de7a44313e"",""projectId"":""03d12dc6-79b3-42a5-88c2-9b18a9e5f1ee""}","https://test12345.live/?num_scrambled_semantic=8&num_scrambled_causal=4&num_scrambled_schematic=4&participantId=C79E8002797D479487A51EDC4B03077C&assignmentId=9aea825c-123e-4357-b682-e6de7a44313e&projectId=03d12dc6-79b3-42a5-88c2-9b18a9e5f1ee","C79E8002797D479487A51EDC4B03077C-2025-05-15-16-08-14","","18352","","[""<span style=\""color: red; font-size: 24px\""> NOW RECORDING</span><p>Please say out loud all the images you saw, as many as you can remember. The images can be said in any order.</p>""]","","2",""
"","","","","","instructions","23","354133","0.0-9.0","C79E8002797D479487A51EDC4B03077C","C79E8002797D479487A51EDC4B03077C","9aea825c-123e-4357-b682-e6de7a44313e","03d12dc6-79b3-42a5-88c2-9b18a9e5f1ee","{""num_scrambled_semantic"":""8"",""num_scrambled_causal"":""4"",""num_scrambled_schematic"":""4"",""participantId"":""C79E8002797D479487A51EDC4B03077C"",""assignmentId"":""9aea825c-123e-4357-b682-e6de7a44313e"",""projectId"":""03d12dc6-79b3-42a5-88c2-9b18a9e5f1ee""}","https://test12345.live/?num_scrambled_semantic=8&num_scrambled_causal=4&num_scrambled_schematic=4&participantId=C79E8002797D479487A51EDC4B03077C&assignmentId=9aea825c-123e-4357-b682-e6de7a44313e&projectId=03d12dc6-79b3-42a5-88c2-9b18a9e5f1ee","C79E8002797D479487A51EDC4B03077C-2025-05-15-16-08-14","[{""page_index"":0,""viewing_time"":1432}]","1432","","","","",""
"","","","","","image-button-response","24","360135","0.0-10.0-0.0","C79E8002797D479487A51EDC4B03077C","C79E8002797D479487A51EDC4B03077C","9aea825c-123e-4357-b682-e6de7a44313e","03d12dc6-79b3-42a5-88c2-9b18a9e5f1ee","{""num_scrambled_semantic"":""8"",""num_scrambled_causal"":""4"",""num_scrambled_schematic"":""4"",""participantId"":""C79E8002797D479487A51EDC4B03077C"",""assignmentId"":""9aea825c-123e-4357-b682-e6de7a44313e"",""projectId"":""03d12dc6-79b3-42a5-88c2-9b18a9e5f1ee""}","https://test12345.live/?num_scrambled_semantic=8&num_scrambled_causal=4&num_scrambled_schematic=4&participantId=C79E8002797D479487A51EDC4B03077C&assignmentId=9aea825c-123e-4357-b682-e6de7a44313e&projectId=03d12dc6-79b3-42a5-88c2-9b18a9e5f1ee","C79E8002797D479487A51EDC4B03077C-2025-05-15-16-08-14","","null","","images/causal_sequence/saving_a_cat_causal/saving_a_cat_causal_0.png","null","",""
"","","","","","image-button-response","25","364637","0.0-10.0-1.0-0.0","C79E8002797D479487A51EDC4B03077C","C79E8002797D479487A51EDC4B03077C","9aea825c-123e-4357-b682-e6de7a44313e","03d12dc6-79b3-42a5-88c2-9b18a9e5f1ee","{""num_scrambled_semantic"":""8"",""num_scrambled_causal"":""4"",""num_scrambled_schematic"":""4"",""participantId"":""C79E8002797D479487A51EDC4B03077C"",""assignmentId"":""9aea825c-123e-4357-b682-e6de7a44313e"",""projectId"":""03d12dc6-79b3-42a5-88c2-9b18a9e5f1ee""}","https://test12345.live/?num_scrambled_semantic=8&num_scrambled_causal=4&num_scrambled_schematic=4&participantId=C79E8002797D479487A51EDC4B03077C&assignmentId=9aea825c-123e-4357-b682-e6de7a44313e&projectId=03d12dc6-79b3-42a5-88c2-9b18a9e5f1ee","C79E8002797D479487A51EDC4B03077C-2025-05-15-16-08-14","","null","","images/causal_sequence/saving_a_cat_causal/saving_a_cat_causal_1.png","null","",""
"","","","","","image-button-response","26","366566","0.0-10.0-1.0-1.0","C79E8002797D479487A51EDC4B03077C","C79E8002797D479487A51EDC4B03077C","9aea825c-123e-4357-b682-e6de7a44313e","03d12dc6-79b3-42a5-88c2-9b18a9e5f1ee","{""num_scrambled_semantic"":""8"",""num_scrambled_causal"":""4"",""num_scrambled_schematic"":""4"",""participantId"":""C79E8002797D479487A51EDC4B03077C"",""assignmentId"":""9aea825c-123e-4357-b682-e6de7a44313e"",""projectId"":""03d12dc6-79b3-42a5-88c2-9b18a9e5f1ee""}","https://test12345.live/?num_scrambled_semantic=8&num_scrambled_causal=4&num_scrambled_schematic=4&participantId=C79E8002797D479487A51EDC4B03077C&assignmentId=9aea825c-123e-4357-b682-e6de7a44313e&projectId=03d12dc6-79b3-42a5-88c2-9b18a9e5f1ee","C79E8002797D479487A51EDC4B03077C-2025-05-15-16-08-14","","1928","","images/causal_sequence/saving_a_cat_causal/saving_a_cat_causal_1.png","0","",""
"","","","","","image-button-response","27","368368","0.0-10.0-1.0-2.0","C79E8002797D479487A51EDC4B03077C","C79E8002797D479487A51EDC4B03077C","9aea825c-123e-4357-b682-e6de7a44313e","03d12dc6-79b3-42a5-88c2-9b18a9e5f1ee","{""num_scrambled_semantic"":""8"",""num_scrambled_causal"":""4"",""num_scrambled_schematic"":""4"",""participantId"":""C79E8002797D479487A51EDC4B03077C"",""assignmentId"":""9aea825c-123e-4357-b682-e6de7a44313e"",""projectId"":""03d12dc6-79b3-42a5-88c2-9b18a9e5f1ee""}","https://test12345.live/?num_scrambled_semantic=8&num_scrambled_causal=4&num_scrambled_schematic=4&participantId=C79E8002797D479487A51EDC4B03077C&assignmentId=9aea825c-123e-4357-b682-e6de7a44313e&projectId=03d12dc6-79b3-42a5-88c2-9b18a9e5f1ee","C79E8002797D479487A51EDC4B03077C-2025-05-15-16-08-14","","null","","[]","null","",""
"","","","","","image-button-response","28","372872","0.0-10.0-1.0-0.1","C79E8002797D479487A51EDC4B03077C","C79E8002797D479487A51EDC4B03077C","9aea825c-123e-4357-b682-e6de7a44313e","03d12dc6-79b3-42a5-88c2-9b18a9e5f1ee","{""num_scrambled_semantic"":""8"",""num_scrambled_causal"":""4"",""num_scrambled_schematic"":""4"",""participantId"":""C79E8002797D479487A51EDC4B03077C"",""assignmentId"":""9aea825c-123e-4357-b682-e6de7a44313e"",""projectId"":""03d12dc6-79b3-42a5-88c2-9b18a9e5f1ee""}","https://test12345.live/?num_scrambled_semantic=8&num_scrambled_causal=4&num_scrambled_schematic=4&participantId=C79E8002797D479487A51EDC4B03077C&assignmentId=9aea825c-123e-4357-b682-e6de7a44313e&projectId=03d12dc6-79b3-42a5-88c2-9b18a9e5f1ee","C79E8002797D479487A51EDC4B03077C-2025-05-15-16-08-14","","null","","images/causal_sequence/saving_a_cat_causal/saving_a_cat_causal_4.png","null","",""
"","","","","","image-button-response","29","374625","0.0-10.0-1.0-1.1","C79E8002797D479487A51EDC4B03077C","C79E8002797D479487A51EDC4B03077C","9aea825c-123e-4357-b682-e6de7a44313e","03d12dc6-79b3-42a5-88c2-9b18a9e5f1ee","{""num_scrambled_semantic"":""8"",""num_scrambled_causal"":""4"",""num_scrambled_schematic"":""4"",""participantId"":""C79E8002797D479487A51EDC4B03077C"",""assignmentId"":""9aea825c-123e-4357-b682-e6de7a44313e"",""projectId"":""03d12dc6-79b3-42a5-88c2-9b18a9e5f1ee""}","https://test12345.live/?num_scrambled_semantic=8&num_scrambled_causal=4&num_scrambled_schematic=4&participantId=C79E8002797D479487A51EDC4B03077C&assignmentId=9aea825c-123e-4357-b682-e6de7a44313e&projectId=03d12dc6-79b3-42a5-88c2-9b18a9e5f1ee","C79E8002797D479487A51EDC4B03077C-2025-05-15-16-08-14","","1752","","images/causal_sequence/saving_a_cat_causal/saving_a_cat_causal_4.png","0","",""
"","","","","","image-button-response","30","376427","0.0-10.0-1.0-2.1","C79E8002797D479487A51EDC4B03077C","C79E8002797D479487A51EDC4B03077C","9aea825c-123e-4357-b682-e6de7a44313e","03d12dc6-79b3-42a5-88c2-9b18a9e5f1ee","{""num_scrambled_semantic"":""8"",""num_scrambled_causal"":""4"",""num_scrambled_schematic"":""4"",""participantId"":""C79E8002797D479487A51EDC4B03077C"",""assignmentId"":""9aea825c-123e-4357-b682-e6de7a44313e"",""projectId"":""03d12dc6-79b3-42a5-88c2-9b18a9e5f1ee""}","https://test12345.live/?num_scrambled_semantic=8&num_scrambled_causal=4&num_scrambled_schematic=4&participantId=C79E8002797D479487A51EDC4B03077C&assignmentId=9aea825c-123e-4357-b682-e6de7a44313e&projectId=03d12dc6-79b3-42a5-88c2-9b18a9e5f1ee","C79E8002797D479487A51EDC4B03077C-2025-05-15-16-08-14","","null","","[]","null","",""
"","","","","","image-button-response","31","380929","0.0-10.0-1.0-0.2","C79E8002797D479487A51EDC4B03077C","C79E8002797D479487A51EDC4B03077C","9aea825c-123e-4357-b682-e6de7a44313e","03d12dc6-79b3-42a5-88c2-9b18a9e5f1ee","{""num_scrambled_semantic"":""8"",""num_scrambled_causal"":""4"",""num_scrambled_schematic"":""4"",""participantId"":""C79E8002797D479487A51EDC4B03077C"",""assignmentId"":""9aea825c-123e-4357-b682-e6de7a44313e"",""projectId"":""03d12dc6-79b3-42a5-88c2-9b18a9e5f1ee""}","https://test12345.live/?num_scrambled_semantic=8&num_scrambled_causal=4&num_scrambled_schematic=4&participantId=C79E8002797D479487A51EDC4B03077C&assignmentId=9aea825c-123e-4357-b682-e6de7a44313e&projectId=03d12dc6-79b3-42a5-88c2-9b18a9e5f1ee","C79E8002797D479487A51EDC4B03077C-2025-05-15-16-08-14","","null","","images/causal_sequence/saving_a_cat_causal/saving_a_cat_causal_3.png","null","",""
"","","","","","image-button-response","32","383272","0.0-10.0-1.0-1.2","C79E8002797D479487A51EDC4B03077C","C79E8002797D479487A51EDC4B03077C","9aea825c-123e-4357-b682-e6de7a44313e","03d12dc6-79b3-42a5-88c2-9b18a9e5f1ee","{""num_scrambled_semantic"":""8"",""num_scrambled_causal"":""4"",""num_scrambled_schematic"":""4"",""participantId"":""C79E8002797D479487A51EDC4B03077C"",""assignmentId"":""9aea825c-123e-4357-b682-e6de7a44313e"",""projectId"":""03d12dc6-79b3-42a5-88c2-9b18a9e5f1ee""}","https://test12345.live/?num_scrambled_semantic=8&num_scrambled_causal=4&num_scrambled_schematic=4&participantId=C79E8002797D479487A51EDC4B03077C&assignmentId=9aea825c-123e-4357-b682-e6de7a44313e&projectId=03d12dc6-79b3-42a5-88c2-9b18a9e5f1ee","C79E8002797D479487A51EDC4B03077C-2025-05-15-16-08-14","","2340","","images/causal_sequence/saving_a_cat_causal/saving_a_cat_causal_3.png","1","",""
"","","","","","image-button-response","33","385073","0.0-10.0-1.0-2.2","C79E8002797D479487A51EDC4B03077C","C79E8002797D479487A51EDC4B03077C","9aea825c-123e-4357-b682-e6de7a44313e","03d12dc6-79b3-42a5-88c2-9b18a9e5f1ee","{""num_scrambled_semantic"":""8"",""num_scrambled_causal"":""4"",""num_scrambled_schematic"":""4"",""participantId"":""C79E8002797D479487A51EDC4B03077C"",""assignmentId"":""9aea825c-123e-4357-b682-e6de7a44313e"",""projectId"":""03d12dc6-79b3-42a5-88c2-9b18a9e5f1ee""}","https://test12345.live/?num_scrambled_semantic=8&num_scrambled_causal=4&num_scrambled_schematic=4&participantId=C79E8002797D479487A51EDC4B03077C&assignmentId=9aea825c-123e-4357-b682-e6de7a44313e&projectId=03d12dc6-79b3-42a5-88c2-9b18a9e5f1ee","C79E8002797D479487A51EDC4B03077C-2025-05-15-16-08-14","","null","","[]","null","",""
"","","","","","image-button-response","34","389576","0.0-10.0-1.0-0.3","C79E8002797D479487A51EDC4B03077C","C79E8002797D479487A51EDC4B03077C","9aea825c-123e-4357-b682-e6de7a44313e","03d12dc6-79b3-42a5-88c2-9b18a9e5f1ee","{""num_scrambled_semantic"":""8"",""num_scrambled_causal"":""4"",""num_scrambled_schematic"":""4"",""participantId"":""C79E8002797D479487A51EDC4B03077C"",""assignmentId"":""9aea825c-123e-4357-b682-e6de7a44313e"",""projectId"":""03d12dc6-79b3-42a5-88c2-9b18a9e5f1ee""}","https://test12345.live/?num_scrambled_semantic=8&num_scrambled_causal=4&num_scrambled_schematic=4&participantId=C79E8002797D479487A51EDC4B03077C&assignmentId=9aea825c-123e-4357-b682-e6de7a44313e&projectId=03d12dc6-79b3-42a5-88c2-9b18a9e5f1ee","C79E8002797D479487A51EDC4B03077C-2025-05-15-16-08-14","","null","","images/causal_sequence/saving_a_cat_causal/saving_a_cat_causal_9.png","null","",""
"","","","","","image-button-response","35","390869","0.0-10.0-1.0-1.3","C79E8002797D479487A51EDC4B03077C","C79E8002797D479487A51EDC4B03077C","9aea825c-123e-4357-b682-e6de7a44313e","03d12dc6-79b3-42a5-88c2-9b18a9e5f1ee","{""num_scrambled_semantic"":""8"",""num_scrambled_causal"":""4"",""num_scrambled_schematic"":""4"",""participantId"":""C79E8002797D479487A51EDC4B03077C"",""assignmentId"":""9aea825c-123e-4357-b682-e6de7a44313e"",""projectId"":""03d12dc6-79b3-42a5-88c2-9b18a9e5f1ee""}","https://test12345.live/?num_scrambled_semantic=8&num_scrambled_causal=4&num_scrambled_schematic=4&participantId=C79E8002797D479487A51EDC4B03077C&assignmentId=9aea825c-123e-4357-b682-e6de7a44313e&projectId=03d12dc6-79b3-42a5-88c2-9b18a9e5f1ee","C79E8002797D479487A51EDC4B03077C-2025-05-15-16-08-14","","1291","","images/causal_sequence/saving_a_cat_causal/saving_a_cat_causal_9.png","0","",""
"","","","","","image-button-response","36","392672","0.0-10.0-1.0-2.3","C79E8002797D479487A51EDC4B03077C","C79E8002797D479487A51EDC4B03077C","9aea825c-123e-4357-b682-e6de7a44313e","03d12dc6-79b3-42a5-88c2-9b18a9e5f1ee","{""num_scrambled_semantic"":""8"",""num_scrambled_causal"":""4"",""num_scrambled_schematic"":""4"",""participantId"":""C79E8002797D479487A51EDC4B03077C"",""assignmentId"":""9aea825c-123e-4357-b682-e6de7a44313e"",""projectId"":""03d12dc6-79b3-42a5-88c2-9b18a9e5f1ee""}","https://test12345.live/?num_scrambled_semantic=8&num_scrambled_causal=4&num_scrambled_schematic=4&participantId=C79E8002797D479487A51EDC4B03077C&assignmentId=9aea825c-123e-4357-b682-e6de7a44313e&projectId=03d12dc6-79b3-42a5-88c2-9b18a9e5f1ee","C79E8002797D479487A51EDC4B03077C-2025-05-15-16-08-14","","null","","[]","null","",""
"","","","","","image-button-response","37","397173","0.0-10.0-1.0-0.4","C79E8002797D479487A51EDC4B03077C","C79E8002797D479487A51EDC4B03077C","9aea825c-123e-4357-b682-e6de7a44313e","03d12dc6-79b3-42a5-88c2-9b18a9e5f1ee","{""num_scrambled_semantic"":""8"",""num_scrambled_causal"":""4"",""num_scrambled_schematic"":""4"",""participantId"":""C79E8002797D479487A51EDC4B03077C"",""assignmentId"":""9aea825c-123e-4357-b682-e6de7a44313e"",""projectId"":""03d12dc6-79b3-42a5-88c2-9b18a9e5f1ee""}","https://test12345.live/?num_scrambled_semantic=8&num_scrambled_causal=4&num_scrambled_schematic=4&participantId=C79E8002797D479487A51EDC4B03077C&assignmentId=9aea825c-123e-4357-b682-e6de7a44313e&projectId=03d12dc6-79b3-42a5-88c2-9b18a9e5f1ee","C79E8002797D479487A51EDC4B03077C-2025-05-15-16-08-14","","null","","images/causal_sequence/saving_a_cat_causal/saving_a_cat_causal_5.png","null","",""
"","","","","","image-button-response","38","398269","0.0-10.0-1.0-1.4","C79E8002797D479487A51EDC4B03077C","C79E8002797D479487A51EDC4B03077C","9aea825c-123e-4357-b682-e6de7a44313e","03d12dc6-79b3-42a5-88c2-9b18a9e5f1ee","{""num_scrambled_semantic"":""8"",""num_scrambled_causal"":""4"",""num_scrambled_schematic"":""4"",""participantId"":""C79E8002797D479487A51EDC4B03077C"",""assignmentId"":""9aea825c-123e-4357-b682-e6de7a44313e"",""projectId"":""03d12dc6-79b3-42a5-88c2-9b18a9e5f1ee""}","https://test12345.live/?num_scrambled_semantic=8&num_scrambled_causal=4&num_scrambled_schematic=4&participantId=C79E8002797D479487A51EDC4B03077C&assignmentId=9aea825c-123e-4357-b682-e6de7a44313e&projectId=03d12dc6-79b3-42a5-88c2-9b18a9e5f1ee","C79E8002797D479487A51EDC4B03077C-2025-05-15-16-08-14","","1094","","images/causal_sequence/saving_a_cat_causal/saving_a_cat_causal_5.png","0","",""
"","","","","","image-button-response","39","400071","0.0-10.0-1.0-2.4","C79E8002797D479487A51EDC4B03077C","C79E8002797D479487A51EDC4B03077C","9aea825c-123e-4357-b682-e6de7a44313e","03d12dc6-79b3-42a5-88c2-9b18a9e5f1ee","{""num_scrambled_semantic"":""8"",""num_scrambled_causal"":""4"",""num_scrambled_schematic"":""4"",""participantId"":""C79E8002797D479487A51EDC4B03077C"",""assignmentId"":""9aea825c-123e-4357-b682-e6de7a44313e"",""projectId"":""03d12dc6-79b3-42a5-88c2-9b18a9e5f1ee""}","https://test12345.live/?num_scrambled_semantic=8&num_scrambled_causal=4&num_scrambled_schematic=4&participantId=C79E8002797D479487A51EDC4B03077C&assignmentId=9aea825c-123e-4357-b682-e6de7a44313e&projectId=03d12dc6-79b3-42a5-88c2-9b18a9e5f1ee","C79E8002797D479487A51EDC4B03077C-2025-05-15-16-08-14","","null","","[]","null","",""
"","","","","","image-button-response","40","404572","0.0-10.0-1.0-0.5","C79E8002797D479487A51EDC4B03077C","C79E8002797D479487A51EDC4B03077C","9aea825c-123e-4357-b682-e6de7a44313e","03d12dc6-79b3-42a5-88c2-9b18a9e5f1ee","{""num_scrambled_semantic"":""8"",""num_scrambled_causal"":""4"",""num_scrambled_schematic"":""4"",""participantId"":""C79E8002797D479487A51EDC4B03077C"",""assignmentId"":""9aea825c-123e-4357-b682-e6de7a44313e"",""projectId"":""03d12dc6-79b3-42a5-88c2-9b18a9e5f1ee""}","https://test12345.live/?num_scrambled_semantic=8&num_scrambled_causal=4&num_scrambled_schematic=4&participantId=C79E8002797D479487A51EDC4B03077C&assignmentId=9aea825c-123e-4357-b682-e6de7a44313e&projectId=03d12dc6-79b3-42a5-88c2-9b18a9e5f1ee","C79E8002797D479487A51EDC4B03077C-2025-05-15-16-08-14","","null","","images/causal_sequence/saving_a_cat_causal/saving_a_cat_causal_6.png","null","",""
"","","","","","image-button-response","41","406336","0.0-10.0-1.0-1.5","C79E8002797D479487A51EDC4B03077C","C79E8002797D479487A51EDC4B03077C","9aea825c-123e-4357-b682-e6de7a44313e","03d12dc6-79b3-42a5-88c2-9b18a9e5f1ee","{""num_scrambled_semantic"":""8"",""num_scrambled_causal"":""4"",""num_scrambled_schematic"":""4"",""participantId"":""C79E8002797D479487A51EDC4B03077C"",""assignmentId"":""9aea825c-123e-4357-b682-e6de7a44313e"",""projectId"":""03d12dc6-79b3-42a5-88c2-9b18a9e5f1ee""}","https://test12345.live/?num_scrambled_semantic=8&num_scrambled_causal=4&num_scrambled_schematic=4&participantId=C79E8002797D479487A51EDC4B03077C&assignmentId=9aea825c-123e-4357-b682-e6de7a44313e&projectId=03d12dc6-79b3-42a5-88c2-9b18a9e5f1ee","C79E8002797D479487A51EDC4B03077C-2025-05-15-16-08-14","","1761","","images/causal_sequence/saving_a_cat_causal/saving_a_cat_causal_6.png","0","",""
"","","","","","image-button-response","42","408138","0.0-10.0-1.0-2.5","C79E8002797D479487A51EDC4B03077C","C79E8002797D479487A51EDC4B03077C","9aea825c-123e-4357-b682-e6de7a44313e","03d12dc6-79b3-42a5-88c2-9b18a9e5f1ee","{""num_scrambled_semantic"":""8"",""num_scrambled_causal"":""4"",""num_scrambled_schematic"":""4"",""participantId"":""C79E8002797D479487A51EDC4B03077C"",""assignmentId"":""9aea825c-123e-4357-b682-e6de7a44313e"",""projectId"":""03d12dc6-79b3-42a5-88c2-9b18a9e5f1ee""}","https://test12345.live/?num_scrambled_semantic=8&num_scrambled_causal=4&num_scrambled_schematic=4&participantId=C79E8002797D479487A51EDC4B03077C&assignmentId=9aea825c-123e-4357-b682-e6de7a44313e&projectId=03d12dc6-79b3-42a5-88c2-9b18a9e5f1ee","C79E8002797D479487A51EDC4B03077C-2025-05-15-16-08-14","","null","","[]","null","",""
"","","","","","image-button-response","43","412641","0.0-10.0-1.0-0.6","C79E8002797D479487A51EDC4B03077C","C79E8002797D479487A51EDC4B03077C","9aea825c-123e-4357-b682-e6de7a44313e","03d12dc6-79b3-42a5-88c2-9b18a9e5f1ee","{""num_scrambled_semantic"":""8"",""num_scrambled_causal"":""4"",""num_scrambled_schematic"":""4"",""participantId"":""C79E8002797D479487A51EDC4B03077C"",""assignmentId"":""9aea825c-123e-4357-b682-e6de7a44313e"",""projectId"":""03d12dc6-79b3-42a5-88c2-9b18a9e5f1ee""}","https://test12345.live/?num_scrambled_semantic=8&num_scrambled_causal=4&num_scrambled_schematic=4&participantId=C79E8002797D479487A51EDC4B03077C&assignmentId=9aea825c-123e-4357-b682-e6de7a44313e&projectId=03d12dc6-79b3-42a5-88c2-9b18a9e5f1ee","C79E8002797D479487A51EDC4B03077C-2025-05-15-16-08-14","","null","","images/causal_sequence/saving_a_cat_causal/saving_a_cat_causal_ten.png","null","",""
"","","","","","image-button-response","44","413904","0.0-10.0-1.0-1.6","C79E8002797D479487A51EDC4B03077C","C79E8002797D479487A51EDC4B03077C","9aea825c-123e-4357-b682-e6de7a44313e","03d12dc6-79b3-42a5-88c2-9b18a9e5f1ee","{""num_scrambled_semantic"":""8"",""num_scrambled_causal"":""4"",""num_scrambled_schematic"":""4"",""participantId"":""C79E8002797D479487A51EDC4B03077C"",""assignmentId"":""9aea825c-123e-4357-b682-e6de7a44313e"",""projectId"":""03d12dc6-79b3-42a5-88c2-9b18a9e5f1ee""}","https://test12345.live/?num_scrambled_semantic=8&num_scrambled_causal=4&num_scrambled_schematic=4&participantId=C79E8002797D479487A51EDC4B03077C&assignmentId=9aea825c-123e-4357-b682-e6de7a44313e&projectId=03d12dc6-79b3-42a5-88c2-9b18a9e5f1ee","C79E8002797D479487A51EDC4B03077C-2025-05-15-16-08-14","","1261","","images/causal_sequence/saving_a_cat_causal/saving_a_cat_causal_ten.png","0","",""
"","","","","","image-button-response","45","415707","0.0-10.0-1.0-2.6","C79E8002797D479487A51EDC4B03077C","C79E8002797D479487A51EDC4B03077C","9aea825c-123e-4357-b682-e6de7a44313e","03d12dc6-79b3-42a5-88c2-9b18a9e5f1ee","{""num_scrambled_semantic"":""8"",""num_scrambled_causal"":""4"",""num_scrambled_schematic"":""4"",""participantId"":""C79E8002797D479487A51EDC4B03077C"",""assignmentId"":""9aea825c-123e-4357-b682-e6de7a44313e"",""projectId"":""03d12dc6-79b3-42a5-88c2-9b18a9e5f1ee""}","https://test12345.live/?num_scrambled_semantic=8&num_scrambled_causal=4&num_scrambled_schematic=4&participantId=C79E8002797D479487A51EDC4B03077C&assignmentId=9aea825c-123e-4357-b682-e6de7a44313e&projectId=03d12dc6-79b3-42a5-88c2-9b18a9e5f1ee","C79E8002797D479487A51EDC4B03077C-2025-05-15-16-08-14","","null","","[]","null","",""
"","","","","","image-button-response","46","420209","0.0-10.0-1.0-0.7","C79E8002797D479487A51EDC4B03077C","C79E8002797D479487A51EDC4B03077C","9aea825c-123e-4357-b682-e6de7a44313e","03d12dc6-79b3-42a5-88c2-9b18a9e5f1ee","{""num_scrambled_semantic"":""8"",""num_scrambled_causal"":""4"",""num_scrambled_schematic"":""4"",""participantId"":""C79E8002797D479487A51EDC4B03077C"",""assignmentId"":""9aea825c-123e-4357-b682-e6de7a44313e"",""projectId"":""03d12dc6-79b3-42a5-88c2-9b18a9e5f1ee""}","https://test12345.live/?num_scrambled_semantic=8&num_scrambled_causal=4&num_scrambled_schematic=4&participantId=C79E8002797D479487A51EDC4B03077C&assignmentId=9aea825c-123e-4357-b682-e6de7a44313e&projectId=03d12dc6-79b3-42a5-88c2-9b18a9e5f1ee","C79E8002797D479487A51EDC4B03077C-2025-05-15-16-08-14","","null","","images/causal_sequence/saving_a_cat_causal/saving_a_cat_causal_7.png","null","",""
"","","","","","image-button-response","47","422825","0.0-10.0-1.0-1.7","C79E8002797D479487A51EDC4B03077C","C79E8002797D479487A51EDC4B03077C","9aea825c-123e-4357-b682-e6de7a44313e","03d12dc6-79b3-42a5-88c2-9b18a9e5f1ee","{""num_scrambled_semantic"":""8"",""num_scrambled_causal"":""4"",""num_scrambled_schematic"":""4"",""participantId"":""C79E8002797D479487A51EDC4B03077C"",""assignmentId"":""9aea825c-123e-4357-b682-e6de7a44313e"",""projectId"":""03d12dc6-79b3-42a5-88c2-9b18a9e5f1ee""}","https://test12345.live/?num_scrambled_semantic=8&num_scrambled_causal=4&num_scrambled_schematic=4&participantId=C79E8002797D479487A51EDC4B03077C&assignmentId=9aea825c-123e-4357-b682-e6de7a44313e&projectId=03d12dc6-79b3-42a5-88c2-9b18a9e5f1ee","C79E8002797D479487A51EDC4B03077C-2025-05-15-16-08-14","","2614","","images/causal_sequence/saving_a_cat_causal/saving_a_cat_causal_7.png","0","",""
"","","","","","image-button-response","48","424627","0.0-10.0-1.0-2.7","C79E8002797D479487A51EDC4B03077C","C79E8002797D479487A51EDC4B03077C","9aea825c-123e-4357-b682-e6de7a44313e","03d12dc6-79b3-42a5-88c2-9b18a9e5f1ee","{""num_scrambled_semantic"":""8"",""num_scrambled_causal"":""4"",""num_scrambled_schematic"":""4"",""participantId"":""C79E8002797D479487A51EDC4B03077C"",""assignmentId"":""9aea825c-123e-4357-b682-e6de7a44313e"",""projectId"":""03d12dc6-79b3-42a5-88c2-9b18a9e5f1ee""}","https://test12345.live/?num_scrambled_semantic=8&num_scrambled_causal=4&num_scrambled_schematic=4&participantId=C79E8002797D479487A51EDC4B03077C&assignmentId=9aea825c-123e-4357-b682-e6de7a44313e&projectId=03d12dc6-79b3-42a5-88c2-9b18a9e5f1ee","C79E8002797D479487A51EDC4B03077C-2025-05-15-16-08-14","","null","","[]","null","",""
"","","","","","image-button-response","49","429130","0.0-10.0-1.0-0.8","C79E8002797D479487A51EDC4B03077C","C79E8002797D479487A51EDC4B03077C","9aea825c-123e-4357-b682-e6de7a44313e","03d12dc6-79b3-42a5-88c2-9b18a9e5f1ee","{""num_scrambled_semantic"":""8"",""num_scrambled_causal"":""4"",""num_scrambled_schematic"":""4"",""participantId"":""C79E8002797D479487A51EDC4B03077C"",""assignmentId"":""9aea825c-123e-4357-b682-e6de7a44313e"",""projectId"":""03d12dc6-79b3-42a5-88c2-9b18a9e5f1ee""}","https://test12345.live/?num_scrambled_semantic=8&num_scrambled_causal=4&num_scrambled_schematic=4&participantId=C79E8002797D479487A51EDC4B03077C&assignmentId=9aea825c-123e-4357-b682-e6de7a44313e&projectId=03d12dc6-79b3-42a5-88c2-9b18a9e5f1ee","C79E8002797D479487A51EDC4B03077C-2025-05-15-16-08-14","","null","","images/causal_sequence/saving_a_cat_causal/saving_a_cat_causal_8.png","null","",""
"","","","","","image-button-response","50","429937","0.0-10.0-1.0-1.8","C79E8002797D479487A51EDC4B03077C","C79E8002797D479487A51EDC4B03077C","9aea825c-123e-4357-b682-e6de7a44313e","03d12dc6-79b3-42a5-88c2-9b18a9e5f1ee","{""num_scrambled_semantic"":""8"",""num_scrambled_causal"":""4"",""num_scrambled_schematic"":""4"",""participantId"":""C79E8002797D479487A51EDC4B03077C"",""assignmentId"":""9aea825c-123e-4357-b682-e6de7a44313e"",""projectId"":""03d12dc6-79b3-42a5-88c2-9b18a9e5f1ee""}","https://test12345.live/?num_scrambled_semantic=8&num_scrambled_causal=4&num_scrambled_schematic=4&participantId=C79E8002797D479487A51EDC4B03077C&assignmentId=9aea825c-123e-4357-b682-e6de7a44313e&projectId=03d12dc6-79b3-42a5-88c2-9b18a9e5f1ee","C79E8002797D479487A51EDC4B03077C-2025-05-15-16-08-14","","805","","images/causal_sequence/saving_a_cat_causal/saving_a_cat_causal_8.png","0","",""
"","","","","","image-button-response","51","431739","0.0-10.0-1.0-2.8","C79E8002797D479487A51EDC4B03077C","C79E8002797D479487A51EDC4B03077C","9aea825c-123e-4357-b682-e6de7a44313e","03d12dc6-79b3-42a5-88c2-9b18a9e5f1ee","{""num_scrambled_semantic"":""8"",""num_scrambled_causal"":""4"",""num_scrambled_schematic"":""4"",""participantId"":""C79E8002797D479487A51EDC4B03077C"",""assignmentId"":""9aea825c-123e-4357-b682-e6de7a44313e"",""projectId"":""03d12dc6-79b3-42a5-88c2-9b18a9e5f1ee""}","https://test12345.live/?num_scrambled_semantic=8&num_scrambled_causal=4&num_scrambled_schematic=4&participantId=C79E8002797D479487A51EDC4B03077C&assignmentId=9aea825c-123e-4357-b682-e6de7a44313e&projectId=03d12dc6-79b3-42a5-88c2-9b18a9e5f1ee","C79E8002797D479487A51EDC4B03077C-2025-05-15-16-08-14","","null","","[]","null","",""
"","","","","","image-button-response","52","436241","0.0-10.0-1.0-0.9","C79E8002797D479487A51EDC4B03077C","C79E8002797D479487A51EDC4B03077C","9aea825c-123e-4357-b682-e6de7a44313e","03d12dc6-79b3-42a5-88c2-9b18a9e5f1ee","{""num_scrambled_semantic"":""8"",""num_scrambled_causal"":""4"",""num_scrambled_schematic"":""4"",""participantId"":""C79E8002797D479487A51EDC4B03077C"",""assignmentId"":""9aea825c-123e-4357-b682-e6de7a44313e"",""projectId"":""03d12dc6-79b3-42a5-88c2-9b18a9e5f1ee""}","https://test12345.live/?num_scrambled_semantic=8&num_scrambled_causal=4&num_scrambled_schematic=4&participantId=C79E8002797D479487A51EDC4B03077C&assignmentId=9aea825c-123e-4357-b682-e6de7a44313e&projectId=03d12dc6-79b3-42a5-88c2-9b18a9e5f1ee","C79E8002797D479487A51EDC4B03077C-2025-05-15-16-08-14","","null","","images/causal_sequence/saving_a_cat_causal/saving_a_cat_causal_2.png","null","",""
"","","","","","image-button-response","53","438038","0.0-10.0-1.0-1.9","C79E8002797D479487A51EDC4B03077C","C79E8002797D479487A51EDC4B03077C","9aea825c-123e-4357-b682-e6de7a44313e","03d12dc6-79b3-42a5-88c2-9b18a9e5f1ee","{""num_scrambled_semantic"":""8"",""num_scrambled_causal"":""4"",""num_scrambled_schematic"":""4"",""participantId"":""C79E8002797D479487A51EDC4B03077C"",""assignmentId"":""9aea825c-123e-4357-b682-e6de7a44313e"",""projectId"":""03d12dc6-79b3-42a5-88c2-9b18a9e5f1ee""}","https://test12345.live/?num_scrambled_semantic=8&num_scrambled_causal=4&num_scrambled_schematic=4&participantId=C79E8002797D479487A51EDC4B03077C&assignmentId=9aea825c-123e-4357-b682-e6de7a44313e&projectId=03d12dc6-79b3-42a5-88c2-9b18a9e5f1ee","C79E8002797D479487A51EDC4B03077C-2025-05-15-16-08-14","","1796","","images/causal_sequence/saving_a_cat_causal/saving_a_cat_causal_2.png","1","",""
"","","","","","image-button-response","54","439841","0.0-10.0-1.0-2.9","C79E8002797D479487A51EDC4B03077C","C79E8002797D479487A51EDC4B03077C","9aea825c-123e-4357-b682-e6de7a44313e","03d12dc6-79b3-42a5-88c2-9b18a9e5f1ee","{""num_scrambled_semantic"":""8"",""num_scrambled_causal"":""4"",""num_scrambled_schematic"":""4"",""participantId"":""C79E8002797D479487A51EDC4B03077C"",""assignmentId"":""9aea825c-123e-4357-b682-e6de7a44313e"",""projectId"":""03d12dc6-79b3-42a5-88c2-9b18a9e5f1ee""}","https://test12345.live/?num_scrambled_semantic=8&num_scrambled_causal=4&num_scrambled_schematic=4&participantId=C79E8002797D479487A51EDC4B03077C&assignmentId=9aea825c-123e-4357-b682-e6de7a44313e&projectId=03d12dc6-79b3-42a5-88c2-9b18a9e5f1ee","C79E8002797D479487A51EDC4B03077C-2025-05-15-16-08-14","","null","","[]","null","",""
"","","","","","html-audio-response","55","527918","0.0-11.0","C79E8002797D479487A51EDC4B03077C","C79E8002797D479487A51EDC4B03077C","9aea825c-123e-4357-b682-e6de7a44313e","03d12dc6-79b3-42a5-88c2-9b18a9e5f1ee","{""num_scrambled_semantic"":""8"",""num_scrambled_causal"":""4"",""num_scrambled_schematic"":""4"",""participantId"":""C79E8002797D479487A51EDC4B03077C"",""assignmentId"":""9aea825c-123e-4357-b682-e6de7a44313e"",""projectId"":""03d12dc6-79b3-42a5-88c2-9b18a9e5f1ee""}","https://test12345.live/?num_scrambled_semantic=8&num_scrambled_causal=4&num_scrambled_schematic=4&participantId=C79E8002797D479487A51EDC4B03077C&assignmentId=9aea825c-123e-4357-b682-e6de7a44313e&projectId=03d12dc6-79b3-42a5-88c2-9b18a9e5f1ee","C79E8002797D479487A51EDC4B03077C-2025-05-15-16-08-14","","42026","","[""<span style=\""color: red; font-size: 24px\""> NOW RECORDING</span><p>Please say out loud all the images you saw, as many as you can remember. The images can be said in any order.</p>""]","","4","saving_a_cat_causal"
"","","","","","image-button-response","56","533932","0.0-12.0-0.0","C79E8002797D479487A51EDC4B03077C","C79E8002797D479487A51EDC4B03077C","9aea825c-123e-4357-b682-e6de7a44313e","03d12dc6-79b3-42a5-88c2-9b18a9e5f1ee","{""num_scrambled_semantic"":""8"",""num_scrambled_causal"":""4"",""num_scrambled_schematic"":""4"",""participantId"":""C79E8002797D479487A51EDC4B03077C"",""assignmentId"":""9aea825c-123e-4357-b682-e6de7a44313e"",""projectId"":""03d12dc6-79b3-42a5-88c2-9b18a9e5f1ee""}","https://test12345.live/?num_scrambled_semantic=8&num_scrambled_causal=4&num_scrambled_schematic=4&participantId=C79E8002797D479487A51EDC4B03077C&assignmentId=9aea825c-123e-4357-b682-e6de7a44313e&projectId=03d12dc6-79b3-42a5-88c2-9b18a9e5f1ee","C79E8002797D479487A51EDC4B03077C-2025-05-15-16-08-14","","null","","images/semantic_sequence/exploring_nature_semantic/exploring_nature_semantic_0.png","null","",""
"","","","","","image-button-response","57","538435","0.0-12.0-1.0-0.0","C79E8002797D479487A51EDC4B03077C","C79E8002797D479487A51EDC4B03077C","9aea825c-123e-4357-b682-e6de7a44313e","03d12dc6-79b3-42a5-88c2-9b18a9e5f1ee","{""num_scrambled_semantic"":""8"",""num_scrambled_causal"":""4"",""num_scrambled_schematic"":""4"",""participantId"":""C79E8002797D479487A51EDC4B03077C"",""assignmentId"":""9aea825c-123e-4357-b682-e6de7a44313e"",""projectId"":""03d12dc6-79b3-42a5-88c2-9b18a9e5f1ee""}","https://test12345.live/?num_scrambled_semantic=8&num_scrambled_causal=4&num_scrambled_schematic=4&participantId=C79E8002797D479487A51EDC4B03077C&assignmentId=9aea825c-123e-4357-b682-e6de7a44313e&projectId=03d12dc6-79b3-42a5-88c2-9b18a9e5f1ee","C79E8002797D479487A51EDC4B03077C-2025-05-15-16-08-14","","null","","images/semantic_sequence/exploring_nature_semantic/exploring_nature_semantic_5.png","null","",""
"","","","","","image-button-response","58","540328","0.0-12.0-1.0-1.0","C79E8002797D479487A51EDC4B03077C","C79E8002797D479487A51EDC4B03077C","9aea825c-123e-4357-b682-e6de7a44313e","03d12dc6-79b3-42a5-88c2-9b18a9e5f1ee","{""num_scrambled_semantic"":""8"",""num_scrambled_causal"":""4"",""num_scrambled_schematic"":""4"",""participantId"":""C79E8002797D479487A51EDC4B03077C"",""assignmentId"":""9aea825c-123e-4357-b682-e6de7a44313e"",""projectId"":""03d12dc6-79b3-42a5-88c2-9b18a9e5f1ee""}","https://test12345.live/?num_scrambled_semantic=8&num_scrambled_causal=4&num_scrambled_schematic=4&participantId=C79E8002797D479487A51EDC4B03077C&assignmentId=9aea825c-123e-4357-b682-e6de7a44313e&projectId=03d12dc6-79b3-42a5-88c2-9b18a9e5f1ee","C79E8002797D479487A51EDC4B03077C-2025-05-15-16-08-14","","1891","","images/semantic_sequence/exploring_nature_semantic/exploring_nature_semantic_5.png","0","",""
"","","","","","image-button-response","59","542130","0.0-12.0-1.0-2.0","C79E8002797D479487A51EDC4B03077C","C79E8002797D479487A51EDC4B03077C","9aea825c-123e-4357-b682-e6de7a44313e","03d12dc6-79b3-42a5-88c2-9b18a9e5f1ee","{""num_scrambled_semantic"":""8"",""num_scrambled_causal"":""4"",""num_scrambled_schematic"":""4"",""participantId"":""C79E8002797D479487A51EDC4B03077C"",""assignmentId"":""9aea825c-123e-4357-b682-e6de7a44313e"",""projectId"":""03d12dc6-79b3-42a5-88c2-9b18a9e5f1ee""}","https://test12345.live/?num_scrambled_semantic=8&num_scrambled_causal=4&num_scrambled_schematic=4&participantId=C79E8002797D479487A51EDC4B03077C&assignmentId=9aea825c-123e-4357-b682-e6de7a44313e&projectId=03d12dc6-79b3-42a5-88c2-9b18a9e5f1ee","C79E8002797D479487A51EDC4B03077C-2025-05-15-16-08-14","","null","","[]","null","",""
"","","","","","image-button-response","60","546634","0.0-12.0-1.0-0.1","C79E8002797D479487A51EDC4B03077C","C79E8002797D479487A51EDC4B03077C","9aea825c-123e-4357-b682-e6de7a44313e","03d12dc6-79b3-42a5-88c2-9b18a9e5f1ee","{""num_scrambled_semantic"":""8"",""num_scrambled_causal"":""4"",""num_scrambled_schematic"":""4"",""participantId"":""C79E8002797D479487A51EDC4B03077C"",""assignmentId"":""9aea825c-123e-4357-b682-e6de7a44313e"",""projectId"":""03d12dc6-79b3-42a5-88c2-9b18a9e5f1ee""}","https://test12345.live/?num_scrambled_semantic=8&num_scrambled_causal=4&num_scrambled_schematic=4&participantId=C79E8002797D479487A51EDC4B03077C&assignmentId=9aea825c-123e-4357-b682-e6de7a44313e&projectId=03d12dc6-79b3-42a5-88c2-9b18a9e5f1ee","C79E8002797D479487A51EDC4B03077C-2025-05-15-16-08-14","","null","","images/semantic_sequence/exploring_nature_semantic/exploring_nature_semantic_4.png","null","",""
"","","","","","image-button-response","61","550636","0.0-12.0-1.0-1.1","C79E8002797D479487A51EDC4B03077C","C79E8002797D479487A51EDC4B03077C","9aea825c-123e-4357-b682-e6de7a44313e","03d12dc6-79b3-42a5-88c2-9b18a9e5f1ee","{""num_scrambled_semantic"":""8"",""num_scrambled_causal"":""4"",""num_scrambled_schematic"":""4"",""participantId"":""C79E8002797D479487A51EDC4B03077C"",""assignmentId"":""9aea825c-123e-4357-b682-e6de7a44313e"",""projectId"":""03d12dc6-79b3-42a5-88c2-9b18a9e5f1ee""}","https://test12345.live/?num_scrambled_semantic=8&num_scrambled_causal=4&num_scrambled_schematic=4&participantId=C79E8002797D479487A51EDC4B03077C&assignmentId=9aea825c-123e-4357-b682-e6de7a44313e&projectId=03d12dc6-79b3-42a5-88c2-9b18a9e5f1ee","C79E8002797D479487A51EDC4B03077C-2025-05-15-16-08-14","","null","","images/semantic_sequence/exploring_nature_semantic/exploring_nature_semantic_4.png","null","",""
"","","","","","image-button-response","62","552438","0.0-12.0-1.0-2.1","C79E8002797D479487A51EDC4B03077C","C79E8002797D479487A51EDC4B03077C","9aea825c-123e-4357-b682-e6de7a44313e","03d12dc6-79b3-42a5-88c2-9b18a9e5f1ee","{""num_scrambled_semantic"":""8"",""num_scrambled_causal"":""4"",""num_scrambled_schematic"":""4"",""participantId"":""C79E8002797D479487A51EDC4B03077C"",""assignmentId"":""9aea825c-123e-4357-b682-e6de7a44313e"",""projectId"":""03d12dc6-79b3-42a5-88c2-9b18a9e5f1ee""}","https://test12345.live/?num_scrambled_semantic=8&num_scrambled_causal=4&num_scrambled_schematic=4&participantId=C79E8002797D479487A51EDC4B03077C&assignmentId=9aea825c-123e-4357-b682-e6de7a44313e&projectId=03d12dc6-79b3-42a5-88c2-9b18a9e5f1ee","C79E8002797D479487A51EDC4B03077C-2025-05-15-16-08-14","","null","","[]","null","",""
"","","","","","image-button-response","63","556941","0.0-12.0-1.0-0.2","C79E8002797D479487A51EDC4B03077C","C79E8002797D479487A51EDC4B03077C","9aea825c-123e-4357-b682-e6de7a44313e","03d12dc6-79b3-42a5-88c2-9b18a9e5f1ee","{""num_scrambled_semantic"":""8"",""num_scrambled_causal"":""4"",""num_scrambled_schematic"":""4"",""participantId"":""C79E8002797D479487A51EDC4B03077C"",""assignmentId"":""9aea825c-123e-4357-b682-e6de7a44313e"",""projectId"":""03d12dc6-79b3-42a5-88c2-9b18a9e5f1ee""}","https://test12345.live/?num_scrambled_semantic=8&num_scrambled_causal=4&num_scrambled_schematic=4&participantId=C79E8002797D479487A51EDC4B03077C&assignmentId=9aea825c-123e-4357-b682-e6de7a44313e&projectId=03d12dc6-79b3-42a5-88c2-9b18a9e5f1ee","C79E8002797D479487A51EDC4B03077C-2025-05-15-16-08-14","","null","","images/semantic_sequence/exploring_nature_semantic/exploring_nature_semantic_1.png","null","",""
"","","","","","image-button-response","64","560031","0.0-12.0-1.0-1.2","C79E8002797D479487A51EDC4B03077C","C79E8002797D479487A51EDC4B03077C","9aea825c-123e-4357-b682-e6de7a44313e","03d12dc6-79b3-42a5-88c2-9b18a9e5f1ee","{""num_scrambled_semantic"":""8"",""num_scrambled_causal"":""4"",""num_scrambled_schematic"":""4"",""participantId"":""C79E8002797D479487A51EDC4B03077C"",""assignmentId"":""9aea825c-123e-4357-b682-e6de7a44313e"",""projectId"":""03d12dc6-79b3-42a5-88c2-9b18a9e5f1ee""}","https://test12345.live/?num_scrambled_semantic=8&num_scrambled_causal=4&num_scrambled_schematic=4&participantId=C79E8002797D479487A51EDC4B03077C&assignmentId=9aea825c-123e-4357-b682-e6de7a44313e&projectId=03d12dc6-79b3-42a5-88c2-9b18a9e5f1ee","C79E8002797D479487A51EDC4B03077C-2025-05-15-16-08-14","","3088","","images/semantic_sequence/exploring_nature_semantic/exploring_nature_semantic_1.png","0","",""
"","","","","","image-button-response","65","561833","0.0-12.0-1.0-2.2","C79E8002797D479487A51EDC4B03077C","C79E8002797D479487A51EDC4B03077C","9aea825c-123e-4357-b682-e6de7a44313e","03d12dc6-79b3-42a5-88c2-9b18a9e5f1ee","{""num_scrambled_semantic"":""8"",""num_scrambled_causal"":""4"",""num_scrambled_schematic"":""4"",""participantId"":""C79E8002797D479487A51EDC4B03077C"",""assignmentId"":""9aea825c-123e-4357-b682-e6de7a44313e"",""projectId"":""03d12dc6-79b3-42a5-88c2-9b18a9e5f1ee""}","https://test12345.live/?num_scrambled_semantic=8&num_scrambled_causal=4&num_scrambled_schematic=4&participantId=C79E8002797D479487A51EDC4B03077C&assignmentId=9aea825c-123e-4357-b682-e6de7a44313e&projectId=03d12dc6-79b3-42a5-88c2-9b18a9e5f1ee","C79E8002797D479487A51EDC4B03077C-2025-05-15-16-08-14","","null","","[]","null","",""
"","","","","","image-button-response","66","566336","0.0-12.0-1.0-0.3","C79E8002797D479487A51EDC4B03077C","C79E8002797D479487A51EDC4B03077C","9aea825c-123e-4357-b682-e6de7a44313e","03d12dc6-79b3-42a5-88c2-9b18a9e5f1ee","{""num_scrambled_semantic"":""8"",""num_scrambled_causal"":""4"",""num_scrambled_schematic"":""4"",""participantId"":""C79E8002797D479487A51EDC4B03077C"",""assignmentId"":""9aea825c-123e-4357-b682-e6de7a44313e"",""projectId"":""03d12dc6-79b3-42a5-88c2-9b18a9e5f1ee""}","https://test12345.live/?num_scrambled_semantic=8&num_scrambled_causal=4&num_scrambled_schematic=4&participantId=C79E8002797D479487A51EDC4B03077C&assignmentId=9aea825c-123e-4357-b682-e6de7a44313e&projectId=03d12dc6-79b3-42a5-88c2-9b18a9e5f1ee","C79E8002797D479487A51EDC4B03077C-2025-05-15-16-08-14","","null","","images/semantic_sequence/exploring_nature_semantic/exploring_nature_semantic_8.png","null","",""
"","","","","","image-button-response","67","567200","0.0-12.0-1.0-1.3","C79E8002797D479487A51EDC4B03077C","C79E8002797D479487A51EDC4B03077C","9aea825c-123e-4357-b682-e6de7a44313e","03d12dc6-79b3-42a5-88c2-9b18a9e5f1ee","{""num_scrambled_semantic"":""8"",""num_scrambled_causal"":""4"",""num_scrambled_schematic"":""4"",""participantId"":""C79E8002797D479487A51EDC4B03077C"",""assignmentId"":""9aea825c-123e-4357-b682-e6de7a44313e"",""projectId"":""03d12dc6-79b3-42a5-88c2-9b18a9e5f1ee""}","https://test12345.live/?num_scrambled_semantic=8&num_scrambled_causal=4&num_scrambled_schematic=4&participantId=C79E8002797D479487A51EDC4B03077C&assignmentId=9aea825c-123e-4357-b682-e6de7a44313e&projectId=03d12dc6-79b3-42a5-88c2-9b18a9e5f1ee","C79E8002797D479487A51EDC4B03077C-2025-05-15-16-08-14","","863","","images/semantic_sequence/exploring_nature_semantic/exploring_nature_semantic_8.png","0","",""
"","","","","","image-button-response","68","569003","0.0-12.0-1.0-2.3","C79E8002797D479487A51EDC4B03077C","C79E8002797D479487A51EDC4B03077C","9aea825c-123e-4357-b682-e6de7a44313e","03d12dc6-79b3-42a5-88c2-9b18a9e5f1ee","{""num_scrambled_semantic"":""8"",""num_scrambled_causal"":""4"",""num_scrambled_schematic"":""4"",""participantId"":""C79E8002797D479487A51EDC4B03077C"",""assignmentId"":""9aea825c-123e-4357-b682-e6de7a44313e"",""projectId"":""03d12dc6-79b3-42a5-88c2-9b18a9e5f1ee""}","https://test12345.live/?num_scrambled_semantic=8&num_scrambled_causal=4&num_scrambled_schematic=4&participantId=C79E8002797D479487A51EDC4B03077C&assignmentId=9aea825c-123e-4357-b682-e6de7a44313e&projectId=03d12dc6-79b3-42a5-88c2-9b18a9e5f1ee","C79E8002797D479487A51EDC4B03077C-2025-05-15-16-08-14","","null","","[]","null","",""
"","","","","","image-button-response","69","573504","0.0-12.0-1.0-0.4","C79E8002797D479487A51EDC4B03077C","C79E8002797D479487A51EDC4B03077C","9aea825c-123e-4357-b682-e6de7a44313e","03d12dc6-79b3-42a5-88c2-9b18a9e5f1ee","{""num_scrambled_semantic"":""8"",""num_scrambled_causal"":""4"",""num_scrambled_schematic"":""4"",""participantId"":""C79E8002797D479487A51EDC4B03077C"",""assignmentId"":""9aea825c-123e-4357-b682-e6de7a44313e"",""projectId"":""03d12dc6-79b3-42a5-88c2-9b18a9e5f1ee""}","https://test12345.live/?num_scrambled_semantic=8&num_scrambled_causal=4&num_scrambled_schematic=4&participantId=C79E8002797D479487A51EDC4B03077C&assignmentId=9aea825c-123e-4357-b682-e6de7a44313e&projectId=03d12dc6-79b3-42a5-88c2-9b18a9e5f1ee","C79E8002797D479487A51EDC4B03077C-2025-05-15-16-08-14","","null","","images/semantic_sequence/exploring_nature_semantic/exploring_nature_semantic_3.png","null","",""
"","","","","","image-button-response","70","574250","0.0-12.0-1.0-1.4","C79E8002797D479487A51EDC4B03077C","C79E8002797D479487A51EDC4B03077C","9aea825c-123e-4357-b682-e6de7a44313e","03d12dc6-79b3-42a5-88c2-9b18a9e5f1ee","{""num_scrambled_semantic"":""8"",""num_scrambled_causal"":""4"",""num_scrambled_schematic"":""4"",""participantId"":""C79E8002797D479487A51EDC4B03077C"",""assignmentId"":""9aea825c-123e-4357-b682-e6de7a44313e"",""projectId"":""03d12dc6-79b3-42a5-88c2-9b18a9e5f1ee""}","https://test12345.live/?num_scrambled_semantic=8&num_scrambled_causal=4&num_scrambled_schematic=4&participantId=C79E8002797D479487A51EDC4B03077C&assignmentId=9aea825c-123e-4357-b682-e6de7a44313e&projectId=03d12dc6-79b3-42a5-88c2-9b18a9e5f1ee","C79E8002797D479487A51EDC4B03077C-2025-05-15-16-08-14","","744","","images/semantic_sequence/exploring_nature_semantic/exploring_nature_semantic_3.png","0","",""
"","","","","","image-button-response","71","576052","0.0-12.0-1.0-2.4","C79E8002797D479487A51EDC4B03077C","C79E8002797D479487A51EDC4B03077C","9aea825c-123e-4357-b682-e6de7a44313e","03d12dc6-79b3-42a5-88c2-9b18a9e5f1ee","{""num_scrambled_semantic"":""8"",""num_scrambled_causal"":""4"",""num_scrambled_schematic"":""4"",""participantId"":""C79E8002797D479487A51EDC4B03077C"",""assignmentId"":""9aea825c-123e-4357-b682-e6de7a44313e"",""projectId"":""03d12dc6-79b3-42a5-88c2-9b18a9e5f1ee""}","https://test12345.live/?num_scrambled_semantic=8&num_scrambled_causal=4&num_scrambled_schematic=4&participantId=C79E8002797D479487A51EDC4B03077C&assignmentId=9aea825c-123e-4357-b682-e6de7a44313e&projectId=03d12dc6-79b3-42a5-88c2-9b18a9e5f1ee","C79E8002797D479487A51EDC4B03077C-2025-05-15-16-08-14","","null","","[]","null","",""
"","","","","","image-button-response","72","580555","0.0-12.0-1.0-0.5","C79E8002797D479487A51EDC4B03077C","C79E8002797D479487A51EDC4B03077C","9aea825c-123e-4357-b682-e6de7a44313e","03d12dc6-79b3-42a5-88c2-9b18a9e5f1ee","{""num_scrambled_semantic"":""8"",""num_scrambled_causal"":""4"",""num_scrambled_schematic"":""4"",""participantId"":""C79E8002797D479487A51EDC4B03077C"",""assignmentId"":""9aea825c-123e-4357-b682-e6de7a44313e"",""projectId"":""03d12dc6-79b3-42a5-88c2-9b18a9e5f1ee""}","https://test12345.live/?num_scrambled_semantic=8&num_scrambled_causal=4&num_scrambled_schematic=4&participantId=C79E8002797D479487A51EDC4B03077C&assignmentId=9aea825c-123e-4357-b682-e6de7a44313e&projectId=03d12dc6-79b3-42a5-88c2-9b18a9e5f1ee","C79E8002797D479487A51EDC4B03077C-2025-05-15-16-08-14","","null","","images/semantic_sequence/exploring_nature_semantic/exploring_nature_semantic_7.png","null","",""
"","","","","","image-button-response","73","581601","0.0-12.0-1.0-1.5","C79E8002797D479487A51EDC4B03077C","C79E8002797D479487A51EDC4B03077C","9aea825c-123e-4357-b682-e6de7a44313e","03d12dc6-79b3-42a5-88c2-9b18a9e5f1ee","{""num_scrambled_semantic"":""8"",""num_scrambled_causal"":""4"",""num_scrambled_schematic"":""4"",""participantId"":""C79E8002797D479487A51EDC4B03077C"",""assignmentId"":""9aea825c-123e-4357-b682-e6de7a44313e"",""projectId"":""03d12dc6-79b3-42a5-88c2-9b18a9e5f1ee""}","https://test12345.live/?num_scrambled_semantic=8&num_scrambled_causal=4&num_scrambled_schematic=4&participantId=C79E8002797D479487A51EDC4B03077C&assignmentId=9aea825c-123e-4357-b682-e6de7a44313e&projectId=03d12dc6-79b3-42a5-88c2-9b18a9e5f1ee","C79E8002797D479487A51EDC4B03077C-2025-05-15-16-08-14","","1045","","images/semantic_sequence/exploring_nature_semantic/exploring_nature_semantic_7.png","0","",""
"","","","","","image-button-response","74","583403","0.0-12.0-1.0-2.5","C79E8002797D479487A51EDC4B03077C","C79E8002797D479487A51EDC4B03077C","9aea825c-123e-4357-b682-e6de7a44313e","03d12dc6-79b3-42a5-88c2-9b18a9e5f1ee","{""num_scrambled_semantic"":""8"",""num_scrambled_causal"":""4"",""num_scrambled_schematic"":""4"",""participantId"":""C79E8002797D479487A51EDC4B03077C"",""assignmentId"":""9aea825c-123e-4357-b682-e6de7a44313e"",""projectId"":""03d12dc6-79b3-42a5-88c2-9b18a9e5f1ee""}","https://test12345.live/?num_scrambled_semantic=8&num_scrambled_causal=4&num_scrambled_schematic=4&participantId=C79E8002797D479487A51EDC4B03077C&assignmentId=9aea825c-123e-4357-b682-e6de7a44313e&projectId=03d12dc6-79b3-42a5-88c2-9b18a9e5f1ee","C79E8002797D479487A51EDC4B03077C-2025-05-15-16-08-14","","null","","[]","null","",""
"","","","","","image-button-response","75","587906","0.0-12.0-1.0-0.6","C79E8002797D479487A51EDC4B03077C","C79E8002797D479487A51EDC4B03077C","9aea825c-123e-4357-b682-e6de7a44313e","03d12dc6-79b3-42a5-88c2-9b18a9e5f1ee","{""num_scrambled_semantic"":""8"",""num_scrambled_causal"":""4"",""num_scrambled_schematic"":""4"",""participantId"":""C79E8002797D479487A51EDC4B03077C"",""assignmentId"":""9aea825c-123e-4357-b682-e6de7a44313e"",""projectId"":""03d12dc6-79b3-42a5-88c2-9b18a9e5f1ee""}","https://test12345.live/?num_scrambled_semantic=8&num_scrambled_causal=4&num_scrambled_schematic=4&participantId=C79E8002797D479487A51EDC4B03077C&assignmentId=9aea825c-123e-4357-b682-e6de7a44313e&projectId=03d12dc6-79b3-42a5-88c2-9b18a9e5f1ee","C79E8002797D479487A51EDC4B03077C-2025-05-15-16-08-14","","null","","images/semantic_sequence/exploring_nature_semantic/exploring_nature_semantic_2.png","null","",""
"","","","","","image-button-response","76","588659","0.0-12.0-1.0-1.6","C79E8002797D479487A51EDC4B03077C","C79E8002797D479487A51EDC4B03077C","9aea825c-123e-4357-b682-e6de7a44313e","03d12dc6-79b3-42a5-88c2-9b18a9e5f1ee","{""num_scrambled_semantic"":""8"",""num_scrambled_causal"":""4"",""num_scrambled_schematic"":""4"",""participantId"":""C79E8002797D479487A51EDC4B03077C"",""assignmentId"":""9aea825c-123e-4357-b682-e6de7a44313e"",""projectId"":""03d12dc6-79b3-42a5-88c2-9b18a9e5f1ee""}","https://test12345.live/?num_scrambled_semantic=8&num_scrambled_causal=4&num_scrambled_schematic=4&participantId=C79E8002797D479487A51EDC4B03077C&assignmentId=9aea825c-123e-4357-b682-e6de7a44313e&projectId=03d12dc6-79b3-42a5-88c2-9b18a9e5f1ee","C79E8002797D479487A51EDC4B03077C-2025-05-15-16-08-14","","751","","images/semantic_sequence/exploring_nature_semantic/exploring_nature_semantic_2.png","0","",""
"","","","","","image-button-response","77","590461","0.0-12.0-1.0-2.6","C79E8002797D479487A51EDC4B03077C","C79E8002797D479487A51EDC4B03077C","9aea825c-123e-4357-b682-e6de7a44313e","03d12dc6-79b3-42a5-88c2-9b18a9e5f1ee","{""num_scrambled_semantic"":""8"",""num_scrambled_causal"":""4"",""num_scrambled_schematic"":""4"",""participantId"":""C79E8002797D479487A51EDC4B03077C"",""assignmentId"":""9aea825c-123e-4357-b682-e6de7a44313e"",""projectId"":""03d12dc6-79b3-42a5-88c2-9b18a9e5f1ee""}","https://test12345.live/?num_scrambled_semantic=8&num_scrambled_causal=4&num_scrambled_schematic=4&participantId=C79E8002797D479487A51EDC4B03077C&assignmentId=9aea825c-123e-4357-b682-e6de7a44313e&projectId=03d12dc6-79b3-42a5-88c2-9b18a9e5f1ee","C79E8002797D479487A51EDC4B03077C-2025-05-15-16-08-14","","null","","[]","null","",""
"","","","","","image-button-response","78","594964","0.0-12.0-1.0-0.7","C79E8002797D479487A51EDC4B03077C","C79E8002797D479487A51EDC4B03077C","9aea825c-123e-4357-b682-e6de7a44313e","03d12dc6-79b3-42a5-88c2-9b18a9e5f1ee","{""num_scrambled_semantic"":""8"",""num_scrambled_causal"":""4"",""num_scrambled_schematic"":""4"",""participantId"":""C79E8002797D479487A51EDC4B03077C"",""assignmentId"":""9aea825c-123e-4357-b682-e6de7a44313e"",""projectId"":""03d12dc6-79b3-42a5-88c2-9b18a9e5f1ee""}","https://test12345.live/?num_scrambled_semantic=8&num_scrambled_causal=4&num_scrambled_schematic=4&participantId=C79E8002797D479487A51EDC4B03077C&assignmentId=9aea825c-123e-4357-b682-e6de7a44313e&projectId=03d12dc6-79b3-42a5-88c2-9b18a9e5f1ee","C79E8002797D479487A51EDC4B03077C-2025-05-15-16-08-14","","null","","images/semantic_sequence/exploring_nature_semantic/exploring_nature_semantic_ten.png","null","",""
"","","","","","image-button-response","79","596260","0.0-12.0-1.0-1.7","C79E8002797D479487A51EDC4B03077C","C79E8002797D479487A51EDC4B03077C","9aea825c-123e-4357-b682-e6de7a44313e","03d12dc6-79b3-42a5-88c2-9b18a9e5f1ee","{""num_scrambled_semantic"":""8"",""num_scrambled_causal"":""4"",""num_scrambled_schematic"":""4"",""participantId"":""C79E8002797D479487A51EDC4B03077C"",""assignmentId"":""9aea825c-123e-4357-b682-e6de7a44313e"",""projectId"":""03d12dc6-79b3-42a5-88c2-9b18a9e5f1ee""}","https://test12345.live/?num_scrambled_semantic=8&num_scrambled_causal=4&num_scrambled_schematic=4&participantId=C79E8002797D479487A51EDC4B03077C&assignmentId=9aea825c-123e-4357-b682-e6de7a44313e&projectId=03d12dc6-79b3-42a5-88c2-9b18a9e5f1ee","C79E8002797D479487A51EDC4B03077C-2025-05-15-16-08-14","","1295","","images/semantic_sequence/exploring_nature_semantic/exploring_nature_semantic_ten.png","0","",""
"","","","","","image-button-response","80","598062","0.0-12.0-1.0-2.7","C79E8002797D479487A51EDC4B03077C","C79E8002797D479487A51EDC4B03077C","9aea825c-123e-4357-b682-e6de7a44313e","03d12dc6-79b3-42a5-88c2-9b18a9e5f1ee","{""num_scrambled_semantic"":""8"",""num_scrambled_causal"":""4"",""num_scrambled_schematic"":""4"",""participantId"":""C79E8002797D479487A51EDC4B03077C"",""assignmentId"":""9aea825c-123e-4357-b682-e6de7a44313e"",""projectId"":""03d12dc6-79b3-42a5-88c2-9b18a9e5f1ee""}","https://test12345.live/?num_scrambled_semantic=8&num_scrambled_causal=4&num_scrambled_schematic=4&participantId=C79E8002797D479487A51EDC4B03077C&assignmentId=9aea825c-123e-4357-b682-e6de7a44313e&projectId=03d12dc6-79b3-42a5-88c2-9b18a9e5f1ee","C79E8002797D479487A51EDC4B03077C-2025-05-15-16-08-14","","null","","[]","null","",""
"","","","","","image-button-response","81","602564","0.0-12.0-1.0-0.8","C79E8002797D479487A51EDC4B03077C","C79E8002797D479487A51EDC4B03077C","9aea825c-123e-4357-b682-e6de7a44313e","03d12dc6-79b3-42a5-88c2-9b18a9e5f1ee","{""num_scrambled_semantic"":""8"",""num_scrambled_causal"":""4"",""num_scrambled_schematic"":""4"",""participantId"":""C79E8002797D479487A51EDC4B03077C"",""assignmentId"":""9aea825c-123e-4357-b682-e6de7a44313e"",""projectId"":""03d12dc6-79b3-42a5-88c2-9b18a9e5f1ee""}","https://test12345.live/?num_scrambled_semantic=8&num_scrambled_causal=4&num_scrambled_schematic=4&participantId=C79E8002797D479487A51EDC4B03077C&assignmentId=9aea825c-123e-4357-b682-e6de7a44313e&projectId=03d12dc6-79b3-42a5-88c2-9b18a9e5f1ee","C79E8002797D479487A51EDC4B03077C-2025-05-15-16-08-14","","null","","images/semantic_sequence/exploring_nature_semantic/exploring_nature_semantic_6.png","null","",""
"","","","","","image-button-response","82","603785","0.0-12.0-1.0-1.8","C79E8002797D479487A51EDC4B03077C","C79E8002797D479487A51EDC4B03077C","9aea825c-123e-4357-b682-e6de7a44313e","03d12dc6-79b3-42a5-88c2-9b18a9e5f1ee","{""num_scrambled_semantic"":""8"",""num_scrambled_causal"":""4"",""num_scrambled_schematic"":""4"",""participantId"":""C79E8002797D479487A51EDC4B03077C"",""assignmentId"":""9aea825c-123e-4357-b682-e6de7a44313e"",""projectId"":""03d12dc6-79b3-42a5-88c2-9b18a9e5f1ee""}","https://test12345.live/?num_scrambled_semantic=8&num_scrambled_causal=4&num_scrambled_schematic=4&participantId=C79E8002797D479487A51EDC4B03077C&assignmentId=9aea825c-123e-4357-b682-e6de7a44313e&projectId=03d12dc6-79b3-42a5-88c2-9b18a9e5f1ee","C79E8002797D479487A51EDC4B03077C-2025-05-15-16-08-14","","1220","","images/semantic_sequence/exploring_nature_semantic/exploring_nature_semantic_6.png","0","",""
"","","","","","image-button-response","83","605587","0.0-12.0-1.0-2.8","C79E8002797D479487A51EDC4B03077C","C79E8002797D479487A51EDC4B03077C","9aea825c-123e-4357-b682-e6de7a44313e","03d12dc6-79b3-42a5-88c2-9b18a9e5f1ee","{""num_scrambled_semantic"":""8"",""num_scrambled_causal"":""4"",""num_scrambled_schematic"":""4"",""participantId"":""C79E8002797D479487A51EDC4B03077C"",""assignmentId"":""9aea825c-123e-4357-b682-e6de7a44313e"",""projectId"":""03d12dc6-79b3-42a5-88c2-9b18a9e5f1ee""}","https://test12345.live/?num_scrambled_semantic=8&num_scrambled_causal=4&num_scrambled_schematic=4&participantId=C79E8002797D479487A51EDC4B03077C&assignmentId=9aea825c-123e-4357-b682-e6de7a44313e&projectId=03d12dc6-79b3-42a5-88c2-9b18a9e5f1ee","C79E8002797D479487A51EDC4B03077C-2025-05-15-16-08-14","","null","","[]","null","",""
"","","","","","image-button-response","84","610089","0.0-12.0-1.0-0.9","C79E8002797D479487A51EDC4B03077C","C79E8002797D479487A51EDC4B03077C","9aea825c-123e-4357-b682-e6de7a44313e","03d12dc6-79b3-42a5-88c2-9b18a9e5f1ee","{""num_scrambled_semantic"":""8"",""num_scrambled_causal"":""4"",""num_scrambled_schematic"":""4"",""participantId"":""C79E8002797D479487A51EDC4B03077C"",""assignmentId"":""9aea825c-123e-4357-b682-e6de7a44313e"",""projectId"":""03d12dc6-79b3-42a5-88c2-9b18a9e5f1ee""}","https://test12345.live/?num_scrambled_semantic=8&num_scrambled_causal=4&num_scrambled_schematic=4&participantId=C79E8002797D479487A51EDC4B03077C&assignmentId=9aea825c-123e-4357-b682-e6de7a44313e&projectId=03d12dc6-79b3-42a5-88c2-9b18a9e5f1ee","C79E8002797D479487A51EDC4B03077C-2025-05-15-16-08-14","","null","","images/semantic_sequence/exploring_nature_semantic/exploring_nature_semantic_9.png","null","",""
"","","","","","image-button-response","85","614092","0.0-12.0-1.0-1.9","C79E8002797D479487A51EDC4B03077C","C79E8002797D479487A51EDC4B03077C","9aea825c-123e-4357-b682-e6de7a44313e","03d12dc6-79b3-42a5-88c2-9b18a9e5f1ee","{""num_scrambled_semantic"":""8"",""num_scrambled_causal"":""4"",""num_scrambled_schematic"":""4"",""participantId"":""C79E8002797D479487A51EDC4B03077C"",""assignmentId"":""9aea825c-123e-4357-b682-e6de7a44313e"",""projectId"":""03d12dc6-79b3-42a5-88c2-9b18a9e5f1ee""}","https://test12345.live/?num_scrambled_semantic=8&num_scrambled_causal=4&num_scrambled_schematic=4&participantId=C79E8002797D479487A51EDC4B03077C&assignmentId=9aea825c-123e-4357-b682-e6de7a44313e&projectId=03d12dc6-79b3-42a5-88c2-9b18a9e5f1ee","C79E8002797D479487A51EDC4B03077C-2025-05-15-16-08-14","","null","","images/semantic_sequence/exploring_nature_semantic/exploring_nature_semantic_9.png","null","",""
"","","","","","image-button-response","86","615893","0.0-12.0-1.0-2.9","C79E8002797D479487A51EDC4B03077C","C79E8002797D479487A51EDC4B03077C","9aea825c-123e-4357-b682-e6de7a44313e","03d12dc6-79b3-42a5-88c2-9b18a9e5f1ee","{""num_scrambled_semantic"":""8"",""num_scrambled_causal"":""4"",""num_scrambled_schematic"":""4"",""participantId"":""C79E8002797D479487A51EDC4B03077C"",""assignmentId"":""9aea825c-123e-4357-b682-e6de7a44313e"",""projectId"":""03d12dc6-79b3-42a5-88c2-9b18a9e5f1ee""}","https://test12345.live/?num_scrambled_semantic=8&num_scrambled_causal=4&num_scrambled_schematic=4&participantId=C79E8002797D479487A51EDC4B03077C&assignmentId=9aea825c-123e-4357-b682-e6de7a44313e&projectId=03d12dc6-79b3-42a5-88c2-9b18a9e5f1ee","C79E8002797D479487A51EDC4B03077C-2025-05-15-16-08-14","","null","","[]","null","",""
"","","","","","html-audio-response","87","772744","0.0-13.0","C79E8002797D479487A51EDC4B03077C","C79E8002797D479487A51EDC4B03077C","9aea825c-123e-4357-b682-e6de7a44313e","03d12dc6-79b3-42a5-88c2-9b18a9e5f1ee","{""num_scrambled_semantic"":""8"",""num_scrambled_causal"":""4"",""num_scrambled_schematic"":""4"",""participantId"":""C79E8002797D479487A51EDC4B03077C"",""assignmentId"":""9aea825c-123e-4357-b682-e6de7a44313e"",""projectId"":""03d12dc6-79b3-42a5-88c2-9b18a9e5f1ee""}","https://test12345.live/?num_scrambled_semantic=8&num_scrambled_causal=4&num_scrambled_schematic=4&participantId=C79E8002797D479487A51EDC4B03077C&assignmentId=9aea825c-123e-4357-b682-e6de7a44313e&projectId=03d12dc6-79b3-42a5-88c2-9b18a9e5f1ee","C79E8002797D479487A51EDC4B03077C-2025-05-15-16-08-14","","27986","","[""<span style=\""color: red; font-size: 24px\""> NOW RECORDING</span><p>Please say out loud all the images you saw, as many as you can remember. The images can be said in any order.</p>""]","","15","exploring_nature_semantic"
"","","","","","image-button-response","88","778756","0.0-14.0-0.0","C79E8002797D479487A51EDC4B03077C","C79E8002797D479487A51EDC4B03077C","9aea825c-123e-4357-b682-e6de7a44313e","03d12dc6-79b3-42a5-88c2-9b18a9e5f1ee","{""num_scrambled_semantic"":""8"",""num_scrambled_causal"":""4"",""num_scrambled_schematic"":""4"",""participantId"":""C79E8002797D479487A51EDC4B03077C"",""assignmentId"":""9aea825c-123e-4357-b682-e6de7a44313e"",""projectId"":""03d12dc6-79b3-42a5-88c2-9b18a9e5f1ee""}","https://test12345.live/?num_scrambled_semantic=8&num_scrambled_causal=4&num_scrambled_schematic=4&participantId=C79E8002797D479487A51EDC4B03077C&assignmentId=9aea825c-123e-4357-b682-e6de7a44313e&projectId=03d12dc6-79b3-42a5-88c2-9b18a9e5f1ee","C79E8002797D479487A51EDC4B03077C-2025-05-15-16-08-14","","null","","images/causal_sequence/the_performance_causal/the_performance_causal_0.png","null","",""
"","","","","","image-button-response","89","783258","0.0-14.0-1.0-0.0","C79E8002797D479487A51EDC4B03077C","C79E8002797D479487A51EDC4B03077C","9aea825c-123e-4357-b682-e6de7a44313e","03d12dc6-79b3-42a5-88c2-9b18a9e5f1ee","{""num_scrambled_semantic"":""8"",""num_scrambled_causal"":""4"",""num_scrambled_schematic"":""4"",""participantId"":""C79E8002797D479487A51EDC4B03077C"",""assignmentId"":""9aea825c-123e-4357-b682-e6de7a44313e"",""projectId"":""03d12dc6-79b3-42a5-88c2-9b18a9e5f1ee""}","https://test12345.live/?num_scrambled_semantic=8&num_scrambled_causal=4&num_scrambled_schematic=4&participantId=C79E8002797D479487A51EDC4B03077C&assignmentId=9aea825c-123e-4357-b682-e6de7a44313e&projectId=03d12dc6-79b3-42a5-88c2-9b18a9e5f1ee","C79E8002797D479487A51EDC4B03077C-2025-05-15-16-08-14","","null","","images/causal_sequence/the_performance_causal/the_performance_causal_ten.png","null","",""
"","","","","","image-button-response","90","785045","0.0-14.0-1.0-1.0","C79E8002797D479487A51EDC4B03077C","C79E8002797D479487A51EDC4B03077C","9aea825c-123e-4357-b682-e6de7a44313e","03d12dc6-79b3-42a5-88c2-9b18a9e5f1ee","{""num_scrambled_semantic"":""8"",""num_scrambled_causal"":""4"",""num_scrambled_schematic"":""4"",""participantId"":""C79E8002797D479487A51EDC4B03077C"",""assignmentId"":""9aea825c-123e-4357-b682-e6de7a44313e"",""projectId"":""03d12dc6-79b3-42a5-88c2-9b18a9e5f1ee""}","https://test12345.live/?num_scrambled_semantic=8&num_scrambled_causal=4&num_scrambled_schematic=4&participantId=C79E8002797D479487A51EDC4B03077C&assignmentId=9aea825c-123e-4357-b682-e6de7a44313e&projectId=03d12dc6-79b3-42a5-88c2-9b18a9e5f1ee","C79E8002797D479487A51EDC4B03077C-2025-05-15-16-08-14","","1786","","images/causal_sequence/the_performance_causal/the_performance_causal_ten.png","0","",""
"","","","","","image-button-response","91","786848","0.0-14.0-1.0-2.0","C79E8002797D479487A51EDC4B03077C","C79E8002797D479487A51EDC4B03077C","9aea825c-123e-4357-b682-e6de7a44313e","03d12dc6-79b3-42a5-88c2-9b18a9e5f1ee","{""num_scrambled_semantic"":""8"",""num_scrambled_causal"":""4"",""num_scrambled_schematic"":""4"",""participantId"":""C79E8002797D479487A51EDC4B03077C"",""assignmentId"":""9aea825c-123e-4357-b682-e6de7a44313e"",""projectId"":""03d12dc6-79b3-42a5-88c2-9b18a9e5f1ee""}","https://test12345.live/?num_scrambled_semantic=8&num_scrambled_causal=4&num_scrambled_schematic=4&participantId=C79E8002797D479487A51EDC4B03077C&assignmentId=9aea825c-123e-4357-b682-e6de7a44313e&projectId=03d12dc6-79b3-42a5-88c2-9b18a9e5f1ee","C79E8002797D479487A51EDC4B03077C-2025-05-15-16-08-14","","null","","[]","null","",""
"","","","","","image-button-response","92","791351","0.0-14.0-1.0-0.1","C79E8002797D479487A51EDC4B03077C","C79E8002797D479487A51EDC4B03077C","9aea825c-123e-4357-b682-e6de7a44313e","03d12dc6-79b3-42a5-88c2-9b18a9e5f1ee","{""num_scrambled_semantic"":""8"",""num_scrambled_causal"":""4"",""num_scrambled_schematic"":""4"",""participantId"":""C79E8002797D479487A51EDC4B03077C"",""assignmentId"":""9aea825c-123e-4357-b682-e6de7a44313e"",""projectId"":""03d12dc6-79b3-42a5-88c2-9b18a9e5f1ee""}","https://test12345.live/?num_scrambled_semantic=8&num_scrambled_causal=4&num_scrambled_schematic=4&participantId=C79E8002797D479487A51EDC4B03077C&assignmentId=9aea825c-123e-4357-b682-e6de7a44313e&projectId=03d12dc6-79b3-42a5-88c2-9b18a9e5f1ee","C79E8002797D479487A51EDC4B03077C-2025-05-15-16-08-14","","null","","images/causal_sequence/the_performance_causal/the_performance_causal_3.png","null","",""
"","","","","","image-button-response","93","794201","0.0-14.0-1.0-1.1","C79E8002797D479487A51EDC4B03077C","C79E8002797D479487A51EDC4B03077C","9aea825c-123e-4357-b682-e6de7a44313e","03d12dc6-79b3-42a5-88c2-9b18a9e5f1ee","{""num_scrambled_semantic"":""8"",""num_scrambled_causal"":""4"",""num_scrambled_schematic"":""4"",""participantId"":""C79E8002797D479487A51EDC4B03077C"",""assignmentId"":""9aea825c-123e-4357-b682-e6de7a44313e"",""projectId"":""03d12dc6-79b3-42a5-88c2-9b18a9e5f1ee""}","https://test12345.live/?num_scrambled_semantic=8&num_scrambled_causal=4&num_scrambled_schematic=4&participantId=C79E8002797D479487A51EDC4B03077C&assignmentId=9aea825c-123e-4357-b682-e6de7a44313e&projectId=03d12dc6-79b3-42a5-88c2-9b18a9e5f1ee","C79E8002797D479487A51EDC4B03077C-2025-05-15-16-08-14","","2849","","images/causal_sequence/the_performance_causal/the_performance_causal_3.png","0","",""
"","","","","","image-button-response","94","796003","0.0-14.0-1.0-2.1","C79E8002797D479487A51EDC4B03077C","C79E8002797D479487A51EDC4B03077C","9aea825c-123e-4357-b682-e6de7a44313e","03d12dc6-79b3-42a5-88c2-9b18a9e5f1ee","{""num_scrambled_semantic"":""8"",""num_scrambled_causal"":""4"",""num_scrambled_schematic"":""4"",""participantId"":""C79E8002797D479487A51EDC4B03077C"",""assignmentId"":""9aea825c-123e-4357-b682-e6de7a44313e"",""projectId"":""03d12dc6-79b3-42a5-88c2-9b18a9e5f1ee""}","https://test12345.live/?num_scrambled_semantic=8&num_scrambled_causal=4&num_scrambled_schematic=4&participantId=C79E8002797D479487A51EDC4B03077C&assignmentId=9aea825c-123e-4357-b682-e6de7a44313e&projectId=03d12dc6-79b3-42a5-88c2-9b18a9e5f1ee","C79E8002797D479487A51EDC4B03077C-2025-05-15-16-08-14","","null","","[]","null","",""
"","","","","","image-button-response","95","800505","0.0-14.0-1.0-0.2","C79E8002797D479487A51EDC4B03077C","C79E8002797D479487A51EDC4B03077C","9aea825c-123e-4357-b682-e6de7a44313e","03d12dc6-79b3-42a5-88c2-9b18a9e5f1ee","{""num_scrambled_semantic"":""8"",""num_scrambled_causal"":""4"",""num_scrambled_schematic"":""4"",""participantId"":""C79E8002797D479487A51EDC4B03077C"",""assignmentId"":""9aea825c-123e-4357-b682-e6de7a44313e"",""projectId"":""03d12dc6-79b3-42a5-88c2-9b18a9e5f1ee""}","https://test12345.live/?num_scrambled_semantic=8&num_scrambled_causal=4&num_scrambled_schematic=4&participantId=C79E8002797D479487A51EDC4B03077C&assignmentId=9aea825c-123e-4357-b682-e6de7a44313e&projectId=03d12dc6-79b3-42a5-88c2-9b18a9e5f1ee","C79E8002797D479487A51EDC4B03077C-2025-05-15-16-08-14","","null","","images/causal_sequence/the_performance_causal/the_performance_causal_1.png","null","",""
"","","","","","image-button-response","96","804507","0.0-14.0-1.0-1.2","C79E8002797D479487A51EDC4B03077C","C79E8002797D479487A51EDC4B03077C","9aea825c-123e-4357-b682-e6de7a44313e","03d12dc6-79b3-42a5-88c2-9b18a9e5f1ee","{""num_scrambled_semantic"":""8"",""num_scrambled_causal"":""4"",""num_scrambled_schematic"":""4"",""participantId"":""C79E8002797D479487A51EDC4B03077C"",""assignmentId"":""9aea825c-123e-4357-b682-e6de7a44313e"",""projectId"":""03d12dc6-79b3-42a5-88c2-9b18a9e5f1ee""}","https://test12345.live/?num_scrambled_semantic=8&num_scrambled_causal=4&num_scrambled_schematic=4&participantId=C79E8002797D479487A51EDC4B03077C&assignmentId=9aea825c-123e-4357-b682-e6de7a44313e&projectId=03d12dc6-79b3-42a5-88c2-9b18a9e5f1ee","C79E8002797D479487A51EDC4B03077C-2025-05-15-16-08-14","","null","","images/causal_sequence/the_performance_causal/the_performance_causal_1.png","null","",""
"","","","","","image-button-response","97","806310","0.0-14.0-1.0-2.2","C79E8002797D479487A51EDC4B03077C","C79E8002797D479487A51EDC4B03077C","9aea825c-123e-4357-b682-e6de7a44313e","03d12dc6-79b3-42a5-88c2-9b18a9e5f1ee","{""num_scrambled_semantic"":""8"",""num_scrambled_causal"":""4"",""num_scrambled_schematic"":""4"",""participantId"":""C79E8002797D479487A51EDC4B03077C"",""assignmentId"":""9aea825c-123e-4357-b682-e6de7a44313e"",""projectId"":""03d12dc6-79b3-42a5-88c2-9b18a9e5f1ee""}","https://test12345.live/?num_scrambled_semantic=8&num_scrambled_causal=4&num_scrambled_schematic=4&participantId=C79E8002797D479487A51EDC4B03077C&assignmentId=9aea825c-123e-4357-b682-e6de7a44313e&projectId=03d12dc6-79b3-42a5-88c2-9b18a9e5f1ee","C79E8002797D479487A51EDC4B03077C-2025-05-15-16-08-14","","null","","[]","null","",""
"","","","","","image-button-response","98","810812","0.0-14.0-1.0-0.3","C79E8002797D479487A51EDC4B03077C","C79E8002797D479487A51EDC4B03077C","9aea825c-123e-4357-b682-e6de7a44313e","03d12dc6-79b3-42a5-88c2-9b18a9e5f1ee","{""num_scrambled_semantic"":""8"",""num_scrambled_causal"":""4"",""num_scrambled_schematic"":""4"",""participantId"":""C79E8002797D479487A51EDC4B03077C"",""assignmentId"":""9aea825c-123e-4357-b682-e6de7a44313e"",""projectId"":""03d12dc6-79b3-42a5-88c2-9b18a9e5f1ee""}","https://test12345.live/?num_scrambled_semantic=8&num_scrambled_causal=4&num_scrambled_schematic=4&participantId=C79E8002797D479487A51EDC4B03077C&assignmentId=9aea825c-123e-4357-b682-e6de7a44313e&projectId=03d12dc6-79b3-42a5-88c2-9b18a9e5f1ee","C79E8002797D479487A51EDC4B03077C-2025-05-15-16-08-14","","null","","images/causal_sequence/the_performance_causal/the_performance_causal_8.png","null","",""
"","","","","","image-button-response","99","814815","0.0-14.0-1.0-1.3","C79E8002797D479487A51EDC4B03077C","C79E8002797D479487A51EDC4B03077C","9aea825c-123e-4357-b682-e6de7a44313e","03d12dc6-79b3-42a5-88c2-9b18a9e5f1ee","{""num_scrambled_semantic"":""8"",""num_scrambled_causal"":""4"",""num_scrambled_schematic"":""4"",""participantId"":""C79E8002797D479487A51EDC4B03077C"",""assignmentId"":""9aea825c-123e-4357-b682-e6de7a44313e"",""projectId"":""03d12dc6-79b3-42a5-88c2-9b18a9e5f1ee""}","https://test12345.live/?num_scrambled_semantic=8&num_scrambled_causal=4&num_scrambled_schematic=4&participantId=C79E8002797D479487A51EDC4B03077C&assignmentId=9aea825c-123e-4357-b682-e6de7a44313e&projectId=03d12dc6-79b3-42a5-88c2-9b18a9e5f1ee","C79E8002797D479487A51EDC4B03077C-2025-05-15-16-08-14","","null","","images/causal_sequence/the_performance_causal/the_performance_causal_8.png","null","",""
"","","","","","image-button-response","100","816617","0.0-14.0-1.0-2.3","C79E8002797D479487A51EDC4B03077C","C79E8002797D479487A51EDC4B03077C","9aea825c-123e-4357-b682-e6de7a44313e","03d12dc6-79b3-42a5-88c2-9b18a9e5f1ee","{""num_scrambled_semantic"":""8"",""num_scrambled_causal"":""4"",""num_scrambled_schematic"":""4"",""participantId"":""C79E8002797D479487A51EDC4B03077C"",""assignmentId"":""9aea825c-123e-4357-b682-e6de7a44313e"",""projectId"":""03d12dc6-79b3-42a5-88c2-9b18a9e5f1ee""}","https://test12345.live/?num_scrambled_semantic=8&num_scrambled_causal=4&num_scrambled_schematic=4&participantId=C79E8002797D479487A51EDC4B03077C&assignmentId=9aea825c-123e-4357-b682-e6de7a44313e&projectId=03d12dc6-79b3-42a5-88c2-9b18a9e5f1ee","C79E8002797D479487A51EDC4B03077C-2025-05-15-16-08-14","","null","","[]","null","",""
"","","","","","image-button-response","101","821119","0.0-14.0-1.0-0.4","C79E8002797D479487A51EDC4B03077C","C79E8002797D479487A51EDC4B03077C","9aea825c-123e-4357-b682-e6de7a44313e","03d12dc6-79b3-42a5-88c2-9b18a9e5f1ee","{""num_scrambled_semantic"":""8"",""num_scrambled_causal"":""4"",""num_scrambled_schematic"":""4"",""participantId"":""C79E8002797D479487A51EDC4B03077C"",""assignmentId"":""9aea825c-123e-4357-b682-e6de7a44313e"",""projectId"":""03d12dc6-79b3-42a5-88c2-9b18a9e5f1ee""}","https://test12345.live/?num_scrambled_semantic=8&num_scrambled_causal=4&num_scrambled_schematic=4&participantId=C79E8002797D479487A51EDC4B03077C&assignmentId=9aea825c-123e-4357-b682-e6de7a44313e&projectId=03d12dc6-79b3-42a5-88c2-9b18a9e5f1ee","C79E8002797D479487A51EDC4B03077C-2025-05-15-16-08-14","","null","","images/causal_sequence/the_performance_causal/the_performance_causal_4.png","null","",""
"","","","","","image-button-response","102","823366","0.0-14.0-1.0-1.4","C79E8002797D479487A51EDC4B03077C","C79E8002797D479487A51EDC4B03077C","9aea825c-123e-4357-b682-e6de7a44313e","03d12dc6-79b3-42a5-88c2-9b18a9e5f1ee","{""num_scrambled_semantic"":""8"",""num_scrambled_causal"":""4"",""num_scrambled_schematic"":""4"",""participantId"":""C79E8002797D479487A51EDC4B03077C"",""assignmentId"":""9aea825c-123e-4357-b682-e6de7a44313e"",""projectId"":""03d12dc6-79b3-42a5-88c2-9b18a9e5f1ee""}","https://test12345.live/?num_scrambled_semantic=8&num_scrambled_causal=4&num_scrambled_schematic=4&participantId=C79E8002797D479487A51EDC4B03077C&assignmentId=9aea825c-123e-4357-b682-e6de7a44313e&projectId=03d12dc6-79b3-42a5-88c2-9b18a9e5f1ee","C79E8002797D479487A51EDC4B03077C-2025-05-15-16-08-14","","2244","","images/causal_sequence/the_performance_causal/the_performance_causal_4.png","0","",""
"","","","","","image-button-response","103","825168","0.0-14.0-1.0-2.4","C79E8002797D479487A51EDC4B03077C","C79E8002797D479487A51EDC4B03077C","9aea825c-123e-4357-b682-e6de7a44313e","03d12dc6-79b3-42a5-88c2-9b18a9e5f1ee","{""num_scrambled_semantic"":""8"",""num_scrambled_causal"":""4"",""num_scrambled_schematic"":""4"",""participantId"":""C79E8002797D479487A51EDC4B03077C"",""assignmentId"":""9aea825c-123e-4357-b682-e6de7a44313e"",""projectId"":""03d12dc6-79b3-42a5-88c2-9b18a9e5f1ee""}","https://test12345.live/?num_scrambled_semantic=8&num_scrambled_causal=4&num_scrambled_schematic=4&participantId=C79E8002797D479487A51EDC4B03077C&assignmentId=9aea825c-123e-4357-b682-e6de7a44313e&projectId=03d12dc6-79b3-42a5-88c2-9b18a9e5f1ee","C79E8002797D479487A51EDC4B03077C-2025-05-15-16-08-14","","null","","[]","null","",""
"","","","","","image-button-response","104","829671","0.0-14.0-1.0-0.5","C79E8002797D479487A51EDC4B03077C","C79E8002797D479487A51EDC4B03077C","9aea825c-123e-4357-b682-e6de7a44313e","03d12dc6-79b3-42a5-88c2-9b18a9e5f1ee","{""num_scrambled_semantic"":""8"",""num_scrambled_causal"":""4"",""num_scrambled_schematic"":""4"",""participantId"":""C79E8002797D479487A51EDC4B03077C"",""assignmentId"":""9aea825c-123e-4357-b682-e6de7a44313e"",""projectId"":""03d12dc6-79b3-42a5-88c2-9b18a9e5f1ee""}","https://test12345.live/?num_scrambled_semantic=8&num_scrambled_causal=4&num_scrambled_schematic=4&participantId=C79E8002797D479487A51EDC4B03077C&assignmentId=9aea825c-123e-4357-b682-e6de7a44313e&projectId=03d12dc6-79b3-42a5-88c2-9b18a9e5f1ee","C79E8002797D479487A51EDC4B03077C-2025-05-15-16-08-14","","null","","images/causal_sequence/the_performance_causal/the_performance_causal_6.png","null","",""
"","","","","","image-button-response","105","831393","0.0-14.0-1.0-1.5","C79E8002797D479487A51EDC4B03077C","C79E8002797D479487A51EDC4B03077C","9aea825c-123e-4357-b682-e6de7a44313e","03d12dc6-79b3-42a5-88c2-9b18a9e5f1ee","{""num_scrambled_semantic"":""8"",""num_scrambled_causal"":""4"",""num_scrambled_schematic"":""4"",""participantId"":""C79E8002797D479487A51EDC4B03077C"",""assignmentId"":""9aea825c-123e-4357-b682-e6de7a44313e"",""projectId"":""03d12dc6-79b3-42a5-88c2-9b18a9e5f1ee""}","https://test12345.live/?num_scrambled_semantic=8&num_scrambled_causal=4&num_scrambled_schematic=4&participantId=C79E8002797D479487A51EDC4B03077C&assignmentId=9aea825c-123e-4357-b682-e6de7a44313e&projectId=03d12dc6-79b3-42a5-88c2-9b18a9e5f1ee","C79E8002797D479487A51EDC4B03077C-2025-05-15-16-08-14","","1721","","images/causal_sequence/the_performance_causal/the_performance_causal_6.png","0","",""
"","","","","","image-button-response","106","833196","0.0-14.0-1.0-2.5","C79E8002797D479487A51EDC4B03077C","C79E8002797D479487A51EDC4B03077C","9aea825c-123e-4357-b682-e6de7a44313e","03d12dc6-79b3-42a5-88c2-9b18a9e5f1ee","{""num_scrambled_semantic"":""8"",""num_scrambled_causal"":""4"",""num_scrambled_schematic"":""4"",""participantId"":""C79E8002797D479487A51EDC4B03077C"",""assignmentId"":""9aea825c-123e-4357-b682-e6de7a44313e"",""projectId"":""03d12dc6-79b3-42a5-88c2-9b18a9e5f1ee""}","https://test12345.live/?num_scrambled_semantic=8&num_scrambled_causal=4&num_scrambled_schematic=4&participantId=C79E8002797D479487A51EDC4B03077C&assignmentId=9aea825c-123e-4357-b682-e6de7a44313e&projectId=03d12dc6-79b3-42a5-88c2-9b18a9e5f1ee","C79E8002797D479487A51EDC4B03077C-2025-05-15-16-08-14","","null","","[]","null","",""
"","","","","","image-button-response","107","837698","0.0-14.0-1.0-0.6","C79E8002797D479487A51EDC4B03077C","C79E8002797D479487A51EDC4B03077C","9aea825c-123e-4357-b682-e6de7a44313e","03d12dc6-79b3-42a5-88c2-9b18a9e5f1ee","{""num_scrambled_semantic"":""8"",""num_scrambled_causal"":""4"",""num_scrambled_schematic"":""4"",""participantId"":""C79E8002797D479487A51EDC4B03077C"",""assignmentId"":""9aea825c-123e-4357-b682-e6de7a44313e"",""projectId"":""03d12dc6-79b3-42a5-88c2-9b18a9e5f1ee""}","https://test12345.live/?num_scrambled_semantic=8&num_scrambled_causal=4&num_scrambled_schematic=4&participantId=C79E8002797D479487A51EDC4B03077C&assignmentId=9aea825c-123e-4357-b682-e6de7a44313e&projectId=03d12dc6-79b3-42a5-88c2-9b18a9e5f1ee","C79E8002797D479487A51EDC4B03077C-2025-05-15-16-08-14","","null","","images/causal_sequence/the_performance_causal/the_performance_causal_2.png","null","",""
"","","","","","image-button-response","108","839391","0.0-14.0-1.0-1.6","C79E8002797D479487A51EDC4B03077C","C79E8002797D479487A51EDC4B03077C","9aea825c-123e-4357-b682-e6de7a44313e","03d12dc6-79b3-42a5-88c2-9b18a9e5f1ee","{""num_scrambled_semantic"":""8"",""num_scrambled_causal"":""4"",""num_scrambled_schematic"":""4"",""participantId"":""C79E8002797D479487A51EDC4B03077C"",""assignmentId"":""9aea825c-123e-4357-b682-e6de7a44313e"",""projectId"":""03d12dc6-79b3-42a5-88c2-9b18a9e5f1ee""}","https://test12345.live/?num_scrambled_semantic=8&num_scrambled_causal=4&num_scrambled_schematic=4&participantId=C79E8002797D479487A51EDC4B03077C&assignmentId=9aea825c-123e-4357-b682-e6de7a44313e&projectId=03d12dc6-79b3-42a5-88c2-9b18a9e5f1ee","C79E8002797D479487A51EDC4B03077C-2025-05-15-16-08-14","","1691","","images/causal_sequence/the_performance_causal/the_performance_causal_2.png","0","",""
"","","","","","image-button-response","109","841193","0.0-14.0-1.0-2.6","C79E8002797D479487A51EDC4B03077C","C79E8002797D479487A51EDC4B03077C","9aea825c-123e-4357-b682-e6de7a44313e","03d12dc6-79b3-42a5-88c2-9b18a9e5f1ee","{""num_scrambled_semantic"":""8"",""num_scrambled_causal"":""4"",""num_scrambled_schematic"":""4"",""participantId"":""C79E8002797D479487A51EDC4B03077C"",""assignmentId"":""9aea825c-123e-4357-b682-e6de7a44313e"",""projectId"":""03d12dc6-79b3-42a5-88c2-9b18a9e5f1ee""}","https://test12345.live/?num_scrambled_semantic=8&num_scrambled_causal=4&num_scrambled_schematic=4&participantId=C79E8002797D479487A51EDC4B03077C&assignmentId=9aea825c-123e-4357-b682-e6de7a44313e&projectId=03d12dc6-79b3-42a5-88c2-9b18a9e5f1ee","C79E8002797D479487A51EDC4B03077C-2025-05-15-16-08-14","","null","","[]","null","",""
"","","","","","image-button-response","110","845695","0.0-14.0-1.0-0.7","C79E8002797D479487A51EDC4B03077C","C79E8002797D479487A51EDC4B03077C","9aea825c-123e-4357-b682-e6de7a44313e","03d12dc6-79b3-42a5-88c2-9b18a9e5f1ee","{""num_scrambled_semantic"":""8"",""num_scrambled_causal"":""4"",""num_scrambled_schematic"":""4"",""participantId"":""C79E8002797D479487A51EDC4B03077C"",""assignmentId"":""9aea825c-123e-4357-b682-e6de7a44313e"",""projectId"":""03d12dc6-79b3-42a5-88c2-9b18a9e5f1ee""}","https://test12345.live/?num_scrambled_semantic=8&num_scrambled_causal=4&num_scrambled_schematic=4&participantId=C79E8002797D479487A51EDC4B03077C&assignmentId=9aea825c-123e-4357-b682-e6de7a44313e&projectId=03d12dc6-79b3-42a5-88c2-9b18a9e5f1ee","C79E8002797D479487A51EDC4B03077C-2025-05-15-16-08-14","","null","","images/causal_sequence/the_performance_causal/the_performance_causal_5.png","null","",""
"","","","","","image-button-response","111","848748","0.0-14.0-1.0-1.7","C79E8002797D479487A51EDC4B03077C","C79E8002797D479487A51EDC4B03077C","9aea825c-123e-4357-b682-e6de7a44313e","03d12dc6-79b3-42a5-88c2-9b18a9e5f1ee","{""num_scrambled_semantic"":""8"",""num_scrambled_causal"":""4"",""num_scrambled_schematic"":""4"",""participantId"":""C79E8002797D479487A51EDC4B03077C"",""assignmentId"":""9aea825c-123e-4357-b682-e6de7a44313e"",""projectId"":""03d12dc6-79b3-42a5-88c2-9b18a9e5f1ee""}","https://test12345.live/?num_scrambled_semantic=8&num_scrambled_causal=4&num_scrambled_schematic=4&participantId=C79E8002797D479487A51EDC4B03077C&assignmentId=9aea825c-123e-4357-b682-e6de7a44313e&projectId=03d12dc6-79b3-42a5-88c2-9b18a9e5f1ee","C79E8002797D479487A51EDC4B03077C-2025-05-15-16-08-14","","3051","","images/causal_sequence/the_performance_causal/the_performance_causal_5.png","0","",""
"","","","","","image-button-response","112","850550","0.0-14.0-1.0-2.7","C79E8002797D479487A51EDC4B03077C","C79E8002797D479487A51EDC4B03077C","9aea825c-123e-4357-b682-e6de7a44313e","03d12dc6-79b3-42a5-88c2-9b18a9e5f1ee","{""num_scrambled_semantic"":""8"",""num_scrambled_causal"":""4"",""num_scrambled_schematic"":""4"",""participantId"":""C79E8002797D479487A51EDC4B03077C"",""assignmentId"":""9aea825c-123e-4357-b682-e6de7a44313e"",""projectId"":""03d12dc6-79b3-42a5-88c2-9b18a9e5f1ee""}","https://test12345.live/?num_scrambled_semantic=8&num_scrambled_causal=4&num_scrambled_schematic=4&participantId=C79E8002797D479487A51EDC4B03077C&assignmentId=9aea825c-123e-4357-b682-e6de7a44313e&projectId=03d12dc6-79b3-42a5-88c2-9b18a9e5f1ee","C79E8002797D479487A51EDC4B03077C-2025-05-15-16-08-14","","null","","[]","null","",""
"","","","","","image-button-response","113","855053","0.0-14.0-1.0-0.8","C79E8002797D479487A51EDC4B03077C","C79E8002797D479487A51EDC4B03077C","9aea825c-123e-4357-b682-e6de7a44313e","03d12dc6-79b3-42a5-88c2-9b18a9e5f1ee","{""num_scrambled_semantic"":""8"",""num_scrambled_causal"":""4"",""num_scrambled_schematic"":""4"",""participantId"":""C79E8002797D479487A51EDC4B03077C"",""assignmentId"":""9aea825c-123e-4357-b682-e6de7a44313e"",""projectId"":""03d12dc6-79b3-42a5-88c2-9b18a9e5f1ee""}","https://test12345.live/?num_scrambled_semantic=8&num_scrambled_causal=4&num_scrambled_schematic=4&participantId=C79E8002797D479487A51EDC4B03077C&assignmentId=9aea825c-123e-4357-b682-e6de7a44313e&projectId=03d12dc6-79b3-42a5-88c2-9b18a9e5f1ee","C79E8002797D479487A51EDC4B03077C-2025-05-15-16-08-14","","null","","images/causal_sequence/the_performance_causal/the_performance_causal_9.png","null","",""
