"success","timeout","failed_images","failed_audio","failed_video","trial_type","trial_index","time_elapsed","internal_node_id","subject","subject_id","study_id","session_id","urlvar","current_url","audio_id","view_history","rt","device_id","stimulus","response","estimated_stimulus_onset","seq_name"
"true","false","[]","[]","[]","preload","0","5924","0.0-0.0","C99D00BD6E5D4A8999B78DE7BC8BA4F8","C99D00BD6E5D4A8999B78DE7BC8BA4F8","561df386-0e58-4104-a578-dd9f311ca3c8","ba640c14-69c5-453e-80b2-29051492c0e0","{""num_scrambled_semantic"":""8"",""num_scrambled_causal"":""4"",""num_scrambled_schematic"":""4"",""participantId"":""C99D00BD6E5D4A8999B78DE7BC8BA4F8"",""assignmentId"":""561df386-0e58-4104-a578-dd9f311ca3c8"",""projectId"":""ba640c14-69c5-453e-80b2-29051492c0e0""}","https://test12345.live/?num_scrambled_semantic=8&num_scrambled_causal=4&num_scrambled_schematic=4&participantId=C99D00BD6E5D4A8999B78DE7BC8BA4F8&assignmentId=561df386-0e58-4104-a578-dd9f311ca3c8&projectId=ba640c14-69c5-453e-80b2-29051492c0e0","C99D00BD6E5D4A8999B78DE7BC8BA4F8-2025-05-14-21-38-12","","","","","","",""
"","","","","","instructions","1","1042056","0.0-1.0","C99D00BD6E5D4A8999B78DE7BC8BA4F8","C99D00BD6E5D4A8999B78DE7BC8BA4F8","561df386-0e58-4104-a578-dd9f311ca3c8","ba640c14-69c5-453e-80b2-29051492c0e0","{""num_scrambled_semantic"":""8"",""num_scrambled_causal"":""4"",""num_scrambled_schematic"":""4"",""participantId"":""C99D00BD6E5D4A8999B78DE7BC8BA4F8"",""assignmentId"":""561df386-0e58-4104-a578-dd9f311ca3c8"",""projectId"":""ba640c14-69c5-453e-80b2-29051492c0e0""}","https://test12345.live/?num_scrambled_semantic=8&num_scrambled_causal=4&num_scrambled_schematic=4&participantId=C99D00BD6E5D4A8999B78DE7BC8BA4F8&assignmentId=561df386-0e58-4104-a578-dd9f311ca3c8&projectId=ba640c14-69c5-453e-80b2-29051492c0e0","C99D00BD6E5D4A8999B78DE7BC8BA4F8-2025-05-14-21-38-12","[{""page_index"":0,""viewing_time"":1036131}]","1036131","","","","",""
"","","","","","instructions","2","1056144","0.0-2.0","C99D00BD6E5D4A8999B78DE7BC8BA4F8","C99D00BD6E5D4A8999B78DE7BC8BA4F8","561df386-0e58-4104-a578-dd9f311ca3c8","ba640c14-69c5-453e-80b2-29051492c0e0","{""num_scrambled_semantic"":""8"",""num_scrambled_causal"":""4"",""num_scrambled_schematic"":""4"",""participantId"":""C99D00BD6E5D4A8999B78DE7BC8BA4F8"",""assignmentId"":""561df386-0e58-4104-a578-dd9f311ca3c8"",""projectId"":""ba640c14-69c5-453e-80b2-29051492c0e0""}","https://test12345.live/?num_scrambled_semantic=8&num_scrambled_causal=4&num_scrambled_schematic=4&participantId=C99D00BD6E5D4A8999B78DE7BC8BA4F8&assignmentId=561df386-0e58-4104-a578-dd9f311ca3c8&projectId=ba640c14-69c5-453e-80b2-29051492c0e0","C99D00BD6E5D4A8999B78DE7BC8BA4F8-2025-05-14-21-38-12","[{""page_index"":0,""viewing_time"":14086}]","14086","","","","",""
"true","","","","","fullscreen","3","1062687","0.0-3.0","C99D00BD6E5D4A8999B78DE7BC8BA4F8","C99D00BD6E5D4A8999B78DE7BC8BA4F8","561df386-0e58-4104-a578-dd9f311ca3c8","ba640c14-69c5-453e-80b2-29051492c0e0","{""num_scrambled_semantic"":""8"",""num_scrambled_causal"":""4"",""num_scrambled_schematic"":""4"",""participantId"":""C99D00BD6E5D4A8999B78DE7BC8BA4F8"",""assignmentId"":""561df386-0e58-4104-a578-dd9f311ca3c8"",""projectId"":""ba640c14-69c5-453e-80b2-29051492c0e0""}","https://test12345.live/?num_scrambled_semantic=8&num_scrambled_causal=4&num_scrambled_schematic=4&participantId=C99D00BD6E5D4A8999B78DE7BC8BA4F8&assignmentId=561df386-0e58-4104-a578-dd9f311ca3c8&projectId=ba640c14-69c5-453e-80b2-29051492c0e0","C99D00BD6E5D4A8999B78DE7BC8BA4F8-2025-05-14-21-38-12","","5539","","","","",""
"","","","","","initialize-microphone","4","1072173","0.0-4.0-0.0","C99D00BD6E5D4A8999B78DE7BC8BA4F8","C99D00BD6E5D4A8999B78DE7BC8BA4F8","561df386-0e58-4104-a578-dd9f311ca3c8","ba640c14-69c5-453e-80b2-29051492c0e0","{""num_scrambled_semantic"":""8"",""num_scrambled_causal"":""4"",""num_scrambled_schematic"":""4"",""participantId"":""C99D00BD6E5D4A8999B78DE7BC8BA4F8"",""assignmentId"":""561df386-0e58-4104-a578-dd9f311ca3c8"",""projectId"":""ba640c14-69c5-453e-80b2-29051492c0e0""}","https://test12345.live/?num_scrambled_semantic=8&num_scrambled_causal=4&num_scrambled_schematic=4&participantId=C99D00BD6E5D4A8999B78DE7BC8BA4F8&assignmentId=561df386-0e58-4104-a578-dd9f311ca3c8&projectId=ba640c14-69c5-453e-80b2-29051492c0e0","C99D00BD6E5D4A8999B78DE7BC8BA4F8-2025-05-14-21-38-12","","","gzIYns2swb/xGMVj/ae34w3nONLrmtZNWhlizCwo7Y0=","","","",""
"","","","","","html-audio-response","5","1253238","0.0-4.0-1.0","C99D00BD6E5D4A8999B78DE7BC8BA4F8","C99D00BD6E5D4A8999B78DE7BC8BA4F8","561df386-0e58-4104-a578-dd9f311ca3c8","ba640c14-69c5-453e-80b2-29051492c0e0","{""num_scrambled_semantic"":""8"",""num_scrambled_causal"":""4"",""num_scrambled_schematic"":""4"",""participantId"":""C99D00BD6E5D4A8999B78DE7BC8BA4F8"",""assignmentId"":""561df386-0e58-4104-a578-dd9f311ca3c8"",""projectId"":""ba640c14-69c5-453e-80b2-29051492c0e0""}","https://test12345.live/?num_scrambled_semantic=8&num_scrambled_causal=4&num_scrambled_schematic=4&participantId=C99D00BD6E5D4A8999B78DE7BC8BA4F8&assignmentId=561df386-0e58-4104-a578-dd9f311ca3c8&projectId=ba640c14-69c5-453e-80b2-29051492c0e0","C99D00BD6E5D4A8999B78DE7BC8BA4F8-2025-05-14-21-38-12","","7070","","<span style=""color: red; font-size: 24px""> NOW RECORDING</span>
        <p>Please test Microphone</p>","","1",""
"","","","","","html-button-response","6","1311218","0.0-4.0-2.0","C99D00BD6E5D4A8999B78DE7BC8BA4F8","C99D00BD6E5D4A8999B78DE7BC8BA4F8","561df386-0e58-4104-a578-dd9f311ca3c8","ba640c14-69c5-453e-80b2-29051492c0e0","{""num_scrambled_semantic"":""8"",""num_scrambled_causal"":""4"",""num_scrambled_schematic"":""4"",""participantId"":""C99D00BD6E5D4A8999B78DE7BC8BA4F8"",""assignmentId"":""561df386-0e58-4104-a578-dd9f311ca3c8"",""projectId"":""ba640c14-69c5-453e-80b2-29051492c0e0""}","https://test12345.live/?num_scrambled_semantic=8&num_scrambled_causal=4&num_scrambled_schematic=4&participantId=C99D00BD6E5D4A8999B78DE7BC8BA4F8&assignmentId=561df386-0e58-4104-a578-dd9f311ca3c8&projectId=ba640c14-69c5-453e-80b2-29051492c0e0","C99D00BD6E5D4A8999B78DE7BC8BA4F8-2025-05-14-21-38-12","","57978","","<p style=""font-size:48px; color:red;"">Is Microphone OK?</p>","1","",""
"","","","","","instructions","7","1339751","0.0-5.0","C99D00BD6E5D4A8999B78DE7BC8BA4F8","C99D00BD6E5D4A8999B78DE7BC8BA4F8","561df386-0e58-4104-a578-dd9f311ca3c8","ba640c14-69c5-453e-80b2-29051492c0e0","{""num_scrambled_semantic"":""8"",""num_scrambled_causal"":""4"",""num_scrambled_schematic"":""4"",""participantId"":""C99D00BD6E5D4A8999B78DE7BC8BA4F8"",""assignmentId"":""561df386-0e58-4104-a578-dd9f311ca3c8"",""projectId"":""ba640c14-69c5-453e-80b2-29051492c0e0""}","https://test12345.live/?num_scrambled_semantic=8&num_scrambled_causal=4&num_scrambled_schematic=4&participantId=C99D00BD6E5D4A8999B78DE7BC8BA4F8&assignmentId=561df386-0e58-4104-a578-dd9f311ca3c8&projectId=ba640c14-69c5-453e-80b2-29051492c0e0","C99D00BD6E5D4A8999B78DE7BC8BA4F8-2025-05-14-21-38-12","[{""page_index"":0,""viewing_time"":18052},{""page_index"":1,""viewing_time"":10481}]","28533","","","","",""
"","","","","","image-button-response","8","1345779","0.0-6.0-0.0","C99D00BD6E5D4A8999B78DE7BC8BA4F8","C99D00BD6E5D4A8999B78DE7BC8BA4F8","561df386-0e58-4104-a578-dd9f311ca3c8","ba640c14-69c5-453e-80b2-29051492c0e0","{""num_scrambled_semantic"":""8"",""num_scrambled_causal"":""4"",""num_scrambled_schematic"":""4"",""participantId"":""C99D00BD6E5D4A8999B78DE7BC8BA4F8"",""assignmentId"":""561df386-0e58-4104-a578-dd9f311ca3c8"",""projectId"":""ba640c14-69c5-453e-80b2-29051492c0e0""}","https://test12345.live/?num_scrambled_semantic=8&num_scrambled_causal=4&num_scrambled_schematic=4&participantId=C99D00BD6E5D4A8999B78DE7BC8BA4F8&assignmentId=561df386-0e58-4104-a578-dd9f311ca3c8&projectId=ba640c14-69c5-453e-80b2-29051492c0e0","C99D00BD6E5D4A8999B78DE7BC8BA4F8-2025-05-14-21-38-12","","null","","images/instructions/movie_0.png","null","",""
"","","","","","image-button-response","9","1350335","0.0-6.0-1.0-0.0","C99D00BD6E5D4A8999B78DE7BC8BA4F8","C99D00BD6E5D4A8999B78DE7BC8BA4F8","561df386-0e58-4104-a578-dd9f311ca3c8","ba640c14-69c5-453e-80b2-29051492c0e0","{""num_scrambled_semantic"":""8"",""num_scrambled_causal"":""4"",""num_scrambled_schematic"":""4"",""participantId"":""C99D00BD6E5D4A8999B78DE7BC8BA4F8"",""assignmentId"":""561df386-0e58-4104-a578-dd9f311ca3c8"",""projectId"":""ba640c14-69c5-453e-80b2-29051492c0e0""}","https://test12345.live/?num_scrambled_semantic=8&num_scrambled_causal=4&num_scrambled_schematic=4&participantId=C99D00BD6E5D4A8999B78DE7BC8BA4F8&assignmentId=561df386-0e58-4104-a578-dd9f311ca3c8&projectId=ba640c14-69c5-453e-80b2-29051492c0e0","C99D00BD6E5D4A8999B78DE7BC8BA4F8-2025-05-14-21-38-12","","null","","images/instructions/movie_1.png","null","",""
"","","","","","image-button-response","10","1353239","0.0-6.0-1.0-1.0","C99D00BD6E5D4A8999B78DE7BC8BA4F8","C99D00BD6E5D4A8999B78DE7BC8BA4F8","561df386-0e58-4104-a578-dd9f311ca3c8","ba640c14-69c5-453e-80b2-29051492c0e0","{""num_scrambled_semantic"":""8"",""num_scrambled_causal"":""4"",""num_scrambled_schematic"":""4"",""participantId"":""C99D00BD6E5D4A8999B78DE7BC8BA4F8"",""assignmentId"":""561df386-0e58-4104-a578-dd9f311ca3c8"",""projectId"":""ba640c14-69c5-453e-80b2-29051492c0e0""}","https://test12345.live/?num_scrambled_semantic=8&num_scrambled_causal=4&num_scrambled_schematic=4&participantId=C99D00BD6E5D4A8999B78DE7BC8BA4F8&assignmentId=561df386-0e58-4104-a578-dd9f311ca3c8&projectId=ba640c14-69c5-453e-80b2-29051492c0e0","C99D00BD6E5D4A8999B78DE7BC8BA4F8-2025-05-14-21-38-12","","2903","","images/instructions/movie_1.png","0","",""
"","","","","","image-button-response","11","1355255","0.0-6.0-1.0-2.0","C99D00BD6E5D4A8999B78DE7BC8BA4F8","C99D00BD6E5D4A8999B78DE7BC8BA4F8","561df386-0e58-4104-a578-dd9f311ca3c8","ba640c14-69c5-453e-80b2-29051492c0e0","{""num_scrambled_semantic"":""8"",""num_scrambled_causal"":""4"",""num_scrambled_schematic"":""4"",""participantId"":""C99D00BD6E5D4A8999B78DE7BC8BA4F8"",""assignmentId"":""561df386-0e58-4104-a578-dd9f311ca3c8"",""projectId"":""ba640c14-69c5-453e-80b2-29051492c0e0""}","https://test12345.live/?num_scrambled_semantic=8&num_scrambled_causal=4&num_scrambled_schematic=4&participantId=C99D00BD6E5D4A8999B78DE7BC8BA4F8&assignmentId=561df386-0e58-4104-a578-dd9f311ca3c8&projectId=ba640c14-69c5-453e-80b2-29051492c0e0","C99D00BD6E5D4A8999B78DE7BC8BA4F8-2025-05-14-21-38-12","","null","","[]","null","",""
"","","","","","image-button-response","12","1360271","0.0-6.0-1.0-0.1","C99D00BD6E5D4A8999B78DE7BC8BA4F8","C99D00BD6E5D4A8999B78DE7BC8BA4F8","561df386-0e58-4104-a578-dd9f311ca3c8","ba640c14-69c5-453e-80b2-29051492c0e0","{""num_scrambled_semantic"":""8"",""num_scrambled_causal"":""4"",""num_scrambled_schematic"":""4"",""participantId"":""C99D00BD6E5D4A8999B78DE7BC8BA4F8"",""assignmentId"":""561df386-0e58-4104-a578-dd9f311ca3c8"",""projectId"":""ba640c14-69c5-453e-80b2-29051492c0e0""}","https://test12345.live/?num_scrambled_semantic=8&num_scrambled_causal=4&num_scrambled_schematic=4&participantId=C99D00BD6E5D4A8999B78DE7BC8BA4F8&assignmentId=561df386-0e58-4104-a578-dd9f311ca3c8&projectId=ba640c14-69c5-453e-80b2-29051492c0e0","C99D00BD6E5D4A8999B78DE7BC8BA4F8-2025-05-14-21-38-12","","null","","images/instructions/movie_2.png","null","",""
"","","","","","image-button-response","13","1361529","0.0-6.0-1.0-1.1","C99D00BD6E5D4A8999B78DE7BC8BA4F8","C99D00BD6E5D4A8999B78DE7BC8BA4F8","561df386-0e58-4104-a578-dd9f311ca3c8","ba640c14-69c5-453e-80b2-29051492c0e0","{""num_scrambled_semantic"":""8"",""num_scrambled_causal"":""4"",""num_scrambled_schematic"":""4"",""participantId"":""C99D00BD6E5D4A8999B78DE7BC8BA4F8"",""assignmentId"":""561df386-0e58-4104-a578-dd9f311ca3c8"",""projectId"":""ba640c14-69c5-453e-80b2-29051492c0e0""}","https://test12345.live/?num_scrambled_semantic=8&num_scrambled_causal=4&num_scrambled_schematic=4&participantId=C99D00BD6E5D4A8999B78DE7BC8BA4F8&assignmentId=561df386-0e58-4104-a578-dd9f311ca3c8&projectId=ba640c14-69c5-453e-80b2-29051492c0e0","C99D00BD6E5D4A8999B78DE7BC8BA4F8-2025-05-14-21-38-12","","1258","","images/instructions/movie_2.png","0","",""
"","","","","","image-button-response","14","1363338","0.0-6.0-1.0-2.1","C99D00BD6E5D4A8999B78DE7BC8BA4F8","C99D00BD6E5D4A8999B78DE7BC8BA4F8","561df386-0e58-4104-a578-dd9f311ca3c8","ba640c14-69c5-453e-80b2-29051492c0e0","{""num_scrambled_semantic"":""8"",""num_scrambled_causal"":""4"",""num_scrambled_schematic"":""4"",""participantId"":""C99D00BD6E5D4A8999B78DE7BC8BA4F8"",""assignmentId"":""561df386-0e58-4104-a578-dd9f311ca3c8"",""projectId"":""ba640c14-69c5-453e-80b2-29051492c0e0""}","https://test12345.live/?num_scrambled_semantic=8&num_scrambled_causal=4&num_scrambled_schematic=4&participantId=C99D00BD6E5D4A8999B78DE7BC8BA4F8&assignmentId=561df386-0e58-4104-a578-dd9f311ca3c8&projectId=ba640c14-69c5-453e-80b2-29051492c0e0","C99D00BD6E5D4A8999B78DE7BC8BA4F8-2025-05-14-21-38-12","","null","","[]","null","",""
"","","","","","image-button-response","15","1367887","0.0-6.0-1.0-0.2","C99D00BD6E5D4A8999B78DE7BC8BA4F8","C99D00BD6E5D4A8999B78DE7BC8BA4F8","561df386-0e58-4104-a578-dd9f311ca3c8","ba640c14-69c5-453e-80b2-29051492c0e0","{""num_scrambled_semantic"":""8"",""num_scrambled_causal"":""4"",""num_scrambled_schematic"":""4"",""participantId"":""C99D00BD6E5D4A8999B78DE7BC8BA4F8"",""assignmentId"":""561df386-0e58-4104-a578-dd9f311ca3c8"",""projectId"":""ba640c14-69c5-453e-80b2-29051492c0e0""}","https://test12345.live/?num_scrambled_semantic=8&num_scrambled_causal=4&num_scrambled_schematic=4&participantId=C99D00BD6E5D4A8999B78DE7BC8BA4F8&assignmentId=561df386-0e58-4104-a578-dd9f311ca3c8&projectId=ba640c14-69c5-453e-80b2-29051492c0e0","C99D00BD6E5D4A8999B78DE7BC8BA4F8-2025-05-14-21-38-12","","null","","images/instructions/movie_3.png","null","",""
"","","","","","image-button-response","16","1369628","0.0-6.0-1.0-1.2","C99D00BD6E5D4A8999B78DE7BC8BA4F8","C99D00BD6E5D4A8999B78DE7BC8BA4F8","561df386-0e58-4104-a578-dd9f311ca3c8","ba640c14-69c5-453e-80b2-29051492c0e0","{""num_scrambled_semantic"":""8"",""num_scrambled_causal"":""4"",""num_scrambled_schematic"":""4"",""participantId"":""C99D00BD6E5D4A8999B78DE7BC8BA4F8"",""assignmentId"":""561df386-0e58-4104-a578-dd9f311ca3c8"",""projectId"":""ba640c14-69c5-453e-80b2-29051492c0e0""}","https://test12345.live/?num_scrambled_semantic=8&num_scrambled_causal=4&num_scrambled_schematic=4&participantId=C99D00BD6E5D4A8999B78DE7BC8BA4F8&assignmentId=561df386-0e58-4104-a578-dd9f311ca3c8&projectId=ba640c14-69c5-453e-80b2-29051492c0e0","C99D00BD6E5D4A8999B78DE7BC8BA4F8-2025-05-14-21-38-12","","1739","","images/instructions/movie_3.png","0","",""
"","","","","","image-button-response","17","1371653","0.0-6.0-1.0-2.2","C99D00BD6E5D4A8999B78DE7BC8BA4F8","C99D00BD6E5D4A8999B78DE7BC8BA4F8","561df386-0e58-4104-a578-dd9f311ca3c8","ba640c14-69c5-453e-80b2-29051492c0e0","{""num_scrambled_semantic"":""8"",""num_scrambled_causal"":""4"",""num_scrambled_schematic"":""4"",""participantId"":""C99D00BD6E5D4A8999B78DE7BC8BA4F8"",""assignmentId"":""561df386-0e58-4104-a578-dd9f311ca3c8"",""projectId"":""ba640c14-69c5-453e-80b2-29051492c0e0""}","https://test12345.live/?num_scrambled_semantic=8&num_scrambled_causal=4&num_scrambled_schematic=4&participantId=C99D00BD6E5D4A8999B78DE7BC8BA4F8&assignmentId=561df386-0e58-4104-a578-dd9f311ca3c8&projectId=ba640c14-69c5-453e-80b2-29051492c0e0","C99D00BD6E5D4A8999B78DE7BC8BA4F8-2025-05-14-21-38-12","","null","","[]","null","",""
"","","","","","image-button-response","18","1376426","0.0-6.0-1.0-0.3","C99D00BD6E5D4A8999B78DE7BC8BA4F8","C99D00BD6E5D4A8999B78DE7BC8BA4F8","561df386-0e58-4104-a578-dd9f311ca3c8","ba640c14-69c5-453e-80b2-29051492c0e0","{""num_scrambled_semantic"":""8"",""num_scrambled_causal"":""4"",""num_scrambled_schematic"":""4"",""participantId"":""C99D00BD6E5D4A8999B78DE7BC8BA4F8"",""assignmentId"":""561df386-0e58-4104-a578-dd9f311ca3c8"",""projectId"":""ba640c14-69c5-453e-80b2-29051492c0e0""}","https://test12345.live/?num_scrambled_semantic=8&num_scrambled_causal=4&num_scrambled_schematic=4&participantId=C99D00BD6E5D4A8999B78DE7BC8BA4F8&assignmentId=561df386-0e58-4104-a578-dd9f311ca3c8&projectId=ba640c14-69c5-453e-80b2-29051492c0e0","C99D00BD6E5D4A8999B78DE7BC8BA4F8-2025-05-14-21-38-12","","null","","images/instructions/movie_4.png","null","",""
"","","","","","image-button-response","19","1378435","0.0-6.0-1.0-1.3","C99D00BD6E5D4A8999B78DE7BC8BA4F8","C99D00BD6E5D4A8999B78DE7BC8BA4F8","561df386-0e58-4104-a578-dd9f311ca3c8","ba640c14-69c5-453e-80b2-29051492c0e0","{""num_scrambled_semantic"":""8"",""num_scrambled_causal"":""4"",""num_scrambled_schematic"":""4"",""participantId"":""C99D00BD6E5D4A8999B78DE7BC8BA4F8"",""assignmentId"":""561df386-0e58-4104-a578-dd9f311ca3c8"",""projectId"":""ba640c14-69c5-453e-80b2-29051492c0e0""}","https://test12345.live/?num_scrambled_semantic=8&num_scrambled_causal=4&num_scrambled_schematic=4&participantId=C99D00BD6E5D4A8999B78DE7BC8BA4F8&assignmentId=561df386-0e58-4104-a578-dd9f311ca3c8&projectId=ba640c14-69c5-453e-80b2-29051492c0e0","C99D00BD6E5D4A8999B78DE7BC8BA4F8-2025-05-14-21-38-12","","2009","","images/instructions/movie_4.png","0","",""
"","","","","","image-button-response","20","1380457","0.0-6.0-1.0-2.3","C99D00BD6E5D4A8999B78DE7BC8BA4F8","C99D00BD6E5D4A8999B78DE7BC8BA4F8","561df386-0e58-4104-a578-dd9f311ca3c8","ba640c14-69c5-453e-80b2-29051492c0e0","{""num_scrambled_semantic"":""8"",""num_scrambled_causal"":""4"",""num_scrambled_schematic"":""4"",""participantId"":""C99D00BD6E5D4A8999B78DE7BC8BA4F8"",""assignmentId"":""561df386-0e58-4104-a578-dd9f311ca3c8"",""projectId"":""ba640c14-69c5-453e-80b2-29051492c0e0""}","https://test12345.live/?num_scrambled_semantic=8&num_scrambled_causal=4&num_scrambled_schematic=4&participantId=C99D00BD6E5D4A8999B78DE7BC8BA4F8&assignmentId=561df386-0e58-4104-a578-dd9f311ca3c8&projectId=ba640c14-69c5-453e-80b2-29051492c0e0","C99D00BD6E5D4A8999B78DE7BC8BA4F8-2025-05-14-21-38-12","","null","","[]","null","",""
"","","","","","instructions","21","1393002","0.0-7.0","C99D00BD6E5D4A8999B78DE7BC8BA4F8","C99D00BD6E5D4A8999B78DE7BC8BA4F8","561df386-0e58-4104-a578-dd9f311ca3c8","ba640c14-69c5-453e-80b2-29051492c0e0","{""num_scrambled_semantic"":""8"",""num_scrambled_causal"":""4"",""num_scrambled_schematic"":""4"",""participantId"":""C99D00BD6E5D4A8999B78DE7BC8BA4F8"",""assignmentId"":""561df386-0e58-4104-a578-dd9f311ca3c8"",""projectId"":""ba640c14-69c5-453e-80b2-29051492c0e0""}","https://test12345.live/?num_scrambled_semantic=8&num_scrambled_causal=4&num_scrambled_schematic=4&participantId=C99D00BD6E5D4A8999B78DE7BC8BA4F8&assignmentId=561df386-0e58-4104-a578-dd9f311ca3c8&projectId=ba640c14-69c5-453e-80b2-29051492c0e0","C99D00BD6E5D4A8999B78DE7BC8BA4F8-2025-05-14-21-38-12","[{""page_index"":0,""viewing_time"":9949},{""page_index"":1,""viewing_time"":2594}]","12543","","","","",""
"","","","","","html-audio-response","22","1815859","0.0-8.0","C99D00BD6E5D4A8999B78DE7BC8BA4F8","C99D00BD6E5D4A8999B78DE7BC8BA4F8","561df386-0e58-4104-a578-dd9f311ca3c8","ba640c14-69c5-453e-80b2-29051492c0e0","{""num_scrambled_semantic"":""8"",""num_scrambled_causal"":""4"",""num_scrambled_schematic"":""4"",""participantId"":""C99D00BD6E5D4A8999B78DE7BC8BA4F8"",""assignmentId"":""561df386-0e58-4104-a578-dd9f311ca3c8"",""projectId"":""ba640c14-69c5-453e-80b2-29051492c0e0""}","https://test12345.live/?num_scrambled_semantic=8&num_scrambled_causal=4&num_scrambled_schematic=4&participantId=C99D00BD6E5D4A8999B78DE7BC8BA4F8&assignmentId=561df386-0e58-4104-a578-dd9f311ca3c8&projectId=ba640c14-69c5-453e-80b2-29051492c0e0","C99D00BD6E5D4A8999B78DE7BC8BA4F8-2025-05-14-21-38-12","","39093","","[""<span style=\""color: red; font-size: 24px\""> NOW RECORDING</span><p>Please say out loud all the images you saw, as many as you can remember. The images can be said in any order.</p>""]","","1",""
"","","","","","instructions","23","1818753","0.0-9.0","C99D00BD6E5D4A8999B78DE7BC8BA4F8","C99D00BD6E5D4A8999B78DE7BC8BA4F8","561df386-0e58-4104-a578-dd9f311ca3c8","ba640c14-69c5-453e-80b2-29051492c0e0","{""num_scrambled_semantic"":""8"",""num_scrambled_causal"":""4"",""num_scrambled_schematic"":""4"",""participantId"":""C99D00BD6E5D4A8999B78DE7BC8BA4F8"",""assignmentId"":""561df386-0e58-4104-a578-dd9f311ca3c8"",""projectId"":""ba640c14-69c5-453e-80b2-29051492c0e0""}","https://test12345.live/?num_scrambled_semantic=8&num_scrambled_causal=4&num_scrambled_schematic=4&participantId=C99D00BD6E5D4A8999B78DE7BC8BA4F8&assignmentId=561df386-0e58-4104-a578-dd9f311ca3c8&projectId=ba640c14-69c5-453e-80b2-29051492c0e0","C99D00BD6E5D4A8999B78DE7BC8BA4F8-2025-05-14-21-38-12","[{""page_index"":0,""viewing_time"":2891}]","2891","","","","",""
"","","","","","image-button-response","24","1824780","0.0-10.0-0.0","C99D00BD6E5D4A8999B78DE7BC8BA4F8","C99D00BD6E5D4A8999B78DE7BC8BA4F8","561df386-0e58-4104-a578-dd9f311ca3c8","ba640c14-69c5-453e-80b2-29051492c0e0","{""num_scrambled_semantic"":""8"",""num_scrambled_causal"":""4"",""num_scrambled_schematic"":""4"",""participantId"":""C99D00BD6E5D4A8999B78DE7BC8BA4F8"",""assignmentId"":""561df386-0e58-4104-a578-dd9f311ca3c8"",""projectId"":""ba640c14-69c5-453e-80b2-29051492c0e0""}","https://test12345.live/?num_scrambled_semantic=8&num_scrambled_causal=4&num_scrambled_schematic=4&participantId=C99D00BD6E5D4A8999B78DE7BC8BA4F8&assignmentId=561df386-0e58-4104-a578-dd9f311ca3c8&projectId=ba640c14-69c5-453e-80b2-29051492c0e0","C99D00BD6E5D4A8999B78DE7BC8BA4F8-2025-05-14-21-38-12","","null","","images/schematic_sequence/flight_scheme/flight_scheme_0.png","null","",""
"","","","","","image-button-response","25","1829626","0.0-10.0-1.0-0.0","C99D00BD6E5D4A8999B78DE7BC8BA4F8","C99D00BD6E5D4A8999B78DE7BC8BA4F8","561df386-0e58-4104-a578-dd9f311ca3c8","ba640c14-69c5-453e-80b2-29051492c0e0","{""num_scrambled_semantic"":""8"",""num_scrambled_causal"":""4"",""num_scrambled_schematic"":""4"",""participantId"":""C99D00BD6E5D4A8999B78DE7BC8BA4F8"",""assignmentId"":""561df386-0e58-4104-a578-dd9f311ca3c8"",""projectId"":""ba640c14-69c5-453e-80b2-29051492c0e0""}","https://test12345.live/?num_scrambled_semantic=8&num_scrambled_causal=4&num_scrambled_schematic=4&participantId=C99D00BD6E5D4A8999B78DE7BC8BA4F8&assignmentId=561df386-0e58-4104-a578-dd9f311ca3c8&projectId=ba640c14-69c5-453e-80b2-29051492c0e0","C99D00BD6E5D4A8999B78DE7BC8BA4F8-2025-05-14-21-38-12","","null","","images/schematic_sequence/flight_scheme/flight_scheme_6.png","null","",""
"","","","","","image-button-response","26","1831796","0.0-10.0-1.0-1.0","C99D00BD6E5D4A8999B78DE7BC8BA4F8","C99D00BD6E5D4A8999B78DE7BC8BA4F8","561df386-0e58-4104-a578-dd9f311ca3c8","ba640c14-69c5-453e-80b2-29051492c0e0","{""num_scrambled_semantic"":""8"",""num_scrambled_causal"":""4"",""num_scrambled_schematic"":""4"",""participantId"":""C99D00BD6E5D4A8999B78DE7BC8BA4F8"",""assignmentId"":""561df386-0e58-4104-a578-dd9f311ca3c8"",""projectId"":""ba640c14-69c5-453e-80b2-29051492c0e0""}","https://test12345.live/?num_scrambled_semantic=8&num_scrambled_causal=4&num_scrambled_schematic=4&participantId=C99D00BD6E5D4A8999B78DE7BC8BA4F8&assignmentId=561df386-0e58-4104-a578-dd9f311ca3c8&projectId=ba640c14-69c5-453e-80b2-29051492c0e0","C99D00BD6E5D4A8999B78DE7BC8BA4F8-2025-05-14-21-38-12","","2167","","images/schematic_sequence/flight_scheme/flight_scheme_6.png","1","",""
"","","","","","image-button-response","27","1833660","0.0-10.0-1.0-2.0","C99D00BD6E5D4A8999B78DE7BC8BA4F8","C99D00BD6E5D4A8999B78DE7BC8BA4F8","561df386-0e58-4104-a578-dd9f311ca3c8","ba640c14-69c5-453e-80b2-29051492c0e0","{""num_scrambled_semantic"":""8"",""num_scrambled_causal"":""4"",""num_scrambled_schematic"":""4"",""participantId"":""C99D00BD6E5D4A8999B78DE7BC8BA4F8"",""assignmentId"":""561df386-0e58-4104-a578-dd9f311ca3c8"",""projectId"":""ba640c14-69c5-453e-80b2-29051492c0e0""}","https://test12345.live/?num_scrambled_semantic=8&num_scrambled_causal=4&num_scrambled_schematic=4&participantId=C99D00BD6E5D4A8999B78DE7BC8BA4F8&assignmentId=561df386-0e58-4104-a578-dd9f311ca3c8&projectId=ba640c14-69c5-453e-80b2-29051492c0e0","C99D00BD6E5D4A8999B78DE7BC8BA4F8-2025-05-14-21-38-12","","null","","[]","null","",""
"","","","","","image-button-response","28","1838198","0.0-10.0-1.0-0.1","C99D00BD6E5D4A8999B78DE7BC8BA4F8","C99D00BD6E5D4A8999B78DE7BC8BA4F8","561df386-0e58-4104-a578-dd9f311ca3c8","ba640c14-69c5-453e-80b2-29051492c0e0","{""num_scrambled_semantic"":""8"",""num_scrambled_causal"":""4"",""num_scrambled_schematic"":""4"",""participantId"":""C99D00BD6E5D4A8999B78DE7BC8BA4F8"",""assignmentId"":""561df386-0e58-4104-a578-dd9f311ca3c8"",""projectId"":""ba640c14-69c5-453e-80b2-29051492c0e0""}","https://test12345.live/?num_scrambled_semantic=8&num_scrambled_causal=4&num_scrambled_schematic=4&participantId=C99D00BD6E5D4A8999B78DE7BC8BA4F8&assignmentId=561df386-0e58-4104-a578-dd9f311ca3c8&projectId=ba640c14-69c5-453e-80b2-29051492c0e0","C99D00BD6E5D4A8999B78DE7BC8BA4F8-2025-05-14-21-38-12","","null","","images/schematic_sequence/flight_scheme/flight_scheme_9.png","null","",""
"","","","","","image-button-response","29","1841445","0.0-10.0-1.0-1.1","C99D00BD6E5D4A8999B78DE7BC8BA4F8","C99D00BD6E5D4A8999B78DE7BC8BA4F8","561df386-0e58-4104-a578-dd9f311ca3c8","ba640c14-69c5-453e-80b2-29051492c0e0","{""num_scrambled_semantic"":""8"",""num_scrambled_causal"":""4"",""num_scrambled_schematic"":""4"",""participantId"":""C99D00BD6E5D4A8999B78DE7BC8BA4F8"",""assignmentId"":""561df386-0e58-4104-a578-dd9f311ca3c8"",""projectId"":""ba640c14-69c5-453e-80b2-29051492c0e0""}","https://test12345.live/?num_scrambled_semantic=8&num_scrambled_causal=4&num_scrambled_schematic=4&participantId=C99D00BD6E5D4A8999B78DE7BC8BA4F8&assignmentId=561df386-0e58-4104-a578-dd9f311ca3c8&projectId=ba640c14-69c5-453e-80b2-29051492c0e0","C99D00BD6E5D4A8999B78DE7BC8BA4F8-2025-05-14-21-38-12","","3245","","images/schematic_sequence/flight_scheme/flight_scheme_9.png","0","",""
"","","","","","image-button-response","30","1843457","0.0-10.0-1.0-2.1","C99D00BD6E5D4A8999B78DE7BC8BA4F8","C99D00BD6E5D4A8999B78DE7BC8BA4F8","561df386-0e58-4104-a578-dd9f311ca3c8","ba640c14-69c5-453e-80b2-29051492c0e0","{""num_scrambled_semantic"":""8"",""num_scrambled_causal"":""4"",""num_scrambled_schematic"":""4"",""participantId"":""C99D00BD6E5D4A8999B78DE7BC8BA4F8"",""assignmentId"":""561df386-0e58-4104-a578-dd9f311ca3c8"",""projectId"":""ba640c14-69c5-453e-80b2-29051492c0e0""}","https://test12345.live/?num_scrambled_semantic=8&num_scrambled_causal=4&num_scrambled_schematic=4&participantId=C99D00BD6E5D4A8999B78DE7BC8BA4F8&assignmentId=561df386-0e58-4104-a578-dd9f311ca3c8&projectId=ba640c14-69c5-453e-80b2-29051492c0e0","C99D00BD6E5D4A8999B78DE7BC8BA4F8-2025-05-14-21-38-12","","null","","[]","null","",""
"","","","","","image-button-response","31","1847986","0.0-10.0-1.0-0.2","C99D00BD6E5D4A8999B78DE7BC8BA4F8","C99D00BD6E5D4A8999B78DE7BC8BA4F8","561df386-0e58-4104-a578-dd9f311ca3c8","ba640c14-69c5-453e-80b2-29051492c0e0","{""num_scrambled_semantic"":""8"",""num_scrambled_causal"":""4"",""num_scrambled_schematic"":""4"",""participantId"":""C99D00BD6E5D4A8999B78DE7BC8BA4F8"",""assignmentId"":""561df386-0e58-4104-a578-dd9f311ca3c8"",""projectId"":""ba640c14-69c5-453e-80b2-29051492c0e0""}","https://test12345.live/?num_scrambled_semantic=8&num_scrambled_causal=4&num_scrambled_schematic=4&participantId=C99D00BD6E5D4A8999B78DE7BC8BA4F8&assignmentId=561df386-0e58-4104-a578-dd9f311ca3c8&projectId=ba640c14-69c5-453e-80b2-29051492c0e0","C99D00BD6E5D4A8999B78DE7BC8BA4F8-2025-05-14-21-38-12","","null","","images/schematic_sequence/flight_scheme/flight_scheme_3.png","null","",""
"","","","","","image-button-response","32","1850795","0.0-10.0-1.0-1.2","C99D00BD6E5D4A8999B78DE7BC8BA4F8","C99D00BD6E5D4A8999B78DE7BC8BA4F8","561df386-0e58-4104-a578-dd9f311ca3c8","ba640c14-69c5-453e-80b2-29051492c0e0","{""num_scrambled_semantic"":""8"",""num_scrambled_causal"":""4"",""num_scrambled_schematic"":""4"",""participantId"":""C99D00BD6E5D4A8999B78DE7BC8BA4F8"",""assignmentId"":""561df386-0e58-4104-a578-dd9f311ca3c8"",""projectId"":""ba640c14-69c5-453e-80b2-29051492c0e0""}","https://test12345.live/?num_scrambled_semantic=8&num_scrambled_causal=4&num_scrambled_schematic=4&participantId=C99D00BD6E5D4A8999B78DE7BC8BA4F8&assignmentId=561df386-0e58-4104-a578-dd9f311ca3c8&projectId=ba640c14-69c5-453e-80b2-29051492c0e0","C99D00BD6E5D4A8999B78DE7BC8BA4F8-2025-05-14-21-38-12","","2807","","images/schematic_sequence/flight_scheme/flight_scheme_3.png","0","",""
"","","","","","image-button-response","33","1852810","0.0-10.0-1.0-2.2","C99D00BD6E5D4A8999B78DE7BC8BA4F8","C99D00BD6E5D4A8999B78DE7BC8BA4F8","561df386-0e58-4104-a578-dd9f311ca3c8","ba640c14-69c5-453e-80b2-29051492c0e0","{""num_scrambled_semantic"":""8"",""num_scrambled_causal"":""4"",""num_scrambled_schematic"":""4"",""participantId"":""C99D00BD6E5D4A8999B78DE7BC8BA4F8"",""assignmentId"":""561df386-0e58-4104-a578-dd9f311ca3c8"",""projectId"":""ba640c14-69c5-453e-80b2-29051492c0e0""}","https://test12345.live/?num_scrambled_semantic=8&num_scrambled_causal=4&num_scrambled_schematic=4&participantId=C99D00BD6E5D4A8999B78DE7BC8BA4F8&assignmentId=561df386-0e58-4104-a578-dd9f311ca3c8&projectId=ba640c14-69c5-453e-80b2-29051492c0e0","C99D00BD6E5D4A8999B78DE7BC8BA4F8-2025-05-14-21-38-12","","null","","[]","null","",""
"","","","","","image-button-response","34","1857819","0.0-10.0-1.0-0.3","C99D00BD6E5D4A8999B78DE7BC8BA4F8","C99D00BD6E5D4A8999B78DE7BC8BA4F8","561df386-0e58-4104-a578-dd9f311ca3c8","ba640c14-69c5-453e-80b2-29051492c0e0","{""num_scrambled_semantic"":""8"",""num_scrambled_causal"":""4"",""num_scrambled_schematic"":""4"",""participantId"":""C99D00BD6E5D4A8999B78DE7BC8BA4F8"",""assignmentId"":""561df386-0e58-4104-a578-dd9f311ca3c8"",""projectId"":""ba640c14-69c5-453e-80b2-29051492c0e0""}","https://test12345.live/?num_scrambled_semantic=8&num_scrambled_causal=4&num_scrambled_schematic=4&participantId=C99D00BD6E5D4A8999B78DE7BC8BA4F8&assignmentId=561df386-0e58-4104-a578-dd9f311ca3c8&projectId=ba640c14-69c5-453e-80b2-29051492c0e0","C99D00BD6E5D4A8999B78DE7BC8BA4F8-2025-05-14-21-38-12","","null","","images/schematic_sequence/flight_scheme/flight_scheme_8.png","null","",""
"","","","","","image-button-response","35","1862050","0.0-10.0-1.0-1.3","C99D00BD6E5D4A8999B78DE7BC8BA4F8","C99D00BD6E5D4A8999B78DE7BC8BA4F8","561df386-0e58-4104-a578-dd9f311ca3c8","ba640c14-69c5-453e-80b2-29051492c0e0","{""num_scrambled_semantic"":""8"",""num_scrambled_causal"":""4"",""num_scrambled_schematic"":""4"",""participantId"":""C99D00BD6E5D4A8999B78DE7BC8BA4F8"",""assignmentId"":""561df386-0e58-4104-a578-dd9f311ca3c8"",""projectId"":""ba640c14-69c5-453e-80b2-29051492c0e0""}","https://test12345.live/?num_scrambled_semantic=8&num_scrambled_causal=4&num_scrambled_schematic=4&participantId=C99D00BD6E5D4A8999B78DE7BC8BA4F8&assignmentId=561df386-0e58-4104-a578-dd9f311ca3c8&projectId=ba640c14-69c5-453e-80b2-29051492c0e0","C99D00BD6E5D4A8999B78DE7BC8BA4F8-2025-05-14-21-38-12","","null","","images/schematic_sequence/flight_scheme/flight_scheme_8.png","null","",""
"","","","","","image-button-response","36","1863856","0.0-10.0-1.0-2.3","C99D00BD6E5D4A8999B78DE7BC8BA4F8","C99D00BD6E5D4A8999B78DE7BC8BA4F8","561df386-0e58-4104-a578-dd9f311ca3c8","ba640c14-69c5-453e-80b2-29051492c0e0","{""num_scrambled_semantic"":""8"",""num_scrambled_causal"":""4"",""num_scrambled_schematic"":""4"",""participantId"":""C99D00BD6E5D4A8999B78DE7BC8BA4F8"",""assignmentId"":""561df386-0e58-4104-a578-dd9f311ca3c8"",""projectId"":""ba640c14-69c5-453e-80b2-29051492c0e0""}","https://test12345.live/?num_scrambled_semantic=8&num_scrambled_causal=4&num_scrambled_schematic=4&participantId=C99D00BD6E5D4A8999B78DE7BC8BA4F8&assignmentId=561df386-0e58-4104-a578-dd9f311ca3c8&projectId=ba640c14-69c5-453e-80b2-29051492c0e0","C99D00BD6E5D4A8999B78DE7BC8BA4F8-2025-05-14-21-38-12","","null","","[]","null","",""
"","","","","","image-button-response","37","1868555","0.0-10.0-1.0-0.4","C99D00BD6E5D4A8999B78DE7BC8BA4F8","C99D00BD6E5D4A8999B78DE7BC8BA4F8","561df386-0e58-4104-a578-dd9f311ca3c8","ba640c14-69c5-453e-80b2-29051492c0e0","{""num_scrambled_semantic"":""8"",""num_scrambled_causal"":""4"",""num_scrambled_schematic"":""4"",""participantId"":""C99D00BD6E5D4A8999B78DE7BC8BA4F8"",""assignmentId"":""561df386-0e58-4104-a578-dd9f311ca3c8"",""projectId"":""ba640c14-69c5-453e-80b2-29051492c0e0""}","https://test12345.live/?num_scrambled_semantic=8&num_scrambled_causal=4&num_scrambled_schematic=4&participantId=C99D00BD6E5D4A8999B78DE7BC8BA4F8&assignmentId=561df386-0e58-4104-a578-dd9f311ca3c8&projectId=ba640c14-69c5-453e-80b2-29051492c0e0","C99D00BD6E5D4A8999B78DE7BC8BA4F8-2025-05-14-21-38-12","","null","","images/schematic_sequence/flight_scheme/flight_scheme_2.png","null","",""
"","","","","","image-button-response","38","1869580","0.0-10.0-1.0-1.4","C99D00BD6E5D4A8999B78DE7BC8BA4F8","C99D00BD6E5D4A8999B78DE7BC8BA4F8","561df386-0e58-4104-a578-dd9f311ca3c8","ba640c14-69c5-453e-80b2-29051492c0e0","{""num_scrambled_semantic"":""8"",""num_scrambled_causal"":""4"",""num_scrambled_schematic"":""4"",""participantId"":""C99D00BD6E5D4A8999B78DE7BC8BA4F8"",""assignmentId"":""561df386-0e58-4104-a578-dd9f311ca3c8"",""projectId"":""ba640c14-69c5-453e-80b2-29051492c0e0""}","https://test12345.live/?num_scrambled_semantic=8&num_scrambled_causal=4&num_scrambled_schematic=4&participantId=C99D00BD6E5D4A8999B78DE7BC8BA4F8&assignmentId=561df386-0e58-4104-a578-dd9f311ca3c8&projectId=ba640c14-69c5-453e-80b2-29051492c0e0","C99D00BD6E5D4A8999B78DE7BC8BA4F8-2025-05-14-21-38-12","","1024","","images/schematic_sequence/flight_scheme/flight_scheme_2.png","1","",""
"","","","","","image-button-response","39","1871393","0.0-10.0-1.0-2.4","C99D00BD6E5D4A8999B78DE7BC8BA4F8","C99D00BD6E5D4A8999B78DE7BC8BA4F8","561df386-0e58-4104-a578-dd9f311ca3c8","ba640c14-69c5-453e-80b2-29051492c0e0","{""num_scrambled_semantic"":""8"",""num_scrambled_causal"":""4"",""num_scrambled_schematic"":""4"",""participantId"":""C99D00BD6E5D4A8999B78DE7BC8BA4F8"",""assignmentId"":""561df386-0e58-4104-a578-dd9f311ca3c8"",""projectId"":""ba640c14-69c5-453e-80b2-29051492c0e0""}","https://test12345.live/?num_scrambled_semantic=8&num_scrambled_causal=4&num_scrambled_schematic=4&participantId=C99D00BD6E5D4A8999B78DE7BC8BA4F8&assignmentId=561df386-0e58-4104-a578-dd9f311ca3c8&projectId=ba640c14-69c5-453e-80b2-29051492c0e0","C99D00BD6E5D4A8999B78DE7BC8BA4F8-2025-05-14-21-38-12","","null","","[]","null","",""
"","","","","","image-button-response","40","1875961","0.0-10.0-1.0-0.5","C99D00BD6E5D4A8999B78DE7BC8BA4F8","C99D00BD6E5D4A8999B78DE7BC8BA4F8","561df386-0e58-4104-a578-dd9f311ca3c8","ba640c14-69c5-453e-80b2-29051492c0e0","{""num_scrambled_semantic"":""8"",""num_scrambled_causal"":""4"",""num_scrambled_schematic"":""4"",""participantId"":""C99D00BD6E5D4A8999B78DE7BC8BA4F8"",""assignmentId"":""561df386-0e58-4104-a578-dd9f311ca3c8"",""projectId"":""ba640c14-69c5-453e-80b2-29051492c0e0""}","https://test12345.live/?num_scrambled_semantic=8&num_scrambled_causal=4&num_scrambled_schematic=4&participantId=C99D00BD6E5D4A8999B78DE7BC8BA4F8&assignmentId=561df386-0e58-4104-a578-dd9f311ca3c8&projectId=ba640c14-69c5-453e-80b2-29051492c0e0","C99D00BD6E5D4A8999B78DE7BC8BA4F8-2025-05-14-21-38-12","","null","","images/schematic_sequence/flight_scheme/flight_scheme_ten.png","null","",""
"","","","","","image-button-response","41","1878884","0.0-10.0-1.0-1.5","C99D00BD6E5D4A8999B78DE7BC8BA4F8","C99D00BD6E5D4A8999B78DE7BC8BA4F8","561df386-0e58-4104-a578-dd9f311ca3c8","ba640c14-69c5-453e-80b2-29051492c0e0","{""num_scrambled_semantic"":""8"",""num_scrambled_causal"":""4"",""num_scrambled_schematic"":""4"",""participantId"":""C99D00BD6E5D4A8999B78DE7BC8BA4F8"",""assignmentId"":""561df386-0e58-4104-a578-dd9f311ca3c8"",""projectId"":""ba640c14-69c5-453e-80b2-29051492c0e0""}","https://test12345.live/?num_scrambled_semantic=8&num_scrambled_causal=4&num_scrambled_schematic=4&participantId=C99D00BD6E5D4A8999B78DE7BC8BA4F8&assignmentId=561df386-0e58-4104-a578-dd9f311ca3c8&projectId=ba640c14-69c5-453e-80b2-29051492c0e0","C99D00BD6E5D4A8999B78DE7BC8BA4F8-2025-05-14-21-38-12","","2922","","images/schematic_sequence/flight_scheme/flight_scheme_ten.png","0","",""
"","","","","","image-button-response","42","1880903","0.0-10.0-1.0-2.5","C99D00BD6E5D4A8999B78DE7BC8BA4F8","C99D00BD6E5D4A8999B78DE7BC8BA4F8","561df386-0e58-4104-a578-dd9f311ca3c8","ba640c14-69c5-453e-80b2-29051492c0e0","{""num_scrambled_semantic"":""8"",""num_scrambled_causal"":""4"",""num_scrambled_schematic"":""4"",""participantId"":""C99D00BD6E5D4A8999B78DE7BC8BA4F8"",""assignmentId"":""561df386-0e58-4104-a578-dd9f311ca3c8"",""projectId"":""ba640c14-69c5-453e-80b2-29051492c0e0""}","https://test12345.live/?num_scrambled_semantic=8&num_scrambled_causal=4&num_scrambled_schematic=4&participantId=C99D00BD6E5D4A8999B78DE7BC8BA4F8&assignmentId=561df386-0e58-4104-a578-dd9f311ca3c8&projectId=ba640c14-69c5-453e-80b2-29051492c0e0","C99D00BD6E5D4A8999B78DE7BC8BA4F8-2025-05-14-21-38-12","","null","","[]","null","",""
"","","","","","image-button-response","43","1885431","0.0-10.0-1.0-0.6","C99D00BD6E5D4A8999B78DE7BC8BA4F8","C99D00BD6E5D4A8999B78DE7BC8BA4F8","561df386-0e58-4104-a578-dd9f311ca3c8","ba640c14-69c5-453e-80b2-29051492c0e0","{""num_scrambled_semantic"":""8"",""num_scrambled_causal"":""4"",""num_scrambled_schematic"":""4"",""participantId"":""C99D00BD6E5D4A8999B78DE7BC8BA4F8"",""assignmentId"":""561df386-0e58-4104-a578-dd9f311ca3c8"",""projectId"":""ba640c14-69c5-453e-80b2-29051492c0e0""}","https://test12345.live/?num_scrambled_semantic=8&num_scrambled_causal=4&num_scrambled_schematic=4&participantId=C99D00BD6E5D4A8999B78DE7BC8BA4F8&assignmentId=561df386-0e58-4104-a578-dd9f311ca3c8&projectId=ba640c14-69c5-453e-80b2-29051492c0e0","C99D00BD6E5D4A8999B78DE7BC8BA4F8-2025-05-14-21-38-12","","null","","images/schematic_sequence/flight_scheme/flight_scheme_5.png","null","",""
"","","","","","image-button-response","44","1886367","0.0-10.0-1.0-1.6","C99D00BD6E5D4A8999B78DE7BC8BA4F8","C99D00BD6E5D4A8999B78DE7BC8BA4F8","561df386-0e58-4104-a578-dd9f311ca3c8","ba640c14-69c5-453e-80b2-29051492c0e0","{""num_scrambled_semantic"":""8"",""num_scrambled_causal"":""4"",""num_scrambled_schematic"":""4"",""participantId"":""C99D00BD6E5D4A8999B78DE7BC8BA4F8"",""assignmentId"":""561df386-0e58-4104-a578-dd9f311ca3c8"",""projectId"":""ba640c14-69c5-453e-80b2-29051492c0e0""}","https://test12345.live/?num_scrambled_semantic=8&num_scrambled_causal=4&num_scrambled_schematic=4&participantId=C99D00BD6E5D4A8999B78DE7BC8BA4F8&assignmentId=561df386-0e58-4104-a578-dd9f311ca3c8&projectId=ba640c14-69c5-453e-80b2-29051492c0e0","C99D00BD6E5D4A8999B78DE7BC8BA4F8-2025-05-14-21-38-12","","936","","images/schematic_sequence/flight_scheme/flight_scheme_5.png","0","",""
"","","","","","image-button-response","45","1888173","0.0-10.0-1.0-2.6","C99D00BD6E5D4A8999B78DE7BC8BA4F8","C99D00BD6E5D4A8999B78DE7BC8BA4F8","561df386-0e58-4104-a578-dd9f311ca3c8","ba640c14-69c5-453e-80b2-29051492c0e0","{""num_scrambled_semantic"":""8"",""num_scrambled_causal"":""4"",""num_scrambled_schematic"":""4"",""participantId"":""C99D00BD6E5D4A8999B78DE7BC8BA4F8"",""assignmentId"":""561df386-0e58-4104-a578-dd9f311ca3c8"",""projectId"":""ba640c14-69c5-453e-80b2-29051492c0e0""}","https://test12345.live/?num_scrambled_semantic=8&num_scrambled_causal=4&num_scrambled_schematic=4&participantId=C99D00BD6E5D4A8999B78DE7BC8BA4F8&assignmentId=561df386-0e58-4104-a578-dd9f311ca3c8&projectId=ba640c14-69c5-453e-80b2-29051492c0e0","C99D00BD6E5D4A8999B78DE7BC8BA4F8-2025-05-14-21-38-12","","null","","[]","null","",""
"","","","","","image-button-response","46","1892989","0.0-10.0-1.0-0.7","C99D00BD6E5D4A8999B78DE7BC8BA4F8","C99D00BD6E5D4A8999B78DE7BC8BA4F8","561df386-0e58-4104-a578-dd9f311ca3c8","ba640c14-69c5-453e-80b2-29051492c0e0","{""num_scrambled_semantic"":""8"",""num_scrambled_causal"":""4"",""num_scrambled_schematic"":""4"",""participantId"":""C99D00BD6E5D4A8999B78DE7BC8BA4F8"",""assignmentId"":""561df386-0e58-4104-a578-dd9f311ca3c8"",""projectId"":""ba640c14-69c5-453e-80b2-29051492c0e0""}","https://test12345.live/?num_scrambled_semantic=8&num_scrambled_causal=4&num_scrambled_schematic=4&participantId=C99D00BD6E5D4A8999B78DE7BC8BA4F8&assignmentId=561df386-0e58-4104-a578-dd9f311ca3c8&projectId=ba640c14-69c5-453e-80b2-29051492c0e0","C99D00BD6E5D4A8999B78DE7BC8BA4F8-2025-05-14-21-38-12","","null","","images/schematic_sequence/flight_scheme/flight_scheme_7.png","null","",""
"","","","","","image-button-response","47","1894321","0.0-10.0-1.0-1.7","C99D00BD6E5D4A8999B78DE7BC8BA4F8","C99D00BD6E5D4A8999B78DE7BC8BA4F8","561df386-0e58-4104-a578-dd9f311ca3c8","ba640c14-69c5-453e-80b2-29051492c0e0","{""num_scrambled_semantic"":""8"",""num_scrambled_causal"":""4"",""num_scrambled_schematic"":""4"",""participantId"":""C99D00BD6E5D4A8999B78DE7BC8BA4F8"",""assignmentId"":""561df386-0e58-4104-a578-dd9f311ca3c8"",""projectId"":""ba640c14-69c5-453e-80b2-29051492c0e0""}","https://test12345.live/?num_scrambled_semantic=8&num_scrambled_causal=4&num_scrambled_schematic=4&participantId=C99D00BD6E5D4A8999B78DE7BC8BA4F8&assignmentId=561df386-0e58-4104-a578-dd9f311ca3c8&projectId=ba640c14-69c5-453e-80b2-29051492c0e0","C99D00BD6E5D4A8999B78DE7BC8BA4F8-2025-05-14-21-38-12","","1331","","images/schematic_sequence/flight_scheme/flight_scheme_7.png","1","",""
"","","","","","image-button-response","48","1896123","0.0-10.0-1.0-2.7","C99D00BD6E5D4A8999B78DE7BC8BA4F8","C99D00BD6E5D4A8999B78DE7BC8BA4F8","561df386-0e58-4104-a578-dd9f311ca3c8","ba640c14-69c5-453e-80b2-29051492c0e0","{""num_scrambled_semantic"":""8"",""num_scrambled_causal"":""4"",""num_scrambled_schematic"":""4"",""participantId"":""C99D00BD6E5D4A8999B78DE7BC8BA4F8"",""assignmentId"":""561df386-0e58-4104-a578-dd9f311ca3c8"",""projectId"":""ba640c14-69c5-453e-80b2-29051492c0e0""}","https://test12345.live/?num_scrambled_semantic=8&num_scrambled_causal=4&num_scrambled_schematic=4&participantId=C99D00BD6E5D4A8999B78DE7BC8BA4F8&assignmentId=561df386-0e58-4104-a578-dd9f311ca3c8&projectId=ba640c14-69c5-453e-80b2-29051492c0e0","C99D00BD6E5D4A8999B78DE7BC8BA4F8-2025-05-14-21-38-12","","null","","[]","null","",""
"","","","","","image-button-response","49","1900779","0.0-10.0-1.0-0.8","C99D00BD6E5D4A8999B78DE7BC8BA4F8","C99D00BD6E5D4A8999B78DE7BC8BA4F8","561df386-0e58-4104-a578-dd9f311ca3c8","ba640c14-69c5-453e-80b2-29051492c0e0","{""num_scrambled_semantic"":""8"",""num_scrambled_causal"":""4"",""num_scrambled_schematic"":""4"",""participantId"":""C99D00BD6E5D4A8999B78DE7BC8BA4F8"",""assignmentId"":""561df386-0e58-4104-a578-dd9f311ca3c8"",""projectId"":""ba640c14-69c5-453e-80b2-29051492c0e0""}","https://test12345.live/?num_scrambled_semantic=8&num_scrambled_causal=4&num_scrambled_schematic=4&participantId=C99D00BD6E5D4A8999B78DE7BC8BA4F8&assignmentId=561df386-0e58-4104-a578-dd9f311ca3c8&projectId=ba640c14-69c5-453e-80b2-29051492c0e0","C99D00BD6E5D4A8999B78DE7BC8BA4F8-2025-05-14-21-38-12","","null","","images/schematic_sequence/flight_scheme/flight_scheme_1.png","null","",""
"","","","","","image-button-response","50","1901750","0.0-10.0-1.0-1.8","C99D00BD6E5D4A8999B78DE7BC8BA4F8","C99D00BD6E5D4A8999B78DE7BC8BA4F8","561df386-0e58-4104-a578-dd9f311ca3c8","ba640c14-69c5-453e-80b2-29051492c0e0","{""num_scrambled_semantic"":""8"",""num_scrambled_causal"":""4"",""num_scrambled_schematic"":""4"",""participantId"":""C99D00BD6E5D4A8999B78DE7BC8BA4F8"",""assignmentId"":""561df386-0e58-4104-a578-dd9f311ca3c8"",""projectId"":""ba640c14-69c5-453e-80b2-29051492c0e0""}","https://test12345.live/?num_scrambled_semantic=8&num_scrambled_causal=4&num_scrambled_schematic=4&participantId=C99D00BD6E5D4A8999B78DE7BC8BA4F8&assignmentId=561df386-0e58-4104-a578-dd9f311ca3c8&projectId=ba640c14-69c5-453e-80b2-29051492c0e0","C99D00BD6E5D4A8999B78DE7BC8BA4F8-2025-05-14-21-38-12","","970","","images/schematic_sequence/flight_scheme/flight_scheme_1.png","0","",""
"","","","","","image-button-response","51","1903566","0.0-10.0-1.0-2.8","C99D00BD6E5D4A8999B78DE7BC8BA4F8","C99D00BD6E5D4A8999B78DE7BC8BA4F8","561df386-0e58-4104-a578-dd9f311ca3c8","ba640c14-69c5-453e-80b2-29051492c0e0","{""num_scrambled_semantic"":""8"",""num_scrambled_causal"":""4"",""num_scrambled_schematic"":""4"",""participantId"":""C99D00BD6E5D4A8999B78DE7BC8BA4F8"",""assignmentId"":""561df386-0e58-4104-a578-dd9f311ca3c8"",""projectId"":""ba640c14-69c5-453e-80b2-29051492c0e0""}","https://test12345.live/?num_scrambled_semantic=8&num_scrambled_causal=4&num_scrambled_schematic=4&participantId=C99D00BD6E5D4A8999B78DE7BC8BA4F8&assignmentId=561df386-0e58-4104-a578-dd9f311ca3c8&projectId=ba640c14-69c5-453e-80b2-29051492c0e0","C99D00BD6E5D4A8999B78DE7BC8BA4F8-2025-05-14-21-38-12","","null","","[]","null","",""
"","","","","","image-button-response","52","1908571","0.0-10.0-1.0-0.9","C99D00BD6E5D4A8999B78DE7BC8BA4F8","C99D00BD6E5D4A8999B78DE7BC8BA4F8","561df386-0e58-4104-a578-dd9f311ca3c8","ba640c14-69c5-453e-80b2-29051492c0e0","{""num_scrambled_semantic"":""8"",""num_scrambled_causal"":""4"",""num_scrambled_schematic"":""4"",""participantId"":""C99D00BD6E5D4A8999B78DE7BC8BA4F8"",""assignmentId"":""561df386-0e58-4104-a578-dd9f311ca3c8"",""projectId"":""ba640c14-69c5-453e-80b2-29051492c0e0""}","https://test12345.live/?num_scrambled_semantic=8&num_scrambled_causal=4&num_scrambled_schematic=4&participantId=C99D00BD6E5D4A8999B78DE7BC8BA4F8&assignmentId=561df386-0e58-4104-a578-dd9f311ca3c8&projectId=ba640c14-69c5-453e-80b2-29051492c0e0","C99D00BD6E5D4A8999B78DE7BC8BA4F8-2025-05-14-21-38-12","","null","","images/schematic_sequence/flight_scheme/flight_scheme_4.png","null","",""
"","","","","","image-button-response","53","1909734","0.0-10.0-1.0-1.9","C99D00BD6E5D4A8999B78DE7BC8BA4F8","C99D00BD6E5D4A8999B78DE7BC8BA4F8","561df386-0e58-4104-a578-dd9f311ca3c8","ba640c14-69c5-453e-80b2-29051492c0e0","{""num_scrambled_semantic"":""8"",""num_scrambled_causal"":""4"",""num_scrambled_schematic"":""4"",""participantId"":""C99D00BD6E5D4A8999B78DE7BC8BA4F8"",""assignmentId"":""561df386-0e58-4104-a578-dd9f311ca3c8"",""projectId"":""ba640c14-69c5-453e-80b2-29051492c0e0""}","https://test12345.live/?num_scrambled_semantic=8&num_scrambled_causal=4&num_scrambled_schematic=4&participantId=C99D00BD6E5D4A8999B78DE7BC8BA4F8&assignmentId=561df386-0e58-4104-a578-dd9f311ca3c8&projectId=ba640c14-69c5-453e-80b2-29051492c0e0","C99D00BD6E5D4A8999B78DE7BC8BA4F8-2025-05-14-21-38-12","","1163","","images/schematic_sequence/flight_scheme/flight_scheme_4.png","0","",""
"","","","","","image-button-response","54","1911593","0.0-10.0-1.0-2.9","C99D00BD6E5D4A8999B78DE7BC8BA4F8","C99D00BD6E5D4A8999B78DE7BC8BA4F8","561df386-0e58-4104-a578-dd9f311ca3c8","ba640c14-69c5-453e-80b2-29051492c0e0","{""num_scrambled_semantic"":""8"",""num_scrambled_causal"":""4"",""num_scrambled_schematic"":""4"",""participantId"":""C99D00BD6E5D4A8999B78DE7BC8BA4F8"",""assignmentId"":""561df386-0e58-4104-a578-dd9f311ca3c8"",""projectId"":""ba640c14-69c5-453e-80b2-29051492c0e0""}","https://test12345.live/?num_scrambled_semantic=8&num_scrambled_causal=4&num_scrambled_schematic=4&participantId=C99D00BD6E5D4A8999B78DE7BC8BA4F8&assignmentId=561df386-0e58-4104-a578-dd9f311ca3c8&projectId=ba640c14-69c5-453e-80b2-29051492c0e0","C99D00BD6E5D4A8999B78DE7BC8BA4F8-2025-05-14-21-38-12","","null","","[]","null","",""
"","","","","","html-audio-response","55","1976786","0.0-11.0","C99D00BD6E5D4A8999B78DE7BC8BA4F8","C99D00BD6E5D4A8999B78DE7BC8BA4F8","561df386-0e58-4104-a578-dd9f311ca3c8","ba640c14-69c5-453e-80b2-29051492c0e0","{""num_scrambled_semantic"":""8"",""num_scrambled_causal"":""4"",""num_scrambled_schematic"":""4"",""participantId"":""C99D00BD6E5D4A8999B78DE7BC8BA4F8"",""assignmentId"":""561df386-0e58-4104-a578-dd9f311ca3c8"",""projectId"":""ba640c14-69c5-453e-80b2-29051492c0e0""}","https://test12345.live/?num_scrambled_semantic=8&num_scrambled_causal=4&num_scrambled_schematic=4&participantId=C99D00BD6E5D4A8999B78DE7BC8BA4F8&assignmentId=561df386-0e58-4104-a578-dd9f311ca3c8&projectId=ba640c14-69c5-453e-80b2-29051492c0e0","C99D00BD6E5D4A8999B78DE7BC8BA4F8-2025-05-14-21-38-12","","53337","","[""<span style=\""color: red; font-size: 24px\""> NOW RECORDING</span><p>Please say out loud all the images you saw, as many as you can remember. The images can be said in any order.</p>""]","","1","flight_scheme"
"","","","","","image-button-response","56","1983391","0.0-12.0-0.0","C99D00BD6E5D4A8999B78DE7BC8BA4F8","C99D00BD6E5D4A8999B78DE7BC8BA4F8","561df386-0e58-4104-a578-dd9f311ca3c8","ba640c14-69c5-453e-80b2-29051492c0e0","{""num_scrambled_semantic"":""8"",""num_scrambled_causal"":""4"",""num_scrambled_schematic"":""4"",""participantId"":""C99D00BD6E5D4A8999B78DE7BC8BA4F8"",""assignmentId"":""561df386-0e58-4104-a578-dd9f311ca3c8"",""projectId"":""ba640c14-69c5-453e-80b2-29051492c0e0""}","https://test12345.live/?num_scrambled_semantic=8&num_scrambled_causal=4&num_scrambled_schematic=4&participantId=C99D00BD6E5D4A8999B78DE7BC8BA4F8&assignmentId=561df386-0e58-4104-a578-dd9f311ca3c8&projectId=ba640c14-69c5-453e-80b2-29051492c0e0","C99D00BD6E5D4A8999B78DE7BC8BA4F8-2025-05-14-21-38-12","","null","","images/semantic_sequence/redecorating_semantic/redecorating_semantic_0.png","null","",""
"","","","","","image-button-response","57","1987945","0.0-12.0-1.0-0.0","C99D00BD6E5D4A8999B78DE7BC8BA4F8","C99D00BD6E5D4A8999B78DE7BC8BA4F8","561df386-0e58-4104-a578-dd9f311ca3c8","ba640c14-69c5-453e-80b2-29051492c0e0","{""num_scrambled_semantic"":""8"",""num_scrambled_causal"":""4"",""num_scrambled_schematic"":""4"",""participantId"":""C99D00BD6E5D4A8999B78DE7BC8BA4F8"",""assignmentId"":""561df386-0e58-4104-a578-dd9f311ca3c8"",""projectId"":""ba640c14-69c5-453e-80b2-29051492c0e0""}","https://test12345.live/?num_scrambled_semantic=8&num_scrambled_causal=4&num_scrambled_schematic=4&participantId=C99D00BD6E5D4A8999B78DE7BC8BA4F8&assignmentId=561df386-0e58-4104-a578-dd9f311ca3c8&projectId=ba640c14-69c5-453e-80b2-29051492c0e0","C99D00BD6E5D4A8999B78DE7BC8BA4F8-2025-05-14-21-38-12","","null","","images/semantic_sequence/redecorating_semantic/redecorating_semantic_6.png","null","",""
"","","","","","image-button-response","58","1990612","0.0-12.0-1.0-1.0","C99D00BD6E5D4A8999B78DE7BC8BA4F8","C99D00BD6E5D4A8999B78DE7BC8BA4F8","561df386-0e58-4104-a578-dd9f311ca3c8","ba640c14-69c5-453e-80b2-29051492c0e0","{""num_scrambled_semantic"":""8"",""num_scrambled_causal"":""4"",""num_scrambled_schematic"":""4"",""participantId"":""C99D00BD6E5D4A8999B78DE7BC8BA4F8"",""assignmentId"":""561df386-0e58-4104-a578-dd9f311ca3c8"",""projectId"":""ba640c14-69c5-453e-80b2-29051492c0e0""}","https://test12345.live/?num_scrambled_semantic=8&num_scrambled_causal=4&num_scrambled_schematic=4&participantId=C99D00BD6E5D4A8999B78DE7BC8BA4F8&assignmentId=561df386-0e58-4104-a578-dd9f311ca3c8&projectId=ba640c14-69c5-453e-80b2-29051492c0e0","C99D00BD6E5D4A8999B78DE7BC8BA4F8-2025-05-14-21-38-12","","2666","","images/semantic_sequence/redecorating_semantic/redecorating_semantic_6.png","0","",""
"","","","","","image-button-response","59","1992629","0.0-12.0-1.0-2.0","C99D00BD6E5D4A8999B78DE7BC8BA4F8","C99D00BD6E5D4A8999B78DE7BC8BA4F8","561df386-0e58-4104-a578-dd9f311ca3c8","ba640c14-69c5-453e-80b2-29051492c0e0","{""num_scrambled_semantic"":""8"",""num_scrambled_causal"":""4"",""num_scrambled_schematic"":""4"",""participantId"":""C99D00BD6E5D4A8999B78DE7BC8BA4F8"",""assignmentId"":""561df386-0e58-4104-a578-dd9f311ca3c8"",""projectId"":""ba640c14-69c5-453e-80b2-29051492c0e0""}","https://test12345.live/?num_scrambled_semantic=8&num_scrambled_causal=4&num_scrambled_schematic=4&participantId=C99D00BD6E5D4A8999B78DE7BC8BA4F8&assignmentId=561df386-0e58-4104-a578-dd9f311ca3c8&projectId=ba640c14-69c5-453e-80b2-29051492c0e0","C99D00BD6E5D4A8999B78DE7BC8BA4F8-2025-05-14-21-38-12","","null","","[]","null","",""
"","","","","","image-button-response","60","1997181","0.0-12.0-1.0-0.1","C99D00BD6E5D4A8999B78DE7BC8BA4F8","C99D00BD6E5D4A8999B78DE7BC8BA4F8","561df386-0e58-4104-a578-dd9f311ca3c8","ba640c14-69c5-453e-80b2-29051492c0e0","{""num_scrambled_semantic"":""8"",""num_scrambled_causal"":""4"",""num_scrambled_schematic"":""4"",""participantId"":""C99D00BD6E5D4A8999B78DE7BC8BA4F8"",""assignmentId"":""561df386-0e58-4104-a578-dd9f311ca3c8"",""projectId"":""ba640c14-69c5-453e-80b2-29051492c0e0""}","https://test12345.live/?num_scrambled_semantic=8&num_scrambled_causal=4&num_scrambled_schematic=4&participantId=C99D00BD6E5D4A8999B78DE7BC8BA4F8&assignmentId=561df386-0e58-4104-a578-dd9f311ca3c8&projectId=ba640c14-69c5-453e-80b2-29051492c0e0","C99D00BD6E5D4A8999B78DE7BC8BA4F8-2025-05-14-21-38-12","","null","","images/semantic_sequence/redecorating_semantic/redecorating_semantic_7.png","null","",""
"","","","","","image-button-response","61","1998379","0.0-12.0-1.0-1.1","C99D00BD6E5D4A8999B78DE7BC8BA4F8","C99D00BD6E5D4A8999B78DE7BC8BA4F8","561df386-0e58-4104-a578-dd9f311ca3c8","ba640c14-69c5-453e-80b2-29051492c0e0","{""num_scrambled_semantic"":""8"",""num_scrambled_causal"":""4"",""num_scrambled_schematic"":""4"",""participantId"":""C99D00BD6E5D4A8999B78DE7BC8BA4F8"",""assignmentId"":""561df386-0e58-4104-a578-dd9f311ca3c8"",""projectId"":""ba640c14-69c5-453e-80b2-29051492c0e0""}","https://test12345.live/?num_scrambled_semantic=8&num_scrambled_causal=4&num_scrambled_schematic=4&participantId=C99D00BD6E5D4A8999B78DE7BC8BA4F8&assignmentId=561df386-0e58-4104-a578-dd9f311ca3c8&projectId=ba640c14-69c5-453e-80b2-29051492c0e0","C99D00BD6E5D4A8999B78DE7BC8BA4F8-2025-05-14-21-38-12","","1197","","images/semantic_sequence/redecorating_semantic/redecorating_semantic_7.png","0","",""
"","","","","","image-button-response","62","2000206","0.0-12.0-1.0-2.1","C99D00BD6E5D4A8999B78DE7BC8BA4F8","C99D00BD6E5D4A8999B78DE7BC8BA4F8","561df386-0e58-4104-a578-dd9f311ca3c8","ba640c14-69c5-453e-80b2-29051492c0e0","{""num_scrambled_semantic"":""8"",""num_scrambled_causal"":""4"",""num_scrambled_schematic"":""4"",""participantId"":""C99D00BD6E5D4A8999B78DE7BC8BA4F8"",""assignmentId"":""561df386-0e58-4104-a578-dd9f311ca3c8"",""projectId"":""ba640c14-69c5-453e-80b2-29051492c0e0""}","https://test12345.live/?num_scrambled_semantic=8&num_scrambled_causal=4&num_scrambled_schematic=4&participantId=C99D00BD6E5D4A8999B78DE7BC8BA4F8&assignmentId=561df386-0e58-4104-a578-dd9f311ca3c8&projectId=ba640c14-69c5-453e-80b2-29051492c0e0","C99D00BD6E5D4A8999B78DE7BC8BA4F8-2025-05-14-21-38-12","","null","","[]","null","",""
"","","","","","image-button-response","63","2005040","0.0-12.0-1.0-0.2","C99D00BD6E5D4A8999B78DE7BC8BA4F8","C99D00BD6E5D4A8999B78DE7BC8BA4F8","561df386-0e58-4104-a578-dd9f311ca3c8","ba640c14-69c5-453e-80b2-29051492c0e0","{""num_scrambled_semantic"":""8"",""num_scrambled_causal"":""4"",""num_scrambled_schematic"":""4"",""participantId"":""C99D00BD6E5D4A8999B78DE7BC8BA4F8"",""assignmentId"":""561df386-0e58-4104-a578-dd9f311ca3c8"",""projectId"":""ba640c14-69c5-453e-80b2-29051492c0e0""}","https://test12345.live/?num_scrambled_semantic=8&num_scrambled_causal=4&num_scrambled_schematic=4&participantId=C99D00BD6E5D4A8999B78DE7BC8BA4F8&assignmentId=561df386-0e58-4104-a578-dd9f311ca3c8&projectId=ba640c14-69c5-453e-80b2-29051492c0e0","C99D00BD6E5D4A8999B78DE7BC8BA4F8-2025-05-14-21-38-12","","null","","images/semantic_sequence/redecorating_semantic/redecorating_semantic_4.png","null","",""
"","","","","","image-button-response","64","2006190","0.0-12.0-1.0-1.2","C99D00BD6E5D4A8999B78DE7BC8BA4F8","C99D00BD6E5D4A8999B78DE7BC8BA4F8","561df386-0e58-4104-a578-dd9f311ca3c8","ba640c14-69c5-453e-80b2-29051492c0e0","{""num_scrambled_semantic"":""8"",""num_scrambled_causal"":""4"",""num_scrambled_schematic"":""4"",""participantId"":""C99D00BD6E5D4A8999B78DE7BC8BA4F8"",""assignmentId"":""561df386-0e58-4104-a578-dd9f311ca3c8"",""projectId"":""ba640c14-69c5-453e-80b2-29051492c0e0""}","https://test12345.live/?num_scrambled_semantic=8&num_scrambled_causal=4&num_scrambled_schematic=4&participantId=C99D00BD6E5D4A8999B78DE7BC8BA4F8&assignmentId=561df386-0e58-4104-a578-dd9f311ca3c8&projectId=ba640c14-69c5-453e-80b2-29051492c0e0","C99D00BD6E5D4A8999B78DE7BC8BA4F8-2025-05-14-21-38-12","","1149","","images/semantic_sequence/redecorating_semantic/redecorating_semantic_4.png","0","",""
"","","","","","image-button-response","65","2008085","0.0-12.0-1.0-2.2","C99D00BD6E5D4A8999B78DE7BC8BA4F8","C99D00BD6E5D4A8999B78DE7BC8BA4F8","561df386-0e58-4104-a578-dd9f311ca3c8","ba640c14-69c5-453e-80b2-29051492c0e0","{""num_scrambled_semantic"":""8"",""num_scrambled_causal"":""4"",""num_scrambled_schematic"":""4"",""participantId"":""C99D00BD6E5D4A8999B78DE7BC8BA4F8"",""assignmentId"":""561df386-0e58-4104-a578-dd9f311ca3c8"",""projectId"":""ba640c14-69c5-453e-80b2-29051492c0e0""}","https://test12345.live/?num_scrambled_semantic=8&num_scrambled_causal=4&num_scrambled_schematic=4&participantId=C99D00BD6E5D4A8999B78DE7BC8BA4F8&assignmentId=561df386-0e58-4104-a578-dd9f311ca3c8&projectId=ba640c14-69c5-453e-80b2-29051492c0e0","C99D00BD6E5D4A8999B78DE7BC8BA4F8-2025-05-14-21-38-12","","null","","[]","null","",""
"","","","","","image-button-response","66","2013141","0.0-12.0-1.0-0.3","C99D00BD6E5D4A8999B78DE7BC8BA4F8","C99D00BD6E5D4A8999B78DE7BC8BA4F8","561df386-0e58-4104-a578-dd9f311ca3c8","ba640c14-69c5-453e-80b2-29051492c0e0","{""num_scrambled_semantic"":""8"",""num_scrambled_causal"":""4"",""num_scrambled_schematic"":""4"",""participantId"":""C99D00BD6E5D4A8999B78DE7BC8BA4F8"",""assignmentId"":""561df386-0e58-4104-a578-dd9f311ca3c8"",""projectId"":""ba640c14-69c5-453e-80b2-29051492c0e0""}","https://test12345.live/?num_scrambled_semantic=8&num_scrambled_causal=4&num_scrambled_schematic=4&participantId=C99D00BD6E5D4A8999B78DE7BC8BA4F8&assignmentId=561df386-0e58-4104-a578-dd9f311ca3c8&projectId=ba640c14-69c5-453e-80b2-29051492c0e0","C99D00BD6E5D4A8999B78DE7BC8BA4F8-2025-05-14-21-38-12","","null","","images/semantic_sequence/redecorating_semantic/redecorating_semantic_9.png","null","",""
"","","","","","image-button-response","67","2013986","0.0-12.0-1.0-1.3","C99D00BD6E5D4A8999B78DE7BC8BA4F8","C99D00BD6E5D4A8999B78DE7BC8BA4F8","561df386-0e58-4104-a578-dd9f311ca3c8","ba640c14-69c5-453e-80b2-29051492c0e0","{""num_scrambled_semantic"":""8"",""num_scrambled_causal"":""4"",""num_scrambled_schematic"":""4"",""participantId"":""C99D00BD6E5D4A8999B78DE7BC8BA4F8"",""assignmentId"":""561df386-0e58-4104-a578-dd9f311ca3c8"",""projectId"":""ba640c14-69c5-453e-80b2-29051492c0e0""}","https://test12345.live/?num_scrambled_semantic=8&num_scrambled_causal=4&num_scrambled_schematic=4&participantId=C99D00BD6E5D4A8999B78DE7BC8BA4F8&assignmentId=561df386-0e58-4104-a578-dd9f311ca3c8&projectId=ba640c14-69c5-453e-80b2-29051492c0e0","C99D00BD6E5D4A8999B78DE7BC8BA4F8-2025-05-14-21-38-12","","844","","images/semantic_sequence/redecorating_semantic/redecorating_semantic_9.png","0","",""
"","","","","","image-button-response","68","2015998","0.0-12.0-1.0-2.3","C99D00BD6E5D4A8999B78DE7BC8BA4F8","C99D00BD6E5D4A8999B78DE7BC8BA4F8","561df386-0e58-4104-a578-dd9f311ca3c8","ba640c14-69c5-453e-80b2-29051492c0e0","{""num_scrambled_semantic"":""8"",""num_scrambled_causal"":""4"",""num_scrambled_schematic"":""4"",""participantId"":""C99D00BD6E5D4A8999B78DE7BC8BA4F8"",""assignmentId"":""561df386-0e58-4104-a578-dd9f311ca3c8"",""projectId"":""ba640c14-69c5-453e-80b2-29051492c0e0""}","https://test12345.live/?num_scrambled_semantic=8&num_scrambled_causal=4&num_scrambled_schematic=4&participantId=C99D00BD6E5D4A8999B78DE7BC8BA4F8&assignmentId=561df386-0e58-4104-a578-dd9f311ca3c8&projectId=ba640c14-69c5-453e-80b2-29051492c0e0","C99D00BD6E5D4A8999B78DE7BC8BA4F8-2025-05-14-21-38-12","","null","","[]","null","",""
"","","","","","image-button-response","69","2020545","0.0-12.0-1.0-0.4","C99D00BD6E5D4A8999B78DE7BC8BA4F8","C99D00BD6E5D4A8999B78DE7BC8BA4F8","561df386-0e58-4104-a578-dd9f311ca3c8","ba640c14-69c5-453e-80b2-29051492c0e0","{""num_scrambled_semantic"":""8"",""num_scrambled_causal"":""4"",""num_scrambled_schematic"":""4"",""participantId"":""C99D00BD6E5D4A8999B78DE7BC8BA4F8"",""assignmentId"":""561df386-0e58-4104-a578-dd9f311ca3c8"",""projectId"":""ba640c14-69c5-453e-80b2-29051492c0e0""}","https://test12345.live/?num_scrambled_semantic=8&num_scrambled_causal=4&num_scrambled_schematic=4&participantId=C99D00BD6E5D4A8999B78DE7BC8BA4F8&assignmentId=561df386-0e58-4104-a578-dd9f311ca3c8&projectId=ba640c14-69c5-453e-80b2-29051492c0e0","C99D00BD6E5D4A8999B78DE7BC8BA4F8-2025-05-14-21-38-12","","null","","images/semantic_sequence/redecorating_semantic/redecorating_semantic_2.png","null","",""
"","","","","","image-button-response","70","2023252","0.0-12.0-1.0-1.4","C99D00BD6E5D4A8999B78DE7BC8BA4F8","C99D00BD6E5D4A8999B78DE7BC8BA4F8","561df386-0e58-4104-a578-dd9f311ca3c8","ba640c14-69c5-453e-80b2-29051492c0e0","{""num_scrambled_semantic"":""8"",""num_scrambled_causal"":""4"",""num_scrambled_schematic"":""4"",""participantId"":""C99D00BD6E5D4A8999B78DE7BC8BA4F8"",""assignmentId"":""561df386-0e58-4104-a578-dd9f311ca3c8"",""projectId"":""ba640c14-69c5-453e-80b2-29051492c0e0""}","https://test12345.live/?num_scrambled_semantic=8&num_scrambled_causal=4&num_scrambled_schematic=4&participantId=C99D00BD6E5D4A8999B78DE7BC8BA4F8&assignmentId=561df386-0e58-4104-a578-dd9f311ca3c8&projectId=ba640c14-69c5-453e-80b2-29051492c0e0","C99D00BD6E5D4A8999B78DE7BC8BA4F8-2025-05-14-21-38-12","","2705","","images/semantic_sequence/redecorating_semantic/redecorating_semantic_2.png","0","",""
"","","","","","image-button-response","71","2025273","0.0-12.0-1.0-2.4","C99D00BD6E5D4A8999B78DE7BC8BA4F8","C99D00BD6E5D4A8999B78DE7BC8BA4F8","561df386-0e58-4104-a578-dd9f311ca3c8","ba640c14-69c5-453e-80b2-29051492c0e0","{""num_scrambled_semantic"":""8"",""num_scrambled_causal"":""4"",""num_scrambled_schematic"":""4"",""participantId"":""C99D00BD6E5D4A8999B78DE7BC8BA4F8"",""assignmentId"":""561df386-0e58-4104-a578-dd9f311ca3c8"",""projectId"":""ba640c14-69c5-453e-80b2-29051492c0e0""}","https://test12345.live/?num_scrambled_semantic=8&num_scrambled_causal=4&num_scrambled_schematic=4&participantId=C99D00BD6E5D4A8999B78DE7BC8BA4F8&assignmentId=561df386-0e58-4104-a578-dd9f311ca3c8&projectId=ba640c14-69c5-453e-80b2-29051492c0e0","C99D00BD6E5D4A8999B78DE7BC8BA4F8-2025-05-14-21-38-12","","null","","[]","null","",""
"","","","","","image-button-response","72","2029815","0.0-12.0-1.0-0.5","C99D00BD6E5D4A8999B78DE7BC8BA4F8","C99D00BD6E5D4A8999B78DE7BC8BA4F8","561df386-0e58-4104-a578-dd9f311ca3c8","ba640c14-69c5-453e-80b2-29051492c0e0","{""num_scrambled_semantic"":""8"",""num_scrambled_causal"":""4"",""num_scrambled_schematic"":""4"",""participantId"":""C99D00BD6E5D4A8999B78DE7BC8BA4F8"",""assignmentId"":""561df386-0e58-4104-a578-dd9f311ca3c8"",""projectId"":""ba640c14-69c5-453e-80b2-29051492c0e0""}","https://test12345.live/?num_scrambled_semantic=8&num_scrambled_causal=4&num_scrambled_schematic=4&participantId=C99D00BD6E5D4A8999B78DE7BC8BA4F8&assignmentId=561df386-0e58-4104-a578-dd9f311ca3c8&projectId=ba640c14-69c5-453e-80b2-29051492c0e0","C99D00BD6E5D4A8999B78DE7BC8BA4F8-2025-05-14-21-38-12","","null","","images/semantic_sequence/redecorating_semantic/redecorating_semantic_ten.png","null","",""
"","","","","","image-button-response","73","2031343","0.0-12.0-1.0-1.5","C99D00BD6E5D4A8999B78DE7BC8BA4F8","C99D00BD6E5D4A8999B78DE7BC8BA4F8","561df386-0e58-4104-a578-dd9f311ca3c8","ba640c14-69c5-453e-80b2-29051492c0e0","{""num_scrambled_semantic"":""8"",""num_scrambled_causal"":""4"",""num_scrambled_schematic"":""4"",""participantId"":""C99D00BD6E5D4A8999B78DE7BC8BA4F8"",""assignmentId"":""561df386-0e58-4104-a578-dd9f311ca3c8"",""projectId"":""ba640c14-69c5-453e-80b2-29051492c0e0""}","https://test12345.live/?num_scrambled_semantic=8&num_scrambled_causal=4&num_scrambled_schematic=4&participantId=C99D00BD6E5D4A8999B78DE7BC8BA4F8&assignmentId=561df386-0e58-4104-a578-dd9f311ca3c8&projectId=ba640c14-69c5-453e-80b2-29051492c0e0","C99D00BD6E5D4A8999B78DE7BC8BA4F8-2025-05-14-21-38-12","","1527","","images/semantic_sequence/redecorating_semantic/redecorating_semantic_ten.png","0","",""
"","","","","","image-button-response","74","2033363","0.0-12.0-1.0-2.5","C99D00BD6E5D4A8999B78DE7BC8BA4F8","C99D00BD6E5D4A8999B78DE7BC8BA4F8","561df386-0e58-4104-a578-dd9f311ca3c8","ba640c14-69c5-453e-80b2-29051492c0e0","{""num_scrambled_semantic"":""8"",""num_scrambled_causal"":""4"",""num_scrambled_schematic"":""4"",""participantId"":""C99D00BD6E5D4A8999B78DE7BC8BA4F8"",""assignmentId"":""561df386-0e58-4104-a578-dd9f311ca3c8"",""projectId"":""ba640c14-69c5-453e-80b2-29051492c0e0""}","https://test12345.live/?num_scrambled_semantic=8&num_scrambled_causal=4&num_scrambled_schematic=4&participantId=C99D00BD6E5D4A8999B78DE7BC8BA4F8&assignmentId=561df386-0e58-4104-a578-dd9f311ca3c8&projectId=ba640c14-69c5-453e-80b2-29051492c0e0","C99D00BD6E5D4A8999B78DE7BC8BA4F8-2025-05-14-21-38-12","","null","","[]","null","",""
"","","","","","image-button-response","75","2038362","0.0-12.0-1.0-0.6","C99D00BD6E5D4A8999B78DE7BC8BA4F8","C99D00BD6E5D4A8999B78DE7BC8BA4F8","561df386-0e58-4104-a578-dd9f311ca3c8","ba640c14-69c5-453e-80b2-29051492c0e0","{""num_scrambled_semantic"":""8"",""num_scrambled_causal"":""4"",""num_scrambled_schematic"":""4"",""participantId"":""C99D00BD6E5D4A8999B78DE7BC8BA4F8"",""assignmentId"":""561df386-0e58-4104-a578-dd9f311ca3c8"",""projectId"":""ba640c14-69c5-453e-80b2-29051492c0e0""}","https://test12345.live/?num_scrambled_semantic=8&num_scrambled_causal=4&num_scrambled_schematic=4&participantId=C99D00BD6E5D4A8999B78DE7BC8BA4F8&assignmentId=561df386-0e58-4104-a578-dd9f311ca3c8&projectId=ba640c14-69c5-453e-80b2-29051492c0e0","C99D00BD6E5D4A8999B78DE7BC8BA4F8-2025-05-14-21-38-12","","null","","images/semantic_sequence/redecorating_semantic/redecorating_semantic_3.png","null","",""
"","","","","","image-button-response","76","2039583","0.0-12.0-1.0-1.6","C99D00BD6E5D4A8999B78DE7BC8BA4F8","C99D00BD6E5D4A8999B78DE7BC8BA4F8","561df386-0e58-4104-a578-dd9f311ca3c8","ba640c14-69c5-453e-80b2-29051492c0e0","{""num_scrambled_semantic"":""8"",""num_scrambled_causal"":""4"",""num_scrambled_schematic"":""4"",""participantId"":""C99D00BD6E5D4A8999B78DE7BC8BA4F8"",""assignmentId"":""561df386-0e58-4104-a578-dd9f311ca3c8"",""projectId"":""ba640c14-69c5-453e-80b2-29051492c0e0""}","https://test12345.live/?num_scrambled_semantic=8&num_scrambled_causal=4&num_scrambled_schematic=4&participantId=C99D00BD6E5D4A8999B78DE7BC8BA4F8&assignmentId=561df386-0e58-4104-a578-dd9f311ca3c8&projectId=ba640c14-69c5-453e-80b2-29051492c0e0","C99D00BD6E5D4A8999B78DE7BC8BA4F8-2025-05-14-21-38-12","","1218","","images/semantic_sequence/redecorating_semantic/redecorating_semantic_3.png","0","",""
"","","","","","image-button-response","77","2041391","0.0-12.0-1.0-2.6","C99D00BD6E5D4A8999B78DE7BC8BA4F8","C99D00BD6E5D4A8999B78DE7BC8BA4F8","561df386-0e58-4104-a578-dd9f311ca3c8","ba640c14-69c5-453e-80b2-29051492c0e0","{""num_scrambled_semantic"":""8"",""num_scrambled_causal"":""4"",""num_scrambled_schematic"":""4"",""participantId"":""C99D00BD6E5D4A8999B78DE7BC8BA4F8"",""assignmentId"":""561df386-0e58-4104-a578-dd9f311ca3c8"",""projectId"":""ba640c14-69c5-453e-80b2-29051492c0e0""}","https://test12345.live/?num_scrambled_semantic=8&num_scrambled_causal=4&num_scrambled_schematic=4&participantId=C99D00BD6E5D4A8999B78DE7BC8BA4F8&assignmentId=561df386-0e58-4104-a578-dd9f311ca3c8&projectId=ba640c14-69c5-453e-80b2-29051492c0e0","C99D00BD6E5D4A8999B78DE7BC8BA4F8-2025-05-14-21-38-12","","null","","[]","null","",""
"","","","","","image-button-response","78","2045932","0.0-12.0-1.0-0.7","C99D00BD6E5D4A8999B78DE7BC8BA4F8","C99D00BD6E5D4A8999B78DE7BC8BA4F8","561df386-0e58-4104-a578-dd9f311ca3c8","ba640c14-69c5-453e-80b2-29051492c0e0","{""num_scrambled_semantic"":""8"",""num_scrambled_causal"":""4"",""num_scrambled_schematic"":""4"",""participantId"":""C99D00BD6E5D4A8999B78DE7BC8BA4F8"",""assignmentId"":""561df386-0e58-4104-a578-dd9f311ca3c8"",""projectId"":""ba640c14-69c5-453e-80b2-29051492c0e0""}","https://test12345.live/?num_scrambled_semantic=8&num_scrambled_causal=4&num_scrambled_schematic=4&participantId=C99D00BD6E5D4A8999B78DE7BC8BA4F8&assignmentId=561df386-0e58-4104-a578-dd9f311ca3c8&projectId=ba640c14-69c5-453e-80b2-29051492c0e0","C99D00BD6E5D4A8999B78DE7BC8BA4F8-2025-05-14-21-38-12","","null","","images/semantic_sequence/redecorating_semantic/redecorating_semantic_8.png","null","",""
"","","","","","image-button-response","79","2047117","0.0-12.0-1.0-1.7","C99D00BD6E5D4A8999B78DE7BC8BA4F8","C99D00BD6E5D4A8999B78DE7BC8BA4F8","561df386-0e58-4104-a578-dd9f311ca3c8","ba640c14-69c5-453e-80b2-29051492c0e0","{""num_scrambled_semantic"":""8"",""num_scrambled_causal"":""4"",""num_scrambled_schematic"":""4"",""participantId"":""C99D00BD6E5D4A8999B78DE7BC8BA4F8"",""assignmentId"":""561df386-0e58-4104-a578-dd9f311ca3c8"",""projectId"":""ba640c14-69c5-453e-80b2-29051492c0e0""}","https://test12345.live/?num_scrambled_semantic=8&num_scrambled_causal=4&num_scrambled_schematic=4&participantId=C99D00BD6E5D4A8999B78DE7BC8BA4F8&assignmentId=561df386-0e58-4104-a578-dd9f311ca3c8&projectId=ba640c14-69c5-453e-80b2-29051492c0e0","C99D00BD6E5D4A8999B78DE7BC8BA4F8-2025-05-14-21-38-12","","1182","","images/semantic_sequence/redecorating_semantic/redecorating_semantic_8.png","0","",""
"","","","","","image-button-response","80","2048959","0.0-12.0-1.0-2.7","C99D00BD6E5D4A8999B78DE7BC8BA4F8","C99D00BD6E5D4A8999B78DE7BC8BA4F8","561df386-0e58-4104-a578-dd9f311ca3c8","ba640c14-69c5-453e-80b2-29051492c0e0","{""num_scrambled_semantic"":""8"",""num_scrambled_causal"":""4"",""num_scrambled_schematic"":""4"",""participantId"":""C99D00BD6E5D4A8999B78DE7BC8BA4F8"",""assignmentId"":""561df386-0e58-4104-a578-dd9f311ca3c8"",""projectId"":""ba640c14-69c5-453e-80b2-29051492c0e0""}","https://test12345.live/?num_scrambled_semantic=8&num_scrambled_causal=4&num_scrambled_schematic=4&participantId=C99D00BD6E5D4A8999B78DE7BC8BA4F8&assignmentId=561df386-0e58-4104-a578-dd9f311ca3c8&projectId=ba640c14-69c5-453e-80b2-29051492c0e0","C99D00BD6E5D4A8999B78DE7BC8BA4F8-2025-05-14-21-38-12","","null","","[]","null","",""
"","","","","","image-button-response","81","2053750","0.0-12.0-1.0-0.8","C99D00BD6E5D4A8999B78DE7BC8BA4F8","C99D00BD6E5D4A8999B78DE7BC8BA4F8","561df386-0e58-4104-a578-dd9f311ca3c8","ba640c14-69c5-453e-80b2-29051492c0e0","{""num_scrambled_semantic"":""8"",""num_scrambled_causal"":""4"",""num_scrambled_schematic"":""4"",""participantId"":""C99D00BD6E5D4A8999B78DE7BC8BA4F8"",""assignmentId"":""561df386-0e58-4104-a578-dd9f311ca3c8"",""projectId"":""ba640c14-69c5-453e-80b2-29051492c0e0""}","https://test12345.live/?num_scrambled_semantic=8&num_scrambled_causal=4&num_scrambled_schematic=4&participantId=C99D00BD6E5D4A8999B78DE7BC8BA4F8&assignmentId=561df386-0e58-4104-a578-dd9f311ca3c8&projectId=ba640c14-69c5-453e-80b2-29051492c0e0","C99D00BD6E5D4A8999B78DE7BC8BA4F8-2025-05-14-21-38-12","","null","","images/semantic_sequence/redecorating_semantic/redecorating_semantic_1.png","null","",""
"","","","","","image-button-response","82","2054762","0.0-12.0-1.0-1.8","C99D00BD6E5D4A8999B78DE7BC8BA4F8","C99D00BD6E5D4A8999B78DE7BC8BA4F8","561df386-0e58-4104-a578-dd9f311ca3c8","ba640c14-69c5-453e-80b2-29051492c0e0","{""num_scrambled_semantic"":""8"",""num_scrambled_causal"":""4"",""num_scrambled_schematic"":""4"",""participantId"":""C99D00BD6E5D4A8999B78DE7BC8BA4F8"",""assignmentId"":""561df386-0e58-4104-a578-dd9f311ca3c8"",""projectId"":""ba640c14-69c5-453e-80b2-29051492c0e0""}","https://test12345.live/?num_scrambled_semantic=8&num_scrambled_causal=4&num_scrambled_schematic=4&participantId=C99D00BD6E5D4A8999B78DE7BC8BA4F8&assignmentId=561df386-0e58-4104-a578-dd9f311ca3c8&projectId=ba640c14-69c5-453e-80b2-29051492c0e0","C99D00BD6E5D4A8999B78DE7BC8BA4F8-2025-05-14-21-38-12","","1012","","images/semantic_sequence/redecorating_semantic/redecorating_semantic_1.png","0","",""
"","","","","","image-button-response","83","2056786","0.0-12.0-1.0-2.8","C99D00BD6E5D4A8999B78DE7BC8BA4F8","C99D00BD6E5D4A8999B78DE7BC8BA4F8","561df386-0e58-4104-a578-dd9f311ca3c8","ba640c14-69c5-453e-80b2-29051492c0e0","{""num_scrambled_semantic"":""8"",""num_scrambled_causal"":""4"",""num_scrambled_schematic"":""4"",""participantId"":""C99D00BD6E5D4A8999B78DE7BC8BA4F8"",""assignmentId"":""561df386-0e58-4104-a578-dd9f311ca3c8"",""projectId"":""ba640c14-69c5-453e-80b2-29051492c0e0""}","https://test12345.live/?num_scrambled_semantic=8&num_scrambled_causal=4&num_scrambled_schematic=4&participantId=C99D00BD6E5D4A8999B78DE7BC8BA4F8&assignmentId=561df386-0e58-4104-a578-dd9f311ca3c8&projectId=ba640c14-69c5-453e-80b2-29051492c0e0","C99D00BD6E5D4A8999B78DE7BC8BA4F8-2025-05-14-21-38-12","","null","","[]","null","",""
"","","","","","image-button-response","84","2061459","0.0-12.0-1.0-0.9","C99D00BD6E5D4A8999B78DE7BC8BA4F8","C99D00BD6E5D4A8999B78DE7BC8BA4F8","561df386-0e58-4104-a578-dd9f311ca3c8","ba640c14-69c5-453e-80b2-29051492c0e0","{""num_scrambled_semantic"":""8"",""num_scrambled_causal"":""4"",""num_scrambled_schematic"":""4"",""participantId"":""C99D00BD6E5D4A8999B78DE7BC8BA4F8"",""assignmentId"":""561df386-0e58-4104-a578-dd9f311ca3c8"",""projectId"":""ba640c14-69c5-453e-80b2-29051492c0e0""}","https://test12345.live/?num_scrambled_semantic=8&num_scrambled_causal=4&num_scrambled_schematic=4&participantId=C99D00BD6E5D4A8999B78DE7BC8BA4F8&assignmentId=561df386-0e58-4104-a578-dd9f311ca3c8&projectId=ba640c14-69c5-453e-80b2-29051492c0e0","C99D00BD6E5D4A8999B78DE7BC8BA4F8-2025-05-14-21-38-12","","null","","images/semantic_sequence/redecorating_semantic/redecorating_semantic_5.png","null","",""
"","","","","","image-button-response","85","2063211","0.0-12.0-1.0-1.9","C99D00BD6E5D4A8999B78DE7BC8BA4F8","C99D00BD6E5D4A8999B78DE7BC8BA4F8","561df386-0e58-4104-a578-dd9f311ca3c8","ba640c14-69c5-453e-80b2-29051492c0e0","{""num_scrambled_semantic"":""8"",""num_scrambled_causal"":""4"",""num_scrambled_schematic"":""4"",""participantId"":""C99D00BD6E5D4A8999B78DE7BC8BA4F8"",""assignmentId"":""561df386-0e58-4104-a578-dd9f311ca3c8"",""projectId"":""ba640c14-69c5-453e-80b2-29051492c0e0""}","https://test12345.live/?num_scrambled_semantic=8&num_scrambled_causal=4&num_scrambled_schematic=4&participantId=C99D00BD6E5D4A8999B78DE7BC8BA4F8&assignmentId=561df386-0e58-4104-a578-dd9f311ca3c8&projectId=ba640c14-69c5-453e-80b2-29051492c0e0","C99D00BD6E5D4A8999B78DE7BC8BA4F8-2025-05-14-21-38-12","","1752","","images/semantic_sequence/redecorating_semantic/redecorating_semantic_5.png","0","",""
"","","","","","image-button-response","86","2065228","0.0-12.0-1.0-2.9","C99D00BD6E5D4A8999B78DE7BC8BA4F8","C99D00BD6E5D4A8999B78DE7BC8BA4F8","561df386-0e58-4104-a578-dd9f311ca3c8","ba640c14-69c5-453e-80b2-29051492c0e0","{""num_scrambled_semantic"":""8"",""num_scrambled_causal"":""4"",""num_scrambled_schematic"":""4"",""participantId"":""C99D00BD6E5D4A8999B78DE7BC8BA4F8"",""assignmentId"":""561df386-0e58-4104-a578-dd9f311ca3c8"",""projectId"":""ba640c14-69c5-453e-80b2-29051492c0e0""}","https://test12345.live/?num_scrambled_semantic=8&num_scrambled_causal=4&num_scrambled_schematic=4&participantId=C99D00BD6E5D4A8999B78DE7BC8BA4F8&assignmentId=561df386-0e58-4104-a578-dd9f311ca3c8&projectId=ba640c14-69c5-453e-80b2-29051492c0e0","C99D00BD6E5D4A8999B78DE7BC8BA4F8-2025-05-14-21-38-12","","null","","[]","null","",""
"","","","","","html-audio-response","87","2716375","0.0-13.0","C99D00BD6E5D4A8999B78DE7BC8BA4F8","C99D00BD6E5D4A8999B78DE7BC8BA4F8","561df386-0e58-4104-a578-dd9f311ca3c8","ba640c14-69c5-453e-80b2-29051492c0e0","{""num_scrambled_semantic"":""8"",""num_scrambled_causal"":""4"",""num_scrambled_schematic"":""4"",""participantId"":""C99D00BD6E5D4A8999B78DE7BC8BA4F8"",""assignmentId"":""561df386-0e58-4104-a578-dd9f311ca3c8"",""projectId"":""ba640c14-69c5-453e-80b2-29051492c0e0""}","https://test12345.live/?num_scrambled_semantic=8&num_scrambled_causal=4&num_scrambled_schematic=4&participantId=C99D00BD6E5D4A8999B78DE7BC8BA4F8&assignmentId=561df386-0e58-4104-a578-dd9f311ca3c8&projectId=ba640c14-69c5-453e-80b2-29051492c0e0","C99D00BD6E5D4A8999B78DE7BC8BA4F8-2025-05-14-21-38-12","","38672","","[""<span style=\""color: red; font-size: 24px\""> NOW RECORDING</span><p>Please say out loud all the images you saw, as many as you can remember. The images can be said in any order.</p>""]","","1","redecorating_semantic"
"","","","","","image-button-response","88","2722405","0.0-14.0-0.0","C99D00BD6E5D4A8999B78DE7BC8BA4F8","C99D00BD6E5D4A8999B78DE7BC8BA4F8","561df386-0e58-4104-a578-dd9f311ca3c8","ba640c14-69c5-453e-80b2-29051492c0e0","{""num_scrambled_semantic"":""8"",""num_scrambled_causal"":""4"",""num_scrambled_schematic"":""4"",""participantId"":""C99D00BD6E5D4A8999B78DE7BC8BA4F8"",""assignmentId"":""561df386-0e58-4104-a578-dd9f311ca3c8"",""projectId"":""ba640c14-69c5-453e-80b2-29051492c0e0""}","https://test12345.live/?num_scrambled_semantic=8&num_scrambled_causal=4&num_scrambled_schematic=4&participantId=C99D00BD6E5D4A8999B78DE7BC8BA4F8&assignmentId=561df386-0e58-4104-a578-dd9f311ca3c8&projectId=ba640c14-69c5-453e-80b2-29051492c0e0","C99D00BD6E5D4A8999B78DE7BC8BA4F8-2025-05-14-21-38-12","","null","","images/semantic_sequence/physical_activity_semantic/physical_activity_semantic_0.png","null","",""
"","","","","","image-button-response","89","2726938","0.0-14.0-1.0-0.0","C99D00BD6E5D4A8999B78DE7BC8BA4F8","C99D00BD6E5D4A8999B78DE7BC8BA4F8","561df386-0e58-4104-a578-dd9f311ca3c8","ba640c14-69c5-453e-80b2-29051492c0e0","{""num_scrambled_semantic"":""8"",""num_scrambled_causal"":""4"",""num_scrambled_schematic"":""4"",""participantId"":""C99D00BD6E5D4A8999B78DE7BC8BA4F8"",""assignmentId"":""561df386-0e58-4104-a578-dd9f311ca3c8"",""projectId"":""ba640c14-69c5-453e-80b2-29051492c0e0""}","https://test12345.live/?num_scrambled_semantic=8&num_scrambled_causal=4&num_scrambled_schematic=4&participantId=C99D00BD6E5D4A8999B78DE7BC8BA4F8&assignmentId=561df386-0e58-4104-a578-dd9f311ca3c8&projectId=ba640c14-69c5-453e-80b2-29051492c0e0","C99D00BD6E5D4A8999B78DE7BC8BA4F8-2025-05-14-21-38-12","","null","","images/semantic_sequence/physical_activity_semantic/physical_activity_semantic_9.png","null","",""
"","","","","","image-button-response","90","2728007","0.0-14.0-1.0-1.0","C99D00BD6E5D4A8999B78DE7BC8BA4F8","C99D00BD6E5D4A8999B78DE7BC8BA4F8","561df386-0e58-4104-a578-dd9f311ca3c8","ba640c14-69c5-453e-80b2-29051492c0e0","{""num_scrambled_semantic"":""8"",""num_scrambled_causal"":""4"",""num_scrambled_schematic"":""4"",""participantId"":""C99D00BD6E5D4A8999B78DE7BC8BA4F8"",""assignmentId"":""561df386-0e58-4104-a578-dd9f311ca3c8"",""projectId"":""ba640c14-69c5-453e-80b2-29051492c0e0""}","https://test12345.live/?num_scrambled_semantic=8&num_scrambled_causal=4&num_scrambled_schematic=4&participantId=C99D00BD6E5D4A8999B78DE7BC8BA4F8&assignmentId=561df386-0e58-4104-a578-dd9f311ca3c8&projectId=ba640c14-69c5-453e-80b2-29051492c0e0","C99D00BD6E5D4A8999B78DE7BC8BA4F8-2025-05-14-21-38-12","","1066","","images/semantic_sequence/physical_activity_semantic/physical_activity_semantic_9.png","0","",""
"","","","","","image-button-response","91","2729810","0.0-14.0-1.0-2.0","C99D00BD6E5D4A8999B78DE7BC8BA4F8","C99D00BD6E5D4A8999B78DE7BC8BA4F8","561df386-0e58-4104-a578-dd9f311ca3c8","ba640c14-69c5-453e-80b2-29051492c0e0","{""num_scrambled_semantic"":""8"",""num_scrambled_causal"":""4"",""num_scrambled_schematic"":""4"",""participantId"":""C99D00BD6E5D4A8999B78DE7BC8BA4F8"",""assignmentId"":""561df386-0e58-4104-a578-dd9f311ca3c8"",""projectId"":""ba640c14-69c5-453e-80b2-29051492c0e0""}","https://test12345.live/?num_scrambled_semantic=8&num_scrambled_causal=4&num_scrambled_schematic=4&participantId=C99D00BD6E5D4A8999B78DE7BC8BA4F8&assignmentId=561df386-0e58-4104-a578-dd9f311ca3c8&projectId=ba640c14-69c5-453e-80b2-29051492c0e0","C99D00BD6E5D4A8999B78DE7BC8BA4F8-2025-05-14-21-38-12","","null","","[]","null","",""
"","","","","","image-button-response","92","2734366","0.0-14.0-1.0-0.1","C99D00BD6E5D4A8999B78DE7BC8BA4F8","C99D00BD6E5D4A8999B78DE7BC8BA4F8","561df386-0e58-4104-a578-dd9f311ca3c8","ba640c14-69c5-453e-80b2-29051492c0e0","{""num_scrambled_semantic"":""8"",""num_scrambled_causal"":""4"",""num_scrambled_schematic"":""4"",""participantId"":""C99D00BD6E5D4A8999B78DE7BC8BA4F8"",""assignmentId"":""561df386-0e58-4104-a578-dd9f311ca3c8"",""projectId"":""ba640c14-69c5-453e-80b2-29051492c0e0""}","https://test12345.live/?num_scrambled_semantic=8&num_scrambled_causal=4&num_scrambled_schematic=4&participantId=C99D00BD6E5D4A8999B78DE7BC8BA4F8&assignmentId=561df386-0e58-4104-a578-dd9f311ca3c8&projectId=ba640c14-69c5-453e-80b2-29051492c0e0","C99D00BD6E5D4A8999B78DE7BC8BA4F8-2025-05-14-21-38-12","","null","","images/semantic_sequence/physical_activity_semantic/physical_activity_semantic_7.png","null","",""
"","","","","","image-button-response","93","2735476","0.0-14.0-1.0-1.1","C99D00BD6E5D4A8999B78DE7BC8BA4F8","C99D00BD6E5D4A8999B78DE7BC8BA4F8","561df386-0e58-4104-a578-dd9f311ca3c8","ba640c14-69c5-453e-80b2-29051492c0e0","{""num_scrambled_semantic"":""8"",""num_scrambled_causal"":""4"",""num_scrambled_schematic"":""4"",""participantId"":""C99D00BD6E5D4A8999B78DE7BC8BA4F8"",""assignmentId"":""561df386-0e58-4104-a578-dd9f311ca3c8"",""projectId"":""ba640c14-69c5-453e-80b2-29051492c0e0""}","https://test12345.live/?num_scrambled_semantic=8&num_scrambled_causal=4&num_scrambled_schematic=4&participantId=C99D00BD6E5D4A8999B78DE7BC8BA4F8&assignmentId=561df386-0e58-4104-a578-dd9f311ca3c8&projectId=ba640c14-69c5-453e-80b2-29051492c0e0","C99D00BD6E5D4A8999B78DE7BC8BA4F8-2025-05-14-21-38-12","","1108","","images/semantic_sequence/physical_activity_semantic/physical_activity_semantic_7.png","0","",""
"","","","","","image-button-response","94","2737493","0.0-14.0-1.0-2.1","C99D00BD6E5D4A8999B78DE7BC8BA4F8","C99D00BD6E5D4A8999B78DE7BC8BA4F8","561df386-0e58-4104-a578-dd9f311ca3c8","ba640c14-69c5-453e-80b2-29051492c0e0","{""num_scrambled_semantic"":""8"",""num_scrambled_causal"":""4"",""num_scrambled_schematic"":""4"",""participantId"":""C99D00BD6E5D4A8999B78DE7BC8BA4F8"",""assignmentId"":""561df386-0e58-4104-a578-dd9f311ca3c8"",""projectId"":""ba640c14-69c5-453e-80b2-29051492c0e0""}","https://test12345.live/?num_scrambled_semantic=8&num_scrambled_causal=4&num_scrambled_schematic=4&participantId=C99D00BD6E5D4A8999B78DE7BC8BA4F8&assignmentId=561df386-0e58-4104-a578-dd9f311ca3c8&projectId=ba640c14-69c5-453e-80b2-29051492c0e0","C99D00BD6E5D4A8999B78DE7BC8BA4F8-2025-05-14-21-38-12","","null","","[]","null","",""
"","","","","","image-button-response","95","2742498","0.0-14.0-1.0-0.2","C99D00BD6E5D4A8999B78DE7BC8BA4F8","C99D00BD6E5D4A8999B78DE7BC8BA4F8","561df386-0e58-4104-a578-dd9f311ca3c8","ba640c14-69c5-453e-80b2-29051492c0e0","{""num_scrambled_semantic"":""8"",""num_scrambled_causal"":""4"",""num_scrambled_schematic"":""4"",""participantId"":""C99D00BD6E5D4A8999B78DE7BC8BA4F8"",""assignmentId"":""561df386-0e58-4104-a578-dd9f311ca3c8"",""projectId"":""ba640c14-69c5-453e-80b2-29051492c0e0""}","https://test12345.live/?num_scrambled_semantic=8&num_scrambled_causal=4&num_scrambled_schematic=4&participantId=C99D00BD6E5D4A8999B78DE7BC8BA4F8&assignmentId=561df386-0e58-4104-a578-dd9f311ca3c8&projectId=ba640c14-69c5-453e-80b2-29051492c0e0","C99D00BD6E5D4A8999B78DE7BC8BA4F8-2025-05-14-21-38-12","","null","","images/semantic_sequence/physical_activity_semantic/physical_activity_semantic_4.png","null","",""
"","","","","","image-button-response","96","2743511","0.0-14.0-1.0-1.2","C99D00BD6E5D4A8999B78DE7BC8BA4F8","C99D00BD6E5D4A8999B78DE7BC8BA4F8","561df386-0e58-4104-a578-dd9f311ca3c8","ba640c14-69c5-453e-80b2-29051492c0e0","{""num_scrambled_semantic"":""8"",""num_scrambled_causal"":""4"",""num_scrambled_schematic"":""4"",""participantId"":""C99D00BD6E5D4A8999B78DE7BC8BA4F8"",""assignmentId"":""561df386-0e58-4104-a578-dd9f311ca3c8"",""projectId"":""ba640c14-69c5-453e-80b2-29051492c0e0""}","https://test12345.live/?num_scrambled_semantic=8&num_scrambled_causal=4&num_scrambled_schematic=4&participantId=C99D00BD6E5D4A8999B78DE7BC8BA4F8&assignmentId=561df386-0e58-4104-a578-dd9f311ca3c8&projectId=ba640c14-69c5-453e-80b2-29051492c0e0","C99D00BD6E5D4A8999B78DE7BC8BA4F8-2025-05-14-21-38-12","","1013","","images/semantic_sequence/physical_activity_semantic/physical_activity_semantic_4.png","0","",""
"","","","","","image-button-response","97","2745518","0.0-14.0-1.0-2.2","C99D00BD6E5D4A8999B78DE7BC8BA4F8","C99D00BD6E5D4A8999B78DE7BC8BA4F8","561df386-0e58-4104-a578-dd9f311ca3c8","ba640c14-69c5-453e-80b2-29051492c0e0","{""num_scrambled_semantic"":""8"",""num_scrambled_causal"":""4"",""num_scrambled_schematic"":""4"",""participantId"":""C99D00BD6E5D4A8999B78DE7BC8BA4F8"",""assignmentId"":""561df386-0e58-4104-a578-dd9f311ca3c8"",""projectId"":""ba640c14-69c5-453e-80b2-29051492c0e0""}","https://test12345.live/?num_scrambled_semantic=8&num_scrambled_causal=4&num_scrambled_schematic=4&participantId=C99D00BD6E5D4A8999B78DE7BC8BA4F8&assignmentId=561df386-0e58-4104-a578-dd9f311ca3c8&projectId=ba640c14-69c5-453e-80b2-29051492c0e0","C99D00BD6E5D4A8999B78DE7BC8BA4F8-2025-05-14-21-38-12","","null","","[]","null","",""
"","","","","","image-button-response","98","2750063","0.0-14.0-1.0-0.3","C99D00BD6E5D4A8999B78DE7BC8BA4F8","C99D00BD6E5D4A8999B78DE7BC8BA4F8","561df386-0e58-4104-a578-dd9f311ca3c8","ba640c14-69c5-453e-80b2-29051492c0e0","{""num_scrambled_semantic"":""8"",""num_scrambled_causal"":""4"",""num_scrambled_schematic"":""4"",""participantId"":""C99D00BD6E5D4A8999B78DE7BC8BA4F8"",""assignmentId"":""561df386-0e58-4104-a578-dd9f311ca3c8"",""projectId"":""ba640c14-69c5-453e-80b2-29051492c0e0""}","https://test12345.live/?num_scrambled_semantic=8&num_scrambled_causal=4&num_scrambled_schematic=4&participantId=C99D00BD6E5D4A8999B78DE7BC8BA4F8&assignmentId=561df386-0e58-4104-a578-dd9f311ca3c8&projectId=ba640c14-69c5-453e-80b2-29051492c0e0","C99D00BD6E5D4A8999B78DE7BC8BA4F8-2025-05-14-21-38-12","","null","","images/semantic_sequence/physical_activity_semantic/physical_activity_semantic_6.png","null","",""
"","","","","","image-button-response","99","2751032","0.0-14.0-1.0-1.3","C99D00BD6E5D4A8999B78DE7BC8BA4F8","C99D00BD6E5D4A8999B78DE7BC8BA4F8","561df386-0e58-4104-a578-dd9f311ca3c8","ba640c14-69c5-453e-80b2-29051492c0e0","{""num_scrambled_semantic"":""8"",""num_scrambled_causal"":""4"",""num_scrambled_schematic"":""4"",""participantId"":""C99D00BD6E5D4A8999B78DE7BC8BA4F8"",""assignmentId"":""561df386-0e58-4104-a578-dd9f311ca3c8"",""projectId"":""ba640c14-69c5-453e-80b2-29051492c0e0""}","https://test12345.live/?num_scrambled_semantic=8&num_scrambled_causal=4&num_scrambled_schematic=4&participantId=C99D00BD6E5D4A8999B78DE7BC8BA4F8&assignmentId=561df386-0e58-4104-a578-dd9f311ca3c8&projectId=ba640c14-69c5-453e-80b2-29051492c0e0","C99D00BD6E5D4A8999B78DE7BC8BA4F8-2025-05-14-21-38-12","","967","","images/semantic_sequence/physical_activity_semantic/physical_activity_semantic_6.png","0","",""
"","","","","","image-button-response","100","2752848","0.0-14.0-1.0-2.3","C99D00BD6E5D4A8999B78DE7BC8BA4F8","C99D00BD6E5D4A8999B78DE7BC8BA4F8","561df386-0e58-4104-a578-dd9f311ca3c8","ba640c14-69c5-453e-80b2-29051492c0e0","{""num_scrambled_semantic"":""8"",""num_scrambled_causal"":""4"",""num_scrambled_schematic"":""4"",""participantId"":""C99D00BD6E5D4A8999B78DE7BC8BA4F8"",""assignmentId"":""561df386-0e58-4104-a578-dd9f311ca3c8"",""projectId"":""ba640c14-69c5-453e-80b2-29051492c0e0""}","https://test12345.live/?num_scrambled_semantic=8&num_scrambled_causal=4&num_scrambled_schematic=4&participantId=C99D00BD6E5D4A8999B78DE7BC8BA4F8&assignmentId=561df386-0e58-4104-a578-dd9f311ca3c8&projectId=ba640c14-69c5-453e-80b2-29051492c0e0","C99D00BD6E5D4A8999B78DE7BC8BA4F8-2025-05-14-21-38-12","","null","","[]","null","",""
"","","","","","image-button-response","101","2757483","0.0-14.0-1.0-0.4","C99D00BD6E5D4A8999B78DE7BC8BA4F8","C99D00BD6E5D4A8999B78DE7BC8BA4F8","561df386-0e58-4104-a578-dd9f311ca3c8","ba640c14-69c5-453e-80b2-29051492c0e0","{""num_scrambled_semantic"":""8"",""num_scrambled_causal"":""4"",""num_scrambled_schematic"":""4"",""participantId"":""C99D00BD6E5D4A8999B78DE7BC8BA4F8"",""assignmentId"":""561df386-0e58-4104-a578-dd9f311ca3c8"",""projectId"":""ba640c14-69c5-453e-80b2-29051492c0e0""}","https://test12345.live/?num_scrambled_semantic=8&num_scrambled_causal=4&num_scrambled_schematic=4&participantId=C99D00BD6E5D4A8999B78DE7BC8BA4F8&assignmentId=561df386-0e58-4104-a578-dd9f311ca3c8&projectId=ba640c14-69c5-453e-80b2-29051492c0e0","C99D00BD6E5D4A8999B78DE7BC8BA4F8-2025-05-14-21-38-12","","null","","images/semantic_sequence/physical_activity_semantic/physical_activity_semantic_3.png","null","",""
"","","","","","image-button-response","102","2758934","0.0-14.0-1.0-1.4","C99D00BD6E5D4A8999B78DE7BC8BA4F8","C99D00BD6E5D4A8999B78DE7BC8BA4F8","561df386-0e58-4104-a578-dd9f311ca3c8","ba640c14-69c5-453e-80b2-29051492c0e0","{""num_scrambled_semantic"":""8"",""num_scrambled_causal"":""4"",""num_scrambled_schematic"":""4"",""participantId"":""C99D00BD6E5D4A8999B78DE7BC8BA4F8"",""assignmentId"":""561df386-0e58-4104-a578-dd9f311ca3c8"",""projectId"":""ba640c14-69c5-453e-80b2-29051492c0e0""}","https://test12345.live/?num_scrambled_semantic=8&num_scrambled_causal=4&num_scrambled_schematic=4&participantId=C99D00BD6E5D4A8999B78DE7BC8BA4F8&assignmentId=561df386-0e58-4104-a578-dd9f311ca3c8&projectId=ba640c14-69c5-453e-80b2-29051492c0e0","C99D00BD6E5D4A8999B78DE7BC8BA4F8-2025-05-14-21-38-12","","1448","","images/semantic_sequence/physical_activity_semantic/physical_activity_semantic_3.png","0","",""
"","","","","","image-button-response","103","2760951","0.0-14.0-1.0-2.4","C99D00BD6E5D4A8999B78DE7BC8BA4F8","C99D00BD6E5D4A8999B78DE7BC8BA4F8","561df386-0e58-4104-a578-dd9f311ca3c8","ba640c14-69c5-453e-80b2-29051492c0e0","{""num_scrambled_semantic"":""8"",""num_scrambled_causal"":""4"",""num_scrambled_schematic"":""4"",""participantId"":""C99D00BD6E5D4A8999B78DE7BC8BA4F8"",""assignmentId"":""561df386-0e58-4104-a578-dd9f311ca3c8"",""projectId"":""ba640c14-69c5-453e-80b2-29051492c0e0""}","https://test12345.live/?num_scrambled_semantic=8&num_scrambled_causal=4&num_scrambled_schematic=4&participantId=C99D00BD6E5D4A8999B78DE7BC8BA4F8&assignmentId=561df386-0e58-4104-a578-dd9f311ca3c8&projectId=ba640c14-69c5-453e-80b2-29051492c0e0","C99D00BD6E5D4A8999B78DE7BC8BA4F8-2025-05-14-21-38-12","","null","","[]","null","",""
"","","","","","image-button-response","104","2765802","0.0-14.0-1.0-0.5","C99D00BD6E5D4A8999B78DE7BC8BA4F8","C99D00BD6E5D4A8999B78DE7BC8BA4F8","561df386-0e58-4104-a578-dd9f311ca3c8","ba640c14-69c5-453e-80b2-29051492c0e0","{""num_scrambled_semantic"":""8"",""num_scrambled_causal"":""4"",""num_scrambled_schematic"":""4"",""participantId"":""C99D00BD6E5D4A8999B78DE7BC8BA4F8"",""assignmentId"":""561df386-0e58-4104-a578-dd9f311ca3c8"",""projectId"":""ba640c14-69c5-453e-80b2-29051492c0e0""}","https://test12345.live/?num_scrambled_semantic=8&num_scrambled_causal=4&num_scrambled_schematic=4&participantId=C99D00BD6E5D4A8999B78DE7BC8BA4F8&assignmentId=561df386-0e58-4104-a578-dd9f311ca3c8&projectId=ba640c14-69c5-453e-80b2-29051492c0e0","C99D00BD6E5D4A8999B78DE7BC8BA4F8-2025-05-14-21-38-12","","null","","images/semantic_sequence/physical_activity_semantic/physical_activity_semantic_1.png","null","",""
"","","","","","image-button-response","105","2766385","0.0-14.0-1.0-1.5","C99D00BD6E5D4A8999B78DE7BC8BA4F8","C99D00BD6E5D4A8999B78DE7BC8BA4F8","561df386-0e58-4104-a578-dd9f311ca3c8","ba640c14-69c5-453e-80b2-29051492c0e0","{""num_scrambled_semantic"":""8"",""num_scrambled_causal"":""4"",""num_scrambled_schematic"":""4"",""participantId"":""C99D00BD6E5D4A8999B78DE7BC8BA4F8"",""assignmentId"":""561df386-0e58-4104-a578-dd9f311ca3c8"",""projectId"":""ba640c14-69c5-453e-80b2-29051492c0e0""}","https://test12345.live/?num_scrambled_semantic=8&num_scrambled_causal=4&num_scrambled_schematic=4&participantId=C99D00BD6E5D4A8999B78DE7BC8BA4F8&assignmentId=561df386-0e58-4104-a578-dd9f311ca3c8&projectId=ba640c14-69c5-453e-80b2-29051492c0e0","C99D00BD6E5D4A8999B78DE7BC8BA4F8-2025-05-14-21-38-12","","582","","images/semantic_sequence/physical_activity_semantic/physical_activity_semantic_1.png","0","",""
"","","","","","image-button-response","106","2768396","0.0-14.0-1.0-2.5","C99D00BD6E5D4A8999B78DE7BC8BA4F8","C99D00BD6E5D4A8999B78DE7BC8BA4F8","561df386-0e58-4104-a578-dd9f311ca3c8","ba640c14-69c5-453e-80b2-29051492c0e0","{""num_scrambled_semantic"":""8"",""num_scrambled_causal"":""4"",""num_scrambled_schematic"":""4"",""participantId"":""C99D00BD6E5D4A8999B78DE7BC8BA4F8"",""assignmentId"":""561df386-0e58-4104-a578-dd9f311ca3c8"",""projectId"":""ba640c14-69c5-453e-80b2-29051492c0e0""}","https://test12345.live/?num_scrambled_semantic=8&num_scrambled_causal=4&num_scrambled_schematic=4&participantId=C99D00BD6E5D4A8999B78DE7BC8BA4F8&assignmentId=561df386-0e58-4104-a578-dd9f311ca3c8&projectId=ba640c14-69c5-453e-80b2-29051492c0e0","C99D00BD6E5D4A8999B78DE7BC8BA4F8-2025-05-14-21-38-12","","null","","[]","null","",""
"","","","","","image-button-response","107","2773400","0.0-14.0-1.0-0.6","C99D00BD6E5D4A8999B78DE7BC8BA4F8","C99D00BD6E5D4A8999B78DE7BC8BA4F8","561df386-0e58-4104-a578-dd9f311ca3c8","ba640c14-69c5-453e-80b2-29051492c0e0","{""num_scrambled_semantic"":""8"",""num_scrambled_causal"":""4"",""num_scrambled_schematic"":""4"",""participantId"":""C99D00BD6E5D4A8999B78DE7BC8BA4F8"",""assignmentId"":""561df386-0e58-4104-a578-dd9f311ca3c8"",""projectId"":""ba640c14-69c5-453e-80b2-29051492c0e0""}","https://test12345.live/?num_scrambled_semantic=8&num_scrambled_causal=4&num_scrambled_schematic=4&participantId=C99D00BD6E5D4A8999B78DE7BC8BA4F8&assignmentId=561df386-0e58-4104-a578-dd9f311ca3c8&projectId=ba640c14-69c5-453e-80b2-29051492c0e0","C99D00BD6E5D4A8999B78DE7BC8BA4F8-2025-05-14-21-38-12","","null","","images/semantic_sequence/physical_activity_semantic/physical_activity_semantic_ten.png","null","",""
"","","","","","image-button-response","108","2775636","0.0-14.0-1.0-1.6","C99D00BD6E5D4A8999B78DE7BC8BA4F8","C99D00BD6E5D4A8999B78DE7BC8BA4F8","561df386-0e58-4104-a578-dd9f311ca3c8","ba640c14-69c5-453e-80b2-29051492c0e0","{""num_scrambled_semantic"":""8"",""num_scrambled_causal"":""4"",""num_scrambled_schematic"":""4"",""participantId"":""C99D00BD6E5D4A8999B78DE7BC8BA4F8"",""assignmentId"":""561df386-0e58-4104-a578-dd9f311ca3c8"",""projectId"":""ba640c14-69c5-453e-80b2-29051492c0e0""}","https://test12345.live/?num_scrambled_semantic=8&num_scrambled_causal=4&num_scrambled_schematic=4&participantId=C99D00BD6E5D4A8999B78DE7BC8BA4F8&assignmentId=561df386-0e58-4104-a578-dd9f311ca3c8&projectId=ba640c14-69c5-453e-80b2-29051492c0e0","C99D00BD6E5D4A8999B78DE7BC8BA4F8-2025-05-14-21-38-12","","2235","","images/semantic_sequence/physical_activity_semantic/physical_activity_semantic_ten.png","0","",""
"","","","","","image-button-response","109","2777529","0.0-14.0-1.0-2.6","C99D00BD6E5D4A8999B78DE7BC8BA4F8","C99D00BD6E5D4A8999B78DE7BC8BA4F8","561df386-0e58-4104-a578-dd9f311ca3c8","ba640c14-69c5-453e-80b2-29051492c0e0","{""num_scrambled_semantic"":""8"",""num_scrambled_causal"":""4"",""num_scrambled_schematic"":""4"",""participantId"":""C99D00BD6E5D4A8999B78DE7BC8BA4F8"",""assignmentId"":""561df386-0e58-4104-a578-dd9f311ca3c8"",""projectId"":""ba640c14-69c5-453e-80b2-29051492c0e0""}","https://test12345.live/?num_scrambled_semantic=8&num_scrambled_causal=4&num_scrambled_schematic=4&participantId=C99D00BD6E5D4A8999B78DE7BC8BA4F8&assignmentId=561df386-0e58-4104-a578-dd9f311ca3c8&projectId=ba640c14-69c5-453e-80b2-29051492c0e0","C99D00BD6E5D4A8999B78DE7BC8BA4F8-2025-05-14-21-38-12","","null","","[]","null","",""
"","","","","","image-button-response","110","2782074","0.0-14.0-1.0-0.7","C99D00BD6E5D4A8999B78DE7BC8BA4F8","C99D00BD6E5D4A8999B78DE7BC8BA4F8","561df386-0e58-4104-a578-dd9f311ca3c8","ba640c14-69c5-453e-80b2-29051492c0e0","{""num_scrambled_semantic"":""8"",""num_scrambled_causal"":""4"",""num_scrambled_schematic"":""4"",""participantId"":""C99D00BD6E5D4A8999B78DE7BC8BA4F8"",""assignmentId"":""561df386-0e58-4104-a578-dd9f311ca3c8"",""projectId"":""ba640c14-69c5-453e-80b2-29051492c0e0""}","https://test12345.live/?num_scrambled_semantic=8&num_scrambled_causal=4&num_scrambled_schematic=4&participantId=C99D00BD6E5D4A8999B78DE7BC8BA4F8&assignmentId=561df386-0e58-4104-a578-dd9f311ca3c8&projectId=ba640c14-69c5-453e-80b2-29051492c0e0","C99D00BD6E5D4A8999B78DE7BC8BA4F8-2025-05-14-21-38-12","","null","","images/semantic_sequence/physical_activity_semantic/physical_activity_semantic_8.png","null","",""
"","","","","","image-button-response","111","2783554","0.0-14.0-1.0-1.7","C99D00BD6E5D4A8999B78DE7BC8BA4F8","C99D00BD6E5D4A8999B78DE7BC8BA4F8","561df386-0e58-4104-a578-dd9f311ca3c8","ba640c14-69c5-453e-80b2-29051492c0e0","{""num_scrambled_semantic"":""8"",""num_scrambled_causal"":""4"",""num_scrambled_schematic"":""4"",""participantId"":""C99D00BD6E5D4A8999B78DE7BC8BA4F8"",""assignmentId"":""561df386-0e58-4104-a578-dd9f311ca3c8"",""projectId"":""ba640c14-69c5-453e-80b2-29051492c0e0""}","https://test12345.live/?num_scrambled_semantic=8&num_scrambled_causal=4&num_scrambled_schematic=4&participantId=C99D00BD6E5D4A8999B78DE7BC8BA4F8&assignmentId=561df386-0e58-4104-a578-dd9f311ca3c8&projectId=ba640c14-69c5-453e-80b2-29051492c0e0","C99D00BD6E5D4A8999B78DE7BC8BA4F8-2025-05-14-21-38-12","","1479","","images/semantic_sequence/physical_activity_semantic/physical_activity_semantic_8.png","0","",""
"","","","","","image-button-response","112","2785370","0.0-14.0-1.0-2.7","C99D00BD6E5D4A8999B78DE7BC8BA4F8","C99D00BD6E5D4A8999B78DE7BC8BA4F8","561df386-0e58-4104-a578-dd9f311ca3c8","ba640c14-69c5-453e-80b2-29051492c0e0","{""num_scrambled_semantic"":""8"",""num_scrambled_causal"":""4"",""num_scrambled_schematic"":""4"",""participantId"":""C99D00BD6E5D4A8999B78DE7BC8BA4F8"",""assignmentId"":""561df386-0e58-4104-a578-dd9f311ca3c8"",""projectId"":""ba640c14-69c5-453e-80b2-29051492c0e0""}","https://test12345.live/?num_scrambled_semantic=8&num_scrambled_causal=4&num_scrambled_schematic=4&participantId=C99D00BD6E5D4A8999B78DE7BC8BA4F8&assignmentId=561df386-0e58-4104-a578-dd9f311ca3c8&projectId=ba640c14-69c5-453e-80b2-29051492c0e0","C99D00BD6E5D4A8999B78DE7BC8BA4F8-2025-05-14-21-38-12","","null","","[]","null","",""
"","","","","","image-button-response","113","2789913","0.0-14.0-1.0-0.8","C99D00BD6E5D4A8999B78DE7BC8BA4F8","C99D00BD6E5D4A8999B78DE7BC8BA4F8","561df386-0e58-4104-a578-dd9f311ca3c8","ba640c14-69c5-453e-80b2-29051492c0e0","{""num_scrambled_semantic"":""8"",""num_scrambled_causal"":""4"",""num_scrambled_schematic"":""4"",""participantId"":""C99D00BD6E5D4A8999B78DE7BC8BA4F8"",""assignmentId"":""561df386-0e58-4104-a578-dd9f311ca3c8"",""projectId"":""ba640c14-69c5-453e-80b2-29051492c0e0""}","https://test12345.live/?num_scrambled_semantic=8&num_scrambled_causal=4&num_scrambled_schematic=4&participantId=C99D00BD6E5D4A8999B78DE7BC8BA4F8&assignmentId=561df386-0e58-4104-a578-dd9f311ca3c8&projectId=ba640c14-69c5-453e-80b2-29051492c0e0","C99D00BD6E5D4A8999B78DE7BC8BA4F8-2025-05-14-21-38-12","","null","","images/semantic_sequence/physical_activity_semantic/physical_activity_semantic_5.png","null","",""
