"success","timeout","failed_images","failed_audio","failed_video","trial_type","trial_index","time_elapsed","internal_node_id","subject","subject_id","study_id","session_id","urlvar","current_url","audio_id","view_history","rt","device_id","stimulus","response","estimated_stimulus_onset","seq_name"
"true","false","[]","[]","[]","preload","0","15949","0.0-0.0","CA1F89C14CC54B08ACDD467F095168BC","CA1F89C14CC54B08ACDD467F095168BC","366e7396-6810-4380-87c4-05e2892ab2cd","a6b6d205-fa41-4c5b-a7a5-7fc4b51b0cea","{""num_scrambled_semantic"":""8"",""num_scrambled_causal"":""4"",""num_scrambled_schematic"":""4"",""participantId"":""CA1F89C14CC54B08ACDD467F095168BC"",""assignmentId"":""366e7396-6810-4380-87c4-05e2892ab2cd"",""projectId"":""a6b6d205-fa41-4c5b-a7a5-7fc4b51b0cea""}","https://test12345.live/?num_scrambled_semantic=8&num_scrambled_causal=4&num_scrambled_schematic=4&participantId=CA1F89C14CC54B08ACDD467F095168BC&assignmentId=366e7396-6810-4380-87c4-05e2892ab2cd&projectId=a6b6d205-fa41-4c5b-a7a5-7fc4b51b0cea","CA1F89C14CC54B08ACDD467F095168BC-2025-05-27-17-50-32","","","","","","",""
"","","","","","instructions","1","27579","0.0-1.0","CA1F89C14CC54B08ACDD467F095168BC","CA1F89C14CC54B08ACDD467F095168BC","366e7396-6810-4380-87c4-05e2892ab2cd","a6b6d205-fa41-4c5b-a7a5-7fc4b51b0cea","{""num_scrambled_semantic"":""8"",""num_scrambled_causal"":""4"",""num_scrambled_schematic"":""4"",""participantId"":""CA1F89C14CC54B08ACDD467F095168BC"",""assignmentId"":""366e7396-6810-4380-87c4-05e2892ab2cd"",""projectId"":""a6b6d205-fa41-4c5b-a7a5-7fc4b51b0cea""}","https://test12345.live/?num_scrambled_semantic=8&num_scrambled_causal=4&num_scrambled_schematic=4&participantId=CA1F89C14CC54B08ACDD467F095168BC&assignmentId=366e7396-6810-4380-87c4-05e2892ab2cd&projectId=a6b6d205-fa41-4c5b-a7a5-7fc4b51b0cea","CA1F89C14CC54B08ACDD467F095168BC-2025-05-27-17-50-32","[{""page_index"":0,""viewing_time"":11628}]","11629","","","","",""
"","","","","","instructions","2","38107","0.0-2.0","CA1F89C14CC54B08ACDD467F095168BC","CA1F89C14CC54B08ACDD467F095168BC","366e7396-6810-4380-87c4-05e2892ab2cd","a6b6d205-fa41-4c5b-a7a5-7fc4b51b0cea","{""num_scrambled_semantic"":""8"",""num_scrambled_causal"":""4"",""num_scrambled_schematic"":""4"",""participantId"":""CA1F89C14CC54B08ACDD467F095168BC"",""assignmentId"":""366e7396-6810-4380-87c4-05e2892ab2cd"",""projectId"":""a6b6d205-fa41-4c5b-a7a5-7fc4b51b0cea""}","https://test12345.live/?num_scrambled_semantic=8&num_scrambled_causal=4&num_scrambled_schematic=4&participantId=CA1F89C14CC54B08ACDD467F095168BC&assignmentId=366e7396-6810-4380-87c4-05e2892ab2cd&projectId=a6b6d205-fa41-4c5b-a7a5-7fc4b51b0cea","CA1F89C14CC54B08ACDD467F095168BC-2025-05-27-17-50-32","[{""page_index"":0,""viewing_time"":10526}]","10526","","","","",""
"true","","","","","fullscreen","3","40959","0.0-3.0","CA1F89C14CC54B08ACDD467F095168BC","CA1F89C14CC54B08ACDD467F095168BC","366e7396-6810-4380-87c4-05e2892ab2cd","a6b6d205-fa41-4c5b-a7a5-7fc4b51b0cea","{""num_scrambled_semantic"":""8"",""num_scrambled_causal"":""4"",""num_scrambled_schematic"":""4"",""participantId"":""CA1F89C14CC54B08ACDD467F095168BC"",""assignmentId"":""366e7396-6810-4380-87c4-05e2892ab2cd"",""projectId"":""a6b6d205-fa41-4c5b-a7a5-7fc4b51b0cea""}","https://test12345.live/?num_scrambled_semantic=8&num_scrambled_causal=4&num_scrambled_schematic=4&participantId=CA1F89C14CC54B08ACDD467F095168BC&assignmentId=366e7396-6810-4380-87c4-05e2892ab2cd&projectId=a6b6d205-fa41-4c5b-a7a5-7fc4b51b0cea","CA1F89C14CC54B08ACDD467F095168BC-2025-05-27-17-50-32","","1846","","","","",""
"","","","","","initialize-microphone","4","54908","0.0-4.0-0.0","CA1F89C14CC54B08ACDD467F095168BC","CA1F89C14CC54B08ACDD467F095168BC","366e7396-6810-4380-87c4-05e2892ab2cd","a6b6d205-fa41-4c5b-a7a5-7fc4b51b0cea","{""num_scrambled_semantic"":""8"",""num_scrambled_causal"":""4"",""num_scrambled_schematic"":""4"",""participantId"":""CA1F89C14CC54B08ACDD467F095168BC"",""assignmentId"":""366e7396-6810-4380-87c4-05e2892ab2cd"",""projectId"":""a6b6d205-fa41-4c5b-a7a5-7fc4b51b0cea""}","https://test12345.live/?num_scrambled_semantic=8&num_scrambled_causal=4&num_scrambled_schematic=4&participantId=CA1F89C14CC54B08ACDD467F095168BC&assignmentId=366e7396-6810-4380-87c4-05e2892ab2cd&projectId=a6b6d205-fa41-4c5b-a7a5-7fc4b51b0cea","CA1F89C14CC54B08ACDD467F095168BC-2025-05-27-17-50-32","","","f155b9e6770e00a05c265f13eacfd966094472002f8264289008314e5df7f6b7","","","",""
"","","","","","html-audio-response","5","80212","0.0-4.0-1.0","CA1F89C14CC54B08ACDD467F095168BC","CA1F89C14CC54B08ACDD467F095168BC","366e7396-6810-4380-87c4-05e2892ab2cd","a6b6d205-fa41-4c5b-a7a5-7fc4b51b0cea","{""num_scrambled_semantic"":""8"",""num_scrambled_causal"":""4"",""num_scrambled_schematic"":""4"",""participantId"":""CA1F89C14CC54B08ACDD467F095168BC"",""assignmentId"":""366e7396-6810-4380-87c4-05e2892ab2cd"",""projectId"":""a6b6d205-fa41-4c5b-a7a5-7fc4b51b0cea""}","https://test12345.live/?num_scrambled_semantic=8&num_scrambled_causal=4&num_scrambled_schematic=4&participantId=CA1F89C14CC54B08ACDD467F095168BC&assignmentId=366e7396-6810-4380-87c4-05e2892ab2cd&projectId=a6b6d205-fa41-4c5b-a7a5-7fc4b51b0cea","CA1F89C14CC54B08ACDD467F095168BC-2025-05-27-17-50-32","","16225","","<span style=""color: red; font-size: 24px""> NOW RECORDING</span>
        <p>Please test Microphone</p>","","4",""
"","","","","","html-button-response","6","81581","0.0-4.0-2.0","CA1F89C14CC54B08ACDD467F095168BC","CA1F89C14CC54B08ACDD467F095168BC","366e7396-6810-4380-87c4-05e2892ab2cd","a6b6d205-fa41-4c5b-a7a5-7fc4b51b0cea","{""num_scrambled_semantic"":""8"",""num_scrambled_causal"":""4"",""num_scrambled_schematic"":""4"",""participantId"":""CA1F89C14CC54B08ACDD467F095168BC"",""assignmentId"":""366e7396-6810-4380-87c4-05e2892ab2cd"",""projectId"":""a6b6d205-fa41-4c5b-a7a5-7fc4b51b0cea""}","https://test12345.live/?num_scrambled_semantic=8&num_scrambled_causal=4&num_scrambled_schematic=4&participantId=CA1F89C14CC54B08ACDD467F095168BC&assignmentId=366e7396-6810-4380-87c4-05e2892ab2cd&projectId=a6b6d205-fa41-4c5b-a7a5-7fc4b51b0cea","CA1F89C14CC54B08ACDD467F095168BC-2025-05-27-17-50-32","","1367","","<p style=""font-size:48px; color:red;"">Is Microphone OK?</p>","1","",""
"","","","","","instructions","7","90949","0.0-5.0","CA1F89C14CC54B08ACDD467F095168BC","CA1F89C14CC54B08ACDD467F095168BC","366e7396-6810-4380-87c4-05e2892ab2cd","a6b6d205-fa41-4c5b-a7a5-7fc4b51b0cea","{""num_scrambled_semantic"":""8"",""num_scrambled_causal"":""4"",""num_scrambled_schematic"":""4"",""participantId"":""CA1F89C14CC54B08ACDD467F095168BC"",""assignmentId"":""366e7396-6810-4380-87c4-05e2892ab2cd"",""projectId"":""a6b6d205-fa41-4c5b-a7a5-7fc4b51b0cea""}","https://test12345.live/?num_scrambled_semantic=8&num_scrambled_causal=4&num_scrambled_schematic=4&participantId=CA1F89C14CC54B08ACDD467F095168BC&assignmentId=366e7396-6810-4380-87c4-05e2892ab2cd&projectId=a6b6d205-fa41-4c5b-a7a5-7fc4b51b0cea","CA1F89C14CC54B08ACDD467F095168BC-2025-05-27-17-50-32","[{""page_index"":0,""viewing_time"":2637},{""page_index"":1,""viewing_time"":6729}]","9366","","","","",""
"","","","","","image-button-response","8","96957","0.0-6.0-0.0","CA1F89C14CC54B08ACDD467F095168BC","CA1F89C14CC54B08ACDD467F095168BC","366e7396-6810-4380-87c4-05e2892ab2cd","a6b6d205-fa41-4c5b-a7a5-7fc4b51b0cea","{""num_scrambled_semantic"":""8"",""num_scrambled_causal"":""4"",""num_scrambled_schematic"":""4"",""participantId"":""CA1F89C14CC54B08ACDD467F095168BC"",""assignmentId"":""366e7396-6810-4380-87c4-05e2892ab2cd"",""projectId"":""a6b6d205-fa41-4c5b-a7a5-7fc4b51b0cea""}","https://test12345.live/?num_scrambled_semantic=8&num_scrambled_causal=4&num_scrambled_schematic=4&participantId=CA1F89C14CC54B08ACDD467F095168BC&assignmentId=366e7396-6810-4380-87c4-05e2892ab2cd&projectId=a6b6d205-fa41-4c5b-a7a5-7fc4b51b0cea","CA1F89C14CC54B08ACDD467F095168BC-2025-05-27-17-50-32","","null","","images/instructions/movie_0.png","null","",""
"","","","","","image-button-response","9","101462","0.0-6.0-1.0-0.0","CA1F89C14CC54B08ACDD467F095168BC","CA1F89C14CC54B08ACDD467F095168BC","366e7396-6810-4380-87c4-05e2892ab2cd","a6b6d205-fa41-4c5b-a7a5-7fc4b51b0cea","{""num_scrambled_semantic"":""8"",""num_scrambled_causal"":""4"",""num_scrambled_schematic"":""4"",""participantId"":""CA1F89C14CC54B08ACDD467F095168BC"",""assignmentId"":""366e7396-6810-4380-87c4-05e2892ab2cd"",""projectId"":""a6b6d205-fa41-4c5b-a7a5-7fc4b51b0cea""}","https://test12345.live/?num_scrambled_semantic=8&num_scrambled_causal=4&num_scrambled_schematic=4&participantId=CA1F89C14CC54B08ACDD467F095168BC&assignmentId=366e7396-6810-4380-87c4-05e2892ab2cd&projectId=a6b6d205-fa41-4c5b-a7a5-7fc4b51b0cea","CA1F89C14CC54B08ACDD467F095168BC-2025-05-27-17-50-32","","null","","images/instructions/movie_1.png","null","",""
"","","","","","image-button-response","10","104516","0.0-6.0-1.0-1.0","CA1F89C14CC54B08ACDD467F095168BC","CA1F89C14CC54B08ACDD467F095168BC","366e7396-6810-4380-87c4-05e2892ab2cd","a6b6d205-fa41-4c5b-a7a5-7fc4b51b0cea","{""num_scrambled_semantic"":""8"",""num_scrambled_causal"":""4"",""num_scrambled_schematic"":""4"",""participantId"":""CA1F89C14CC54B08ACDD467F095168BC"",""assignmentId"":""366e7396-6810-4380-87c4-05e2892ab2cd"",""projectId"":""a6b6d205-fa41-4c5b-a7a5-7fc4b51b0cea""}","https://test12345.live/?num_scrambled_semantic=8&num_scrambled_causal=4&num_scrambled_schematic=4&participantId=CA1F89C14CC54B08ACDD467F095168BC&assignmentId=366e7396-6810-4380-87c4-05e2892ab2cd&projectId=a6b6d205-fa41-4c5b-a7a5-7fc4b51b0cea","CA1F89C14CC54B08ACDD467F095168BC-2025-05-27-17-50-32","","3052","","images/instructions/movie_1.png","0","",""
"","","","","","image-button-response","11","106319","0.0-6.0-1.0-2.0","CA1F89C14CC54B08ACDD467F095168BC","CA1F89C14CC54B08ACDD467F095168BC","366e7396-6810-4380-87c4-05e2892ab2cd","a6b6d205-fa41-4c5b-a7a5-7fc4b51b0cea","{""num_scrambled_semantic"":""8"",""num_scrambled_causal"":""4"",""num_scrambled_schematic"":""4"",""participantId"":""CA1F89C14CC54B08ACDD467F095168BC"",""assignmentId"":""366e7396-6810-4380-87c4-05e2892ab2cd"",""projectId"":""a6b6d205-fa41-4c5b-a7a5-7fc4b51b0cea""}","https://test12345.live/?num_scrambled_semantic=8&num_scrambled_causal=4&num_scrambled_schematic=4&participantId=CA1F89C14CC54B08ACDD467F095168BC&assignmentId=366e7396-6810-4380-87c4-05e2892ab2cd&projectId=a6b6d205-fa41-4c5b-a7a5-7fc4b51b0cea","CA1F89C14CC54B08ACDD467F095168BC-2025-05-27-17-50-32","","null","","[]","null","",""
"","","","","","image-button-response","12","110822","0.0-6.0-1.0-0.1","CA1F89C14CC54B08ACDD467F095168BC","CA1F89C14CC54B08ACDD467F095168BC","366e7396-6810-4380-87c4-05e2892ab2cd","a6b6d205-fa41-4c5b-a7a5-7fc4b51b0cea","{""num_scrambled_semantic"":""8"",""num_scrambled_causal"":""4"",""num_scrambled_schematic"":""4"",""participantId"":""CA1F89C14CC54B08ACDD467F095168BC"",""assignmentId"":""366e7396-6810-4380-87c4-05e2892ab2cd"",""projectId"":""a6b6d205-fa41-4c5b-a7a5-7fc4b51b0cea""}","https://test12345.live/?num_scrambled_semantic=8&num_scrambled_causal=4&num_scrambled_schematic=4&participantId=CA1F89C14CC54B08ACDD467F095168BC&assignmentId=366e7396-6810-4380-87c4-05e2892ab2cd&projectId=a6b6d205-fa41-4c5b-a7a5-7fc4b51b0cea","CA1F89C14CC54B08ACDD467F095168BC-2025-05-27-17-50-32","","null","","images/instructions/movie_2.png","null","",""
"","","","","","image-button-response","13","114827","0.0-6.0-1.0-1.1","CA1F89C14CC54B08ACDD467F095168BC","CA1F89C14CC54B08ACDD467F095168BC","366e7396-6810-4380-87c4-05e2892ab2cd","a6b6d205-fa41-4c5b-a7a5-7fc4b51b0cea","{""num_scrambled_semantic"":""8"",""num_scrambled_causal"":""4"",""num_scrambled_schematic"":""4"",""participantId"":""CA1F89C14CC54B08ACDD467F095168BC"",""assignmentId"":""366e7396-6810-4380-87c4-05e2892ab2cd"",""projectId"":""a6b6d205-fa41-4c5b-a7a5-7fc4b51b0cea""}","https://test12345.live/?num_scrambled_semantic=8&num_scrambled_causal=4&num_scrambled_schematic=4&participantId=CA1F89C14CC54B08ACDD467F095168BC&assignmentId=366e7396-6810-4380-87c4-05e2892ab2cd&projectId=a6b6d205-fa41-4c5b-a7a5-7fc4b51b0cea","CA1F89C14CC54B08ACDD467F095168BC-2025-05-27-17-50-32","","null","","images/instructions/movie_2.png","null","",""
"","","","","","image-button-response","14","116632","0.0-6.0-1.0-2.1","CA1F89C14CC54B08ACDD467F095168BC","CA1F89C14CC54B08ACDD467F095168BC","366e7396-6810-4380-87c4-05e2892ab2cd","a6b6d205-fa41-4c5b-a7a5-7fc4b51b0cea","{""num_scrambled_semantic"":""8"",""num_scrambled_causal"":""4"",""num_scrambled_schematic"":""4"",""participantId"":""CA1F89C14CC54B08ACDD467F095168BC"",""assignmentId"":""366e7396-6810-4380-87c4-05e2892ab2cd"",""projectId"":""a6b6d205-fa41-4c5b-a7a5-7fc4b51b0cea""}","https://test12345.live/?num_scrambled_semantic=8&num_scrambled_causal=4&num_scrambled_schematic=4&participantId=CA1F89C14CC54B08ACDD467F095168BC&assignmentId=366e7396-6810-4380-87c4-05e2892ab2cd&projectId=a6b6d205-fa41-4c5b-a7a5-7fc4b51b0cea","CA1F89C14CC54B08ACDD467F095168BC-2025-05-27-17-50-32","","null","","[]","null","",""
"","","","","","image-button-response","15","121138","0.0-6.0-1.0-0.2","CA1F89C14CC54B08ACDD467F095168BC","CA1F89C14CC54B08ACDD467F095168BC","366e7396-6810-4380-87c4-05e2892ab2cd","a6b6d205-fa41-4c5b-a7a5-7fc4b51b0cea","{""num_scrambled_semantic"":""8"",""num_scrambled_causal"":""4"",""num_scrambled_schematic"":""4"",""participantId"":""CA1F89C14CC54B08ACDD467F095168BC"",""assignmentId"":""366e7396-6810-4380-87c4-05e2892ab2cd"",""projectId"":""a6b6d205-fa41-4c5b-a7a5-7fc4b51b0cea""}","https://test12345.live/?num_scrambled_semantic=8&num_scrambled_causal=4&num_scrambled_schematic=4&participantId=CA1F89C14CC54B08ACDD467F095168BC&assignmentId=366e7396-6810-4380-87c4-05e2892ab2cd&projectId=a6b6d205-fa41-4c5b-a7a5-7fc4b51b0cea","CA1F89C14CC54B08ACDD467F095168BC-2025-05-27-17-50-32","","null","","images/instructions/movie_3.png","null","",""
"","","","","","image-button-response","16","125145","0.0-6.0-1.0-1.2","CA1F89C14CC54B08ACDD467F095168BC","CA1F89C14CC54B08ACDD467F095168BC","366e7396-6810-4380-87c4-05e2892ab2cd","a6b6d205-fa41-4c5b-a7a5-7fc4b51b0cea","{""num_scrambled_semantic"":""8"",""num_scrambled_causal"":""4"",""num_scrambled_schematic"":""4"",""participantId"":""CA1F89C14CC54B08ACDD467F095168BC"",""assignmentId"":""366e7396-6810-4380-87c4-05e2892ab2cd"",""projectId"":""a6b6d205-fa41-4c5b-a7a5-7fc4b51b0cea""}","https://test12345.live/?num_scrambled_semantic=8&num_scrambled_causal=4&num_scrambled_schematic=4&participantId=CA1F89C14CC54B08ACDD467F095168BC&assignmentId=366e7396-6810-4380-87c4-05e2892ab2cd&projectId=a6b6d205-fa41-4c5b-a7a5-7fc4b51b0cea","CA1F89C14CC54B08ACDD467F095168BC-2025-05-27-17-50-32","","null","","images/instructions/movie_3.png","null","",""
"","","","","","image-button-response","17","126950","0.0-6.0-1.0-2.2","CA1F89C14CC54B08ACDD467F095168BC","CA1F89C14CC54B08ACDD467F095168BC","366e7396-6810-4380-87c4-05e2892ab2cd","a6b6d205-fa41-4c5b-a7a5-7fc4b51b0cea","{""num_scrambled_semantic"":""8"",""num_scrambled_causal"":""4"",""num_scrambled_schematic"":""4"",""participantId"":""CA1F89C14CC54B08ACDD467F095168BC"",""assignmentId"":""366e7396-6810-4380-87c4-05e2892ab2cd"",""projectId"":""a6b6d205-fa41-4c5b-a7a5-7fc4b51b0cea""}","https://test12345.live/?num_scrambled_semantic=8&num_scrambled_causal=4&num_scrambled_schematic=4&participantId=CA1F89C14CC54B08ACDD467F095168BC&assignmentId=366e7396-6810-4380-87c4-05e2892ab2cd&projectId=a6b6d205-fa41-4c5b-a7a5-7fc4b51b0cea","CA1F89C14CC54B08ACDD467F095168BC-2025-05-27-17-50-32","","null","","[]","null","",""
"","","","","","image-button-response","18","131453","0.0-6.0-1.0-0.3","CA1F89C14CC54B08ACDD467F095168BC","CA1F89C14CC54B08ACDD467F095168BC","366e7396-6810-4380-87c4-05e2892ab2cd","a6b6d205-fa41-4c5b-a7a5-7fc4b51b0cea","{""num_scrambled_semantic"":""8"",""num_scrambled_causal"":""4"",""num_scrambled_schematic"":""4"",""participantId"":""CA1F89C14CC54B08ACDD467F095168BC"",""assignmentId"":""366e7396-6810-4380-87c4-05e2892ab2cd"",""projectId"":""a6b6d205-fa41-4c5b-a7a5-7fc4b51b0cea""}","https://test12345.live/?num_scrambled_semantic=8&num_scrambled_causal=4&num_scrambled_schematic=4&participantId=CA1F89C14CC54B08ACDD467F095168BC&assignmentId=366e7396-6810-4380-87c4-05e2892ab2cd&projectId=a6b6d205-fa41-4c5b-a7a5-7fc4b51b0cea","CA1F89C14CC54B08ACDD467F095168BC-2025-05-27-17-50-32","","null","","images/instructions/movie_4.png","null","",""
"","","","","","image-button-response","19","132006","0.0-6.0-1.0-1.3","CA1F89C14CC54B08ACDD467F095168BC","CA1F89C14CC54B08ACDD467F095168BC","366e7396-6810-4380-87c4-05e2892ab2cd","a6b6d205-fa41-4c5b-a7a5-7fc4b51b0cea","{""num_scrambled_semantic"":""8"",""num_scrambled_causal"":""4"",""num_scrambled_schematic"":""4"",""participantId"":""CA1F89C14CC54B08ACDD467F095168BC"",""assignmentId"":""366e7396-6810-4380-87c4-05e2892ab2cd"",""projectId"":""a6b6d205-fa41-4c5b-a7a5-7fc4b51b0cea""}","https://test12345.live/?num_scrambled_semantic=8&num_scrambled_causal=4&num_scrambled_schematic=4&participantId=CA1F89C14CC54B08ACDD467F095168BC&assignmentId=366e7396-6810-4380-87c4-05e2892ab2cd&projectId=a6b6d205-fa41-4c5b-a7a5-7fc4b51b0cea","CA1F89C14CC54B08ACDD467F095168BC-2025-05-27-17-50-32","","551","","images/instructions/movie_4.png","0","",""
"","","","","","image-button-response","20","133812","0.0-6.0-1.0-2.3","CA1F89C14CC54B08ACDD467F095168BC","CA1F89C14CC54B08ACDD467F095168BC","366e7396-6810-4380-87c4-05e2892ab2cd","a6b6d205-fa41-4c5b-a7a5-7fc4b51b0cea","{""num_scrambled_semantic"":""8"",""num_scrambled_causal"":""4"",""num_scrambled_schematic"":""4"",""participantId"":""CA1F89C14CC54B08ACDD467F095168BC"",""assignmentId"":""366e7396-6810-4380-87c4-05e2892ab2cd"",""projectId"":""a6b6d205-fa41-4c5b-a7a5-7fc4b51b0cea""}","https://test12345.live/?num_scrambled_semantic=8&num_scrambled_causal=4&num_scrambled_schematic=4&participantId=CA1F89C14CC54B08ACDD467F095168BC&assignmentId=366e7396-6810-4380-87c4-05e2892ab2cd&projectId=a6b6d205-fa41-4c5b-a7a5-7fc4b51b0cea","CA1F89C14CC54B08ACDD467F095168BC-2025-05-27-17-50-32","","null","","[]","null","",""
"","","","","","instructions","21","143430","0.0-7.0","CA1F89C14CC54B08ACDD467F095168BC","CA1F89C14CC54B08ACDD467F095168BC","366e7396-6810-4380-87c4-05e2892ab2cd","a6b6d205-fa41-4c5b-a7a5-7fc4b51b0cea","{""num_scrambled_semantic"":""8"",""num_scrambled_causal"":""4"",""num_scrambled_schematic"":""4"",""participantId"":""CA1F89C14CC54B08ACDD467F095168BC"",""assignmentId"":""366e7396-6810-4380-87c4-05e2892ab2cd"",""projectId"":""a6b6d205-fa41-4c5b-a7a5-7fc4b51b0cea""}","https://test12345.live/?num_scrambled_semantic=8&num_scrambled_causal=4&num_scrambled_schematic=4&participantId=CA1F89C14CC54B08ACDD467F095168BC&assignmentId=366e7396-6810-4380-87c4-05e2892ab2cd&projectId=a6b6d205-fa41-4c5b-a7a5-7fc4b51b0cea","CA1F89C14CC54B08ACDD467F095168BC-2025-05-27-17-50-32","[{""page_index"":0,""viewing_time"":8225},{""page_index"":1,""viewing_time"":1392}]","9617","","","","",""
"","","","","","html-audio-response","22","167168","0.0-8.0","CA1F89C14CC54B08ACDD467F095168BC","CA1F89C14CC54B08ACDD467F095168BC","366e7396-6810-4380-87c4-05e2892ab2cd","a6b6d205-fa41-4c5b-a7a5-7fc4b51b0cea","{""num_scrambled_semantic"":""8"",""num_scrambled_causal"":""4"",""num_scrambled_schematic"":""4"",""participantId"":""CA1F89C14CC54B08ACDD467F095168BC"",""assignmentId"":""366e7396-6810-4380-87c4-05e2892ab2cd"",""projectId"":""a6b6d205-fa41-4c5b-a7a5-7fc4b51b0cea""}","https://test12345.live/?num_scrambled_semantic=8&num_scrambled_causal=4&num_scrambled_schematic=4&participantId=CA1F89C14CC54B08ACDD467F095168BC&assignmentId=366e7396-6810-4380-87c4-05e2892ab2cd&projectId=a6b6d205-fa41-4c5b-a7a5-7fc4b51b0cea","CA1F89C14CC54B08ACDD467F095168BC-2025-05-27-17-50-32","","12878","","[""<span style=\""color: red; font-size: 24px\""> NOW RECORDING</span><p>Please say out loud all the images you saw in the exact order you saw them. Try to recall as many images as you can, but remember: getting the order right is more important than the number of images you recall.</p>""]","","2",""
"","","","","","instructions","23","178607","0.0-9.0","CA1F89C14CC54B08ACDD467F095168BC","CA1F89C14CC54B08ACDD467F095168BC","366e7396-6810-4380-87c4-05e2892ab2cd","a6b6d205-fa41-4c5b-a7a5-7fc4b51b0cea","{""num_scrambled_semantic"":""8"",""num_scrambled_causal"":""4"",""num_scrambled_schematic"":""4"",""participantId"":""CA1F89C14CC54B08ACDD467F095168BC"",""assignmentId"":""366e7396-6810-4380-87c4-05e2892ab2cd"",""projectId"":""a6b6d205-fa41-4c5b-a7a5-7fc4b51b0cea""}","https://test12345.live/?num_scrambled_semantic=8&num_scrambled_causal=4&num_scrambled_schematic=4&participantId=CA1F89C14CC54B08ACDD467F095168BC&assignmentId=366e7396-6810-4380-87c4-05e2892ab2cd&projectId=a6b6d205-fa41-4c5b-a7a5-7fc4b51b0cea","CA1F89C14CC54B08ACDD467F095168BC-2025-05-27-17-50-32","[{""page_index"":0,""viewing_time"":11428}]","11428","","","","",""
"","","","","","image-button-response","24","184614","0.0-10.0-0.0","CA1F89C14CC54B08ACDD467F095168BC","CA1F89C14CC54B08ACDD467F095168BC","366e7396-6810-4380-87c4-05e2892ab2cd","a6b6d205-fa41-4c5b-a7a5-7fc4b51b0cea","{""num_scrambled_semantic"":""8"",""num_scrambled_causal"":""4"",""num_scrambled_schematic"":""4"",""participantId"":""CA1F89C14CC54B08ACDD467F095168BC"",""assignmentId"":""366e7396-6810-4380-87c4-05e2892ab2cd"",""projectId"":""a6b6d205-fa41-4c5b-a7a5-7fc4b51b0cea""}","https://test12345.live/?num_scrambled_semantic=8&num_scrambled_causal=4&num_scrambled_schematic=4&participantId=CA1F89C14CC54B08ACDD467F095168BC&assignmentId=366e7396-6810-4380-87c4-05e2892ab2cd&projectId=a6b6d205-fa41-4c5b-a7a5-7fc4b51b0cea","CA1F89C14CC54B08ACDD467F095168BC-2025-05-27-17-50-32","","null","","images/semantic_sequence/visiting_cities_semantic/visiting_cities_semantic_0.png","null","",""
"","","","","","image-button-response","25","189121","0.0-10.0-1.0-0.0","CA1F89C14CC54B08ACDD467F095168BC","CA1F89C14CC54B08ACDD467F095168BC","366e7396-6810-4380-87c4-05e2892ab2cd","a6b6d205-fa41-4c5b-a7a5-7fc4b51b0cea","{""num_scrambled_semantic"":""8"",""num_scrambled_causal"":""4"",""num_scrambled_schematic"":""4"",""participantId"":""CA1F89C14CC54B08ACDD467F095168BC"",""assignmentId"":""366e7396-6810-4380-87c4-05e2892ab2cd"",""projectId"":""a6b6d205-fa41-4c5b-a7a5-7fc4b51b0cea""}","https://test12345.live/?num_scrambled_semantic=8&num_scrambled_causal=4&num_scrambled_schematic=4&participantId=CA1F89C14CC54B08ACDD467F095168BC&assignmentId=366e7396-6810-4380-87c4-05e2892ab2cd&projectId=a6b6d205-fa41-4c5b-a7a5-7fc4b51b0cea","CA1F89C14CC54B08ACDD467F095168BC-2025-05-27-17-50-32","","null","","images/semantic_sequence/visiting_cities_semantic/visiting_cities_semantic_1.png","null","",""
"","","","","","image-button-response","26","190366","0.0-10.0-1.0-1.0","CA1F89C14CC54B08ACDD467F095168BC","CA1F89C14CC54B08ACDD467F095168BC","366e7396-6810-4380-87c4-05e2892ab2cd","a6b6d205-fa41-4c5b-a7a5-7fc4b51b0cea","{""num_scrambled_semantic"":""8"",""num_scrambled_causal"":""4"",""num_scrambled_schematic"":""4"",""participantId"":""CA1F89C14CC54B08ACDD467F095168BC"",""assignmentId"":""366e7396-6810-4380-87c4-05e2892ab2cd"",""projectId"":""a6b6d205-fa41-4c5b-a7a5-7fc4b51b0cea""}","https://test12345.live/?num_scrambled_semantic=8&num_scrambled_causal=4&num_scrambled_schematic=4&participantId=CA1F89C14CC54B08ACDD467F095168BC&assignmentId=366e7396-6810-4380-87c4-05e2892ab2cd&projectId=a6b6d205-fa41-4c5b-a7a5-7fc4b51b0cea","CA1F89C14CC54B08ACDD467F095168BC-2025-05-27-17-50-32","","1242","","images/semantic_sequence/visiting_cities_semantic/visiting_cities_semantic_1.png","0","",""
"","","","","","image-button-response","27","192169","0.0-10.0-1.0-2.0","CA1F89C14CC54B08ACDD467F095168BC","CA1F89C14CC54B08ACDD467F095168BC","366e7396-6810-4380-87c4-05e2892ab2cd","a6b6d205-fa41-4c5b-a7a5-7fc4b51b0cea","{""num_scrambled_semantic"":""8"",""num_scrambled_causal"":""4"",""num_scrambled_schematic"":""4"",""participantId"":""CA1F89C14CC54B08ACDD467F095168BC"",""assignmentId"":""366e7396-6810-4380-87c4-05e2892ab2cd"",""projectId"":""a6b6d205-fa41-4c5b-a7a5-7fc4b51b0cea""}","https://test12345.live/?num_scrambled_semantic=8&num_scrambled_causal=4&num_scrambled_schematic=4&participantId=CA1F89C14CC54B08ACDD467F095168BC&assignmentId=366e7396-6810-4380-87c4-05e2892ab2cd&projectId=a6b6d205-fa41-4c5b-a7a5-7fc4b51b0cea","CA1F89C14CC54B08ACDD467F095168BC-2025-05-27-17-50-32","","null","","[]","null","",""
"","","","","","image-button-response","28","196674","0.0-10.0-1.0-0.1","CA1F89C14CC54B08ACDD467F095168BC","CA1F89C14CC54B08ACDD467F095168BC","366e7396-6810-4380-87c4-05e2892ab2cd","a6b6d205-fa41-4c5b-a7a5-7fc4b51b0cea","{""num_scrambled_semantic"":""8"",""num_scrambled_causal"":""4"",""num_scrambled_schematic"":""4"",""participantId"":""CA1F89C14CC54B08ACDD467F095168BC"",""assignmentId"":""366e7396-6810-4380-87c4-05e2892ab2cd"",""projectId"":""a6b6d205-fa41-4c5b-a7a5-7fc4b51b0cea""}","https://test12345.live/?num_scrambled_semantic=8&num_scrambled_causal=4&num_scrambled_schematic=4&participantId=CA1F89C14CC54B08ACDD467F095168BC&assignmentId=366e7396-6810-4380-87c4-05e2892ab2cd&projectId=a6b6d205-fa41-4c5b-a7a5-7fc4b51b0cea","CA1F89C14CC54B08ACDD467F095168BC-2025-05-27-17-50-32","","null","","images/semantic_sequence/visiting_cities_semantic/visiting_cities_semantic_ten.png","null","",""
"","","","","","image-button-response","29","197792","0.0-10.0-1.0-1.1","CA1F89C14CC54B08ACDD467F095168BC","CA1F89C14CC54B08ACDD467F095168BC","366e7396-6810-4380-87c4-05e2892ab2cd","a6b6d205-fa41-4c5b-a7a5-7fc4b51b0cea","{""num_scrambled_semantic"":""8"",""num_scrambled_causal"":""4"",""num_scrambled_schematic"":""4"",""participantId"":""CA1F89C14CC54B08ACDD467F095168BC"",""assignmentId"":""366e7396-6810-4380-87c4-05e2892ab2cd"",""projectId"":""a6b6d205-fa41-4c5b-a7a5-7fc4b51b0cea""}","https://test12345.live/?num_scrambled_semantic=8&num_scrambled_causal=4&num_scrambled_schematic=4&participantId=CA1F89C14CC54B08ACDD467F095168BC&assignmentId=366e7396-6810-4380-87c4-05e2892ab2cd&projectId=a6b6d205-fa41-4c5b-a7a5-7fc4b51b0cea","CA1F89C14CC54B08ACDD467F095168BC-2025-05-27-17-50-32","","1116","","images/semantic_sequence/visiting_cities_semantic/visiting_cities_semantic_ten.png","1","",""
"","","","","","image-button-response","30","199595","0.0-10.0-1.0-2.1","CA1F89C14CC54B08ACDD467F095168BC","CA1F89C14CC54B08ACDD467F095168BC","366e7396-6810-4380-87c4-05e2892ab2cd","a6b6d205-fa41-4c5b-a7a5-7fc4b51b0cea","{""num_scrambled_semantic"":""8"",""num_scrambled_causal"":""4"",""num_scrambled_schematic"":""4"",""participantId"":""CA1F89C14CC54B08ACDD467F095168BC"",""assignmentId"":""366e7396-6810-4380-87c4-05e2892ab2cd"",""projectId"":""a6b6d205-fa41-4c5b-a7a5-7fc4b51b0cea""}","https://test12345.live/?num_scrambled_semantic=8&num_scrambled_causal=4&num_scrambled_schematic=4&participantId=CA1F89C14CC54B08ACDD467F095168BC&assignmentId=366e7396-6810-4380-87c4-05e2892ab2cd&projectId=a6b6d205-fa41-4c5b-a7a5-7fc4b51b0cea","CA1F89C14CC54B08ACDD467F095168BC-2025-05-27-17-50-32","","null","","[]","null","",""
"","","","","","image-button-response","31","204097","0.0-10.0-1.0-0.2","CA1F89C14CC54B08ACDD467F095168BC","CA1F89C14CC54B08ACDD467F095168BC","366e7396-6810-4380-87c4-05e2892ab2cd","a6b6d205-fa41-4c5b-a7a5-7fc4b51b0cea","{""num_scrambled_semantic"":""8"",""num_scrambled_causal"":""4"",""num_scrambled_schematic"":""4"",""participantId"":""CA1F89C14CC54B08ACDD467F095168BC"",""assignmentId"":""366e7396-6810-4380-87c4-05e2892ab2cd"",""projectId"":""a6b6d205-fa41-4c5b-a7a5-7fc4b51b0cea""}","https://test12345.live/?num_scrambled_semantic=8&num_scrambled_causal=4&num_scrambled_schematic=4&participantId=CA1F89C14CC54B08ACDD467F095168BC&assignmentId=366e7396-6810-4380-87c4-05e2892ab2cd&projectId=a6b6d205-fa41-4c5b-a7a5-7fc4b51b0cea","CA1F89C14CC54B08ACDD467F095168BC-2025-05-27-17-50-32","","null","","images/semantic_sequence/visiting_cities_semantic/visiting_cities_semantic_5.png","null","",""
"","","","","","image-button-response","32","204825","0.0-10.0-1.0-1.2","CA1F89C14CC54B08ACDD467F095168BC","CA1F89C14CC54B08ACDD467F095168BC","366e7396-6810-4380-87c4-05e2892ab2cd","a6b6d205-fa41-4c5b-a7a5-7fc4b51b0cea","{""num_scrambled_semantic"":""8"",""num_scrambled_causal"":""4"",""num_scrambled_schematic"":""4"",""participantId"":""CA1F89C14CC54B08ACDD467F095168BC"",""assignmentId"":""366e7396-6810-4380-87c4-05e2892ab2cd"",""projectId"":""a6b6d205-fa41-4c5b-a7a5-7fc4b51b0cea""}","https://test12345.live/?num_scrambled_semantic=8&num_scrambled_causal=4&num_scrambled_schematic=4&participantId=CA1F89C14CC54B08ACDD467F095168BC&assignmentId=366e7396-6810-4380-87c4-05e2892ab2cd&projectId=a6b6d205-fa41-4c5b-a7a5-7fc4b51b0cea","CA1F89C14CC54B08ACDD467F095168BC-2025-05-27-17-50-32","","727","","images/semantic_sequence/visiting_cities_semantic/visiting_cities_semantic_5.png","0","",""
"","","","","","image-button-response","33","206632","0.0-10.0-1.0-2.2","CA1F89C14CC54B08ACDD467F095168BC","CA1F89C14CC54B08ACDD467F095168BC","366e7396-6810-4380-87c4-05e2892ab2cd","a6b6d205-fa41-4c5b-a7a5-7fc4b51b0cea","{""num_scrambled_semantic"":""8"",""num_scrambled_causal"":""4"",""num_scrambled_schematic"":""4"",""participantId"":""CA1F89C14CC54B08ACDD467F095168BC"",""assignmentId"":""366e7396-6810-4380-87c4-05e2892ab2cd"",""projectId"":""a6b6d205-fa41-4c5b-a7a5-7fc4b51b0cea""}","https://test12345.live/?num_scrambled_semantic=8&num_scrambled_causal=4&num_scrambled_schematic=4&participantId=CA1F89C14CC54B08ACDD467F095168BC&assignmentId=366e7396-6810-4380-87c4-05e2892ab2cd&projectId=a6b6d205-fa41-4c5b-a7a5-7fc4b51b0cea","CA1F89C14CC54B08ACDD467F095168BC-2025-05-27-17-50-32","","null","","[]","null","",""
"","","","","","image-button-response","34","211135","0.0-10.0-1.0-0.3","CA1F89C14CC54B08ACDD467F095168BC","CA1F89C14CC54B08ACDD467F095168BC","366e7396-6810-4380-87c4-05e2892ab2cd","a6b6d205-fa41-4c5b-a7a5-7fc4b51b0cea","{""num_scrambled_semantic"":""8"",""num_scrambled_causal"":""4"",""num_scrambled_schematic"":""4"",""participantId"":""CA1F89C14CC54B08ACDD467F095168BC"",""assignmentId"":""366e7396-6810-4380-87c4-05e2892ab2cd"",""projectId"":""a6b6d205-fa41-4c5b-a7a5-7fc4b51b0cea""}","https://test12345.live/?num_scrambled_semantic=8&num_scrambled_causal=4&num_scrambled_schematic=4&participantId=CA1F89C14CC54B08ACDD467F095168BC&assignmentId=366e7396-6810-4380-87c4-05e2892ab2cd&projectId=a6b6d205-fa41-4c5b-a7a5-7fc4b51b0cea","CA1F89C14CC54B08ACDD467F095168BC-2025-05-27-17-50-32","","null","","images/semantic_sequence/visiting_cities_semantic/visiting_cities_semantic_9.png","null","",""
"","","","","","image-button-response","35","215143","0.0-10.0-1.0-1.3","CA1F89C14CC54B08ACDD467F095168BC","CA1F89C14CC54B08ACDD467F095168BC","366e7396-6810-4380-87c4-05e2892ab2cd","a6b6d205-fa41-4c5b-a7a5-7fc4b51b0cea","{""num_scrambled_semantic"":""8"",""num_scrambled_causal"":""4"",""num_scrambled_schematic"":""4"",""participantId"":""CA1F89C14CC54B08ACDD467F095168BC"",""assignmentId"":""366e7396-6810-4380-87c4-05e2892ab2cd"",""projectId"":""a6b6d205-fa41-4c5b-a7a5-7fc4b51b0cea""}","https://test12345.live/?num_scrambled_semantic=8&num_scrambled_causal=4&num_scrambled_schematic=4&participantId=CA1F89C14CC54B08ACDD467F095168BC&assignmentId=366e7396-6810-4380-87c4-05e2892ab2cd&projectId=a6b6d205-fa41-4c5b-a7a5-7fc4b51b0cea","CA1F89C14CC54B08ACDD467F095168BC-2025-05-27-17-50-32","","null","","images/semantic_sequence/visiting_cities_semantic/visiting_cities_semantic_9.png","null","",""
"","","","","","image-button-response","36","216945","0.0-10.0-1.0-2.3","CA1F89C14CC54B08ACDD467F095168BC","CA1F89C14CC54B08ACDD467F095168BC","366e7396-6810-4380-87c4-05e2892ab2cd","a6b6d205-fa41-4c5b-a7a5-7fc4b51b0cea","{""num_scrambled_semantic"":""8"",""num_scrambled_causal"":""4"",""num_scrambled_schematic"":""4"",""participantId"":""CA1F89C14CC54B08ACDD467F095168BC"",""assignmentId"":""366e7396-6810-4380-87c4-05e2892ab2cd"",""projectId"":""a6b6d205-fa41-4c5b-a7a5-7fc4b51b0cea""}","https://test12345.live/?num_scrambled_semantic=8&num_scrambled_causal=4&num_scrambled_schematic=4&participantId=CA1F89C14CC54B08ACDD467F095168BC&assignmentId=366e7396-6810-4380-87c4-05e2892ab2cd&projectId=a6b6d205-fa41-4c5b-a7a5-7fc4b51b0cea","CA1F89C14CC54B08ACDD467F095168BC-2025-05-27-17-50-32","","null","","[]","null","",""
"","","","","","image-button-response","37","221452","0.0-10.0-1.0-0.4","CA1F89C14CC54B08ACDD467F095168BC","CA1F89C14CC54B08ACDD467F095168BC","366e7396-6810-4380-87c4-05e2892ab2cd","a6b6d205-fa41-4c5b-a7a5-7fc4b51b0cea","{""num_scrambled_semantic"":""8"",""num_scrambled_causal"":""4"",""num_scrambled_schematic"":""4"",""participantId"":""CA1F89C14CC54B08ACDD467F095168BC"",""assignmentId"":""366e7396-6810-4380-87c4-05e2892ab2cd"",""projectId"":""a6b6d205-fa41-4c5b-a7a5-7fc4b51b0cea""}","https://test12345.live/?num_scrambled_semantic=8&num_scrambled_causal=4&num_scrambled_schematic=4&participantId=CA1F89C14CC54B08ACDD467F095168BC&assignmentId=366e7396-6810-4380-87c4-05e2892ab2cd&projectId=a6b6d205-fa41-4c5b-a7a5-7fc4b51b0cea","CA1F89C14CC54B08ACDD467F095168BC-2025-05-27-17-50-32","","null","","images/semantic_sequence/visiting_cities_semantic/visiting_cities_semantic_3.png","null","",""
"","","","","","image-button-response","38","222273","0.0-10.0-1.0-1.4","CA1F89C14CC54B08ACDD467F095168BC","CA1F89C14CC54B08ACDD467F095168BC","366e7396-6810-4380-87c4-05e2892ab2cd","a6b6d205-fa41-4c5b-a7a5-7fc4b51b0cea","{""num_scrambled_semantic"":""8"",""num_scrambled_causal"":""4"",""num_scrambled_schematic"":""4"",""participantId"":""CA1F89C14CC54B08ACDD467F095168BC"",""assignmentId"":""366e7396-6810-4380-87c4-05e2892ab2cd"",""projectId"":""a6b6d205-fa41-4c5b-a7a5-7fc4b51b0cea""}","https://test12345.live/?num_scrambled_semantic=8&num_scrambled_causal=4&num_scrambled_schematic=4&participantId=CA1F89C14CC54B08ACDD467F095168BC&assignmentId=366e7396-6810-4380-87c4-05e2892ab2cd&projectId=a6b6d205-fa41-4c5b-a7a5-7fc4b51b0cea","CA1F89C14CC54B08ACDD467F095168BC-2025-05-27-17-50-32","","819","","images/semantic_sequence/visiting_cities_semantic/visiting_cities_semantic_3.png","1","",""
"","","","","","image-button-response","39","224079","0.0-10.0-1.0-2.4","CA1F89C14CC54B08ACDD467F095168BC","CA1F89C14CC54B08ACDD467F095168BC","366e7396-6810-4380-87c4-05e2892ab2cd","a6b6d205-fa41-4c5b-a7a5-7fc4b51b0cea","{""num_scrambled_semantic"":""8"",""num_scrambled_causal"":""4"",""num_scrambled_schematic"":""4"",""participantId"":""CA1F89C14CC54B08ACDD467F095168BC"",""assignmentId"":""366e7396-6810-4380-87c4-05e2892ab2cd"",""projectId"":""a6b6d205-fa41-4c5b-a7a5-7fc4b51b0cea""}","https://test12345.live/?num_scrambled_semantic=8&num_scrambled_causal=4&num_scrambled_schematic=4&participantId=CA1F89C14CC54B08ACDD467F095168BC&assignmentId=366e7396-6810-4380-87c4-05e2892ab2cd&projectId=a6b6d205-fa41-4c5b-a7a5-7fc4b51b0cea","CA1F89C14CC54B08ACDD467F095168BC-2025-05-27-17-50-32","","null","","[]","null","",""
"","","","","","image-button-response","40","228585","0.0-10.0-1.0-0.5","CA1F89C14CC54B08ACDD467F095168BC","CA1F89C14CC54B08ACDD467F095168BC","366e7396-6810-4380-87c4-05e2892ab2cd","a6b6d205-fa41-4c5b-a7a5-7fc4b51b0cea","{""num_scrambled_semantic"":""8"",""num_scrambled_causal"":""4"",""num_scrambled_schematic"":""4"",""participantId"":""CA1F89C14CC54B08ACDD467F095168BC"",""assignmentId"":""366e7396-6810-4380-87c4-05e2892ab2cd"",""projectId"":""a6b6d205-fa41-4c5b-a7a5-7fc4b51b0cea""}","https://test12345.live/?num_scrambled_semantic=8&num_scrambled_causal=4&num_scrambled_schematic=4&participantId=CA1F89C14CC54B08ACDD467F095168BC&assignmentId=366e7396-6810-4380-87c4-05e2892ab2cd&projectId=a6b6d205-fa41-4c5b-a7a5-7fc4b51b0cea","CA1F89C14CC54B08ACDD467F095168BC-2025-05-27-17-50-32","","null","","images/semantic_sequence/visiting_cities_semantic/visiting_cities_semantic_2.png","null","",""
"","","","","","image-button-response","41","229367","0.0-10.0-1.0-1.5","CA1F89C14CC54B08ACDD467F095168BC","CA1F89C14CC54B08ACDD467F095168BC","366e7396-6810-4380-87c4-05e2892ab2cd","a6b6d205-fa41-4c5b-a7a5-7fc4b51b0cea","{""num_scrambled_semantic"":""8"",""num_scrambled_causal"":""4"",""num_scrambled_schematic"":""4"",""participantId"":""CA1F89C14CC54B08ACDD467F095168BC"",""assignmentId"":""366e7396-6810-4380-87c4-05e2892ab2cd"",""projectId"":""a6b6d205-fa41-4c5b-a7a5-7fc4b51b0cea""}","https://test12345.live/?num_scrambled_semantic=8&num_scrambled_causal=4&num_scrambled_schematic=4&participantId=CA1F89C14CC54B08ACDD467F095168BC&assignmentId=366e7396-6810-4380-87c4-05e2892ab2cd&projectId=a6b6d205-fa41-4c5b-a7a5-7fc4b51b0cea","CA1F89C14CC54B08ACDD467F095168BC-2025-05-27-17-50-32","","781","","images/semantic_sequence/visiting_cities_semantic/visiting_cities_semantic_2.png","1","",""
"","","","","","image-button-response","42","231174","0.0-10.0-1.0-2.5","CA1F89C14CC54B08ACDD467F095168BC","CA1F89C14CC54B08ACDD467F095168BC","366e7396-6810-4380-87c4-05e2892ab2cd","a6b6d205-fa41-4c5b-a7a5-7fc4b51b0cea","{""num_scrambled_semantic"":""8"",""num_scrambled_causal"":""4"",""num_scrambled_schematic"":""4"",""participantId"":""CA1F89C14CC54B08ACDD467F095168BC"",""assignmentId"":""366e7396-6810-4380-87c4-05e2892ab2cd"",""projectId"":""a6b6d205-fa41-4c5b-a7a5-7fc4b51b0cea""}","https://test12345.live/?num_scrambled_semantic=8&num_scrambled_causal=4&num_scrambled_schematic=4&participantId=CA1F89C14CC54B08ACDD467F095168BC&assignmentId=366e7396-6810-4380-87c4-05e2892ab2cd&projectId=a6b6d205-fa41-4c5b-a7a5-7fc4b51b0cea","CA1F89C14CC54B08ACDD467F095168BC-2025-05-27-17-50-32","","null","","[]","null","",""
"","","","","","image-button-response","43","235682","0.0-10.0-1.0-0.6","CA1F89C14CC54B08ACDD467F095168BC","CA1F89C14CC54B08ACDD467F095168BC","366e7396-6810-4380-87c4-05e2892ab2cd","a6b6d205-fa41-4c5b-a7a5-7fc4b51b0cea","{""num_scrambled_semantic"":""8"",""num_scrambled_causal"":""4"",""num_scrambled_schematic"":""4"",""participantId"":""CA1F89C14CC54B08ACDD467F095168BC"",""assignmentId"":""366e7396-6810-4380-87c4-05e2892ab2cd"",""projectId"":""a6b6d205-fa41-4c5b-a7a5-7fc4b51b0cea""}","https://test12345.live/?num_scrambled_semantic=8&num_scrambled_causal=4&num_scrambled_schematic=4&participantId=CA1F89C14CC54B08ACDD467F095168BC&assignmentId=366e7396-6810-4380-87c4-05e2892ab2cd&projectId=a6b6d205-fa41-4c5b-a7a5-7fc4b51b0cea","CA1F89C14CC54B08ACDD467F095168BC-2025-05-27-17-50-32","","null","","images/semantic_sequence/visiting_cities_semantic/visiting_cities_semantic_4.png","null","",""
"","","","","","image-button-response","44","237129","0.0-10.0-1.0-1.6","CA1F89C14CC54B08ACDD467F095168BC","CA1F89C14CC54B08ACDD467F095168BC","366e7396-6810-4380-87c4-05e2892ab2cd","a6b6d205-fa41-4c5b-a7a5-7fc4b51b0cea","{""num_scrambled_semantic"":""8"",""num_scrambled_causal"":""4"",""num_scrambled_schematic"":""4"",""participantId"":""CA1F89C14CC54B08ACDD467F095168BC"",""assignmentId"":""366e7396-6810-4380-87c4-05e2892ab2cd"",""projectId"":""a6b6d205-fa41-4c5b-a7a5-7fc4b51b0cea""}","https://test12345.live/?num_scrambled_semantic=8&num_scrambled_causal=4&num_scrambled_schematic=4&participantId=CA1F89C14CC54B08ACDD467F095168BC&assignmentId=366e7396-6810-4380-87c4-05e2892ab2cd&projectId=a6b6d205-fa41-4c5b-a7a5-7fc4b51b0cea","CA1F89C14CC54B08ACDD467F095168BC-2025-05-27-17-50-32","","1445","","images/semantic_sequence/visiting_cities_semantic/visiting_cities_semantic_4.png","1","",""
"","","","","","image-button-response","45","238935","0.0-10.0-1.0-2.6","CA1F89C14CC54B08ACDD467F095168BC","CA1F89C14CC54B08ACDD467F095168BC","366e7396-6810-4380-87c4-05e2892ab2cd","a6b6d205-fa41-4c5b-a7a5-7fc4b51b0cea","{""num_scrambled_semantic"":""8"",""num_scrambled_causal"":""4"",""num_scrambled_schematic"":""4"",""participantId"":""CA1F89C14CC54B08ACDD467F095168BC"",""assignmentId"":""366e7396-6810-4380-87c4-05e2892ab2cd"",""projectId"":""a6b6d205-fa41-4c5b-a7a5-7fc4b51b0cea""}","https://test12345.live/?num_scrambled_semantic=8&num_scrambled_causal=4&num_scrambled_schematic=4&participantId=CA1F89C14CC54B08ACDD467F095168BC&assignmentId=366e7396-6810-4380-87c4-05e2892ab2cd&projectId=a6b6d205-fa41-4c5b-a7a5-7fc4b51b0cea","CA1F89C14CC54B08ACDD467F095168BC-2025-05-27-17-50-32","","null","","[]","null","",""
"","","","","","image-button-response","46","243439","0.0-10.0-1.0-0.7","CA1F89C14CC54B08ACDD467F095168BC","CA1F89C14CC54B08ACDD467F095168BC","366e7396-6810-4380-87c4-05e2892ab2cd","a6b6d205-fa41-4c5b-a7a5-7fc4b51b0cea","{""num_scrambled_semantic"":""8"",""num_scrambled_causal"":""4"",""num_scrambled_schematic"":""4"",""participantId"":""CA1F89C14CC54B08ACDD467F095168BC"",""assignmentId"":""366e7396-6810-4380-87c4-05e2892ab2cd"",""projectId"":""a6b6d205-fa41-4c5b-a7a5-7fc4b51b0cea""}","https://test12345.live/?num_scrambled_semantic=8&num_scrambled_causal=4&num_scrambled_schematic=4&participantId=CA1F89C14CC54B08ACDD467F095168BC&assignmentId=366e7396-6810-4380-87c4-05e2892ab2cd&projectId=a6b6d205-fa41-4c5b-a7a5-7fc4b51b0cea","CA1F89C14CC54B08ACDD467F095168BC-2025-05-27-17-50-32","","null","","images/semantic_sequence/visiting_cities_semantic/visiting_cities_semantic_6.png","null","",""
"","","","","","image-button-response","47","243929","0.0-10.0-1.0-1.7","CA1F89C14CC54B08ACDD467F095168BC","CA1F89C14CC54B08ACDD467F095168BC","366e7396-6810-4380-87c4-05e2892ab2cd","a6b6d205-fa41-4c5b-a7a5-7fc4b51b0cea","{""num_scrambled_semantic"":""8"",""num_scrambled_causal"":""4"",""num_scrambled_schematic"":""4"",""participantId"":""CA1F89C14CC54B08ACDD467F095168BC"",""assignmentId"":""366e7396-6810-4380-87c4-05e2892ab2cd"",""projectId"":""a6b6d205-fa41-4c5b-a7a5-7fc4b51b0cea""}","https://test12345.live/?num_scrambled_semantic=8&num_scrambled_causal=4&num_scrambled_schematic=4&participantId=CA1F89C14CC54B08ACDD467F095168BC&assignmentId=366e7396-6810-4380-87c4-05e2892ab2cd&projectId=a6b6d205-fa41-4c5b-a7a5-7fc4b51b0cea","CA1F89C14CC54B08ACDD467F095168BC-2025-05-27-17-50-32","","489","","images/semantic_sequence/visiting_cities_semantic/visiting_cities_semantic_6.png","1","",""
"","","","","","image-button-response","48","245736","0.0-10.0-1.0-2.7","CA1F89C14CC54B08ACDD467F095168BC","CA1F89C14CC54B08ACDD467F095168BC","366e7396-6810-4380-87c4-05e2892ab2cd","a6b6d205-fa41-4c5b-a7a5-7fc4b51b0cea","{""num_scrambled_semantic"":""8"",""num_scrambled_causal"":""4"",""num_scrambled_schematic"":""4"",""participantId"":""CA1F89C14CC54B08ACDD467F095168BC"",""assignmentId"":""366e7396-6810-4380-87c4-05e2892ab2cd"",""projectId"":""a6b6d205-fa41-4c5b-a7a5-7fc4b51b0cea""}","https://test12345.live/?num_scrambled_semantic=8&num_scrambled_causal=4&num_scrambled_schematic=4&participantId=CA1F89C14CC54B08ACDD467F095168BC&assignmentId=366e7396-6810-4380-87c4-05e2892ab2cd&projectId=a6b6d205-fa41-4c5b-a7a5-7fc4b51b0cea","CA1F89C14CC54B08ACDD467F095168BC-2025-05-27-17-50-32","","null","","[]","null","",""
"","","","","","image-button-response","49","250238","0.0-10.0-1.0-0.8","CA1F89C14CC54B08ACDD467F095168BC","CA1F89C14CC54B08ACDD467F095168BC","366e7396-6810-4380-87c4-05e2892ab2cd","a6b6d205-fa41-4c5b-a7a5-7fc4b51b0cea","{""num_scrambled_semantic"":""8"",""num_scrambled_causal"":""4"",""num_scrambled_schematic"":""4"",""participantId"":""CA1F89C14CC54B08ACDD467F095168BC"",""assignmentId"":""366e7396-6810-4380-87c4-05e2892ab2cd"",""projectId"":""a6b6d205-fa41-4c5b-a7a5-7fc4b51b0cea""}","https://test12345.live/?num_scrambled_semantic=8&num_scrambled_causal=4&num_scrambled_schematic=4&participantId=CA1F89C14CC54B08ACDD467F095168BC&assignmentId=366e7396-6810-4380-87c4-05e2892ab2cd&projectId=a6b6d205-fa41-4c5b-a7a5-7fc4b51b0cea","CA1F89C14CC54B08ACDD467F095168BC-2025-05-27-17-50-32","","null","","images/semantic_sequence/visiting_cities_semantic/visiting_cities_semantic_8.png","null","",""
"","","","","","image-button-response","50","252377","0.0-10.0-1.0-1.8","CA1F89C14CC54B08ACDD467F095168BC","CA1F89C14CC54B08ACDD467F095168BC","366e7396-6810-4380-87c4-05e2892ab2cd","a6b6d205-fa41-4c5b-a7a5-7fc4b51b0cea","{""num_scrambled_semantic"":""8"",""num_scrambled_causal"":""4"",""num_scrambled_schematic"":""4"",""participantId"":""CA1F89C14CC54B08ACDD467F095168BC"",""assignmentId"":""366e7396-6810-4380-87c4-05e2892ab2cd"",""projectId"":""a6b6d205-fa41-4c5b-a7a5-7fc4b51b0cea""}","https://test12345.live/?num_scrambled_semantic=8&num_scrambled_causal=4&num_scrambled_schematic=4&participantId=CA1F89C14CC54B08ACDD467F095168BC&assignmentId=366e7396-6810-4380-87c4-05e2892ab2cd&projectId=a6b6d205-fa41-4c5b-a7a5-7fc4b51b0cea","CA1F89C14CC54B08ACDD467F095168BC-2025-05-27-17-50-32","","2138","","images/semantic_sequence/visiting_cities_semantic/visiting_cities_semantic_8.png","1","",""
"","","","","","image-button-response","51","254185","0.0-10.0-1.0-2.8","CA1F89C14CC54B08ACDD467F095168BC","CA1F89C14CC54B08ACDD467F095168BC","366e7396-6810-4380-87c4-05e2892ab2cd","a6b6d205-fa41-4c5b-a7a5-7fc4b51b0cea","{""num_scrambled_semantic"":""8"",""num_scrambled_causal"":""4"",""num_scrambled_schematic"":""4"",""participantId"":""CA1F89C14CC54B08ACDD467F095168BC"",""assignmentId"":""366e7396-6810-4380-87c4-05e2892ab2cd"",""projectId"":""a6b6d205-fa41-4c5b-a7a5-7fc4b51b0cea""}","https://test12345.live/?num_scrambled_semantic=8&num_scrambled_causal=4&num_scrambled_schematic=4&participantId=CA1F89C14CC54B08ACDD467F095168BC&assignmentId=366e7396-6810-4380-87c4-05e2892ab2cd&projectId=a6b6d205-fa41-4c5b-a7a5-7fc4b51b0cea","CA1F89C14CC54B08ACDD467F095168BC-2025-05-27-17-50-32","","null","","[]","null","",""
"","","","","","image-button-response","52","258689","0.0-10.0-1.0-0.9","CA1F89C14CC54B08ACDD467F095168BC","CA1F89C14CC54B08ACDD467F095168BC","366e7396-6810-4380-87c4-05e2892ab2cd","a6b6d205-fa41-4c5b-a7a5-7fc4b51b0cea","{""num_scrambled_semantic"":""8"",""num_scrambled_causal"":""4"",""num_scrambled_schematic"":""4"",""participantId"":""CA1F89C14CC54B08ACDD467F095168BC"",""assignmentId"":""366e7396-6810-4380-87c4-05e2892ab2cd"",""projectId"":""a6b6d205-fa41-4c5b-a7a5-7fc4b51b0cea""}","https://test12345.live/?num_scrambled_semantic=8&num_scrambled_causal=4&num_scrambled_schematic=4&participantId=CA1F89C14CC54B08ACDD467F095168BC&assignmentId=366e7396-6810-4380-87c4-05e2892ab2cd&projectId=a6b6d205-fa41-4c5b-a7a5-7fc4b51b0cea","CA1F89C14CC54B08ACDD467F095168BC-2025-05-27-17-50-32","","null","","images/semantic_sequence/visiting_cities_semantic/visiting_cities_semantic_7.png","null","",""
"","","","","","image-button-response","53","260402","0.0-10.0-1.0-1.9","CA1F89C14CC54B08ACDD467F095168BC","CA1F89C14CC54B08ACDD467F095168BC","366e7396-6810-4380-87c4-05e2892ab2cd","a6b6d205-fa41-4c5b-a7a5-7fc4b51b0cea","{""num_scrambled_semantic"":""8"",""num_scrambled_causal"":""4"",""num_scrambled_schematic"":""4"",""participantId"":""CA1F89C14CC54B08ACDD467F095168BC"",""assignmentId"":""366e7396-6810-4380-87c4-05e2892ab2cd"",""projectId"":""a6b6d205-fa41-4c5b-a7a5-7fc4b51b0cea""}","https://test12345.live/?num_scrambled_semantic=8&num_scrambled_causal=4&num_scrambled_schematic=4&participantId=CA1F89C14CC54B08ACDD467F095168BC&assignmentId=366e7396-6810-4380-87c4-05e2892ab2cd&projectId=a6b6d205-fa41-4c5b-a7a5-7fc4b51b0cea","CA1F89C14CC54B08ACDD467F095168BC-2025-05-27-17-50-32","","1711","","images/semantic_sequence/visiting_cities_semantic/visiting_cities_semantic_7.png","1","",""
"","","","","","image-button-response","54","262206","0.0-10.0-1.0-2.9","CA1F89C14CC54B08ACDD467F095168BC","CA1F89C14CC54B08ACDD467F095168BC","366e7396-6810-4380-87c4-05e2892ab2cd","a6b6d205-fa41-4c5b-a7a5-7fc4b51b0cea","{""num_scrambled_semantic"":""8"",""num_scrambled_causal"":""4"",""num_scrambled_schematic"":""4"",""participantId"":""CA1F89C14CC54B08ACDD467F095168BC"",""assignmentId"":""366e7396-6810-4380-87c4-05e2892ab2cd"",""projectId"":""a6b6d205-fa41-4c5b-a7a5-7fc4b51b0cea""}","https://test12345.live/?num_scrambled_semantic=8&num_scrambled_causal=4&num_scrambled_schematic=4&participantId=CA1F89C14CC54B08ACDD467F095168BC&assignmentId=366e7396-6810-4380-87c4-05e2892ab2cd&projectId=a6b6d205-fa41-4c5b-a7a5-7fc4b51b0cea","CA1F89C14CC54B08ACDD467F095168BC-2025-05-27-17-50-32","","null","","[]","null","",""
"","","","","","html-audio-response","55","286563","0.0-11.0","CA1F89C14CC54B08ACDD467F095168BC","CA1F89C14CC54B08ACDD467F095168BC","366e7396-6810-4380-87c4-05e2892ab2cd","a6b6d205-fa41-4c5b-a7a5-7fc4b51b0cea","{""num_scrambled_semantic"":""8"",""num_scrambled_causal"":""4"",""num_scrambled_schematic"":""4"",""participantId"":""CA1F89C14CC54B08ACDD467F095168BC"",""assignmentId"":""366e7396-6810-4380-87c4-05e2892ab2cd"",""projectId"":""a6b6d205-fa41-4c5b-a7a5-7fc4b51b0cea""}","https://test12345.live/?num_scrambled_semantic=8&num_scrambled_causal=4&num_scrambled_schematic=4&participantId=CA1F89C14CC54B08ACDD467F095168BC&assignmentId=366e7396-6810-4380-87c4-05e2892ab2cd&projectId=a6b6d205-fa41-4c5b-a7a5-7fc4b51b0cea","CA1F89C14CC54B08ACDD467F095168BC-2025-05-27-17-50-32","","22642","","[""<span style=\""color: red; font-size: 24px\""> NOW RECORDING</span><p>Please say out loud all the images you saw, in the exact order you saw them. Try to recall as many images as you can, but remember: getting the order right is more important than the number of images you recall.</p>""]","","4","visiting_cities_semantic"
"","","","","","image-button-response","56","292571","0.0-12.0-0.0","CA1F89C14CC54B08ACDD467F095168BC","CA1F89C14CC54B08ACDD467F095168BC","366e7396-6810-4380-87c4-05e2892ab2cd","a6b6d205-fa41-4c5b-a7a5-7fc4b51b0cea","{""num_scrambled_semantic"":""8"",""num_scrambled_causal"":""4"",""num_scrambled_schematic"":""4"",""participantId"":""CA1F89C14CC54B08ACDD467F095168BC"",""assignmentId"":""366e7396-6810-4380-87c4-05e2892ab2cd"",""projectId"":""a6b6d205-fa41-4c5b-a7a5-7fc4b51b0cea""}","https://test12345.live/?num_scrambled_semantic=8&num_scrambled_causal=4&num_scrambled_schematic=4&participantId=CA1F89C14CC54B08ACDD467F095168BC&assignmentId=366e7396-6810-4380-87c4-05e2892ab2cd&projectId=a6b6d205-fa41-4c5b-a7a5-7fc4b51b0cea","CA1F89C14CC54B08ACDD467F095168BC-2025-05-27-17-50-32","","null","","images/semantic_sequence/kitchen_operations_semantic/kitchen_operations_semantic_0.png","null","",""
"","","","","","image-button-response","57","297078","0.0-12.0-1.0-0.0","CA1F89C14CC54B08ACDD467F095168BC","CA1F89C14CC54B08ACDD467F095168BC","366e7396-6810-4380-87c4-05e2892ab2cd","a6b6d205-fa41-4c5b-a7a5-7fc4b51b0cea","{""num_scrambled_semantic"":""8"",""num_scrambled_causal"":""4"",""num_scrambled_schematic"":""4"",""participantId"":""CA1F89C14CC54B08ACDD467F095168BC"",""assignmentId"":""366e7396-6810-4380-87c4-05e2892ab2cd"",""projectId"":""a6b6d205-fa41-4c5b-a7a5-7fc4b51b0cea""}","https://test12345.live/?num_scrambled_semantic=8&num_scrambled_causal=4&num_scrambled_schematic=4&participantId=CA1F89C14CC54B08ACDD467F095168BC&assignmentId=366e7396-6810-4380-87c4-05e2892ab2cd&projectId=a6b6d205-fa41-4c5b-a7a5-7fc4b51b0cea","CA1F89C14CC54B08ACDD467F095168BC-2025-05-27-17-50-32","","null","","images/semantic_sequence/kitchen_operations_semantic/kitchen_operations_semantic_3.png","null","",""
"","","","","","image-button-response","58","301085","0.0-12.0-1.0-1.0","CA1F89C14CC54B08ACDD467F095168BC","CA1F89C14CC54B08ACDD467F095168BC","366e7396-6810-4380-87c4-05e2892ab2cd","a6b6d205-fa41-4c5b-a7a5-7fc4b51b0cea","{""num_scrambled_semantic"":""8"",""num_scrambled_causal"":""4"",""num_scrambled_schematic"":""4"",""participantId"":""CA1F89C14CC54B08ACDD467F095168BC"",""assignmentId"":""366e7396-6810-4380-87c4-05e2892ab2cd"",""projectId"":""a6b6d205-fa41-4c5b-a7a5-7fc4b51b0cea""}","https://test12345.live/?num_scrambled_semantic=8&num_scrambled_causal=4&num_scrambled_schematic=4&participantId=CA1F89C14CC54B08ACDD467F095168BC&assignmentId=366e7396-6810-4380-87c4-05e2892ab2cd&projectId=a6b6d205-fa41-4c5b-a7a5-7fc4b51b0cea","CA1F89C14CC54B08ACDD467F095168BC-2025-05-27-17-50-32","","null","","images/semantic_sequence/kitchen_operations_semantic/kitchen_operations_semantic_3.png","null","",""
"","","","","","image-button-response","59","302888","0.0-12.0-1.0-2.0","CA1F89C14CC54B08ACDD467F095168BC","CA1F89C14CC54B08ACDD467F095168BC","366e7396-6810-4380-87c4-05e2892ab2cd","a6b6d205-fa41-4c5b-a7a5-7fc4b51b0cea","{""num_scrambled_semantic"":""8"",""num_scrambled_causal"":""4"",""num_scrambled_schematic"":""4"",""participantId"":""CA1F89C14CC54B08ACDD467F095168BC"",""assignmentId"":""366e7396-6810-4380-87c4-05e2892ab2cd"",""projectId"":""a6b6d205-fa41-4c5b-a7a5-7fc4b51b0cea""}","https://test12345.live/?num_scrambled_semantic=8&num_scrambled_causal=4&num_scrambled_schematic=4&participantId=CA1F89C14CC54B08ACDD467F095168BC&assignmentId=366e7396-6810-4380-87c4-05e2892ab2cd&projectId=a6b6d205-fa41-4c5b-a7a5-7fc4b51b0cea","CA1F89C14CC54B08ACDD467F095168BC-2025-05-27-17-50-32","","null","","[]","null","",""
"","","","","","image-button-response","60","307391","0.0-12.0-1.0-0.1","CA1F89C14CC54B08ACDD467F095168BC","CA1F89C14CC54B08ACDD467F095168BC","366e7396-6810-4380-87c4-05e2892ab2cd","a6b6d205-fa41-4c5b-a7a5-7fc4b51b0cea","{""num_scrambled_semantic"":""8"",""num_scrambled_causal"":""4"",""num_scrambled_schematic"":""4"",""participantId"":""CA1F89C14CC54B08ACDD467F095168BC"",""assignmentId"":""366e7396-6810-4380-87c4-05e2892ab2cd"",""projectId"":""a6b6d205-fa41-4c5b-a7a5-7fc4b51b0cea""}","https://test12345.live/?num_scrambled_semantic=8&num_scrambled_causal=4&num_scrambled_schematic=4&participantId=CA1F89C14CC54B08ACDD467F095168BC&assignmentId=366e7396-6810-4380-87c4-05e2892ab2cd&projectId=a6b6d205-fa41-4c5b-a7a5-7fc4b51b0cea","CA1F89C14CC54B08ACDD467F095168BC-2025-05-27-17-50-32","","null","","images/semantic_sequence/kitchen_operations_semantic/kitchen_operations_semantic_1.png","null","",""
"","","","","","image-button-response","61","308635","0.0-12.0-1.0-1.1","CA1F89C14CC54B08ACDD467F095168BC","CA1F89C14CC54B08ACDD467F095168BC","366e7396-6810-4380-87c4-05e2892ab2cd","a6b6d205-fa41-4c5b-a7a5-7fc4b51b0cea","{""num_scrambled_semantic"":""8"",""num_scrambled_causal"":""4"",""num_scrambled_schematic"":""4"",""participantId"":""CA1F89C14CC54B08ACDD467F095168BC"",""assignmentId"":""366e7396-6810-4380-87c4-05e2892ab2cd"",""projectId"":""a6b6d205-fa41-4c5b-a7a5-7fc4b51b0cea""}","https://test12345.live/?num_scrambled_semantic=8&num_scrambled_causal=4&num_scrambled_schematic=4&participantId=CA1F89C14CC54B08ACDD467F095168BC&assignmentId=366e7396-6810-4380-87c4-05e2892ab2cd&projectId=a6b6d205-fa41-4c5b-a7a5-7fc4b51b0cea","CA1F89C14CC54B08ACDD467F095168BC-2025-05-27-17-50-32","","1243","","images/semantic_sequence/kitchen_operations_semantic/kitchen_operations_semantic_1.png","0","",""
"","","","","","image-button-response","62","310438","0.0-12.0-1.0-2.1","CA1F89C14CC54B08ACDD467F095168BC","CA1F89C14CC54B08ACDD467F095168BC","366e7396-6810-4380-87c4-05e2892ab2cd","a6b6d205-fa41-4c5b-a7a5-7fc4b51b0cea","{""num_scrambled_semantic"":""8"",""num_scrambled_causal"":""4"",""num_scrambled_schematic"":""4"",""participantId"":""CA1F89C14CC54B08ACDD467F095168BC"",""assignmentId"":""366e7396-6810-4380-87c4-05e2892ab2cd"",""projectId"":""a6b6d205-fa41-4c5b-a7a5-7fc4b51b0cea""}","https://test12345.live/?num_scrambled_semantic=8&num_scrambled_causal=4&num_scrambled_schematic=4&participantId=CA1F89C14CC54B08ACDD467F095168BC&assignmentId=366e7396-6810-4380-87c4-05e2892ab2cd&projectId=a6b6d205-fa41-4c5b-a7a5-7fc4b51b0cea","CA1F89C14CC54B08ACDD467F095168BC-2025-05-27-17-50-32","","null","","[]","null","",""
"","","","","","image-button-response","63","314941","0.0-12.0-1.0-0.2","CA1F89C14CC54B08ACDD467F095168BC","CA1F89C14CC54B08ACDD467F095168BC","366e7396-6810-4380-87c4-05e2892ab2cd","a6b6d205-fa41-4c5b-a7a5-7fc4b51b0cea","{""num_scrambled_semantic"":""8"",""num_scrambled_causal"":""4"",""num_scrambled_schematic"":""4"",""participantId"":""CA1F89C14CC54B08ACDD467F095168BC"",""assignmentId"":""366e7396-6810-4380-87c4-05e2892ab2cd"",""projectId"":""a6b6d205-fa41-4c5b-a7a5-7fc4b51b0cea""}","https://test12345.live/?num_scrambled_semantic=8&num_scrambled_causal=4&num_scrambled_schematic=4&participantId=CA1F89C14CC54B08ACDD467F095168BC&assignmentId=366e7396-6810-4380-87c4-05e2892ab2cd&projectId=a6b6d205-fa41-4c5b-a7a5-7fc4b51b0cea","CA1F89C14CC54B08ACDD467F095168BC-2025-05-27-17-50-32","","null","","images/semantic_sequence/kitchen_operations_semantic/kitchen_operations_semantic_2.png","null","",""
"","","","","","image-button-response","64","315780","0.0-12.0-1.0-1.2","CA1F89C14CC54B08ACDD467F095168BC","CA1F89C14CC54B08ACDD467F095168BC","366e7396-6810-4380-87c4-05e2892ab2cd","a6b6d205-fa41-4c5b-a7a5-7fc4b51b0cea","{""num_scrambled_semantic"":""8"",""num_scrambled_causal"":""4"",""num_scrambled_schematic"":""4"",""participantId"":""CA1F89C14CC54B08ACDD467F095168BC"",""assignmentId"":""366e7396-6810-4380-87c4-05e2892ab2cd"",""projectId"":""a6b6d205-fa41-4c5b-a7a5-7fc4b51b0cea""}","https://test12345.live/?num_scrambled_semantic=8&num_scrambled_causal=4&num_scrambled_schematic=4&participantId=CA1F89C14CC54B08ACDD467F095168BC&assignmentId=366e7396-6810-4380-87c4-05e2892ab2cd&projectId=a6b6d205-fa41-4c5b-a7a5-7fc4b51b0cea","CA1F89C14CC54B08ACDD467F095168BC-2025-05-27-17-50-32","","837","","images/semantic_sequence/kitchen_operations_semantic/kitchen_operations_semantic_2.png","0","",""
"","","","","","image-button-response","65","317587","0.0-12.0-1.0-2.2","CA1F89C14CC54B08ACDD467F095168BC","CA1F89C14CC54B08ACDD467F095168BC","366e7396-6810-4380-87c4-05e2892ab2cd","a6b6d205-fa41-4c5b-a7a5-7fc4b51b0cea","{""num_scrambled_semantic"":""8"",""num_scrambled_causal"":""4"",""num_scrambled_schematic"":""4"",""participantId"":""CA1F89C14CC54B08ACDD467F095168BC"",""assignmentId"":""366e7396-6810-4380-87c4-05e2892ab2cd"",""projectId"":""a6b6d205-fa41-4c5b-a7a5-7fc4b51b0cea""}","https://test12345.live/?num_scrambled_semantic=8&num_scrambled_causal=4&num_scrambled_schematic=4&participantId=CA1F89C14CC54B08ACDD467F095168BC&assignmentId=366e7396-6810-4380-87c4-05e2892ab2cd&projectId=a6b6d205-fa41-4c5b-a7a5-7fc4b51b0cea","CA1F89C14CC54B08ACDD467F095168BC-2025-05-27-17-50-32","","null","","[]","null","",""
"","","","","","image-button-response","66","322089","0.0-12.0-1.0-0.3","CA1F89C14CC54B08ACDD467F095168BC","CA1F89C14CC54B08ACDD467F095168BC","366e7396-6810-4380-87c4-05e2892ab2cd","a6b6d205-fa41-4c5b-a7a5-7fc4b51b0cea","{""num_scrambled_semantic"":""8"",""num_scrambled_causal"":""4"",""num_scrambled_schematic"":""4"",""participantId"":""CA1F89C14CC54B08ACDD467F095168BC"",""assignmentId"":""366e7396-6810-4380-87c4-05e2892ab2cd"",""projectId"":""a6b6d205-fa41-4c5b-a7a5-7fc4b51b0cea""}","https://test12345.live/?num_scrambled_semantic=8&num_scrambled_causal=4&num_scrambled_schematic=4&participantId=CA1F89C14CC54B08ACDD467F095168BC&assignmentId=366e7396-6810-4380-87c4-05e2892ab2cd&projectId=a6b6d205-fa41-4c5b-a7a5-7fc4b51b0cea","CA1F89C14CC54B08ACDD467F095168BC-2025-05-27-17-50-32","","null","","images/semantic_sequence/kitchen_operations_semantic/kitchen_operations_semantic_4.png","null","",""
"","","","","","image-button-response","67","322908","0.0-12.0-1.0-1.3","CA1F89C14CC54B08ACDD467F095168BC","CA1F89C14CC54B08ACDD467F095168BC","366e7396-6810-4380-87c4-05e2892ab2cd","a6b6d205-fa41-4c5b-a7a5-7fc4b51b0cea","{""num_scrambled_semantic"":""8"",""num_scrambled_causal"":""4"",""num_scrambled_schematic"":""4"",""participantId"":""CA1F89C14CC54B08ACDD467F095168BC"",""assignmentId"":""366e7396-6810-4380-87c4-05e2892ab2cd"",""projectId"":""a6b6d205-fa41-4c5b-a7a5-7fc4b51b0cea""}","https://test12345.live/?num_scrambled_semantic=8&num_scrambled_causal=4&num_scrambled_schematic=4&participantId=CA1F89C14CC54B08ACDD467F095168BC&assignmentId=366e7396-6810-4380-87c4-05e2892ab2cd&projectId=a6b6d205-fa41-4c5b-a7a5-7fc4b51b0cea","CA1F89C14CC54B08ACDD467F095168BC-2025-05-27-17-50-32","","818","","images/semantic_sequence/kitchen_operations_semantic/kitchen_operations_semantic_4.png","0","",""
"","","","","","image-button-response","68","324715","0.0-12.0-1.0-2.3","CA1F89C14CC54B08ACDD467F095168BC","CA1F89C14CC54B08ACDD467F095168BC","366e7396-6810-4380-87c4-05e2892ab2cd","a6b6d205-fa41-4c5b-a7a5-7fc4b51b0cea","{""num_scrambled_semantic"":""8"",""num_scrambled_causal"":""4"",""num_scrambled_schematic"":""4"",""participantId"":""CA1F89C14CC54B08ACDD467F095168BC"",""assignmentId"":""366e7396-6810-4380-87c4-05e2892ab2cd"",""projectId"":""a6b6d205-fa41-4c5b-a7a5-7fc4b51b0cea""}","https://test12345.live/?num_scrambled_semantic=8&num_scrambled_causal=4&num_scrambled_schematic=4&participantId=CA1F89C14CC54B08ACDD467F095168BC&assignmentId=366e7396-6810-4380-87c4-05e2892ab2cd&projectId=a6b6d205-fa41-4c5b-a7a5-7fc4b51b0cea","CA1F89C14CC54B08ACDD467F095168BC-2025-05-27-17-50-32","","null","","[]","null","",""
"","","","","","image-button-response","69","329217","0.0-12.0-1.0-0.4","CA1F89C14CC54B08ACDD467F095168BC","CA1F89C14CC54B08ACDD467F095168BC","366e7396-6810-4380-87c4-05e2892ab2cd","a6b6d205-fa41-4c5b-a7a5-7fc4b51b0cea","{""num_scrambled_semantic"":""8"",""num_scrambled_causal"":""4"",""num_scrambled_schematic"":""4"",""participantId"":""CA1F89C14CC54B08ACDD467F095168BC"",""assignmentId"":""366e7396-6810-4380-87c4-05e2892ab2cd"",""projectId"":""a6b6d205-fa41-4c5b-a7a5-7fc4b51b0cea""}","https://test12345.live/?num_scrambled_semantic=8&num_scrambled_causal=4&num_scrambled_schematic=4&participantId=CA1F89C14CC54B08ACDD467F095168BC&assignmentId=366e7396-6810-4380-87c4-05e2892ab2cd&projectId=a6b6d205-fa41-4c5b-a7a5-7fc4b51b0cea","CA1F89C14CC54B08ACDD467F095168BC-2025-05-27-17-50-32","","null","","images/semantic_sequence/kitchen_operations_semantic/kitchen_operations_semantic_8.png","null","",""
"","","","","","image-button-response","70","329706","0.0-12.0-1.0-1.4","CA1F89C14CC54B08ACDD467F095168BC","CA1F89C14CC54B08ACDD467F095168BC","366e7396-6810-4380-87c4-05e2892ab2cd","a6b6d205-fa41-4c5b-a7a5-7fc4b51b0cea","{""num_scrambled_semantic"":""8"",""num_scrambled_causal"":""4"",""num_scrambled_schematic"":""4"",""participantId"":""CA1F89C14CC54B08ACDD467F095168BC"",""assignmentId"":""366e7396-6810-4380-87c4-05e2892ab2cd"",""projectId"":""a6b6d205-fa41-4c5b-a7a5-7fc4b51b0cea""}","https://test12345.live/?num_scrambled_semantic=8&num_scrambled_causal=4&num_scrambled_schematic=4&participantId=CA1F89C14CC54B08ACDD467F095168BC&assignmentId=366e7396-6810-4380-87c4-05e2892ab2cd&projectId=a6b6d205-fa41-4c5b-a7a5-7fc4b51b0cea","CA1F89C14CC54B08ACDD467F095168BC-2025-05-27-17-50-32","","487","","images/semantic_sequence/kitchen_operations_semantic/kitchen_operations_semantic_8.png","0","",""
"","","","","","image-button-response","71","331509","0.0-12.0-1.0-2.4","CA1F89C14CC54B08ACDD467F095168BC","CA1F89C14CC54B08ACDD467F095168BC","366e7396-6810-4380-87c4-05e2892ab2cd","a6b6d205-fa41-4c5b-a7a5-7fc4b51b0cea","{""num_scrambled_semantic"":""8"",""num_scrambled_causal"":""4"",""num_scrambled_schematic"":""4"",""participantId"":""CA1F89C14CC54B08ACDD467F095168BC"",""assignmentId"":""366e7396-6810-4380-87c4-05e2892ab2cd"",""projectId"":""a6b6d205-fa41-4c5b-a7a5-7fc4b51b0cea""}","https://test12345.live/?num_scrambled_semantic=8&num_scrambled_causal=4&num_scrambled_schematic=4&participantId=CA1F89C14CC54B08ACDD467F095168BC&assignmentId=366e7396-6810-4380-87c4-05e2892ab2cd&projectId=a6b6d205-fa41-4c5b-a7a5-7fc4b51b0cea","CA1F89C14CC54B08ACDD467F095168BC-2025-05-27-17-50-32","","null","","[]","null","",""
"","","","","","image-button-response","72","336012","0.0-12.0-1.0-0.5","CA1F89C14CC54B08ACDD467F095168BC","CA1F89C14CC54B08ACDD467F095168BC","366e7396-6810-4380-87c4-05e2892ab2cd","a6b6d205-fa41-4c5b-a7a5-7fc4b51b0cea","{""num_scrambled_semantic"":""8"",""num_scrambled_causal"":""4"",""num_scrambled_schematic"":""4"",""participantId"":""CA1F89C14CC54B08ACDD467F095168BC"",""assignmentId"":""366e7396-6810-4380-87c4-05e2892ab2cd"",""projectId"":""a6b6d205-fa41-4c5b-a7a5-7fc4b51b0cea""}","https://test12345.live/?num_scrambled_semantic=8&num_scrambled_causal=4&num_scrambled_schematic=4&participantId=CA1F89C14CC54B08ACDD467F095168BC&assignmentId=366e7396-6810-4380-87c4-05e2892ab2cd&projectId=a6b6d205-fa41-4c5b-a7a5-7fc4b51b0cea","CA1F89C14CC54B08ACDD467F095168BC-2025-05-27-17-50-32","","null","","images/semantic_sequence/kitchen_operations_semantic/kitchen_operations_semantic_ten.png","null","",""
"","","","","","image-button-response","73","336820","0.0-12.0-1.0-1.5","CA1F89C14CC54B08ACDD467F095168BC","CA1F89C14CC54B08ACDD467F095168BC","366e7396-6810-4380-87c4-05e2892ab2cd","a6b6d205-fa41-4c5b-a7a5-7fc4b51b0cea","{""num_scrambled_semantic"":""8"",""num_scrambled_causal"":""4"",""num_scrambled_schematic"":""4"",""participantId"":""CA1F89C14CC54B08ACDD467F095168BC"",""assignmentId"":""366e7396-6810-4380-87c4-05e2892ab2cd"",""projectId"":""a6b6d205-fa41-4c5b-a7a5-7fc4b51b0cea""}","https://test12345.live/?num_scrambled_semantic=8&num_scrambled_causal=4&num_scrambled_schematic=4&participantId=CA1F89C14CC54B08ACDD467F095168BC&assignmentId=366e7396-6810-4380-87c4-05e2892ab2cd&projectId=a6b6d205-fa41-4c5b-a7a5-7fc4b51b0cea","CA1F89C14CC54B08ACDD467F095168BC-2025-05-27-17-50-32","","806","","images/semantic_sequence/kitchen_operations_semantic/kitchen_operations_semantic_ten.png","0","",""
"","","","","","image-button-response","74","338626","0.0-12.0-1.0-2.5","CA1F89C14CC54B08ACDD467F095168BC","CA1F89C14CC54B08ACDD467F095168BC","366e7396-6810-4380-87c4-05e2892ab2cd","a6b6d205-fa41-4c5b-a7a5-7fc4b51b0cea","{""num_scrambled_semantic"":""8"",""num_scrambled_causal"":""4"",""num_scrambled_schematic"":""4"",""participantId"":""CA1F89C14CC54B08ACDD467F095168BC"",""assignmentId"":""366e7396-6810-4380-87c4-05e2892ab2cd"",""projectId"":""a6b6d205-fa41-4c5b-a7a5-7fc4b51b0cea""}","https://test12345.live/?num_scrambled_semantic=8&num_scrambled_causal=4&num_scrambled_schematic=4&participantId=CA1F89C14CC54B08ACDD467F095168BC&assignmentId=366e7396-6810-4380-87c4-05e2892ab2cd&projectId=a6b6d205-fa41-4c5b-a7a5-7fc4b51b0cea","CA1F89C14CC54B08ACDD467F095168BC-2025-05-27-17-50-32","","null","","[]","null","",""
"","","","","","image-button-response","75","343129","0.0-12.0-1.0-0.6","CA1F89C14CC54B08ACDD467F095168BC","CA1F89C14CC54B08ACDD467F095168BC","366e7396-6810-4380-87c4-05e2892ab2cd","a6b6d205-fa41-4c5b-a7a5-7fc4b51b0cea","{""num_scrambled_semantic"":""8"",""num_scrambled_causal"":""4"",""num_scrambled_schematic"":""4"",""participantId"":""CA1F89C14CC54B08ACDD467F095168BC"",""assignmentId"":""366e7396-6810-4380-87c4-05e2892ab2cd"",""projectId"":""a6b6d205-fa41-4c5b-a7a5-7fc4b51b0cea""}","https://test12345.live/?num_scrambled_semantic=8&num_scrambled_causal=4&num_scrambled_schematic=4&participantId=CA1F89C14CC54B08ACDD467F095168BC&assignmentId=366e7396-6810-4380-87c4-05e2892ab2cd&projectId=a6b6d205-fa41-4c5b-a7a5-7fc4b51b0cea","CA1F89C14CC54B08ACDD467F095168BC-2025-05-27-17-50-32","","null","","images/semantic_sequence/kitchen_operations_semantic/kitchen_operations_semantic_7.png","null","",""
"","","","","","image-button-response","76","343580","0.0-12.0-1.0-1.6","CA1F89C14CC54B08ACDD467F095168BC","CA1F89C14CC54B08ACDD467F095168BC","366e7396-6810-4380-87c4-05e2892ab2cd","a6b6d205-fa41-4c5b-a7a5-7fc4b51b0cea","{""num_scrambled_semantic"":""8"",""num_scrambled_causal"":""4"",""num_scrambled_schematic"":""4"",""participantId"":""CA1F89C14CC54B08ACDD467F095168BC"",""assignmentId"":""366e7396-6810-4380-87c4-05e2892ab2cd"",""projectId"":""a6b6d205-fa41-4c5b-a7a5-7fc4b51b0cea""}","https://test12345.live/?num_scrambled_semantic=8&num_scrambled_causal=4&num_scrambled_schematic=4&participantId=CA1F89C14CC54B08ACDD467F095168BC&assignmentId=366e7396-6810-4380-87c4-05e2892ab2cd&projectId=a6b6d205-fa41-4c5b-a7a5-7fc4b51b0cea","CA1F89C14CC54B08ACDD467F095168BC-2025-05-27-17-50-32","","449","","images/semantic_sequence/kitchen_operations_semantic/kitchen_operations_semantic_7.png","0","",""
"","","","","","image-button-response","77","345387","0.0-12.0-1.0-2.6","CA1F89C14CC54B08ACDD467F095168BC","CA1F89C14CC54B08ACDD467F095168BC","366e7396-6810-4380-87c4-05e2892ab2cd","a6b6d205-fa41-4c5b-a7a5-7fc4b51b0cea","{""num_scrambled_semantic"":""8"",""num_scrambled_causal"":""4"",""num_scrambled_schematic"":""4"",""participantId"":""CA1F89C14CC54B08ACDD467F095168BC"",""assignmentId"":""366e7396-6810-4380-87c4-05e2892ab2cd"",""projectId"":""a6b6d205-fa41-4c5b-a7a5-7fc4b51b0cea""}","https://test12345.live/?num_scrambled_semantic=8&num_scrambled_causal=4&num_scrambled_schematic=4&participantId=CA1F89C14CC54B08ACDD467F095168BC&assignmentId=366e7396-6810-4380-87c4-05e2892ab2cd&projectId=a6b6d205-fa41-4c5b-a7a5-7fc4b51b0cea","CA1F89C14CC54B08ACDD467F095168BC-2025-05-27-17-50-32","","null","","[]","null","",""
"","","","","","image-button-response","78","349894","0.0-12.0-1.0-0.7","CA1F89C14CC54B08ACDD467F095168BC","CA1F89C14CC54B08ACDD467F095168BC","366e7396-6810-4380-87c4-05e2892ab2cd","a6b6d205-fa41-4c5b-a7a5-7fc4b51b0cea","{""num_scrambled_semantic"":""8"",""num_scrambled_causal"":""4"",""num_scrambled_schematic"":""4"",""participantId"":""CA1F89C14CC54B08ACDD467F095168BC"",""assignmentId"":""366e7396-6810-4380-87c4-05e2892ab2cd"",""projectId"":""a6b6d205-fa41-4c5b-a7a5-7fc4b51b0cea""}","https://test12345.live/?num_scrambled_semantic=8&num_scrambled_causal=4&num_scrambled_schematic=4&participantId=CA1F89C14CC54B08ACDD467F095168BC&assignmentId=366e7396-6810-4380-87c4-05e2892ab2cd&projectId=a6b6d205-fa41-4c5b-a7a5-7fc4b51b0cea","CA1F89C14CC54B08ACDD467F095168BC-2025-05-27-17-50-32","","null","","images/semantic_sequence/kitchen_operations_semantic/kitchen_operations_semantic_6.png","null","",""
"","","","","","image-button-response","79","350500","0.0-12.0-1.0-1.7","CA1F89C14CC54B08ACDD467F095168BC","CA1F89C14CC54B08ACDD467F095168BC","366e7396-6810-4380-87c4-05e2892ab2cd","a6b6d205-fa41-4c5b-a7a5-7fc4b51b0cea","{""num_scrambled_semantic"":""8"",""num_scrambled_causal"":""4"",""num_scrambled_schematic"":""4"",""participantId"":""CA1F89C14CC54B08ACDD467F095168BC"",""assignmentId"":""366e7396-6810-4380-87c4-05e2892ab2cd"",""projectId"":""a6b6d205-fa41-4c5b-a7a5-7fc4b51b0cea""}","https://test12345.live/?num_scrambled_semantic=8&num_scrambled_causal=4&num_scrambled_schematic=4&participantId=CA1F89C14CC54B08ACDD467F095168BC&assignmentId=366e7396-6810-4380-87c4-05e2892ab2cd&projectId=a6b6d205-fa41-4c5b-a7a5-7fc4b51b0cea","CA1F89C14CC54B08ACDD467F095168BC-2025-05-27-17-50-32","","604","","images/semantic_sequence/kitchen_operations_semantic/kitchen_operations_semantic_6.png","0","",""
"","","","","","image-button-response","80","352308","0.0-12.0-1.0-2.7","CA1F89C14CC54B08ACDD467F095168BC","CA1F89C14CC54B08ACDD467F095168BC","366e7396-6810-4380-87c4-05e2892ab2cd","a6b6d205-fa41-4c5b-a7a5-7fc4b51b0cea","{""num_scrambled_semantic"":""8"",""num_scrambled_causal"":""4"",""num_scrambled_schematic"":""4"",""participantId"":""CA1F89C14CC54B08ACDD467F095168BC"",""assignmentId"":""366e7396-6810-4380-87c4-05e2892ab2cd"",""projectId"":""a6b6d205-fa41-4c5b-a7a5-7fc4b51b0cea""}","https://test12345.live/?num_scrambled_semantic=8&num_scrambled_causal=4&num_scrambled_schematic=4&participantId=CA1F89C14CC54B08ACDD467F095168BC&assignmentId=366e7396-6810-4380-87c4-05e2892ab2cd&projectId=a6b6d205-fa41-4c5b-a7a5-7fc4b51b0cea","CA1F89C14CC54B08ACDD467F095168BC-2025-05-27-17-50-32","","null","","[]","null","",""
"","","","","","image-button-response","81","356815","0.0-12.0-1.0-0.8","CA1F89C14CC54B08ACDD467F095168BC","CA1F89C14CC54B08ACDD467F095168BC","366e7396-6810-4380-87c4-05e2892ab2cd","a6b6d205-fa41-4c5b-a7a5-7fc4b51b0cea","{""num_scrambled_semantic"":""8"",""num_scrambled_causal"":""4"",""num_scrambled_schematic"":""4"",""participantId"":""CA1F89C14CC54B08ACDD467F095168BC"",""assignmentId"":""366e7396-6810-4380-87c4-05e2892ab2cd"",""projectId"":""a6b6d205-fa41-4c5b-a7a5-7fc4b51b0cea""}","https://test12345.live/?num_scrambled_semantic=8&num_scrambled_causal=4&num_scrambled_schematic=4&participantId=CA1F89C14CC54B08ACDD467F095168BC&assignmentId=366e7396-6810-4380-87c4-05e2892ab2cd&projectId=a6b6d205-fa41-4c5b-a7a5-7fc4b51b0cea","CA1F89C14CC54B08ACDD467F095168BC-2025-05-27-17-50-32","","null","","images/semantic_sequence/kitchen_operations_semantic/kitchen_operations_semantic_5.png","null","",""
"","","","","","image-button-response","82","357396","0.0-12.0-1.0-1.8","CA1F89C14CC54B08ACDD467F095168BC","CA1F89C14CC54B08ACDD467F095168BC","366e7396-6810-4380-87c4-05e2892ab2cd","a6b6d205-fa41-4c5b-a7a5-7fc4b51b0cea","{""num_scrambled_semantic"":""8"",""num_scrambled_causal"":""4"",""num_scrambled_schematic"":""4"",""participantId"":""CA1F89C14CC54B08ACDD467F095168BC"",""assignmentId"":""366e7396-6810-4380-87c4-05e2892ab2cd"",""projectId"":""a6b6d205-fa41-4c5b-a7a5-7fc4b51b0cea""}","https://test12345.live/?num_scrambled_semantic=8&num_scrambled_causal=4&num_scrambled_schematic=4&participantId=CA1F89C14CC54B08ACDD467F095168BC&assignmentId=366e7396-6810-4380-87c4-05e2892ab2cd&projectId=a6b6d205-fa41-4c5b-a7a5-7fc4b51b0cea","CA1F89C14CC54B08ACDD467F095168BC-2025-05-27-17-50-32","","580","","images/semantic_sequence/kitchen_operations_semantic/kitchen_operations_semantic_5.png","0","",""
"","","","","","image-button-response","83","359205","0.0-12.0-1.0-2.8","CA1F89C14CC54B08ACDD467F095168BC","CA1F89C14CC54B08ACDD467F095168BC","366e7396-6810-4380-87c4-05e2892ab2cd","a6b6d205-fa41-4c5b-a7a5-7fc4b51b0cea","{""num_scrambled_semantic"":""8"",""num_scrambled_causal"":""4"",""num_scrambled_schematic"":""4"",""participantId"":""CA1F89C14CC54B08ACDD467F095168BC"",""assignmentId"":""366e7396-6810-4380-87c4-05e2892ab2cd"",""projectId"":""a6b6d205-fa41-4c5b-a7a5-7fc4b51b0cea""}","https://test12345.live/?num_scrambled_semantic=8&num_scrambled_causal=4&num_scrambled_schematic=4&participantId=CA1F89C14CC54B08ACDD467F095168BC&assignmentId=366e7396-6810-4380-87c4-05e2892ab2cd&projectId=a6b6d205-fa41-4c5b-a7a5-7fc4b51b0cea","CA1F89C14CC54B08ACDD467F095168BC-2025-05-27-17-50-32","","null","","[]","null","",""
"","","","","","image-button-response","84","363712","0.0-12.0-1.0-0.9","CA1F89C14CC54B08ACDD467F095168BC","CA1F89C14CC54B08ACDD467F095168BC","366e7396-6810-4380-87c4-05e2892ab2cd","a6b6d205-fa41-4c5b-a7a5-7fc4b51b0cea","{""num_scrambled_semantic"":""8"",""num_scrambled_causal"":""4"",""num_scrambled_schematic"":""4"",""participantId"":""CA1F89C14CC54B08ACDD467F095168BC"",""assignmentId"":""366e7396-6810-4380-87c4-05e2892ab2cd"",""projectId"":""a6b6d205-fa41-4c5b-a7a5-7fc4b51b0cea""}","https://test12345.live/?num_scrambled_semantic=8&num_scrambled_causal=4&num_scrambled_schematic=4&participantId=CA1F89C14CC54B08ACDD467F095168BC&assignmentId=366e7396-6810-4380-87c4-05e2892ab2cd&projectId=a6b6d205-fa41-4c5b-a7a5-7fc4b51b0cea","CA1F89C14CC54B08ACDD467F095168BC-2025-05-27-17-50-32","","null","","images/semantic_sequence/kitchen_operations_semantic/kitchen_operations_semantic_9.png","null","",""
"","","","","","image-button-response","85","364365","0.0-12.0-1.0-1.9","CA1F89C14CC54B08ACDD467F095168BC","CA1F89C14CC54B08ACDD467F095168BC","366e7396-6810-4380-87c4-05e2892ab2cd","a6b6d205-fa41-4c5b-a7a5-7fc4b51b0cea","{""num_scrambled_semantic"":""8"",""num_scrambled_causal"":""4"",""num_scrambled_schematic"":""4"",""participantId"":""CA1F89C14CC54B08ACDD467F095168BC"",""assignmentId"":""366e7396-6810-4380-87c4-05e2892ab2cd"",""projectId"":""a6b6d205-fa41-4c5b-a7a5-7fc4b51b0cea""}","https://test12345.live/?num_scrambled_semantic=8&num_scrambled_causal=4&num_scrambled_schematic=4&participantId=CA1F89C14CC54B08ACDD467F095168BC&assignmentId=366e7396-6810-4380-87c4-05e2892ab2cd&projectId=a6b6d205-fa41-4c5b-a7a5-7fc4b51b0cea","CA1F89C14CC54B08ACDD467F095168BC-2025-05-27-17-50-32","","651","","images/semantic_sequence/kitchen_operations_semantic/kitchen_operations_semantic_9.png","0","",""
"","","","","","image-button-response","86","366170","0.0-12.0-1.0-2.9","CA1F89C14CC54B08ACDD467F095168BC","CA1F89C14CC54B08ACDD467F095168BC","366e7396-6810-4380-87c4-05e2892ab2cd","a6b6d205-fa41-4c5b-a7a5-7fc4b51b0cea","{""num_scrambled_semantic"":""8"",""num_scrambled_causal"":""4"",""num_scrambled_schematic"":""4"",""participantId"":""CA1F89C14CC54B08ACDD467F095168BC"",""assignmentId"":""366e7396-6810-4380-87c4-05e2892ab2cd"",""projectId"":""a6b6d205-fa41-4c5b-a7a5-7fc4b51b0cea""}","https://test12345.live/?num_scrambled_semantic=8&num_scrambled_causal=4&num_scrambled_schematic=4&participantId=CA1F89C14CC54B08ACDD467F095168BC&assignmentId=366e7396-6810-4380-87c4-05e2892ab2cd&projectId=a6b6d205-fa41-4c5b-a7a5-7fc4b51b0cea","CA1F89C14CC54B08ACDD467F095168BC-2025-05-27-17-50-32","","null","","[]","null","",""
"","","","","","html-audio-response","87","386334","0.0-13.0","CA1F89C14CC54B08ACDD467F095168BC","CA1F89C14CC54B08ACDD467F095168BC","366e7396-6810-4380-87c4-05e2892ab2cd","a6b6d205-fa41-4c5b-a7a5-7fc4b51b0cea","{""num_scrambled_semantic"":""8"",""num_scrambled_causal"":""4"",""num_scrambled_schematic"":""4"",""participantId"":""CA1F89C14CC54B08ACDD467F095168BC"",""assignmentId"":""366e7396-6810-4380-87c4-05e2892ab2cd"",""projectId"":""a6b6d205-fa41-4c5b-a7a5-7fc4b51b0cea""}","https://test12345.live/?num_scrambled_semantic=8&num_scrambled_causal=4&num_scrambled_schematic=4&participantId=CA1F89C14CC54B08ACDD467F095168BC&assignmentId=366e7396-6810-4380-87c4-05e2892ab2cd&projectId=a6b6d205-fa41-4c5b-a7a5-7fc4b51b0cea","CA1F89C14CC54B08ACDD467F095168BC-2025-05-27-17-50-32","","18810","","[""<span style=\""color: red; font-size: 24px\""> NOW RECORDING</span><p>Please say out loud all the images you saw, in the exact order you saw them. Try to recall as many images as you can, but remember: getting the order right is more important than the number of images you recall.</p>""]","","3","kitchen_operations_semantic"
"","","","","","image-button-response","88","392346","0.0-14.0-0.0","CA1F89C14CC54B08ACDD467F095168BC","CA1F89C14CC54B08ACDD467F095168BC","366e7396-6810-4380-87c4-05e2892ab2cd","a6b6d205-fa41-4c5b-a7a5-7fc4b51b0cea","{""num_scrambled_semantic"":""8"",""num_scrambled_causal"":""4"",""num_scrambled_schematic"":""4"",""participantId"":""CA1F89C14CC54B08ACDD467F095168BC"",""assignmentId"":""366e7396-6810-4380-87c4-05e2892ab2cd"",""projectId"":""a6b6d205-fa41-4c5b-a7a5-7fc4b51b0cea""}","https://test12345.live/?num_scrambled_semantic=8&num_scrambled_causal=4&num_scrambled_schematic=4&participantId=CA1F89C14CC54B08ACDD467F095168BC&assignmentId=366e7396-6810-4380-87c4-05e2892ab2cd&projectId=a6b6d205-fa41-4c5b-a7a5-7fc4b51b0cea","CA1F89C14CC54B08ACDD467F095168BC-2025-05-27-17-50-32","","null","","images/semantic_sequence/physical_activity_semantic/physical_activity_semantic_0.png","null","",""
"","","","","","image-button-response","89","396847","0.0-14.0-1.0-0.0","CA1F89C14CC54B08ACDD467F095168BC","CA1F89C14CC54B08ACDD467F095168BC","366e7396-6810-4380-87c4-05e2892ab2cd","a6b6d205-fa41-4c5b-a7a5-7fc4b51b0cea","{""num_scrambled_semantic"":""8"",""num_scrambled_causal"":""4"",""num_scrambled_schematic"":""4"",""participantId"":""CA1F89C14CC54B08ACDD467F095168BC"",""assignmentId"":""366e7396-6810-4380-87c4-05e2892ab2cd"",""projectId"":""a6b6d205-fa41-4c5b-a7a5-7fc4b51b0cea""}","https://test12345.live/?num_scrambled_semantic=8&num_scrambled_causal=4&num_scrambled_schematic=4&participantId=CA1F89C14CC54B08ACDD467F095168BC&assignmentId=366e7396-6810-4380-87c4-05e2892ab2cd&projectId=a6b6d205-fa41-4c5b-a7a5-7fc4b51b0cea","CA1F89C14CC54B08ACDD467F095168BC-2025-05-27-17-50-32","","null","","images/semantic_sequence/physical_activity_semantic/physical_activity_semantic_1.png","null","",""
"","","","","","image-button-response","90","397790","0.0-14.0-1.0-1.0","CA1F89C14CC54B08ACDD467F095168BC","CA1F89C14CC54B08ACDD467F095168BC","366e7396-6810-4380-87c4-05e2892ab2cd","a6b6d205-fa41-4c5b-a7a5-7fc4b51b0cea","{""num_scrambled_semantic"":""8"",""num_scrambled_causal"":""4"",""num_scrambled_schematic"":""4"",""participantId"":""CA1F89C14CC54B08ACDD467F095168BC"",""assignmentId"":""366e7396-6810-4380-87c4-05e2892ab2cd"",""projectId"":""a6b6d205-fa41-4c5b-a7a5-7fc4b51b0cea""}","https://test12345.live/?num_scrambled_semantic=8&num_scrambled_causal=4&num_scrambled_schematic=4&participantId=CA1F89C14CC54B08ACDD467F095168BC&assignmentId=366e7396-6810-4380-87c4-05e2892ab2cd&projectId=a6b6d205-fa41-4c5b-a7a5-7fc4b51b0cea","CA1F89C14CC54B08ACDD467F095168BC-2025-05-27-17-50-32","","941","","images/semantic_sequence/physical_activity_semantic/physical_activity_semantic_1.png","0","",""
"","","","","","image-button-response","91","399594","0.0-14.0-1.0-2.0","CA1F89C14CC54B08ACDD467F095168BC","CA1F89C14CC54B08ACDD467F095168BC","366e7396-6810-4380-87c4-05e2892ab2cd","a6b6d205-fa41-4c5b-a7a5-7fc4b51b0cea","{""num_scrambled_semantic"":""8"",""num_scrambled_causal"":""4"",""num_scrambled_schematic"":""4"",""participantId"":""CA1F89C14CC54B08ACDD467F095168BC"",""assignmentId"":""366e7396-6810-4380-87c4-05e2892ab2cd"",""projectId"":""a6b6d205-fa41-4c5b-a7a5-7fc4b51b0cea""}","https://test12345.live/?num_scrambled_semantic=8&num_scrambled_causal=4&num_scrambled_schematic=4&participantId=CA1F89C14CC54B08ACDD467F095168BC&assignmentId=366e7396-6810-4380-87c4-05e2892ab2cd&projectId=a6b6d205-fa41-4c5b-a7a5-7fc4b51b0cea","CA1F89C14CC54B08ACDD467F095168BC-2025-05-27-17-50-32","","null","","[]","null","",""
"","","","","","image-button-response","92","404100","0.0-14.0-1.0-0.1","CA1F89C14CC54B08ACDD467F095168BC","CA1F89C14CC54B08ACDD467F095168BC","366e7396-6810-4380-87c4-05e2892ab2cd","a6b6d205-fa41-4c5b-a7a5-7fc4b51b0cea","{""num_scrambled_semantic"":""8"",""num_scrambled_causal"":""4"",""num_scrambled_schematic"":""4"",""participantId"":""CA1F89C14CC54B08ACDD467F095168BC"",""assignmentId"":""366e7396-6810-4380-87c4-05e2892ab2cd"",""projectId"":""a6b6d205-fa41-4c5b-a7a5-7fc4b51b0cea""}","https://test12345.live/?num_scrambled_semantic=8&num_scrambled_causal=4&num_scrambled_schematic=4&participantId=CA1F89C14CC54B08ACDD467F095168BC&assignmentId=366e7396-6810-4380-87c4-05e2892ab2cd&projectId=a6b6d205-fa41-4c5b-a7a5-7fc4b51b0cea","CA1F89C14CC54B08ACDD467F095168BC-2025-05-27-17-50-32","","null","","images/semantic_sequence/physical_activity_semantic/physical_activity_semantic_2.png","null","",""
"","","","","","image-button-response","93","405502","0.0-14.0-1.0-1.1","CA1F89C14CC54B08ACDD467F095168BC","CA1F89C14CC54B08ACDD467F095168BC","366e7396-6810-4380-87c4-05e2892ab2cd","a6b6d205-fa41-4c5b-a7a5-7fc4b51b0cea","{""num_scrambled_semantic"":""8"",""num_scrambled_causal"":""4"",""num_scrambled_schematic"":""4"",""participantId"":""CA1F89C14CC54B08ACDD467F095168BC"",""assignmentId"":""366e7396-6810-4380-87c4-05e2892ab2cd"",""projectId"":""a6b6d205-fa41-4c5b-a7a5-7fc4b51b0cea""}","https://test12345.live/?num_scrambled_semantic=8&num_scrambled_causal=4&num_scrambled_schematic=4&participantId=CA1F89C14CC54B08ACDD467F095168BC&assignmentId=366e7396-6810-4380-87c4-05e2892ab2cd&projectId=a6b6d205-fa41-4c5b-a7a5-7fc4b51b0cea","CA1F89C14CC54B08ACDD467F095168BC-2025-05-27-17-50-32","","1400","","images/semantic_sequence/physical_activity_semantic/physical_activity_semantic_2.png","0","",""
"","","","","","image-button-response","94","407309","0.0-14.0-1.0-2.1","CA1F89C14CC54B08ACDD467F095168BC","CA1F89C14CC54B08ACDD467F095168BC","366e7396-6810-4380-87c4-05e2892ab2cd","a6b6d205-fa41-4c5b-a7a5-7fc4b51b0cea","{""num_scrambled_semantic"":""8"",""num_scrambled_causal"":""4"",""num_scrambled_schematic"":""4"",""participantId"":""CA1F89C14CC54B08ACDD467F095168BC"",""assignmentId"":""366e7396-6810-4380-87c4-05e2892ab2cd"",""projectId"":""a6b6d205-fa41-4c5b-a7a5-7fc4b51b0cea""}","https://test12345.live/?num_scrambled_semantic=8&num_scrambled_causal=4&num_scrambled_schematic=4&participantId=CA1F89C14CC54B08ACDD467F095168BC&assignmentId=366e7396-6810-4380-87c4-05e2892ab2cd&projectId=a6b6d205-fa41-4c5b-a7a5-7fc4b51b0cea","CA1F89C14CC54B08ACDD467F095168BC-2025-05-27-17-50-32","","null","","[]","null","",""
"","","","","","image-button-response","95","411814","0.0-14.0-1.0-0.2","CA1F89C14CC54B08ACDD467F095168BC","CA1F89C14CC54B08ACDD467F095168BC","366e7396-6810-4380-87c4-05e2892ab2cd","a6b6d205-fa41-4c5b-a7a5-7fc4b51b0cea","{""num_scrambled_semantic"":""8"",""num_scrambled_causal"":""4"",""num_scrambled_schematic"":""4"",""participantId"":""CA1F89C14CC54B08ACDD467F095168BC"",""assignmentId"":""366e7396-6810-4380-87c4-05e2892ab2cd"",""projectId"":""a6b6d205-fa41-4c5b-a7a5-7fc4b51b0cea""}","https://test12345.live/?num_scrambled_semantic=8&num_scrambled_causal=4&num_scrambled_schematic=4&participantId=CA1F89C14CC54B08ACDD467F095168BC&assignmentId=366e7396-6810-4380-87c4-05e2892ab2cd&projectId=a6b6d205-fa41-4c5b-a7a5-7fc4b51b0cea","CA1F89C14CC54B08ACDD467F095168BC-2025-05-27-17-50-32","","null","","images/semantic_sequence/physical_activity_semantic/physical_activity_semantic_3.png","null","",""
"","","","","","image-button-response","96","412406","0.0-14.0-1.0-1.2","CA1F89C14CC54B08ACDD467F095168BC","CA1F89C14CC54B08ACDD467F095168BC","366e7396-6810-4380-87c4-05e2892ab2cd","a6b6d205-fa41-4c5b-a7a5-7fc4b51b0cea","{""num_scrambled_semantic"":""8"",""num_scrambled_causal"":""4"",""num_scrambled_schematic"":""4"",""participantId"":""CA1F89C14CC54B08ACDD467F095168BC"",""assignmentId"":""366e7396-6810-4380-87c4-05e2892ab2cd"",""projectId"":""a6b6d205-fa41-4c5b-a7a5-7fc4b51b0cea""}","https://test12345.live/?num_scrambled_semantic=8&num_scrambled_causal=4&num_scrambled_schematic=4&participantId=CA1F89C14CC54B08ACDD467F095168BC&assignmentId=366e7396-6810-4380-87c4-05e2892ab2cd&projectId=a6b6d205-fa41-4c5b-a7a5-7fc4b51b0cea","CA1F89C14CC54B08ACDD467F095168BC-2025-05-27-17-50-32","","590","","images/semantic_sequence/physical_activity_semantic/physical_activity_semantic_3.png","0","",""
"","","","","","image-button-response","97","414212","0.0-14.0-1.0-2.2","CA1F89C14CC54B08ACDD467F095168BC","CA1F89C14CC54B08ACDD467F095168BC","366e7396-6810-4380-87c4-05e2892ab2cd","a6b6d205-fa41-4c5b-a7a5-7fc4b51b0cea","{""num_scrambled_semantic"":""8"",""num_scrambled_causal"":""4"",""num_scrambled_schematic"":""4"",""participantId"":""CA1F89C14CC54B08ACDD467F095168BC"",""assignmentId"":""366e7396-6810-4380-87c4-05e2892ab2cd"",""projectId"":""a6b6d205-fa41-4c5b-a7a5-7fc4b51b0cea""}","https://test12345.live/?num_scrambled_semantic=8&num_scrambled_causal=4&num_scrambled_schematic=4&participantId=CA1F89C14CC54B08ACDD467F095168BC&assignmentId=366e7396-6810-4380-87c4-05e2892ab2cd&projectId=a6b6d205-fa41-4c5b-a7a5-7fc4b51b0cea","CA1F89C14CC54B08ACDD467F095168BC-2025-05-27-17-50-32","","null","","[]","null","",""
"","","","","","image-button-response","98","418718","0.0-14.0-1.0-0.3","CA1F89C14CC54B08ACDD467F095168BC","CA1F89C14CC54B08ACDD467F095168BC","366e7396-6810-4380-87c4-05e2892ab2cd","a6b6d205-fa41-4c5b-a7a5-7fc4b51b0cea","{""num_scrambled_semantic"":""8"",""num_scrambled_causal"":""4"",""num_scrambled_schematic"":""4"",""participantId"":""CA1F89C14CC54B08ACDD467F095168BC"",""assignmentId"":""366e7396-6810-4380-87c4-05e2892ab2cd"",""projectId"":""a6b6d205-fa41-4c5b-a7a5-7fc4b51b0cea""}","https://test12345.live/?num_scrambled_semantic=8&num_scrambled_causal=4&num_scrambled_schematic=4&participantId=CA1F89C14CC54B08ACDD467F095168BC&assignmentId=366e7396-6810-4380-87c4-05e2892ab2cd&projectId=a6b6d205-fa41-4c5b-a7a5-7fc4b51b0cea","CA1F89C14CC54B08ACDD467F095168BC-2025-05-27-17-50-32","","null","","images/semantic_sequence/physical_activity_semantic/physical_activity_semantic_4.png","null","",""
"","","","","","image-button-response","99","419551","0.0-14.0-1.0-1.3","CA1F89C14CC54B08ACDD467F095168BC","CA1F89C14CC54B08ACDD467F095168BC","366e7396-6810-4380-87c4-05e2892ab2cd","a6b6d205-fa41-4c5b-a7a5-7fc4b51b0cea","{""num_scrambled_semantic"":""8"",""num_scrambled_causal"":""4"",""num_scrambled_schematic"":""4"",""participantId"":""CA1F89C14CC54B08ACDD467F095168BC"",""assignmentId"":""366e7396-6810-4380-87c4-05e2892ab2cd"",""projectId"":""a6b6d205-fa41-4c5b-a7a5-7fc4b51b0cea""}","https://test12345.live/?num_scrambled_semantic=8&num_scrambled_causal=4&num_scrambled_schematic=4&participantId=CA1F89C14CC54B08ACDD467F095168BC&assignmentId=366e7396-6810-4380-87c4-05e2892ab2cd&projectId=a6b6d205-fa41-4c5b-a7a5-7fc4b51b0cea","CA1F89C14CC54B08ACDD467F095168BC-2025-05-27-17-50-32","","831","","images/semantic_sequence/physical_activity_semantic/physical_activity_semantic_4.png","0","",""
"","","","","","image-button-response","100","421358","0.0-14.0-1.0-2.3","CA1F89C14CC54B08ACDD467F095168BC","CA1F89C14CC54B08ACDD467F095168BC","366e7396-6810-4380-87c4-05e2892ab2cd","a6b6d205-fa41-4c5b-a7a5-7fc4b51b0cea","{""num_scrambled_semantic"":""8"",""num_scrambled_causal"":""4"",""num_scrambled_schematic"":""4"",""participantId"":""CA1F89C14CC54B08ACDD467F095168BC"",""assignmentId"":""366e7396-6810-4380-87c4-05e2892ab2cd"",""projectId"":""a6b6d205-fa41-4c5b-a7a5-7fc4b51b0cea""}","https://test12345.live/?num_scrambled_semantic=8&num_scrambled_causal=4&num_scrambled_schematic=4&participantId=CA1F89C14CC54B08ACDD467F095168BC&assignmentId=366e7396-6810-4380-87c4-05e2892ab2cd&projectId=a6b6d205-fa41-4c5b-a7a5-7fc4b51b0cea","CA1F89C14CC54B08ACDD467F095168BC-2025-05-27-17-50-32","","null","","[]","null","",""
"","","","","","image-button-response","101","425861","0.0-14.0-1.0-0.4","CA1F89C14CC54B08ACDD467F095168BC","CA1F89C14CC54B08ACDD467F095168BC","366e7396-6810-4380-87c4-05e2892ab2cd","a6b6d205-fa41-4c5b-a7a5-7fc4b51b0cea","{""num_scrambled_semantic"":""8"",""num_scrambled_causal"":""4"",""num_scrambled_schematic"":""4"",""participantId"":""CA1F89C14CC54B08ACDD467F095168BC"",""assignmentId"":""366e7396-6810-4380-87c4-05e2892ab2cd"",""projectId"":""a6b6d205-fa41-4c5b-a7a5-7fc4b51b0cea""}","https://test12345.live/?num_scrambled_semantic=8&num_scrambled_causal=4&num_scrambled_schematic=4&participantId=CA1F89C14CC54B08ACDD467F095168BC&assignmentId=366e7396-6810-4380-87c4-05e2892ab2cd&projectId=a6b6d205-fa41-4c5b-a7a5-7fc4b51b0cea","CA1F89C14CC54B08ACDD467F095168BC-2025-05-27-17-50-32","","null","","images/semantic_sequence/physical_activity_semantic/physical_activity_semantic_5.png","null","",""
"","","","","","image-button-response","102","426703","0.0-14.0-1.0-1.4","CA1F89C14CC54B08ACDD467F095168BC","CA1F89C14CC54B08ACDD467F095168BC","366e7396-6810-4380-87c4-05e2892ab2cd","a6b6d205-fa41-4c5b-a7a5-7fc4b51b0cea","{""num_scrambled_semantic"":""8"",""num_scrambled_causal"":""4"",""num_scrambled_schematic"":""4"",""participantId"":""CA1F89C14CC54B08ACDD467F095168BC"",""assignmentId"":""366e7396-6810-4380-87c4-05e2892ab2cd"",""projectId"":""a6b6d205-fa41-4c5b-a7a5-7fc4b51b0cea""}","https://test12345.live/?num_scrambled_semantic=8&num_scrambled_causal=4&num_scrambled_schematic=4&participantId=CA1F89C14CC54B08ACDD467F095168BC&assignmentId=366e7396-6810-4380-87c4-05e2892ab2cd&projectId=a6b6d205-fa41-4c5b-a7a5-7fc4b51b0cea","CA1F89C14CC54B08ACDD467F095168BC-2025-05-27-17-50-32","","840","","images/semantic_sequence/physical_activity_semantic/physical_activity_semantic_5.png","0","",""
"","","","","","image-button-response","103","428510","0.0-14.0-1.0-2.4","CA1F89C14CC54B08ACDD467F095168BC","CA1F89C14CC54B08ACDD467F095168BC","366e7396-6810-4380-87c4-05e2892ab2cd","a6b6d205-fa41-4c5b-a7a5-7fc4b51b0cea","{""num_scrambled_semantic"":""8"",""num_scrambled_causal"":""4"",""num_scrambled_schematic"":""4"",""participantId"":""CA1F89C14CC54B08ACDD467F095168BC"",""assignmentId"":""366e7396-6810-4380-87c4-05e2892ab2cd"",""projectId"":""a6b6d205-fa41-4c5b-a7a5-7fc4b51b0cea""}","https://test12345.live/?num_scrambled_semantic=8&num_scrambled_causal=4&num_scrambled_schematic=4&participantId=CA1F89C14CC54B08ACDD467F095168BC&assignmentId=366e7396-6810-4380-87c4-05e2892ab2cd&projectId=a6b6d205-fa41-4c5b-a7a5-7fc4b51b0cea","CA1F89C14CC54B08ACDD467F095168BC-2025-05-27-17-50-32","","null","","[]","null","",""
"","","","","","image-button-response","104","433016","0.0-14.0-1.0-0.5","CA1F89C14CC54B08ACDD467F095168BC","CA1F89C14CC54B08ACDD467F095168BC","366e7396-6810-4380-87c4-05e2892ab2cd","a6b6d205-fa41-4c5b-a7a5-7fc4b51b0cea","{""num_scrambled_semantic"":""8"",""num_scrambled_causal"":""4"",""num_scrambled_schematic"":""4"",""participantId"":""CA1F89C14CC54B08ACDD467F095168BC"",""assignmentId"":""366e7396-6810-4380-87c4-05e2892ab2cd"",""projectId"":""a6b6d205-fa41-4c5b-a7a5-7fc4b51b0cea""}","https://test12345.live/?num_scrambled_semantic=8&num_scrambled_causal=4&num_scrambled_schematic=4&participantId=CA1F89C14CC54B08ACDD467F095168BC&assignmentId=366e7396-6810-4380-87c4-05e2892ab2cd&projectId=a6b6d205-fa41-4c5b-a7a5-7fc4b51b0cea","CA1F89C14CC54B08ACDD467F095168BC-2025-05-27-17-50-32","","null","","images/semantic_sequence/physical_activity_semantic/physical_activity_semantic_6.png","null","",""
"","","","","","image-button-response","105","433703","0.0-14.0-1.0-1.5","CA1F89C14CC54B08ACDD467F095168BC","CA1F89C14CC54B08ACDD467F095168BC","366e7396-6810-4380-87c4-05e2892ab2cd","a6b6d205-fa41-4c5b-a7a5-7fc4b51b0cea","{""num_scrambled_semantic"":""8"",""num_scrambled_causal"":""4"",""num_scrambled_schematic"":""4"",""participantId"":""CA1F89C14CC54B08ACDD467F095168BC"",""assignmentId"":""366e7396-6810-4380-87c4-05e2892ab2cd"",""projectId"":""a6b6d205-fa41-4c5b-a7a5-7fc4b51b0cea""}","https://test12345.live/?num_scrambled_semantic=8&num_scrambled_causal=4&num_scrambled_schematic=4&participantId=CA1F89C14CC54B08ACDD467F095168BC&assignmentId=366e7396-6810-4380-87c4-05e2892ab2cd&projectId=a6b6d205-fa41-4c5b-a7a5-7fc4b51b0cea","CA1F89C14CC54B08ACDD467F095168BC-2025-05-27-17-50-32","","685","","images/semantic_sequence/physical_activity_semantic/physical_activity_semantic_6.png","0","",""
"","","","","","image-button-response","106","435510","0.0-14.0-1.0-2.5","CA1F89C14CC54B08ACDD467F095168BC","CA1F89C14CC54B08ACDD467F095168BC","366e7396-6810-4380-87c4-05e2892ab2cd","a6b6d205-fa41-4c5b-a7a5-7fc4b51b0cea","{""num_scrambled_semantic"":""8"",""num_scrambled_causal"":""4"",""num_scrambled_schematic"":""4"",""participantId"":""CA1F89C14CC54B08ACDD467F095168BC"",""assignmentId"":""366e7396-6810-4380-87c4-05e2892ab2cd"",""projectId"":""a6b6d205-fa41-4c5b-a7a5-7fc4b51b0cea""}","https://test12345.live/?num_scrambled_semantic=8&num_scrambled_causal=4&num_scrambled_schematic=4&participantId=CA1F89C14CC54B08ACDD467F095168BC&assignmentId=366e7396-6810-4380-87c4-05e2892ab2cd&projectId=a6b6d205-fa41-4c5b-a7a5-7fc4b51b0cea","CA1F89C14CC54B08ACDD467F095168BC-2025-05-27-17-50-32","","null","","[]","null","",""
"","","","","","image-button-response","107","440018","0.0-14.0-1.0-0.6","CA1F89C14CC54B08ACDD467F095168BC","CA1F89C14CC54B08ACDD467F095168BC","366e7396-6810-4380-87c4-05e2892ab2cd","a6b6d205-fa41-4c5b-a7a5-7fc4b51b0cea","{""num_scrambled_semantic"":""8"",""num_scrambled_causal"":""4"",""num_scrambled_schematic"":""4"",""participantId"":""CA1F89C14CC54B08ACDD467F095168BC"",""assignmentId"":""366e7396-6810-4380-87c4-05e2892ab2cd"",""projectId"":""a6b6d205-fa41-4c5b-a7a5-7fc4b51b0cea""}","https://test12345.live/?num_scrambled_semantic=8&num_scrambled_causal=4&num_scrambled_schematic=4&participantId=CA1F89C14CC54B08ACDD467F095168BC&assignmentId=366e7396-6810-4380-87c4-05e2892ab2cd&projectId=a6b6d205-fa41-4c5b-a7a5-7fc4b51b0cea","CA1F89C14CC54B08ACDD467F095168BC-2025-05-27-17-50-32","","null","","images/semantic_sequence/physical_activity_semantic/physical_activity_semantic_7.png","null","",""
"","","","","","image-button-response","108","440535","0.0-14.0-1.0-1.6","CA1F89C14CC54B08ACDD467F095168BC","CA1F89C14CC54B08ACDD467F095168BC","366e7396-6810-4380-87c4-05e2892ab2cd","a6b6d205-fa41-4c5b-a7a5-7fc4b51b0cea","{""num_scrambled_semantic"":""8"",""num_scrambled_causal"":""4"",""num_scrambled_schematic"":""4"",""participantId"":""CA1F89C14CC54B08ACDD467F095168BC"",""assignmentId"":""366e7396-6810-4380-87c4-05e2892ab2cd"",""projectId"":""a6b6d205-fa41-4c5b-a7a5-7fc4b51b0cea""}","https://test12345.live/?num_scrambled_semantic=8&num_scrambled_causal=4&num_scrambled_schematic=4&participantId=CA1F89C14CC54B08ACDD467F095168BC&assignmentId=366e7396-6810-4380-87c4-05e2892ab2cd&projectId=a6b6d205-fa41-4c5b-a7a5-7fc4b51b0cea","CA1F89C14CC54B08ACDD467F095168BC-2025-05-27-17-50-32","","515","","images/semantic_sequence/physical_activity_semantic/physical_activity_semantic_7.png","0","",""
"","","","","","image-button-response","109","442342","0.0-14.0-1.0-2.6","CA1F89C14CC54B08ACDD467F095168BC","CA1F89C14CC54B08ACDD467F095168BC","366e7396-6810-4380-87c4-05e2892ab2cd","a6b6d205-fa41-4c5b-a7a5-7fc4b51b0cea","{""num_scrambled_semantic"":""8"",""num_scrambled_causal"":""4"",""num_scrambled_schematic"":""4"",""participantId"":""CA1F89C14CC54B08ACDD467F095168BC"",""assignmentId"":""366e7396-6810-4380-87c4-05e2892ab2cd"",""projectId"":""a6b6d205-fa41-4c5b-a7a5-7fc4b51b0cea""}","https://test12345.live/?num_scrambled_semantic=8&num_scrambled_causal=4&num_scrambled_schematic=4&participantId=CA1F89C14CC54B08ACDD467F095168BC&assignmentId=366e7396-6810-4380-87c4-05e2892ab2cd&projectId=a6b6d205-fa41-4c5b-a7a5-7fc4b51b0cea","CA1F89C14CC54B08ACDD467F095168BC-2025-05-27-17-50-32","","null","","[]","null","",""
"","","","","","image-button-response","110","446848","0.0-14.0-1.0-0.7","CA1F89C14CC54B08ACDD467F095168BC","CA1F89C14CC54B08ACDD467F095168BC","366e7396-6810-4380-87c4-05e2892ab2cd","a6b6d205-fa41-4c5b-a7a5-7fc4b51b0cea","{""num_scrambled_semantic"":""8"",""num_scrambled_causal"":""4"",""num_scrambled_schematic"":""4"",""participantId"":""CA1F89C14CC54B08ACDD467F095168BC"",""assignmentId"":""366e7396-6810-4380-87c4-05e2892ab2cd"",""projectId"":""a6b6d205-fa41-4c5b-a7a5-7fc4b51b0cea""}","https://test12345.live/?num_scrambled_semantic=8&num_scrambled_causal=4&num_scrambled_schematic=4&participantId=CA1F89C14CC54B08ACDD467F095168BC&assignmentId=366e7396-6810-4380-87c4-05e2892ab2cd&projectId=a6b6d205-fa41-4c5b-a7a5-7fc4b51b0cea","CA1F89C14CC54B08ACDD467F095168BC-2025-05-27-17-50-32","","null","","images/semantic_sequence/physical_activity_semantic/physical_activity_semantic_8.png","null","",""
"","","","","","image-button-response","111","447263","0.0-14.0-1.0-1.7","CA1F89C14CC54B08ACDD467F095168BC","CA1F89C14CC54B08ACDD467F095168BC","366e7396-6810-4380-87c4-05e2892ab2cd","a6b6d205-fa41-4c5b-a7a5-7fc4b51b0cea","{""num_scrambled_semantic"":""8"",""num_scrambled_causal"":""4"",""num_scrambled_schematic"":""4"",""participantId"":""CA1F89C14CC54B08ACDD467F095168BC"",""assignmentId"":""366e7396-6810-4380-87c4-05e2892ab2cd"",""projectId"":""a6b6d205-fa41-4c5b-a7a5-7fc4b51b0cea""}","https://test12345.live/?num_scrambled_semantic=8&num_scrambled_causal=4&num_scrambled_schematic=4&participantId=CA1F89C14CC54B08ACDD467F095168BC&assignmentId=366e7396-6810-4380-87c4-05e2892ab2cd&projectId=a6b6d205-fa41-4c5b-a7a5-7fc4b51b0cea","CA1F89C14CC54B08ACDD467F095168BC-2025-05-27-17-50-32","","414","","images/semantic_sequence/physical_activity_semantic/physical_activity_semantic_8.png","0","",""
"","","","","","image-button-response","112","449071","0.0-14.0-1.0-2.7","CA1F89C14CC54B08ACDD467F095168BC","CA1F89C14CC54B08ACDD467F095168BC","366e7396-6810-4380-87c4-05e2892ab2cd","a6b6d205-fa41-4c5b-a7a5-7fc4b51b0cea","{""num_scrambled_semantic"":""8"",""num_scrambled_causal"":""4"",""num_scrambled_schematic"":""4"",""participantId"":""CA1F89C14CC54B08ACDD467F095168BC"",""assignmentId"":""366e7396-6810-4380-87c4-05e2892ab2cd"",""projectId"":""a6b6d205-fa41-4c5b-a7a5-7fc4b51b0cea""}","https://test12345.live/?num_scrambled_semantic=8&num_scrambled_causal=4&num_scrambled_schematic=4&participantId=CA1F89C14CC54B08ACDD467F095168BC&assignmentId=366e7396-6810-4380-87c4-05e2892ab2cd&projectId=a6b6d205-fa41-4c5b-a7a5-7fc4b51b0cea","CA1F89C14CC54B08ACDD467F095168BC-2025-05-27-17-50-32","","null","","[]","null","",""
