"success","timeout","failed_images","failed_audio","failed_video","trial_type","trial_index","time_elapsed","internal_node_id","subject","subject_id","study_id","session_id","urlvar","current_url","audio_id","view_history","rt","device_id","stimulus","response","estimated_stimulus_onset","seq_name"
"true","false","[]","[]","[]","preload","0","7","0.0-0.0","CB623644AE264AE5A51F2587B754F67B","CB623644AE264AE5A51F2587B754F67B","0198b9c6-58c9-79e6-9a0c-f84da384f88f","0198b979-1f5e-7105-8b5f-48f920534529","{""num_scrambled_semantic"":""8"",""num_scrambled_causal"":""4"",""num_scrambled_schematic"":""4"",""participantId"":""CB623644AE264AE5A51F2587B754F67B"",""assignmentId"":""0198b9c6-58c9-79e6-9a0c-f84da384f88f"",""projectId"":""0198b979-1f5e-7105-8b5f-48f920534529""}","https://test12345.live/?num_scrambled_semantic=8&num_scrambled_causal=4&num_scrambled_schematic=4&participantId=CB623644AE264AE5A51F2587B754F67B&assignmentId=0198b9c6-58c9-79e6-9a0c-f84da384f88f&projectId=0198b979-1f5e-7105-8b5f-48f920534529","CB623644AE264AE5A51F2587B754F67B-2025-08-17-21-27-02","","","","","","",""
"","","","","","instructions","1","7363","0.0-1.0","CB623644AE264AE5A51F2587B754F67B","CB623644AE264AE5A51F2587B754F67B","0198b9c6-58c9-79e6-9a0c-f84da384f88f","0198b979-1f5e-7105-8b5f-48f920534529","{""num_scrambled_semantic"":""8"",""num_scrambled_causal"":""4"",""num_scrambled_schematic"":""4"",""participantId"":""CB623644AE264AE5A51F2587B754F67B"",""assignmentId"":""0198b9c6-58c9-79e6-9a0c-f84da384f88f"",""projectId"":""0198b979-1f5e-7105-8b5f-48f920534529""}","https://test12345.live/?num_scrambled_semantic=8&num_scrambled_causal=4&num_scrambled_schematic=4&participantId=CB623644AE264AE5A51F2587B754F67B&assignmentId=0198b9c6-58c9-79e6-9a0c-f84da384f88f&projectId=0198b979-1f5e-7105-8b5f-48f920534529","CB623644AE264AE5A51F2587B754F67B-2025-08-17-21-27-02","[{""page_index"":0,""viewing_time"":7355}]","7356","","","","",""
"","","","","","instructions","2","9642","0.0-2.0","CB623644AE264AE5A51F2587B754F67B","CB623644AE264AE5A51F2587B754F67B","0198b9c6-58c9-79e6-9a0c-f84da384f88f","0198b979-1f5e-7105-8b5f-48f920534529","{""num_scrambled_semantic"":""8"",""num_scrambled_causal"":""4"",""num_scrambled_schematic"":""4"",""participantId"":""CB623644AE264AE5A51F2587B754F67B"",""assignmentId"":""0198b9c6-58c9-79e6-9a0c-f84da384f88f"",""projectId"":""0198b979-1f5e-7105-8b5f-48f920534529""}","https://test12345.live/?num_scrambled_semantic=8&num_scrambled_causal=4&num_scrambled_schematic=4&participantId=CB623644AE264AE5A51F2587B754F67B&assignmentId=0198b9c6-58c9-79e6-9a0c-f84da384f88f&projectId=0198b979-1f5e-7105-8b5f-48f920534529","CB623644AE264AE5A51F2587B754F67B-2025-08-17-21-27-02","[{""page_index"":0,""viewing_time"":2278}]","2278","","","","",""
"true","","","","","fullscreen","3","11587","0.0-3.0","CB623644AE264AE5A51F2587B754F67B","CB623644AE264AE5A51F2587B754F67B","0198b9c6-58c9-79e6-9a0c-f84da384f88f","0198b979-1f5e-7105-8b5f-48f920534529","{""num_scrambled_semantic"":""8"",""num_scrambled_causal"":""4"",""num_scrambled_schematic"":""4"",""participantId"":""CB623644AE264AE5A51F2587B754F67B"",""assignmentId"":""0198b9c6-58c9-79e6-9a0c-f84da384f88f"",""projectId"":""0198b979-1f5e-7105-8b5f-48f920534529""}","https://test12345.live/?num_scrambled_semantic=8&num_scrambled_causal=4&num_scrambled_schematic=4&participantId=CB623644AE264AE5A51F2587B754F67B&assignmentId=0198b9c6-58c9-79e6-9a0c-f84da384f88f&projectId=0198b979-1f5e-7105-8b5f-48f920534529","CB623644AE264AE5A51F2587B754F67B-2025-08-17-21-27-02","","937","","","","",""
"","","","","","initialize-microphone","4","16231","0.0-4.0-0.0","CB623644AE264AE5A51F2587B754F67B","CB623644AE264AE5A51F2587B754F67B","0198b9c6-58c9-79e6-9a0c-f84da384f88f","0198b979-1f5e-7105-8b5f-48f920534529","{""num_scrambled_semantic"":""8"",""num_scrambled_causal"":""4"",""num_scrambled_schematic"":""4"",""participantId"":""CB623644AE264AE5A51F2587B754F67B"",""assignmentId"":""0198b9c6-58c9-79e6-9a0c-f84da384f88f"",""projectId"":""0198b979-1f5e-7105-8b5f-48f920534529""}","https://test12345.live/?num_scrambled_semantic=8&num_scrambled_causal=4&num_scrambled_schematic=4&participantId=CB623644AE264AE5A51F2587B754F67B&assignmentId=0198b9c6-58c9-79e6-9a0c-f84da384f88f&projectId=0198b979-1f5e-7105-8b5f-48f920534529","CB623644AE264AE5A51F2587B754F67B-2025-08-17-21-27-02","","","7a73983a5972b9a3ee143cf22083218d56f2239653c26d2a44da0732408c6c81","","","",""
"","","","","","html-audio-response","5","23477","0.0-4.0-1.0","CB623644AE264AE5A51F2587B754F67B","CB623644AE264AE5A51F2587B754F67B","0198b9c6-58c9-79e6-9a0c-f84da384f88f","0198b979-1f5e-7105-8b5f-48f920534529","{""num_scrambled_semantic"":""8"",""num_scrambled_causal"":""4"",""num_scrambled_schematic"":""4"",""participantId"":""CB623644AE264AE5A51F2587B754F67B"",""assignmentId"":""0198b9c6-58c9-79e6-9a0c-f84da384f88f"",""projectId"":""0198b979-1f5e-7105-8b5f-48f920534529""}","https://test12345.live/?num_scrambled_semantic=8&num_scrambled_causal=4&num_scrambled_schematic=4&participantId=CB623644AE264AE5A51F2587B754F67B&assignmentId=0198b9c6-58c9-79e6-9a0c-f84da384f88f&projectId=0198b979-1f5e-7105-8b5f-48f920534529","CB623644AE264AE5A51F2587B754F67B-2025-08-17-21-27-02","","2956","","<span style=""color: red; font-size: 24px""> NOW RECORDING</span>
        <p>Please test Microphone</p>","","1",""
"","","","","","html-button-response","6","24868","0.0-4.0-2.0","CB623644AE264AE5A51F2587B754F67B","CB623644AE264AE5A51F2587B754F67B","0198b9c6-58c9-79e6-9a0c-f84da384f88f","0198b979-1f5e-7105-8b5f-48f920534529","{""num_scrambled_semantic"":""8"",""num_scrambled_causal"":""4"",""num_scrambled_schematic"":""4"",""participantId"":""CB623644AE264AE5A51F2587B754F67B"",""assignmentId"":""0198b9c6-58c9-79e6-9a0c-f84da384f88f"",""projectId"":""0198b979-1f5e-7105-8b5f-48f920534529""}","https://test12345.live/?num_scrambled_semantic=8&num_scrambled_causal=4&num_scrambled_schematic=4&participantId=CB623644AE264AE5A51F2587B754F67B&assignmentId=0198b9c6-58c9-79e6-9a0c-f84da384f88f&projectId=0198b979-1f5e-7105-8b5f-48f920534529","CB623644AE264AE5A51F2587B754F67B-2025-08-17-21-27-02","","1389","","<p style=""font-size:48px; color:red;"">Is Microphone OK?</p>","1","",""
"","","","","","instructions","7","34226","0.0-5.0","CB623644AE264AE5A51F2587B754F67B","CB623644AE264AE5A51F2587B754F67B","0198b9c6-58c9-79e6-9a0c-f84da384f88f","0198b979-1f5e-7105-8b5f-48f920534529","{""num_scrambled_semantic"":""8"",""num_scrambled_causal"":""4"",""num_scrambled_schematic"":""4"",""participantId"":""CB623644AE264AE5A51F2587B754F67B"",""assignmentId"":""0198b9c6-58c9-79e6-9a0c-f84da384f88f"",""projectId"":""0198b979-1f5e-7105-8b5f-48f920534529""}","https://test12345.live/?num_scrambled_semantic=8&num_scrambled_causal=4&num_scrambled_schematic=4&participantId=CB623644AE264AE5A51F2587B754F67B&assignmentId=0198b9c6-58c9-79e6-9a0c-f84da384f88f&projectId=0198b979-1f5e-7105-8b5f-48f920534529","CB623644AE264AE5A51F2587B754F67B-2025-08-17-21-27-02","[{""page_index"":0,""viewing_time"":7428},{""page_index"":1,""viewing_time"":1929}]","9357","","","","",""
"","","","","","image-button-response","8","40229","0.0-6.0-0.0","CB623644AE264AE5A51F2587B754F67B","CB623644AE264AE5A51F2587B754F67B","0198b9c6-58c9-79e6-9a0c-f84da384f88f","0198b979-1f5e-7105-8b5f-48f920534529","{""num_scrambled_semantic"":""8"",""num_scrambled_causal"":""4"",""num_scrambled_schematic"":""4"",""participantId"":""CB623644AE264AE5A51F2587B754F67B"",""assignmentId"":""0198b9c6-58c9-79e6-9a0c-f84da384f88f"",""projectId"":""0198b979-1f5e-7105-8b5f-48f920534529""}","https://test12345.live/?num_scrambled_semantic=8&num_scrambled_causal=4&num_scrambled_schematic=4&participantId=CB623644AE264AE5A51F2587B754F67B&assignmentId=0198b9c6-58c9-79e6-9a0c-f84da384f88f&projectId=0198b979-1f5e-7105-8b5f-48f920534529","CB623644AE264AE5A51F2587B754F67B-2025-08-17-21-27-02","","null","","images/instructions/movie_0.png","null","",""
"","","","","","image-button-response","9","44736","0.0-6.0-1.0-0.0","CB623644AE264AE5A51F2587B754F67B","CB623644AE264AE5A51F2587B754F67B","0198b9c6-58c9-79e6-9a0c-f84da384f88f","0198b979-1f5e-7105-8b5f-48f920534529","{""num_scrambled_semantic"":""8"",""num_scrambled_causal"":""4"",""num_scrambled_schematic"":""4"",""participantId"":""CB623644AE264AE5A51F2587B754F67B"",""assignmentId"":""0198b9c6-58c9-79e6-9a0c-f84da384f88f"",""projectId"":""0198b979-1f5e-7105-8b5f-48f920534529""}","https://test12345.live/?num_scrambled_semantic=8&num_scrambled_causal=4&num_scrambled_schematic=4&participantId=CB623644AE264AE5A51F2587B754F67B&assignmentId=0198b9c6-58c9-79e6-9a0c-f84da384f88f&projectId=0198b979-1f5e-7105-8b5f-48f920534529","CB623644AE264AE5A51F2587B754F67B-2025-08-17-21-27-02","","null","","images/instructions/movie_1.png","null","",""
"","","","","","image-button-response","10","45718","0.0-6.0-1.0-1.0","CB623644AE264AE5A51F2587B754F67B","CB623644AE264AE5A51F2587B754F67B","0198b9c6-58c9-79e6-9a0c-f84da384f88f","0198b979-1f5e-7105-8b5f-48f920534529","{""num_scrambled_semantic"":""8"",""num_scrambled_causal"":""4"",""num_scrambled_schematic"":""4"",""participantId"":""CB623644AE264AE5A51F2587B754F67B"",""assignmentId"":""0198b9c6-58c9-79e6-9a0c-f84da384f88f"",""projectId"":""0198b979-1f5e-7105-8b5f-48f920534529""}","https://test12345.live/?num_scrambled_semantic=8&num_scrambled_causal=4&num_scrambled_schematic=4&participantId=CB623644AE264AE5A51F2587B754F67B&assignmentId=0198b9c6-58c9-79e6-9a0c-f84da384f88f&projectId=0198b979-1f5e-7105-8b5f-48f920534529","CB623644AE264AE5A51F2587B754F67B-2025-08-17-21-27-02","","980","","images/instructions/movie_1.png","0","",""
"","","","","","image-button-response","11","51125","0.0-6.0-1.0-2.0","CB623644AE264AE5A51F2587B754F67B","CB623644AE264AE5A51F2587B754F67B","0198b9c6-58c9-79e6-9a0c-f84da384f88f","0198b979-1f5e-7105-8b5f-48f920534529","{""num_scrambled_semantic"":""8"",""num_scrambled_causal"":""4"",""num_scrambled_schematic"":""4"",""participantId"":""CB623644AE264AE5A51F2587B754F67B"",""assignmentId"":""0198b9c6-58c9-79e6-9a0c-f84da384f88f"",""projectId"":""0198b979-1f5e-7105-8b5f-48f920534529""}","https://test12345.live/?num_scrambled_semantic=8&num_scrambled_causal=4&num_scrambled_schematic=4&participantId=CB623644AE264AE5A51F2587B754F67B&assignmentId=0198b9c6-58c9-79e6-9a0c-f84da384f88f&projectId=0198b979-1f5e-7105-8b5f-48f920534529","CB623644AE264AE5A51F2587B754F67B-2025-08-17-21-27-02","","null","","[]","null","",""
"","","","","","image-button-response","12","55632","0.0-6.0-1.0-0.1","CB623644AE264AE5A51F2587B754F67B","CB623644AE264AE5A51F2587B754F67B","0198b9c6-58c9-79e6-9a0c-f84da384f88f","0198b979-1f5e-7105-8b5f-48f920534529","{""num_scrambled_semantic"":""8"",""num_scrambled_causal"":""4"",""num_scrambled_schematic"":""4"",""participantId"":""CB623644AE264AE5A51F2587B754F67B"",""assignmentId"":""0198b9c6-58c9-79e6-9a0c-f84da384f88f"",""projectId"":""0198b979-1f5e-7105-8b5f-48f920534529""}","https://test12345.live/?num_scrambled_semantic=8&num_scrambled_causal=4&num_scrambled_schematic=4&participantId=CB623644AE264AE5A51F2587B754F67B&assignmentId=0198b9c6-58c9-79e6-9a0c-f84da384f88f&projectId=0198b979-1f5e-7105-8b5f-48f920534529","CB623644AE264AE5A51F2587B754F67B-2025-08-17-21-27-02","","null","","images/instructions/movie_2.png","null","",""
"","","","","","image-button-response","13","56476","0.0-6.0-1.0-1.1","CB623644AE264AE5A51F2587B754F67B","CB623644AE264AE5A51F2587B754F67B","0198b9c6-58c9-79e6-9a0c-f84da384f88f","0198b979-1f5e-7105-8b5f-48f920534529","{""num_scrambled_semantic"":""8"",""num_scrambled_causal"":""4"",""num_scrambled_schematic"":""4"",""participantId"":""CB623644AE264AE5A51F2587B754F67B"",""assignmentId"":""0198b9c6-58c9-79e6-9a0c-f84da384f88f"",""projectId"":""0198b979-1f5e-7105-8b5f-48f920534529""}","https://test12345.live/?num_scrambled_semantic=8&num_scrambled_causal=4&num_scrambled_schematic=4&participantId=CB623644AE264AE5A51F2587B754F67B&assignmentId=0198b9c6-58c9-79e6-9a0c-f84da384f88f&projectId=0198b979-1f5e-7105-8b5f-48f920534529","CB623644AE264AE5A51F2587B754F67B-2025-08-17-21-27-02","","842","","images/instructions/movie_2.png","0","",""
"","","","","","image-button-response","14","61881","0.0-6.0-1.0-2.1","CB623644AE264AE5A51F2587B754F67B","CB623644AE264AE5A51F2587B754F67B","0198b9c6-58c9-79e6-9a0c-f84da384f88f","0198b979-1f5e-7105-8b5f-48f920534529","{""num_scrambled_semantic"":""8"",""num_scrambled_causal"":""4"",""num_scrambled_schematic"":""4"",""participantId"":""CB623644AE264AE5A51F2587B754F67B"",""assignmentId"":""0198b9c6-58c9-79e6-9a0c-f84da384f88f"",""projectId"":""0198b979-1f5e-7105-8b5f-48f920534529""}","https://test12345.live/?num_scrambled_semantic=8&num_scrambled_causal=4&num_scrambled_schematic=4&participantId=CB623644AE264AE5A51F2587B754F67B&assignmentId=0198b9c6-58c9-79e6-9a0c-f84da384f88f&projectId=0198b979-1f5e-7105-8b5f-48f920534529","CB623644AE264AE5A51F2587B754F67B-2025-08-17-21-27-02","","null","","[]","null","",""
"","","","","","image-button-response","15","66388","0.0-6.0-1.0-0.2","CB623644AE264AE5A51F2587B754F67B","CB623644AE264AE5A51F2587B754F67B","0198b9c6-58c9-79e6-9a0c-f84da384f88f","0198b979-1f5e-7105-8b5f-48f920534529","{""num_scrambled_semantic"":""8"",""num_scrambled_causal"":""4"",""num_scrambled_schematic"":""4"",""participantId"":""CB623644AE264AE5A51F2587B754F67B"",""assignmentId"":""0198b9c6-58c9-79e6-9a0c-f84da384f88f"",""projectId"":""0198b979-1f5e-7105-8b5f-48f920534529""}","https://test12345.live/?num_scrambled_semantic=8&num_scrambled_causal=4&num_scrambled_schematic=4&participantId=CB623644AE264AE5A51F2587B754F67B&assignmentId=0198b9c6-58c9-79e6-9a0c-f84da384f88f&projectId=0198b979-1f5e-7105-8b5f-48f920534529","CB623644AE264AE5A51F2587B754F67B-2025-08-17-21-27-02","","null","","images/instructions/movie_3.png","null","",""
"","","","","","image-button-response","16","67230","0.0-6.0-1.0-1.2","CB623644AE264AE5A51F2587B754F67B","CB623644AE264AE5A51F2587B754F67B","0198b9c6-58c9-79e6-9a0c-f84da384f88f","0198b979-1f5e-7105-8b5f-48f920534529","{""num_scrambled_semantic"":""8"",""num_scrambled_causal"":""4"",""num_scrambled_schematic"":""4"",""participantId"":""CB623644AE264AE5A51F2587B754F67B"",""assignmentId"":""0198b9c6-58c9-79e6-9a0c-f84da384f88f"",""projectId"":""0198b979-1f5e-7105-8b5f-48f920534529""}","https://test12345.live/?num_scrambled_semantic=8&num_scrambled_causal=4&num_scrambled_schematic=4&participantId=CB623644AE264AE5A51F2587B754F67B&assignmentId=0198b9c6-58c9-79e6-9a0c-f84da384f88f&projectId=0198b979-1f5e-7105-8b5f-48f920534529","CB623644AE264AE5A51F2587B754F67B-2025-08-17-21-27-02","","840","","images/instructions/movie_3.png","0","",""
"","","","","","image-button-response","17","72636","0.0-6.0-1.0-2.2","CB623644AE264AE5A51F2587B754F67B","CB623644AE264AE5A51F2587B754F67B","0198b9c6-58c9-79e6-9a0c-f84da384f88f","0198b979-1f5e-7105-8b5f-48f920534529","{""num_scrambled_semantic"":""8"",""num_scrambled_causal"":""4"",""num_scrambled_schematic"":""4"",""participantId"":""CB623644AE264AE5A51F2587B754F67B"",""assignmentId"":""0198b9c6-58c9-79e6-9a0c-f84da384f88f"",""projectId"":""0198b979-1f5e-7105-8b5f-48f920534529""}","https://test12345.live/?num_scrambled_semantic=8&num_scrambled_causal=4&num_scrambled_schematic=4&participantId=CB623644AE264AE5A51F2587B754F67B&assignmentId=0198b9c6-58c9-79e6-9a0c-f84da384f88f&projectId=0198b979-1f5e-7105-8b5f-48f920534529","CB623644AE264AE5A51F2587B754F67B-2025-08-17-21-27-02","","null","","[]","null","",""
"","","","","","image-button-response","18","77140","0.0-6.0-1.0-0.3","CB623644AE264AE5A51F2587B754F67B","CB623644AE264AE5A51F2587B754F67B","0198b9c6-58c9-79e6-9a0c-f84da384f88f","0198b979-1f5e-7105-8b5f-48f920534529","{""num_scrambled_semantic"":""8"",""num_scrambled_causal"":""4"",""num_scrambled_schematic"":""4"",""participantId"":""CB623644AE264AE5A51F2587B754F67B"",""assignmentId"":""0198b9c6-58c9-79e6-9a0c-f84da384f88f"",""projectId"":""0198b979-1f5e-7105-8b5f-48f920534529""}","https://test12345.live/?num_scrambled_semantic=8&num_scrambled_causal=4&num_scrambled_schematic=4&participantId=CB623644AE264AE5A51F2587B754F67B&assignmentId=0198b9c6-58c9-79e6-9a0c-f84da384f88f&projectId=0198b979-1f5e-7105-8b5f-48f920534529","CB623644AE264AE5A51F2587B754F67B-2025-08-17-21-27-02","","null","","images/instructions/movie_4.png","null","",""
"","","","","","image-button-response","19","78226","0.0-6.0-1.0-1.3","CB623644AE264AE5A51F2587B754F67B","CB623644AE264AE5A51F2587B754F67B","0198b9c6-58c9-79e6-9a0c-f84da384f88f","0198b979-1f5e-7105-8b5f-48f920534529","{""num_scrambled_semantic"":""8"",""num_scrambled_causal"":""4"",""num_scrambled_schematic"":""4"",""participantId"":""CB623644AE264AE5A51F2587B754F67B"",""assignmentId"":""0198b9c6-58c9-79e6-9a0c-f84da384f88f"",""projectId"":""0198b979-1f5e-7105-8b5f-48f920534529""}","https://test12345.live/?num_scrambled_semantic=8&num_scrambled_causal=4&num_scrambled_schematic=4&participantId=CB623644AE264AE5A51F2587B754F67B&assignmentId=0198b9c6-58c9-79e6-9a0c-f84da384f88f&projectId=0198b979-1f5e-7105-8b5f-48f920534529","CB623644AE264AE5A51F2587B754F67B-2025-08-17-21-27-02","","1084","","images/instructions/movie_4.png","0","",""
"","","","","","image-button-response","20","83630","0.0-6.0-1.0-2.3","CB623644AE264AE5A51F2587B754F67B","CB623644AE264AE5A51F2587B754F67B","0198b9c6-58c9-79e6-9a0c-f84da384f88f","0198b979-1f5e-7105-8b5f-48f920534529","{""num_scrambled_semantic"":""8"",""num_scrambled_causal"":""4"",""num_scrambled_schematic"":""4"",""participantId"":""CB623644AE264AE5A51F2587B754F67B"",""assignmentId"":""0198b9c6-58c9-79e6-9a0c-f84da384f88f"",""projectId"":""0198b979-1f5e-7105-8b5f-48f920534529""}","https://test12345.live/?num_scrambled_semantic=8&num_scrambled_causal=4&num_scrambled_schematic=4&participantId=CB623644AE264AE5A51F2587B754F67B&assignmentId=0198b9c6-58c9-79e6-9a0c-f84da384f88f&projectId=0198b979-1f5e-7105-8b5f-48f920534529","CB623644AE264AE5A51F2587B754F67B-2025-08-17-21-27-02","","null","","[]","null","",""
"","","","","","instructions","21","86309","0.0-7.0","CB623644AE264AE5A51F2587B754F67B","CB623644AE264AE5A51F2587B754F67B","0198b9c6-58c9-79e6-9a0c-f84da384f88f","0198b979-1f5e-7105-8b5f-48f920534529","{""num_scrambled_semantic"":""8"",""num_scrambled_causal"":""4"",""num_scrambled_schematic"":""4"",""participantId"":""CB623644AE264AE5A51F2587B754F67B"",""assignmentId"":""0198b9c6-58c9-79e6-9a0c-f84da384f88f"",""projectId"":""0198b979-1f5e-7105-8b5f-48f920534529""}","https://test12345.live/?num_scrambled_semantic=8&num_scrambled_causal=4&num_scrambled_schematic=4&participantId=CB623644AE264AE5A51F2587B754F67B&assignmentId=0198b9c6-58c9-79e6-9a0c-f84da384f88f&projectId=0198b979-1f5e-7105-8b5f-48f920534529","CB623644AE264AE5A51F2587B754F67B-2025-08-17-21-27-02","[{""page_index"":0,""viewing_time"":1716},{""page_index"":1,""viewing_time"":962}]","2678","","","","",""
"","","","","","html-audio-response","22","104904","0.0-8.0","CB623644AE264AE5A51F2587B754F67B","CB623644AE264AE5A51F2587B754F67B","0198b9c6-58c9-79e6-9a0c-f84da384f88f","0198b979-1f5e-7105-8b5f-48f920534529","{""num_scrambled_semantic"":""8"",""num_scrambled_causal"":""4"",""num_scrambled_schematic"":""4"",""participantId"":""CB623644AE264AE5A51F2587B754F67B"",""assignmentId"":""0198b9c6-58c9-79e6-9a0c-f84da384f88f"",""projectId"":""0198b979-1f5e-7105-8b5f-48f920534529""}","https://test12345.live/?num_scrambled_semantic=8&num_scrambled_causal=4&num_scrambled_schematic=4&participantId=CB623644AE264AE5A51F2587B754F67B&assignmentId=0198b9c6-58c9-79e6-9a0c-f84da384f88f&projectId=0198b979-1f5e-7105-8b5f-48f920534529","CB623644AE264AE5A51F2587B754F67B-2025-08-17-21-27-02","","10349","","[""<span style=\""color: red; font-size: 24px\""> NOW RECORDING</span><p>Please say out loud all the images you saw, as many as you can remember. The images can be said in any order.</p>""]","","2",""
"","","","","","instructions","23","154385","0.0-9.0","CB623644AE264AE5A51F2587B754F67B","CB623644AE264AE5A51F2587B754F67B","0198b9c6-58c9-79e6-9a0c-f84da384f88f","0198b979-1f5e-7105-8b5f-48f920534529","{""num_scrambled_semantic"":""8"",""num_scrambled_causal"":""4"",""num_scrambled_schematic"":""4"",""participantId"":""CB623644AE264AE5A51F2587B754F67B"",""assignmentId"":""0198b9c6-58c9-79e6-9a0c-f84da384f88f"",""projectId"":""0198b979-1f5e-7105-8b5f-48f920534529""}","https://test12345.live/?num_scrambled_semantic=8&num_scrambled_causal=4&num_scrambled_schematic=4&participantId=CB623644AE264AE5A51F2587B754F67B&assignmentId=0198b9c6-58c9-79e6-9a0c-f84da384f88f&projectId=0198b979-1f5e-7105-8b5f-48f920534529","CB623644AE264AE5A51F2587B754F67B-2025-08-17-21-27-02","[{""page_index"":0,""viewing_time"":49478}]","49478","","","","",""
"","","","","","image-button-response","24","160392","0.0-10.0-0.0","CB623644AE264AE5A51F2587B754F67B","CB623644AE264AE5A51F2587B754F67B","0198b9c6-58c9-79e6-9a0c-f84da384f88f","0198b979-1f5e-7105-8b5f-48f920534529","{""num_scrambled_semantic"":""8"",""num_scrambled_causal"":""4"",""num_scrambled_schematic"":""4"",""participantId"":""CB623644AE264AE5A51F2587B754F67B"",""assignmentId"":""0198b9c6-58c9-79e6-9a0c-f84da384f88f"",""projectId"":""0198b979-1f5e-7105-8b5f-48f920534529""}","https://test12345.live/?num_scrambled_semantic=8&num_scrambled_causal=4&num_scrambled_schematic=4&participantId=CB623644AE264AE5A51F2587B754F67B&assignmentId=0198b9c6-58c9-79e6-9a0c-f84da384f88f&projectId=0198b979-1f5e-7105-8b5f-48f920534529","CB623644AE264AE5A51F2587B754F67B-2025-08-17-21-27-02","","null","","images/causal_sequence/dog_causal/dog_causal_0.png","null","",""
"","","","","","image-button-response","25","164899","0.0-10.0-1.0-0.0","CB623644AE264AE5A51F2587B754F67B","CB623644AE264AE5A51F2587B754F67B","0198b9c6-58c9-79e6-9a0c-f84da384f88f","0198b979-1f5e-7105-8b5f-48f920534529","{""num_scrambled_semantic"":""8"",""num_scrambled_causal"":""4"",""num_scrambled_schematic"":""4"",""participantId"":""CB623644AE264AE5A51F2587B754F67B"",""assignmentId"":""0198b9c6-58c9-79e6-9a0c-f84da384f88f"",""projectId"":""0198b979-1f5e-7105-8b5f-48f920534529""}","https://test12345.live/?num_scrambled_semantic=8&num_scrambled_causal=4&num_scrambled_schematic=4&participantId=CB623644AE264AE5A51F2587B754F67B&assignmentId=0198b9c6-58c9-79e6-9a0c-f84da384f88f&projectId=0198b979-1f5e-7105-8b5f-48f920534529","CB623644AE264AE5A51F2587B754F67B-2025-08-17-21-27-02","","null","","images/causal_sequence/dog_causal/dog_causal_8.png","null","",""
"","","","","","image-button-response","26","166575","0.0-10.0-1.0-1.0","CB623644AE264AE5A51F2587B754F67B","CB623644AE264AE5A51F2587B754F67B","0198b9c6-58c9-79e6-9a0c-f84da384f88f","0198b979-1f5e-7105-8b5f-48f920534529","{""num_scrambled_semantic"":""8"",""num_scrambled_causal"":""4"",""num_scrambled_schematic"":""4"",""participantId"":""CB623644AE264AE5A51F2587B754F67B"",""assignmentId"":""0198b9c6-58c9-79e6-9a0c-f84da384f88f"",""projectId"":""0198b979-1f5e-7105-8b5f-48f920534529""}","https://test12345.live/?num_scrambled_semantic=8&num_scrambled_causal=4&num_scrambled_schematic=4&participantId=CB623644AE264AE5A51F2587B754F67B&assignmentId=0198b9c6-58c9-79e6-9a0c-f84da384f88f&projectId=0198b979-1f5e-7105-8b5f-48f920534529","CB623644AE264AE5A51F2587B754F67B-2025-08-17-21-27-02","","1674","","images/causal_sequence/dog_causal/dog_causal_8.png","0","",""
"","","","","","image-button-response","27","171982","0.0-10.0-1.0-2.0","CB623644AE264AE5A51F2587B754F67B","CB623644AE264AE5A51F2587B754F67B","0198b9c6-58c9-79e6-9a0c-f84da384f88f","0198b979-1f5e-7105-8b5f-48f920534529","{""num_scrambled_semantic"":""8"",""num_scrambled_causal"":""4"",""num_scrambled_schematic"":""4"",""participantId"":""CB623644AE264AE5A51F2587B754F67B"",""assignmentId"":""0198b9c6-58c9-79e6-9a0c-f84da384f88f"",""projectId"":""0198b979-1f5e-7105-8b5f-48f920534529""}","https://test12345.live/?num_scrambled_semantic=8&num_scrambled_causal=4&num_scrambled_schematic=4&participantId=CB623644AE264AE5A51F2587B754F67B&assignmentId=0198b9c6-58c9-79e6-9a0c-f84da384f88f&projectId=0198b979-1f5e-7105-8b5f-48f920534529","CB623644AE264AE5A51F2587B754F67B-2025-08-17-21-27-02","","null","","[]","null","",""
"","","","","","image-button-response","28","176486","0.0-10.0-1.0-0.1","CB623644AE264AE5A51F2587B754F67B","CB623644AE264AE5A51F2587B754F67B","0198b9c6-58c9-79e6-9a0c-f84da384f88f","0198b979-1f5e-7105-8b5f-48f920534529","{""num_scrambled_semantic"":""8"",""num_scrambled_causal"":""4"",""num_scrambled_schematic"":""4"",""participantId"":""CB623644AE264AE5A51F2587B754F67B"",""assignmentId"":""0198b9c6-58c9-79e6-9a0c-f84da384f88f"",""projectId"":""0198b979-1f5e-7105-8b5f-48f920534529""}","https://test12345.live/?num_scrambled_semantic=8&num_scrambled_causal=4&num_scrambled_schematic=4&participantId=CB623644AE264AE5A51F2587B754F67B&assignmentId=0198b9c6-58c9-79e6-9a0c-f84da384f88f&projectId=0198b979-1f5e-7105-8b5f-48f920534529","CB623644AE264AE5A51F2587B754F67B-2025-08-17-21-27-02","","null","","images/causal_sequence/dog_causal/dog_causal_4.png","null","",""
"","","","","","image-button-response","29","178096","0.0-10.0-1.0-1.1","CB623644AE264AE5A51F2587B754F67B","CB623644AE264AE5A51F2587B754F67B","0198b9c6-58c9-79e6-9a0c-f84da384f88f","0198b979-1f5e-7105-8b5f-48f920534529","{""num_scrambled_semantic"":""8"",""num_scrambled_causal"":""4"",""num_scrambled_schematic"":""4"",""participantId"":""CB623644AE264AE5A51F2587B754F67B"",""assignmentId"":""0198b9c6-58c9-79e6-9a0c-f84da384f88f"",""projectId"":""0198b979-1f5e-7105-8b5f-48f920534529""}","https://test12345.live/?num_scrambled_semantic=8&num_scrambled_causal=4&num_scrambled_schematic=4&participantId=CB623644AE264AE5A51F2587B754F67B&assignmentId=0198b9c6-58c9-79e6-9a0c-f84da384f88f&projectId=0198b979-1f5e-7105-8b5f-48f920534529","CB623644AE264AE5A51F2587B754F67B-2025-08-17-21-27-02","","1609","","images/causal_sequence/dog_causal/dog_causal_4.png","0","",""
"","","","","","image-button-response","30","183500","0.0-10.0-1.0-2.1","CB623644AE264AE5A51F2587B754F67B","CB623644AE264AE5A51F2587B754F67B","0198b9c6-58c9-79e6-9a0c-f84da384f88f","0198b979-1f5e-7105-8b5f-48f920534529","{""num_scrambled_semantic"":""8"",""num_scrambled_causal"":""4"",""num_scrambled_schematic"":""4"",""participantId"":""CB623644AE264AE5A51F2587B754F67B"",""assignmentId"":""0198b9c6-58c9-79e6-9a0c-f84da384f88f"",""projectId"":""0198b979-1f5e-7105-8b5f-48f920534529""}","https://test12345.live/?num_scrambled_semantic=8&num_scrambled_causal=4&num_scrambled_schematic=4&participantId=CB623644AE264AE5A51F2587B754F67B&assignmentId=0198b9c6-58c9-79e6-9a0c-f84da384f88f&projectId=0198b979-1f5e-7105-8b5f-48f920534529","CB623644AE264AE5A51F2587B754F67B-2025-08-17-21-27-02","","null","","[]","null","",""
"","","","","","image-button-response","31","188004","0.0-10.0-1.0-0.2","CB623644AE264AE5A51F2587B754F67B","CB623644AE264AE5A51F2587B754F67B","0198b9c6-58c9-79e6-9a0c-f84da384f88f","0198b979-1f5e-7105-8b5f-48f920534529","{""num_scrambled_semantic"":""8"",""num_scrambled_causal"":""4"",""num_scrambled_schematic"":""4"",""participantId"":""CB623644AE264AE5A51F2587B754F67B"",""assignmentId"":""0198b9c6-58c9-79e6-9a0c-f84da384f88f"",""projectId"":""0198b979-1f5e-7105-8b5f-48f920534529""}","https://test12345.live/?num_scrambled_semantic=8&num_scrambled_causal=4&num_scrambled_schematic=4&participantId=CB623644AE264AE5A51F2587B754F67B&assignmentId=0198b9c6-58c9-79e6-9a0c-f84da384f88f&projectId=0198b979-1f5e-7105-8b5f-48f920534529","CB623644AE264AE5A51F2587B754F67B-2025-08-17-21-27-02","","null","","images/causal_sequence/dog_causal/dog_causal_9.png","null","",""
"","","","","","image-button-response","32","189947","0.0-10.0-1.0-1.2","CB623644AE264AE5A51F2587B754F67B","CB623644AE264AE5A51F2587B754F67B","0198b9c6-58c9-79e6-9a0c-f84da384f88f","0198b979-1f5e-7105-8b5f-48f920534529","{""num_scrambled_semantic"":""8"",""num_scrambled_causal"":""4"",""num_scrambled_schematic"":""4"",""participantId"":""CB623644AE264AE5A51F2587B754F67B"",""assignmentId"":""0198b9c6-58c9-79e6-9a0c-f84da384f88f"",""projectId"":""0198b979-1f5e-7105-8b5f-48f920534529""}","https://test12345.live/?num_scrambled_semantic=8&num_scrambled_causal=4&num_scrambled_schematic=4&participantId=CB623644AE264AE5A51F2587B754F67B&assignmentId=0198b9c6-58c9-79e6-9a0c-f84da384f88f&projectId=0198b979-1f5e-7105-8b5f-48f920534529","CB623644AE264AE5A51F2587B754F67B-2025-08-17-21-27-02","","1941","","images/causal_sequence/dog_causal/dog_causal_9.png","0","",""
"","","","","","image-button-response","33","195350","0.0-10.0-1.0-2.2","CB623644AE264AE5A51F2587B754F67B","CB623644AE264AE5A51F2587B754F67B","0198b9c6-58c9-79e6-9a0c-f84da384f88f","0198b979-1f5e-7105-8b5f-48f920534529","{""num_scrambled_semantic"":""8"",""num_scrambled_causal"":""4"",""num_scrambled_schematic"":""4"",""participantId"":""CB623644AE264AE5A51F2587B754F67B"",""assignmentId"":""0198b9c6-58c9-79e6-9a0c-f84da384f88f"",""projectId"":""0198b979-1f5e-7105-8b5f-48f920534529""}","https://test12345.live/?num_scrambled_semantic=8&num_scrambled_causal=4&num_scrambled_schematic=4&participantId=CB623644AE264AE5A51F2587B754F67B&assignmentId=0198b9c6-58c9-79e6-9a0c-f84da384f88f&projectId=0198b979-1f5e-7105-8b5f-48f920534529","CB623644AE264AE5A51F2587B754F67B-2025-08-17-21-27-02","","null","","[]","null","",""
"","","","","","image-button-response","34","199854","0.0-10.0-1.0-0.3","CB623644AE264AE5A51F2587B754F67B","CB623644AE264AE5A51F2587B754F67B","0198b9c6-58c9-79e6-9a0c-f84da384f88f","0198b979-1f5e-7105-8b5f-48f920534529","{""num_scrambled_semantic"":""8"",""num_scrambled_causal"":""4"",""num_scrambled_schematic"":""4"",""participantId"":""CB623644AE264AE5A51F2587B754F67B"",""assignmentId"":""0198b9c6-58c9-79e6-9a0c-f84da384f88f"",""projectId"":""0198b979-1f5e-7105-8b5f-48f920534529""}","https://test12345.live/?num_scrambled_semantic=8&num_scrambled_causal=4&num_scrambled_schematic=4&participantId=CB623644AE264AE5A51F2587B754F67B&assignmentId=0198b9c6-58c9-79e6-9a0c-f84da384f88f&projectId=0198b979-1f5e-7105-8b5f-48f920534529","CB623644AE264AE5A51F2587B754F67B-2025-08-17-21-27-02","","null","","images/causal_sequence/dog_causal/dog_causal_3.png","null","",""
"","","","","","image-button-response","35","201914","0.0-10.0-1.0-1.3","CB623644AE264AE5A51F2587B754F67B","CB623644AE264AE5A51F2587B754F67B","0198b9c6-58c9-79e6-9a0c-f84da384f88f","0198b979-1f5e-7105-8b5f-48f920534529","{""num_scrambled_semantic"":""8"",""num_scrambled_causal"":""4"",""num_scrambled_schematic"":""4"",""participantId"":""CB623644AE264AE5A51F2587B754F67B"",""assignmentId"":""0198b9c6-58c9-79e6-9a0c-f84da384f88f"",""projectId"":""0198b979-1f5e-7105-8b5f-48f920534529""}","https://test12345.live/?num_scrambled_semantic=8&num_scrambled_causal=4&num_scrambled_schematic=4&participantId=CB623644AE264AE5A51F2587B754F67B&assignmentId=0198b9c6-58c9-79e6-9a0c-f84da384f88f&projectId=0198b979-1f5e-7105-8b5f-48f920534529","CB623644AE264AE5A51F2587B754F67B-2025-08-17-21-27-02","","2058","","images/causal_sequence/dog_causal/dog_causal_3.png","0","",""
"","","","","","image-button-response","36","207321","0.0-10.0-1.0-2.3","CB623644AE264AE5A51F2587B754F67B","CB623644AE264AE5A51F2587B754F67B","0198b9c6-58c9-79e6-9a0c-f84da384f88f","0198b979-1f5e-7105-8b5f-48f920534529","{""num_scrambled_semantic"":""8"",""num_scrambled_causal"":""4"",""num_scrambled_schematic"":""4"",""participantId"":""CB623644AE264AE5A51F2587B754F67B"",""assignmentId"":""0198b9c6-58c9-79e6-9a0c-f84da384f88f"",""projectId"":""0198b979-1f5e-7105-8b5f-48f920534529""}","https://test12345.live/?num_scrambled_semantic=8&num_scrambled_causal=4&num_scrambled_schematic=4&participantId=CB623644AE264AE5A51F2587B754F67B&assignmentId=0198b9c6-58c9-79e6-9a0c-f84da384f88f&projectId=0198b979-1f5e-7105-8b5f-48f920534529","CB623644AE264AE5A51F2587B754F67B-2025-08-17-21-27-02","","null","","[]","null","",""
"","","","","","image-button-response","37","211826","0.0-10.0-1.0-0.4","CB623644AE264AE5A51F2587B754F67B","CB623644AE264AE5A51F2587B754F67B","0198b9c6-58c9-79e6-9a0c-f84da384f88f","0198b979-1f5e-7105-8b5f-48f920534529","{""num_scrambled_semantic"":""8"",""num_scrambled_causal"":""4"",""num_scrambled_schematic"":""4"",""participantId"":""CB623644AE264AE5A51F2587B754F67B"",""assignmentId"":""0198b9c6-58c9-79e6-9a0c-f84da384f88f"",""projectId"":""0198b979-1f5e-7105-8b5f-48f920534529""}","https://test12345.live/?num_scrambled_semantic=8&num_scrambled_causal=4&num_scrambled_schematic=4&participantId=CB623644AE264AE5A51F2587B754F67B&assignmentId=0198b9c6-58c9-79e6-9a0c-f84da384f88f&projectId=0198b979-1f5e-7105-8b5f-48f920534529","CB623644AE264AE5A51F2587B754F67B-2025-08-17-21-27-02","","null","","images/causal_sequence/dog_causal/dog_causal_7.png","null","",""
"","","","","","image-button-response","38","215830","0.0-10.0-1.0-1.4","CB623644AE264AE5A51F2587B754F67B","CB623644AE264AE5A51F2587B754F67B","0198b9c6-58c9-79e6-9a0c-f84da384f88f","0198b979-1f5e-7105-8b5f-48f920534529","{""num_scrambled_semantic"":""8"",""num_scrambled_causal"":""4"",""num_scrambled_schematic"":""4"",""participantId"":""CB623644AE264AE5A51F2587B754F67B"",""assignmentId"":""0198b9c6-58c9-79e6-9a0c-f84da384f88f"",""projectId"":""0198b979-1f5e-7105-8b5f-48f920534529""}","https://test12345.live/?num_scrambled_semantic=8&num_scrambled_causal=4&num_scrambled_schematic=4&participantId=CB623644AE264AE5A51F2587B754F67B&assignmentId=0198b9c6-58c9-79e6-9a0c-f84da384f88f&projectId=0198b979-1f5e-7105-8b5f-48f920534529","CB623644AE264AE5A51F2587B754F67B-2025-08-17-21-27-02","","null","","images/causal_sequence/dog_causal/dog_causal_7.png","null","",""
"","","","","","image-button-response","39","221237","0.0-10.0-1.0-2.4","CB623644AE264AE5A51F2587B754F67B","CB623644AE264AE5A51F2587B754F67B","0198b9c6-58c9-79e6-9a0c-f84da384f88f","0198b979-1f5e-7105-8b5f-48f920534529","{""num_scrambled_semantic"":""8"",""num_scrambled_causal"":""4"",""num_scrambled_schematic"":""4"",""participantId"":""CB623644AE264AE5A51F2587B754F67B"",""assignmentId"":""0198b9c6-58c9-79e6-9a0c-f84da384f88f"",""projectId"":""0198b979-1f5e-7105-8b5f-48f920534529""}","https://test12345.live/?num_scrambled_semantic=8&num_scrambled_causal=4&num_scrambled_schematic=4&participantId=CB623644AE264AE5A51F2587B754F67B&assignmentId=0198b9c6-58c9-79e6-9a0c-f84da384f88f&projectId=0198b979-1f5e-7105-8b5f-48f920534529","CB623644AE264AE5A51F2587B754F67B-2025-08-17-21-27-02","","null","","[]","null","",""
"","","","","","image-button-response","40","225740","0.0-10.0-1.0-0.5","CB623644AE264AE5A51F2587B754F67B","CB623644AE264AE5A51F2587B754F67B","0198b9c6-58c9-79e6-9a0c-f84da384f88f","0198b979-1f5e-7105-8b5f-48f920534529","{""num_scrambled_semantic"":""8"",""num_scrambled_causal"":""4"",""num_scrambled_schematic"":""4"",""participantId"":""CB623644AE264AE5A51F2587B754F67B"",""assignmentId"":""0198b9c6-58c9-79e6-9a0c-f84da384f88f"",""projectId"":""0198b979-1f5e-7105-8b5f-48f920534529""}","https://test12345.live/?num_scrambled_semantic=8&num_scrambled_causal=4&num_scrambled_schematic=4&participantId=CB623644AE264AE5A51F2587B754F67B&assignmentId=0198b9c6-58c9-79e6-9a0c-f84da384f88f&projectId=0198b979-1f5e-7105-8b5f-48f920534529","CB623644AE264AE5A51F2587B754F67B-2025-08-17-21-27-02","","null","","images/causal_sequence/dog_causal/dog_causal_5.png","null","",""
"","","","","","image-button-response","41","229743","0.0-10.0-1.0-1.5","CB623644AE264AE5A51F2587B754F67B","CB623644AE264AE5A51F2587B754F67B","0198b9c6-58c9-79e6-9a0c-f84da384f88f","0198b979-1f5e-7105-8b5f-48f920534529","{""num_scrambled_semantic"":""8"",""num_scrambled_causal"":""4"",""num_scrambled_schematic"":""4"",""participantId"":""CB623644AE264AE5A51F2587B754F67B"",""assignmentId"":""0198b9c6-58c9-79e6-9a0c-f84da384f88f"",""projectId"":""0198b979-1f5e-7105-8b5f-48f920534529""}","https://test12345.live/?num_scrambled_semantic=8&num_scrambled_causal=4&num_scrambled_schematic=4&participantId=CB623644AE264AE5A51F2587B754F67B&assignmentId=0198b9c6-58c9-79e6-9a0c-f84da384f88f&projectId=0198b979-1f5e-7105-8b5f-48f920534529","CB623644AE264AE5A51F2587B754F67B-2025-08-17-21-27-02","","null","","images/causal_sequence/dog_causal/dog_causal_5.png","null","",""
"","","","","","image-button-response","42","235150","0.0-10.0-1.0-2.5","CB623644AE264AE5A51F2587B754F67B","CB623644AE264AE5A51F2587B754F67B","0198b9c6-58c9-79e6-9a0c-f84da384f88f","0198b979-1f5e-7105-8b5f-48f920534529","{""num_scrambled_semantic"":""8"",""num_scrambled_causal"":""4"",""num_scrambled_schematic"":""4"",""participantId"":""CB623644AE264AE5A51F2587B754F67B"",""assignmentId"":""0198b9c6-58c9-79e6-9a0c-f84da384f88f"",""projectId"":""0198b979-1f5e-7105-8b5f-48f920534529""}","https://test12345.live/?num_scrambled_semantic=8&num_scrambled_causal=4&num_scrambled_schematic=4&participantId=CB623644AE264AE5A51F2587B754F67B&assignmentId=0198b9c6-58c9-79e6-9a0c-f84da384f88f&projectId=0198b979-1f5e-7105-8b5f-48f920534529","CB623644AE264AE5A51F2587B754F67B-2025-08-17-21-27-02","","null","","[]","null","",""
"","","","","","image-button-response","43","239657","0.0-10.0-1.0-0.6","CB623644AE264AE5A51F2587B754F67B","CB623644AE264AE5A51F2587B754F67B","0198b9c6-58c9-79e6-9a0c-f84da384f88f","0198b979-1f5e-7105-8b5f-48f920534529","{""num_scrambled_semantic"":""8"",""num_scrambled_causal"":""4"",""num_scrambled_schematic"":""4"",""participantId"":""CB623644AE264AE5A51F2587B754F67B"",""assignmentId"":""0198b9c6-58c9-79e6-9a0c-f84da384f88f"",""projectId"":""0198b979-1f5e-7105-8b5f-48f920534529""}","https://test12345.live/?num_scrambled_semantic=8&num_scrambled_causal=4&num_scrambled_schematic=4&participantId=CB623644AE264AE5A51F2587B754F67B&assignmentId=0198b9c6-58c9-79e6-9a0c-f84da384f88f&projectId=0198b979-1f5e-7105-8b5f-48f920534529","CB623644AE264AE5A51F2587B754F67B-2025-08-17-21-27-02","","null","","images/causal_sequence/dog_causal/dog_causal_ten.png","null","",""
"","","","","","image-button-response","44","240530","0.0-10.0-1.0-1.6","CB623644AE264AE5A51F2587B754F67B","CB623644AE264AE5A51F2587B754F67B","0198b9c6-58c9-79e6-9a0c-f84da384f88f","0198b979-1f5e-7105-8b5f-48f920534529","{""num_scrambled_semantic"":""8"",""num_scrambled_causal"":""4"",""num_scrambled_schematic"":""4"",""participantId"":""CB623644AE264AE5A51F2587B754F67B"",""assignmentId"":""0198b9c6-58c9-79e6-9a0c-f84da384f88f"",""projectId"":""0198b979-1f5e-7105-8b5f-48f920534529""}","https://test12345.live/?num_scrambled_semantic=8&num_scrambled_causal=4&num_scrambled_schematic=4&participantId=CB623644AE264AE5A51F2587B754F67B&assignmentId=0198b9c6-58c9-79e6-9a0c-f84da384f88f&projectId=0198b979-1f5e-7105-8b5f-48f920534529","CB623644AE264AE5A51F2587B754F67B-2025-08-17-21-27-02","","871","","images/causal_sequence/dog_causal/dog_causal_ten.png","0","",""
"","","","","","image-button-response","45","245934","0.0-10.0-1.0-2.6","CB623644AE264AE5A51F2587B754F67B","CB623644AE264AE5A51F2587B754F67B","0198b9c6-58c9-79e6-9a0c-f84da384f88f","0198b979-1f5e-7105-8b5f-48f920534529","{""num_scrambled_semantic"":""8"",""num_scrambled_causal"":""4"",""num_scrambled_schematic"":""4"",""participantId"":""CB623644AE264AE5A51F2587B754F67B"",""assignmentId"":""0198b9c6-58c9-79e6-9a0c-f84da384f88f"",""projectId"":""0198b979-1f5e-7105-8b5f-48f920534529""}","https://test12345.live/?num_scrambled_semantic=8&num_scrambled_causal=4&num_scrambled_schematic=4&participantId=CB623644AE264AE5A51F2587B754F67B&assignmentId=0198b9c6-58c9-79e6-9a0c-f84da384f88f&projectId=0198b979-1f5e-7105-8b5f-48f920534529","CB623644AE264AE5A51F2587B754F67B-2025-08-17-21-27-02","","null","","[]","null","",""
"","","","","","image-button-response","46","250441","0.0-10.0-1.0-0.7","CB623644AE264AE5A51F2587B754F67B","CB623644AE264AE5A51F2587B754F67B","0198b9c6-58c9-79e6-9a0c-f84da384f88f","0198b979-1f5e-7105-8b5f-48f920534529","{""num_scrambled_semantic"":""8"",""num_scrambled_causal"":""4"",""num_scrambled_schematic"":""4"",""participantId"":""CB623644AE264AE5A51F2587B754F67B"",""assignmentId"":""0198b9c6-58c9-79e6-9a0c-f84da384f88f"",""projectId"":""0198b979-1f5e-7105-8b5f-48f920534529""}","https://test12345.live/?num_scrambled_semantic=8&num_scrambled_causal=4&num_scrambled_schematic=4&participantId=CB623644AE264AE5A51F2587B754F67B&assignmentId=0198b9c6-58c9-79e6-9a0c-f84da384f88f&projectId=0198b979-1f5e-7105-8b5f-48f920534529","CB623644AE264AE5A51F2587B754F67B-2025-08-17-21-27-02","","null","","images/causal_sequence/dog_causal/dog_causal_6.png","null","",""
"","","","","","image-button-response","47","252835","0.0-10.0-1.0-1.7","CB623644AE264AE5A51F2587B754F67B","CB623644AE264AE5A51F2587B754F67B","0198b9c6-58c9-79e6-9a0c-f84da384f88f","0198b979-1f5e-7105-8b5f-48f920534529","{""num_scrambled_semantic"":""8"",""num_scrambled_causal"":""4"",""num_scrambled_schematic"":""4"",""participantId"":""CB623644AE264AE5A51F2587B754F67B"",""assignmentId"":""0198b9c6-58c9-79e6-9a0c-f84da384f88f"",""projectId"":""0198b979-1f5e-7105-8b5f-48f920534529""}","https://test12345.live/?num_scrambled_semantic=8&num_scrambled_causal=4&num_scrambled_schematic=4&participantId=CB623644AE264AE5A51F2587B754F67B&assignmentId=0198b9c6-58c9-79e6-9a0c-f84da384f88f&projectId=0198b979-1f5e-7105-8b5f-48f920534529","CB623644AE264AE5A51F2587B754F67B-2025-08-17-21-27-02","","2392","","images/causal_sequence/dog_causal/dog_causal_6.png","0","",""
"","","","","","image-button-response","48","258242","0.0-10.0-1.0-2.7","CB623644AE264AE5A51F2587B754F67B","CB623644AE264AE5A51F2587B754F67B","0198b9c6-58c9-79e6-9a0c-f84da384f88f","0198b979-1f5e-7105-8b5f-48f920534529","{""num_scrambled_semantic"":""8"",""num_scrambled_causal"":""4"",""num_scrambled_schematic"":""4"",""participantId"":""CB623644AE264AE5A51F2587B754F67B"",""assignmentId"":""0198b9c6-58c9-79e6-9a0c-f84da384f88f"",""projectId"":""0198b979-1f5e-7105-8b5f-48f920534529""}","https://test12345.live/?num_scrambled_semantic=8&num_scrambled_causal=4&num_scrambled_schematic=4&participantId=CB623644AE264AE5A51F2587B754F67B&assignmentId=0198b9c6-58c9-79e6-9a0c-f84da384f88f&projectId=0198b979-1f5e-7105-8b5f-48f920534529","CB623644AE264AE5A51F2587B754F67B-2025-08-17-21-27-02","","null","","[]","null","",""
"","","","","","image-button-response","49","262745","0.0-10.0-1.0-0.8","CB623644AE264AE5A51F2587B754F67B","CB623644AE264AE5A51F2587B754F67B","0198b9c6-58c9-79e6-9a0c-f84da384f88f","0198b979-1f5e-7105-8b5f-48f920534529","{""num_scrambled_semantic"":""8"",""num_scrambled_causal"":""4"",""num_scrambled_schematic"":""4"",""participantId"":""CB623644AE264AE5A51F2587B754F67B"",""assignmentId"":""0198b9c6-58c9-79e6-9a0c-f84da384f88f"",""projectId"":""0198b979-1f5e-7105-8b5f-48f920534529""}","https://test12345.live/?num_scrambled_semantic=8&num_scrambled_causal=4&num_scrambled_schematic=4&participantId=CB623644AE264AE5A51F2587B754F67B&assignmentId=0198b9c6-58c9-79e6-9a0c-f84da384f88f&projectId=0198b979-1f5e-7105-8b5f-48f920534529","CB623644AE264AE5A51F2587B754F67B-2025-08-17-21-27-02","","null","","images/causal_sequence/dog_causal/dog_causal_1.png","null","",""
"","","","","","image-button-response","50","263426","0.0-10.0-1.0-1.8","CB623644AE264AE5A51F2587B754F67B","CB623644AE264AE5A51F2587B754F67B","0198b9c6-58c9-79e6-9a0c-f84da384f88f","0198b979-1f5e-7105-8b5f-48f920534529","{""num_scrambled_semantic"":""8"",""num_scrambled_causal"":""4"",""num_scrambled_schematic"":""4"",""participantId"":""CB623644AE264AE5A51F2587B754F67B"",""assignmentId"":""0198b9c6-58c9-79e6-9a0c-f84da384f88f"",""projectId"":""0198b979-1f5e-7105-8b5f-48f920534529""}","https://test12345.live/?num_scrambled_semantic=8&num_scrambled_causal=4&num_scrambled_schematic=4&participantId=CB623644AE264AE5A51F2587B754F67B&assignmentId=0198b9c6-58c9-79e6-9a0c-f84da384f88f&projectId=0198b979-1f5e-7105-8b5f-48f920534529","CB623644AE264AE5A51F2587B754F67B-2025-08-17-21-27-02","","679","","images/causal_sequence/dog_causal/dog_causal_1.png","0","",""
"","","","","","image-button-response","51","268830","0.0-10.0-1.0-2.8","CB623644AE264AE5A51F2587B754F67B","CB623644AE264AE5A51F2587B754F67B","0198b9c6-58c9-79e6-9a0c-f84da384f88f","0198b979-1f5e-7105-8b5f-48f920534529","{""num_scrambled_semantic"":""8"",""num_scrambled_causal"":""4"",""num_scrambled_schematic"":""4"",""participantId"":""CB623644AE264AE5A51F2587B754F67B"",""assignmentId"":""0198b9c6-58c9-79e6-9a0c-f84da384f88f"",""projectId"":""0198b979-1f5e-7105-8b5f-48f920534529""}","https://test12345.live/?num_scrambled_semantic=8&num_scrambled_causal=4&num_scrambled_schematic=4&participantId=CB623644AE264AE5A51F2587B754F67B&assignmentId=0198b9c6-58c9-79e6-9a0c-f84da384f88f&projectId=0198b979-1f5e-7105-8b5f-48f920534529","CB623644AE264AE5A51F2587B754F67B-2025-08-17-21-27-02","","null","","[]","null","",""
"","","","","","image-button-response","52","273337","0.0-10.0-1.0-0.9","CB623644AE264AE5A51F2587B754F67B","CB623644AE264AE5A51F2587B754F67B","0198b9c6-58c9-79e6-9a0c-f84da384f88f","0198b979-1f5e-7105-8b5f-48f920534529","{""num_scrambled_semantic"":""8"",""num_scrambled_causal"":""4"",""num_scrambled_schematic"":""4"",""participantId"":""CB623644AE264AE5A51F2587B754F67B"",""assignmentId"":""0198b9c6-58c9-79e6-9a0c-f84da384f88f"",""projectId"":""0198b979-1f5e-7105-8b5f-48f920534529""}","https://test12345.live/?num_scrambled_semantic=8&num_scrambled_causal=4&num_scrambled_schematic=4&participantId=CB623644AE264AE5A51F2587B754F67B&assignmentId=0198b9c6-58c9-79e6-9a0c-f84da384f88f&projectId=0198b979-1f5e-7105-8b5f-48f920534529","CB623644AE264AE5A51F2587B754F67B-2025-08-17-21-27-02","","null","","images/causal_sequence/dog_causal/dog_causal_2.png","null","",""
"","","","","","image-button-response","53","274134","0.0-10.0-1.0-1.9","CB623644AE264AE5A51F2587B754F67B","CB623644AE264AE5A51F2587B754F67B","0198b9c6-58c9-79e6-9a0c-f84da384f88f","0198b979-1f5e-7105-8b5f-48f920534529","{""num_scrambled_semantic"":""8"",""num_scrambled_causal"":""4"",""num_scrambled_schematic"":""4"",""participantId"":""CB623644AE264AE5A51F2587B754F67B"",""assignmentId"":""0198b9c6-58c9-79e6-9a0c-f84da384f88f"",""projectId"":""0198b979-1f5e-7105-8b5f-48f920534529""}","https://test12345.live/?num_scrambled_semantic=8&num_scrambled_causal=4&num_scrambled_schematic=4&participantId=CB623644AE264AE5A51F2587B754F67B&assignmentId=0198b9c6-58c9-79e6-9a0c-f84da384f88f&projectId=0198b979-1f5e-7105-8b5f-48f920534529","CB623644AE264AE5A51F2587B754F67B-2025-08-17-21-27-02","","796","","images/causal_sequence/dog_causal/dog_causal_2.png","0","",""
"","","","","","image-button-response","54","279541","0.0-10.0-1.0-2.9","CB623644AE264AE5A51F2587B754F67B","CB623644AE264AE5A51F2587B754F67B","0198b9c6-58c9-79e6-9a0c-f84da384f88f","0198b979-1f5e-7105-8b5f-48f920534529","{""num_scrambled_semantic"":""8"",""num_scrambled_causal"":""4"",""num_scrambled_schematic"":""4"",""participantId"":""CB623644AE264AE5A51F2587B754F67B"",""assignmentId"":""0198b9c6-58c9-79e6-9a0c-f84da384f88f"",""projectId"":""0198b979-1f5e-7105-8b5f-48f920534529""}","https://test12345.live/?num_scrambled_semantic=8&num_scrambled_causal=4&num_scrambled_schematic=4&participantId=CB623644AE264AE5A51F2587B754F67B&assignmentId=0198b9c6-58c9-79e6-9a0c-f84da384f88f&projectId=0198b979-1f5e-7105-8b5f-48f920534529","CB623644AE264AE5A51F2587B754F67B-2025-08-17-21-27-02","","null","","[]","null","",""
"","","","","","html-audio-response","55","307443","0.0-11.0","CB623644AE264AE5A51F2587B754F67B","CB623644AE264AE5A51F2587B754F67B","0198b9c6-58c9-79e6-9a0c-f84da384f88f","0198b979-1f5e-7105-8b5f-48f920534529","{""num_scrambled_semantic"":""8"",""num_scrambled_causal"":""4"",""num_scrambled_schematic"":""4"",""participantId"":""CB623644AE264AE5A51F2587B754F67B"",""assignmentId"":""0198b9c6-58c9-79e6-9a0c-f84da384f88f"",""projectId"":""0198b979-1f5e-7105-8b5f-48f920534529""}","https://test12345.live/?num_scrambled_semantic=8&num_scrambled_causal=4&num_scrambled_schematic=4&participantId=CB623644AE264AE5A51F2587B754F67B&assignmentId=0198b9c6-58c9-79e6-9a0c-f84da384f88f&projectId=0198b979-1f5e-7105-8b5f-48f920534529","CB623644AE264AE5A51F2587B754F67B-2025-08-17-21-27-02","","17388","","[""<span style=\""color: red; font-size: 24px\""> NOW RECORDING</span><p>Please say out loud all the images you saw, as many as you can remember. The images can be said in any order.</p>""]","","1","dog_causal"
"","","","","","image-button-response","56","313450","0.0-12.0-0.0","CB623644AE264AE5A51F2587B754F67B","CB623644AE264AE5A51F2587B754F67B","0198b9c6-58c9-79e6-9a0c-f84da384f88f","0198b979-1f5e-7105-8b5f-48f920534529","{""num_scrambled_semantic"":""8"",""num_scrambled_causal"":""4"",""num_scrambled_schematic"":""4"",""participantId"":""CB623644AE264AE5A51F2587B754F67B"",""assignmentId"":""0198b9c6-58c9-79e6-9a0c-f84da384f88f"",""projectId"":""0198b979-1f5e-7105-8b5f-48f920534529""}","https://test12345.live/?num_scrambled_semantic=8&num_scrambled_causal=4&num_scrambled_schematic=4&participantId=CB623644AE264AE5A51F2587B754F67B&assignmentId=0198b9c6-58c9-79e6-9a0c-f84da384f88f&projectId=0198b979-1f5e-7105-8b5f-48f920534529","CB623644AE264AE5A51F2587B754F67B-2025-08-17-21-27-02","","null","","images/causal_sequence/package_causal/package_causal_0.png","null","",""
"","","","","","image-button-response","57","317956","0.0-12.0-1.0-0.0","CB623644AE264AE5A51F2587B754F67B","CB623644AE264AE5A51F2587B754F67B","0198b9c6-58c9-79e6-9a0c-f84da384f88f","0198b979-1f5e-7105-8b5f-48f920534529","{""num_scrambled_semantic"":""8"",""num_scrambled_causal"":""4"",""num_scrambled_schematic"":""4"",""participantId"":""CB623644AE264AE5A51F2587B754F67B"",""assignmentId"":""0198b9c6-58c9-79e6-9a0c-f84da384f88f"",""projectId"":""0198b979-1f5e-7105-8b5f-48f920534529""}","https://test12345.live/?num_scrambled_semantic=8&num_scrambled_causal=4&num_scrambled_schematic=4&participantId=CB623644AE264AE5A51F2587B754F67B&assignmentId=0198b9c6-58c9-79e6-9a0c-f84da384f88f&projectId=0198b979-1f5e-7105-8b5f-48f920534529","CB623644AE264AE5A51F2587B754F67B-2025-08-17-21-27-02","","null","","images/causal_sequence/package_causal/package_causal_1.png","null","",""
"","","","","","image-button-response","58","318805","0.0-12.0-1.0-1.0","CB623644AE264AE5A51F2587B754F67B","CB623644AE264AE5A51F2587B754F67B","0198b9c6-58c9-79e6-9a0c-f84da384f88f","0198b979-1f5e-7105-8b5f-48f920534529","{""num_scrambled_semantic"":""8"",""num_scrambled_causal"":""4"",""num_scrambled_schematic"":""4"",""participantId"":""CB623644AE264AE5A51F2587B754F67B"",""assignmentId"":""0198b9c6-58c9-79e6-9a0c-f84da384f88f"",""projectId"":""0198b979-1f5e-7105-8b5f-48f920534529""}","https://test12345.live/?num_scrambled_semantic=8&num_scrambled_causal=4&num_scrambled_schematic=4&participantId=CB623644AE264AE5A51F2587B754F67B&assignmentId=0198b9c6-58c9-79e6-9a0c-f84da384f88f&projectId=0198b979-1f5e-7105-8b5f-48f920534529","CB623644AE264AE5A51F2587B754F67B-2025-08-17-21-27-02","","847","","images/causal_sequence/package_causal/package_causal_1.png","0","",""
"","","","","","image-button-response","59","324212","0.0-12.0-1.0-2.0","CB623644AE264AE5A51F2587B754F67B","CB623644AE264AE5A51F2587B754F67B","0198b9c6-58c9-79e6-9a0c-f84da384f88f","0198b979-1f5e-7105-8b5f-48f920534529","{""num_scrambled_semantic"":""8"",""num_scrambled_causal"":""4"",""num_scrambled_schematic"":""4"",""participantId"":""CB623644AE264AE5A51F2587B754F67B"",""assignmentId"":""0198b9c6-58c9-79e6-9a0c-f84da384f88f"",""projectId"":""0198b979-1f5e-7105-8b5f-48f920534529""}","https://test12345.live/?num_scrambled_semantic=8&num_scrambled_causal=4&num_scrambled_schematic=4&participantId=CB623644AE264AE5A51F2587B754F67B&assignmentId=0198b9c6-58c9-79e6-9a0c-f84da384f88f&projectId=0198b979-1f5e-7105-8b5f-48f920534529","CB623644AE264AE5A51F2587B754F67B-2025-08-17-21-27-02","","null","","[]","null","",""
"","","","","","image-button-response","60","328719","0.0-12.0-1.0-0.1","CB623644AE264AE5A51F2587B754F67B","CB623644AE264AE5A51F2587B754F67B","0198b9c6-58c9-79e6-9a0c-f84da384f88f","0198b979-1f5e-7105-8b5f-48f920534529","{""num_scrambled_semantic"":""8"",""num_scrambled_causal"":""4"",""num_scrambled_schematic"":""4"",""participantId"":""CB623644AE264AE5A51F2587B754F67B"",""assignmentId"":""0198b9c6-58c9-79e6-9a0c-f84da384f88f"",""projectId"":""0198b979-1f5e-7105-8b5f-48f920534529""}","https://test12345.live/?num_scrambled_semantic=8&num_scrambled_causal=4&num_scrambled_schematic=4&participantId=CB623644AE264AE5A51F2587B754F67B&assignmentId=0198b9c6-58c9-79e6-9a0c-f84da384f88f&projectId=0198b979-1f5e-7105-8b5f-48f920534529","CB623644AE264AE5A51F2587B754F67B-2025-08-17-21-27-02","","null","","images/causal_sequence/package_causal/package_causal_2.png","null","",""
"","","","","","image-button-response","61","330822","0.0-12.0-1.0-1.1","CB623644AE264AE5A51F2587B754F67B","CB623644AE264AE5A51F2587B754F67B","0198b9c6-58c9-79e6-9a0c-f84da384f88f","0198b979-1f5e-7105-8b5f-48f920534529","{""num_scrambled_semantic"":""8"",""num_scrambled_causal"":""4"",""num_scrambled_schematic"":""4"",""participantId"":""CB623644AE264AE5A51F2587B754F67B"",""assignmentId"":""0198b9c6-58c9-79e6-9a0c-f84da384f88f"",""projectId"":""0198b979-1f5e-7105-8b5f-48f920534529""}","https://test12345.live/?num_scrambled_semantic=8&num_scrambled_causal=4&num_scrambled_schematic=4&participantId=CB623644AE264AE5A51F2587B754F67B&assignmentId=0198b9c6-58c9-79e6-9a0c-f84da384f88f&projectId=0198b979-1f5e-7105-8b5f-48f920534529","CB623644AE264AE5A51F2587B754F67B-2025-08-17-21-27-02","","2101","","images/causal_sequence/package_causal/package_causal_2.png","0","",""
"","","","","","image-button-response","62","336227","0.0-12.0-1.0-2.1","CB623644AE264AE5A51F2587B754F67B","CB623644AE264AE5A51F2587B754F67B","0198b9c6-58c9-79e6-9a0c-f84da384f88f","0198b979-1f5e-7105-8b5f-48f920534529","{""num_scrambled_semantic"":""8"",""num_scrambled_causal"":""4"",""num_scrambled_schematic"":""4"",""participantId"":""CB623644AE264AE5A51F2587B754F67B"",""assignmentId"":""0198b9c6-58c9-79e6-9a0c-f84da384f88f"",""projectId"":""0198b979-1f5e-7105-8b5f-48f920534529""}","https://test12345.live/?num_scrambled_semantic=8&num_scrambled_causal=4&num_scrambled_schematic=4&participantId=CB623644AE264AE5A51F2587B754F67B&assignmentId=0198b9c6-58c9-79e6-9a0c-f84da384f88f&projectId=0198b979-1f5e-7105-8b5f-48f920534529","CB623644AE264AE5A51F2587B754F67B-2025-08-17-21-27-02","","null","","[]","null","",""
"","","","","","image-button-response","63","340731","0.0-12.0-1.0-0.2","CB623644AE264AE5A51F2587B754F67B","CB623644AE264AE5A51F2587B754F67B","0198b9c6-58c9-79e6-9a0c-f84da384f88f","0198b979-1f5e-7105-8b5f-48f920534529","{""num_scrambled_semantic"":""8"",""num_scrambled_causal"":""4"",""num_scrambled_schematic"":""4"",""participantId"":""CB623644AE264AE5A51F2587B754F67B"",""assignmentId"":""0198b9c6-58c9-79e6-9a0c-f84da384f88f"",""projectId"":""0198b979-1f5e-7105-8b5f-48f920534529""}","https://test12345.live/?num_scrambled_semantic=8&num_scrambled_causal=4&num_scrambled_schematic=4&participantId=CB623644AE264AE5A51F2587B754F67B&assignmentId=0198b9c6-58c9-79e6-9a0c-f84da384f88f&projectId=0198b979-1f5e-7105-8b5f-48f920534529","CB623644AE264AE5A51F2587B754F67B-2025-08-17-21-27-02","","null","","images/causal_sequence/package_causal/package_causal_3.png","null","",""
"","","","","","image-button-response","64","341906","0.0-12.0-1.0-1.2","CB623644AE264AE5A51F2587B754F67B","CB623644AE264AE5A51F2587B754F67B","0198b9c6-58c9-79e6-9a0c-f84da384f88f","0198b979-1f5e-7105-8b5f-48f920534529","{""num_scrambled_semantic"":""8"",""num_scrambled_causal"":""4"",""num_scrambled_schematic"":""4"",""participantId"":""CB623644AE264AE5A51F2587B754F67B"",""assignmentId"":""0198b9c6-58c9-79e6-9a0c-f84da384f88f"",""projectId"":""0198b979-1f5e-7105-8b5f-48f920534529""}","https://test12345.live/?num_scrambled_semantic=8&num_scrambled_causal=4&num_scrambled_schematic=4&participantId=CB623644AE264AE5A51F2587B754F67B&assignmentId=0198b9c6-58c9-79e6-9a0c-f84da384f88f&projectId=0198b979-1f5e-7105-8b5f-48f920534529","CB623644AE264AE5A51F2587B754F67B-2025-08-17-21-27-02","","1172","","images/causal_sequence/package_causal/package_causal_3.png","0","",""
"","","","","","image-button-response","65","347312","0.0-12.0-1.0-2.2","CB623644AE264AE5A51F2587B754F67B","CB623644AE264AE5A51F2587B754F67B","0198b9c6-58c9-79e6-9a0c-f84da384f88f","0198b979-1f5e-7105-8b5f-48f920534529","{""num_scrambled_semantic"":""8"",""num_scrambled_causal"":""4"",""num_scrambled_schematic"":""4"",""participantId"":""CB623644AE264AE5A51F2587B754F67B"",""assignmentId"":""0198b9c6-58c9-79e6-9a0c-f84da384f88f"",""projectId"":""0198b979-1f5e-7105-8b5f-48f920534529""}","https://test12345.live/?num_scrambled_semantic=8&num_scrambled_causal=4&num_scrambled_schematic=4&participantId=CB623644AE264AE5A51F2587B754F67B&assignmentId=0198b9c6-58c9-79e6-9a0c-f84da384f88f&projectId=0198b979-1f5e-7105-8b5f-48f920534529","CB623644AE264AE5A51F2587B754F67B-2025-08-17-21-27-02","","null","","[]","null","",""
"","","","","","image-button-response","66","351818","0.0-12.0-1.0-0.3","CB623644AE264AE5A51F2587B754F67B","CB623644AE264AE5A51F2587B754F67B","0198b9c6-58c9-79e6-9a0c-f84da384f88f","0198b979-1f5e-7105-8b5f-48f920534529","{""num_scrambled_semantic"":""8"",""num_scrambled_causal"":""4"",""num_scrambled_schematic"":""4"",""participantId"":""CB623644AE264AE5A51F2587B754F67B"",""assignmentId"":""0198b9c6-58c9-79e6-9a0c-f84da384f88f"",""projectId"":""0198b979-1f5e-7105-8b5f-48f920534529""}","https://test12345.live/?num_scrambled_semantic=8&num_scrambled_causal=4&num_scrambled_schematic=4&participantId=CB623644AE264AE5A51F2587B754F67B&assignmentId=0198b9c6-58c9-79e6-9a0c-f84da384f88f&projectId=0198b979-1f5e-7105-8b5f-48f920534529","CB623644AE264AE5A51F2587B754F67B-2025-08-17-21-27-02","","null","","images/causal_sequence/package_causal/package_causal_4.png","null","",""
"","","","","","image-button-response","67","352568","0.0-12.0-1.0-1.3","CB623644AE264AE5A51F2587B754F67B","CB623644AE264AE5A51F2587B754F67B","0198b9c6-58c9-79e6-9a0c-f84da384f88f","0198b979-1f5e-7105-8b5f-48f920534529","{""num_scrambled_semantic"":""8"",""num_scrambled_causal"":""4"",""num_scrambled_schematic"":""4"",""participantId"":""CB623644AE264AE5A51F2587B754F67B"",""assignmentId"":""0198b9c6-58c9-79e6-9a0c-f84da384f88f"",""projectId"":""0198b979-1f5e-7105-8b5f-48f920534529""}","https://test12345.live/?num_scrambled_semantic=8&num_scrambled_causal=4&num_scrambled_schematic=4&participantId=CB623644AE264AE5A51F2587B754F67B&assignmentId=0198b9c6-58c9-79e6-9a0c-f84da384f88f&projectId=0198b979-1f5e-7105-8b5f-48f920534529","CB623644AE264AE5A51F2587B754F67B-2025-08-17-21-27-02","","749","","images/causal_sequence/package_causal/package_causal_4.png","0","",""
"","","","","","image-button-response","68","357975","0.0-12.0-1.0-2.3","CB623644AE264AE5A51F2587B754F67B","CB623644AE264AE5A51F2587B754F67B","0198b9c6-58c9-79e6-9a0c-f84da384f88f","0198b979-1f5e-7105-8b5f-48f920534529","{""num_scrambled_semantic"":""8"",""num_scrambled_causal"":""4"",""num_scrambled_schematic"":""4"",""participantId"":""CB623644AE264AE5A51F2587B754F67B"",""assignmentId"":""0198b9c6-58c9-79e6-9a0c-f84da384f88f"",""projectId"":""0198b979-1f5e-7105-8b5f-48f920534529""}","https://test12345.live/?num_scrambled_semantic=8&num_scrambled_causal=4&num_scrambled_schematic=4&participantId=CB623644AE264AE5A51F2587B754F67B&assignmentId=0198b9c6-58c9-79e6-9a0c-f84da384f88f&projectId=0198b979-1f5e-7105-8b5f-48f920534529","CB623644AE264AE5A51F2587B754F67B-2025-08-17-21-27-02","","null","","[]","null","",""
"","","","","","image-button-response","69","362480","0.0-12.0-1.0-0.4","CB623644AE264AE5A51F2587B754F67B","CB623644AE264AE5A51F2587B754F67B","0198b9c6-58c9-79e6-9a0c-f84da384f88f","0198b979-1f5e-7105-8b5f-48f920534529","{""num_scrambled_semantic"":""8"",""num_scrambled_causal"":""4"",""num_scrambled_schematic"":""4"",""participantId"":""CB623644AE264AE5A51F2587B754F67B"",""assignmentId"":""0198b9c6-58c9-79e6-9a0c-f84da384f88f"",""projectId"":""0198b979-1f5e-7105-8b5f-48f920534529""}","https://test12345.live/?num_scrambled_semantic=8&num_scrambled_causal=4&num_scrambled_schematic=4&participantId=CB623644AE264AE5A51F2587B754F67B&assignmentId=0198b9c6-58c9-79e6-9a0c-f84da384f88f&projectId=0198b979-1f5e-7105-8b5f-48f920534529","CB623644AE264AE5A51F2587B754F67B-2025-08-17-21-27-02","","null","","images/causal_sequence/package_causal/package_causal_5.png","null","",""
"","","","","","image-button-response","70","363601","0.0-12.0-1.0-1.4","CB623644AE264AE5A51F2587B754F67B","CB623644AE264AE5A51F2587B754F67B","0198b9c6-58c9-79e6-9a0c-f84da384f88f","0198b979-1f5e-7105-8b5f-48f920534529","{""num_scrambled_semantic"":""8"",""num_scrambled_causal"":""4"",""num_scrambled_schematic"":""4"",""participantId"":""CB623644AE264AE5A51F2587B754F67B"",""assignmentId"":""0198b9c6-58c9-79e6-9a0c-f84da384f88f"",""projectId"":""0198b979-1f5e-7105-8b5f-48f920534529""}","https://test12345.live/?num_scrambled_semantic=8&num_scrambled_causal=4&num_scrambled_schematic=4&participantId=CB623644AE264AE5A51F2587B754F67B&assignmentId=0198b9c6-58c9-79e6-9a0c-f84da384f88f&projectId=0198b979-1f5e-7105-8b5f-48f920534529","CB623644AE264AE5A51F2587B754F67B-2025-08-17-21-27-02","","1119","","images/causal_sequence/package_causal/package_causal_5.png","0","",""
"","","","","","image-button-response","71","369004","0.0-12.0-1.0-2.4","CB623644AE264AE5A51F2587B754F67B","CB623644AE264AE5A51F2587B754F67B","0198b9c6-58c9-79e6-9a0c-f84da384f88f","0198b979-1f5e-7105-8b5f-48f920534529","{""num_scrambled_semantic"":""8"",""num_scrambled_causal"":""4"",""num_scrambled_schematic"":""4"",""participantId"":""CB623644AE264AE5A51F2587B754F67B"",""assignmentId"":""0198b9c6-58c9-79e6-9a0c-f84da384f88f"",""projectId"":""0198b979-1f5e-7105-8b5f-48f920534529""}","https://test12345.live/?num_scrambled_semantic=8&num_scrambled_causal=4&num_scrambled_schematic=4&participantId=CB623644AE264AE5A51F2587B754F67B&assignmentId=0198b9c6-58c9-79e6-9a0c-f84da384f88f&projectId=0198b979-1f5e-7105-8b5f-48f920534529","CB623644AE264AE5A51F2587B754F67B-2025-08-17-21-27-02","","null","","[]","null","",""
"","","","","","image-button-response","72","373511","0.0-12.0-1.0-0.5","CB623644AE264AE5A51F2587B754F67B","CB623644AE264AE5A51F2587B754F67B","0198b9c6-58c9-79e6-9a0c-f84da384f88f","0198b979-1f5e-7105-8b5f-48f920534529","{""num_scrambled_semantic"":""8"",""num_scrambled_causal"":""4"",""num_scrambled_schematic"":""4"",""participantId"":""CB623644AE264AE5A51F2587B754F67B"",""assignmentId"":""0198b9c6-58c9-79e6-9a0c-f84da384f88f"",""projectId"":""0198b979-1f5e-7105-8b5f-48f920534529""}","https://test12345.live/?num_scrambled_semantic=8&num_scrambled_causal=4&num_scrambled_schematic=4&participantId=CB623644AE264AE5A51F2587B754F67B&assignmentId=0198b9c6-58c9-79e6-9a0c-f84da384f88f&projectId=0198b979-1f5e-7105-8b5f-48f920534529","CB623644AE264AE5A51F2587B754F67B-2025-08-17-21-27-02","","null","","images/causal_sequence/package_causal/package_causal_6.png","null","",""
"","","","","","image-button-response","73","375756","0.0-12.0-1.0-1.5","CB623644AE264AE5A51F2587B754F67B","CB623644AE264AE5A51F2587B754F67B","0198b9c6-58c9-79e6-9a0c-f84da384f88f","0198b979-1f5e-7105-8b5f-48f920534529","{""num_scrambled_semantic"":""8"",""num_scrambled_causal"":""4"",""num_scrambled_schematic"":""4"",""participantId"":""CB623644AE264AE5A51F2587B754F67B"",""assignmentId"":""0198b9c6-58c9-79e6-9a0c-f84da384f88f"",""projectId"":""0198b979-1f5e-7105-8b5f-48f920534529""}","https://test12345.live/?num_scrambled_semantic=8&num_scrambled_causal=4&num_scrambled_schematic=4&participantId=CB623644AE264AE5A51F2587B754F67B&assignmentId=0198b9c6-58c9-79e6-9a0c-f84da384f88f&projectId=0198b979-1f5e-7105-8b5f-48f920534529","CB623644AE264AE5A51F2587B754F67B-2025-08-17-21-27-02","","2243","","images/causal_sequence/package_causal/package_causal_6.png","0","",""
"","","","","","image-button-response","74","381158","0.0-12.0-1.0-2.5","CB623644AE264AE5A51F2587B754F67B","CB623644AE264AE5A51F2587B754F67B","0198b9c6-58c9-79e6-9a0c-f84da384f88f","0198b979-1f5e-7105-8b5f-48f920534529","{""num_scrambled_semantic"":""8"",""num_scrambled_causal"":""4"",""num_scrambled_schematic"":""4"",""participantId"":""CB623644AE264AE5A51F2587B754F67B"",""assignmentId"":""0198b9c6-58c9-79e6-9a0c-f84da384f88f"",""projectId"":""0198b979-1f5e-7105-8b5f-48f920534529""}","https://test12345.live/?num_scrambled_semantic=8&num_scrambled_causal=4&num_scrambled_schematic=4&participantId=CB623644AE264AE5A51F2587B754F67B&assignmentId=0198b9c6-58c9-79e6-9a0c-f84da384f88f&projectId=0198b979-1f5e-7105-8b5f-48f920534529","CB623644AE264AE5A51F2587B754F67B-2025-08-17-21-27-02","","null","","[]","null","",""
"","","","","","image-button-response","75","385666","0.0-12.0-1.0-0.6","CB623644AE264AE5A51F2587B754F67B","CB623644AE264AE5A51F2587B754F67B","0198b9c6-58c9-79e6-9a0c-f84da384f88f","0198b979-1f5e-7105-8b5f-48f920534529","{""num_scrambled_semantic"":""8"",""num_scrambled_causal"":""4"",""num_scrambled_schematic"":""4"",""participantId"":""CB623644AE264AE5A51F2587B754F67B"",""assignmentId"":""0198b9c6-58c9-79e6-9a0c-f84da384f88f"",""projectId"":""0198b979-1f5e-7105-8b5f-48f920534529""}","https://test12345.live/?num_scrambled_semantic=8&num_scrambled_causal=4&num_scrambled_schematic=4&participantId=CB623644AE264AE5A51F2587B754F67B&assignmentId=0198b9c6-58c9-79e6-9a0c-f84da384f88f&projectId=0198b979-1f5e-7105-8b5f-48f920534529","CB623644AE264AE5A51F2587B754F67B-2025-08-17-21-27-02","","null","","images/causal_sequence/package_causal/package_causal_7.png","null","",""
"","","","","","image-button-response","76","386668","0.0-12.0-1.0-1.6","CB623644AE264AE5A51F2587B754F67B","CB623644AE264AE5A51F2587B754F67B","0198b9c6-58c9-79e6-9a0c-f84da384f88f","0198b979-1f5e-7105-8b5f-48f920534529","{""num_scrambled_semantic"":""8"",""num_scrambled_causal"":""4"",""num_scrambled_schematic"":""4"",""participantId"":""CB623644AE264AE5A51F2587B754F67B"",""assignmentId"":""0198b9c6-58c9-79e6-9a0c-f84da384f88f"",""projectId"":""0198b979-1f5e-7105-8b5f-48f920534529""}","https://test12345.live/?num_scrambled_semantic=8&num_scrambled_causal=4&num_scrambled_schematic=4&participantId=CB623644AE264AE5A51F2587B754F67B&assignmentId=0198b9c6-58c9-79e6-9a0c-f84da384f88f&projectId=0198b979-1f5e-7105-8b5f-48f920534529","CB623644AE264AE5A51F2587B754F67B-2025-08-17-21-27-02","","1000","","images/causal_sequence/package_causal/package_causal_7.png","0","",""
"","","","","","image-button-response","77","392074","0.0-12.0-1.0-2.6","CB623644AE264AE5A51F2587B754F67B","CB623644AE264AE5A51F2587B754F67B","0198b9c6-58c9-79e6-9a0c-f84da384f88f","0198b979-1f5e-7105-8b5f-48f920534529","{""num_scrambled_semantic"":""8"",""num_scrambled_causal"":""4"",""num_scrambled_schematic"":""4"",""participantId"":""CB623644AE264AE5A51F2587B754F67B"",""assignmentId"":""0198b9c6-58c9-79e6-9a0c-f84da384f88f"",""projectId"":""0198b979-1f5e-7105-8b5f-48f920534529""}","https://test12345.live/?num_scrambled_semantic=8&num_scrambled_causal=4&num_scrambled_schematic=4&participantId=CB623644AE264AE5A51F2587B754F67B&assignmentId=0198b9c6-58c9-79e6-9a0c-f84da384f88f&projectId=0198b979-1f5e-7105-8b5f-48f920534529","CB623644AE264AE5A51F2587B754F67B-2025-08-17-21-27-02","","null","","[]","null","",""
"","","","","","image-button-response","78","396582","0.0-12.0-1.0-0.7","CB623644AE264AE5A51F2587B754F67B","CB623644AE264AE5A51F2587B754F67B","0198b9c6-58c9-79e6-9a0c-f84da384f88f","0198b979-1f5e-7105-8b5f-48f920534529","{""num_scrambled_semantic"":""8"",""num_scrambled_causal"":""4"",""num_scrambled_schematic"":""4"",""participantId"":""CB623644AE264AE5A51F2587B754F67B"",""assignmentId"":""0198b9c6-58c9-79e6-9a0c-f84da384f88f"",""projectId"":""0198b979-1f5e-7105-8b5f-48f920534529""}","https://test12345.live/?num_scrambled_semantic=8&num_scrambled_causal=4&num_scrambled_schematic=4&participantId=CB623644AE264AE5A51F2587B754F67B&assignmentId=0198b9c6-58c9-79e6-9a0c-f84da384f88f&projectId=0198b979-1f5e-7105-8b5f-48f920534529","CB623644AE264AE5A51F2587B754F67B-2025-08-17-21-27-02","","null","","images/causal_sequence/package_causal/package_causal_8.png","null","",""
"","","","","","image-button-response","79","397531","0.0-12.0-1.0-1.7","CB623644AE264AE5A51F2587B754F67B","CB623644AE264AE5A51F2587B754F67B","0198b9c6-58c9-79e6-9a0c-f84da384f88f","0198b979-1f5e-7105-8b5f-48f920534529","{""num_scrambled_semantic"":""8"",""num_scrambled_causal"":""4"",""num_scrambled_schematic"":""4"",""participantId"":""CB623644AE264AE5A51F2587B754F67B"",""assignmentId"":""0198b9c6-58c9-79e6-9a0c-f84da384f88f"",""projectId"":""0198b979-1f5e-7105-8b5f-48f920534529""}","https://test12345.live/?num_scrambled_semantic=8&num_scrambled_causal=4&num_scrambled_schematic=4&participantId=CB623644AE264AE5A51F2587B754F67B&assignmentId=0198b9c6-58c9-79e6-9a0c-f84da384f88f&projectId=0198b979-1f5e-7105-8b5f-48f920534529","CB623644AE264AE5A51F2587B754F67B-2025-08-17-21-27-02","","947","","images/causal_sequence/package_causal/package_causal_8.png","0","",""
"","","","","","image-button-response","80","402937","0.0-12.0-1.0-2.7","CB623644AE264AE5A51F2587B754F67B","CB623644AE264AE5A51F2587B754F67B","0198b9c6-58c9-79e6-9a0c-f84da384f88f","0198b979-1f5e-7105-8b5f-48f920534529","{""num_scrambled_semantic"":""8"",""num_scrambled_causal"":""4"",""num_scrambled_schematic"":""4"",""participantId"":""CB623644AE264AE5A51F2587B754F67B"",""assignmentId"":""0198b9c6-58c9-79e6-9a0c-f84da384f88f"",""projectId"":""0198b979-1f5e-7105-8b5f-48f920534529""}","https://test12345.live/?num_scrambled_semantic=8&num_scrambled_causal=4&num_scrambled_schematic=4&participantId=CB623644AE264AE5A51F2587B754F67B&assignmentId=0198b9c6-58c9-79e6-9a0c-f84da384f88f&projectId=0198b979-1f5e-7105-8b5f-48f920534529","CB623644AE264AE5A51F2587B754F67B-2025-08-17-21-27-02","","null","","[]","null","",""
"","","","","","image-button-response","81","407444","0.0-12.0-1.0-0.8","CB623644AE264AE5A51F2587B754F67B","CB623644AE264AE5A51F2587B754F67B","0198b9c6-58c9-79e6-9a0c-f84da384f88f","0198b979-1f5e-7105-8b5f-48f920534529","{""num_scrambled_semantic"":""8"",""num_scrambled_causal"":""4"",""num_scrambled_schematic"":""4"",""participantId"":""CB623644AE264AE5A51F2587B754F67B"",""assignmentId"":""0198b9c6-58c9-79e6-9a0c-f84da384f88f"",""projectId"":""0198b979-1f5e-7105-8b5f-48f920534529""}","https://test12345.live/?num_scrambled_semantic=8&num_scrambled_causal=4&num_scrambled_schematic=4&participantId=CB623644AE264AE5A51F2587B754F67B&assignmentId=0198b9c6-58c9-79e6-9a0c-f84da384f88f&projectId=0198b979-1f5e-7105-8b5f-48f920534529","CB623644AE264AE5A51F2587B754F67B-2025-08-17-21-27-02","","null","","images/causal_sequence/package_causal/package_causal_9.png","null","",""
"","","","","","image-button-response","82","408010","0.0-12.0-1.0-1.8","CB623644AE264AE5A51F2587B754F67B","CB623644AE264AE5A51F2587B754F67B","0198b9c6-58c9-79e6-9a0c-f84da384f88f","0198b979-1f5e-7105-8b5f-48f920534529","{""num_scrambled_semantic"":""8"",""num_scrambled_causal"":""4"",""num_scrambled_schematic"":""4"",""participantId"":""CB623644AE264AE5A51F2587B754F67B"",""assignmentId"":""0198b9c6-58c9-79e6-9a0c-f84da384f88f"",""projectId"":""0198b979-1f5e-7105-8b5f-48f920534529""}","https://test12345.live/?num_scrambled_semantic=8&num_scrambled_causal=4&num_scrambled_schematic=4&participantId=CB623644AE264AE5A51F2587B754F67B&assignmentId=0198b9c6-58c9-79e6-9a0c-f84da384f88f&projectId=0198b979-1f5e-7105-8b5f-48f920534529","CB623644AE264AE5A51F2587B754F67B-2025-08-17-21-27-02","","564","","images/causal_sequence/package_causal/package_causal_9.png","0","",""
"","","","","","image-button-response","83","413414","0.0-12.0-1.0-2.8","CB623644AE264AE5A51F2587B754F67B","CB623644AE264AE5A51F2587B754F67B","0198b9c6-58c9-79e6-9a0c-f84da384f88f","0198b979-1f5e-7105-8b5f-48f920534529","{""num_scrambled_semantic"":""8"",""num_scrambled_causal"":""4"",""num_scrambled_schematic"":""4"",""participantId"":""CB623644AE264AE5A51F2587B754F67B"",""assignmentId"":""0198b9c6-58c9-79e6-9a0c-f84da384f88f"",""projectId"":""0198b979-1f5e-7105-8b5f-48f920534529""}","https://test12345.live/?num_scrambled_semantic=8&num_scrambled_causal=4&num_scrambled_schematic=4&participantId=CB623644AE264AE5A51F2587B754F67B&assignmentId=0198b9c6-58c9-79e6-9a0c-f84da384f88f&projectId=0198b979-1f5e-7105-8b5f-48f920534529","CB623644AE264AE5A51F2587B754F67B-2025-08-17-21-27-02","","null","","[]","null","",""
"","","","","","image-button-response","84","417920","0.0-12.0-1.0-0.9","CB623644AE264AE5A51F2587B754F67B","CB623644AE264AE5A51F2587B754F67B","0198b9c6-58c9-79e6-9a0c-f84da384f88f","0198b979-1f5e-7105-8b5f-48f920534529","{""num_scrambled_semantic"":""8"",""num_scrambled_causal"":""4"",""num_scrambled_schematic"":""4"",""participantId"":""CB623644AE264AE5A51F2587B754F67B"",""assignmentId"":""0198b9c6-58c9-79e6-9a0c-f84da384f88f"",""projectId"":""0198b979-1f5e-7105-8b5f-48f920534529""}","https://test12345.live/?num_scrambled_semantic=8&num_scrambled_causal=4&num_scrambled_schematic=4&participantId=CB623644AE264AE5A51F2587B754F67B&assignmentId=0198b9c6-58c9-79e6-9a0c-f84da384f88f&projectId=0198b979-1f5e-7105-8b5f-48f920534529","CB623644AE264AE5A51F2587B754F67B-2025-08-17-21-27-02","","null","","images/causal_sequence/package_causal/package_causal_ten.png","null","",""
"","","","","","image-button-response","85","419060","0.0-12.0-1.0-1.9","CB623644AE264AE5A51F2587B754F67B","CB623644AE264AE5A51F2587B754F67B","0198b9c6-58c9-79e6-9a0c-f84da384f88f","0198b979-1f5e-7105-8b5f-48f920534529","{""num_scrambled_semantic"":""8"",""num_scrambled_causal"":""4"",""num_scrambled_schematic"":""4"",""participantId"":""CB623644AE264AE5A51F2587B754F67B"",""assignmentId"":""0198b9c6-58c9-79e6-9a0c-f84da384f88f"",""projectId"":""0198b979-1f5e-7105-8b5f-48f920534529""}","https://test12345.live/?num_scrambled_semantic=8&num_scrambled_causal=4&num_scrambled_schematic=4&participantId=CB623644AE264AE5A51F2587B754F67B&assignmentId=0198b9c6-58c9-79e6-9a0c-f84da384f88f&projectId=0198b979-1f5e-7105-8b5f-48f920534529","CB623644AE264AE5A51F2587B754F67B-2025-08-17-21-27-02","","1138","","images/causal_sequence/package_causal/package_causal_ten.png","0","",""
"","","","","","image-button-response","86","424467","0.0-12.0-1.0-2.9","CB623644AE264AE5A51F2587B754F67B","CB623644AE264AE5A51F2587B754F67B","0198b9c6-58c9-79e6-9a0c-f84da384f88f","0198b979-1f5e-7105-8b5f-48f920534529","{""num_scrambled_semantic"":""8"",""num_scrambled_causal"":""4"",""num_scrambled_schematic"":""4"",""participantId"":""CB623644AE264AE5A51F2587B754F67B"",""assignmentId"":""0198b9c6-58c9-79e6-9a0c-f84da384f88f"",""projectId"":""0198b979-1f5e-7105-8b5f-48f920534529""}","https://test12345.live/?num_scrambled_semantic=8&num_scrambled_causal=4&num_scrambled_schematic=4&participantId=CB623644AE264AE5A51F2587B754F67B&assignmentId=0198b9c6-58c9-79e6-9a0c-f84da384f88f&projectId=0198b979-1f5e-7105-8b5f-48f920534529","CB623644AE264AE5A51F2587B754F67B-2025-08-17-21-27-02","","null","","[]","null","",""
"","","","","","html-audio-response","87","442264","0.0-13.0","CB623644AE264AE5A51F2587B754F67B","CB623644AE264AE5A51F2587B754F67B","0198b9c6-58c9-79e6-9a0c-f84da384f88f","0198b979-1f5e-7105-8b5f-48f920534529","{""num_scrambled_semantic"":""8"",""num_scrambled_causal"":""4"",""num_scrambled_schematic"":""4"",""participantId"":""CB623644AE264AE5A51F2587B754F67B"",""assignmentId"":""0198b9c6-58c9-79e6-9a0c-f84da384f88f"",""projectId"":""0198b979-1f5e-7105-8b5f-48f920534529""}","https://test12345.live/?num_scrambled_semantic=8&num_scrambled_causal=4&num_scrambled_schematic=4&participantId=CB623644AE264AE5A51F2587B754F67B&assignmentId=0198b9c6-58c9-79e6-9a0c-f84da384f88f&projectId=0198b979-1f5e-7105-8b5f-48f920534529","CB623644AE264AE5A51F2587B754F67B-2025-08-17-21-27-02","","16598","","[""<span style=\""color: red; font-size: 24px\""> NOW RECORDING</span><p>Please say out loud all the images you saw, as many as you can remember. The images can be said in any order.</p>""]","","2","package_causal"
"","","","","","image-button-response","88","448274","0.0-14.0-0.0","CB623644AE264AE5A51F2587B754F67B","CB623644AE264AE5A51F2587B754F67B","0198b9c6-58c9-79e6-9a0c-f84da384f88f","0198b979-1f5e-7105-8b5f-48f920534529","{""num_scrambled_semantic"":""8"",""num_scrambled_causal"":""4"",""num_scrambled_schematic"":""4"",""participantId"":""CB623644AE264AE5A51F2587B754F67B"",""assignmentId"":""0198b9c6-58c9-79e6-9a0c-f84da384f88f"",""projectId"":""0198b979-1f5e-7105-8b5f-48f920534529""}","https://test12345.live/?num_scrambled_semantic=8&num_scrambled_causal=4&num_scrambled_schematic=4&participantId=CB623644AE264AE5A51F2587B754F67B&assignmentId=0198b9c6-58c9-79e6-9a0c-f84da384f88f&projectId=0198b979-1f5e-7105-8b5f-48f920534529","CB623644AE264AE5A51F2587B754F67B-2025-08-17-21-27-02","","null","","images/causal_sequence/museum_causal/museum_causal_0.png","null","",""
"","","","","","image-button-response","89","452781","0.0-14.0-1.0-0.0","CB623644AE264AE5A51F2587B754F67B","CB623644AE264AE5A51F2587B754F67B","0198b9c6-58c9-79e6-9a0c-f84da384f88f","0198b979-1f5e-7105-8b5f-48f920534529","{""num_scrambled_semantic"":""8"",""num_scrambled_causal"":""4"",""num_scrambled_schematic"":""4"",""participantId"":""CB623644AE264AE5A51F2587B754F67B"",""assignmentId"":""0198b9c6-58c9-79e6-9a0c-f84da384f88f"",""projectId"":""0198b979-1f5e-7105-8b5f-48f920534529""}","https://test12345.live/?num_scrambled_semantic=8&num_scrambled_causal=4&num_scrambled_schematic=4&participantId=CB623644AE264AE5A51F2587B754F67B&assignmentId=0198b9c6-58c9-79e6-9a0c-f84da384f88f&projectId=0198b979-1f5e-7105-8b5f-48f920534529","CB623644AE264AE5A51F2587B754F67B-2025-08-17-21-27-02","","null","","images/causal_sequence/museum_causal/museum_causal_3.png","null","",""
"","","","","","image-button-response","90","456784","0.0-14.0-1.0-1.0","CB623644AE264AE5A51F2587B754F67B","CB623644AE264AE5A51F2587B754F67B","0198b9c6-58c9-79e6-9a0c-f84da384f88f","0198b979-1f5e-7105-8b5f-48f920534529","{""num_scrambled_semantic"":""8"",""num_scrambled_causal"":""4"",""num_scrambled_schematic"":""4"",""participantId"":""CB623644AE264AE5A51F2587B754F67B"",""assignmentId"":""0198b9c6-58c9-79e6-9a0c-f84da384f88f"",""projectId"":""0198b979-1f5e-7105-8b5f-48f920534529""}","https://test12345.live/?num_scrambled_semantic=8&num_scrambled_causal=4&num_scrambled_schematic=4&participantId=CB623644AE264AE5A51F2587B754F67B&assignmentId=0198b9c6-58c9-79e6-9a0c-f84da384f88f&projectId=0198b979-1f5e-7105-8b5f-48f920534529","CB623644AE264AE5A51F2587B754F67B-2025-08-17-21-27-02","","null","","images/causal_sequence/museum_causal/museum_causal_3.png","null","",""
"","","","","","image-button-response","91","462189","0.0-14.0-1.0-2.0","CB623644AE264AE5A51F2587B754F67B","CB623644AE264AE5A51F2587B754F67B","0198b9c6-58c9-79e6-9a0c-f84da384f88f","0198b979-1f5e-7105-8b5f-48f920534529","{""num_scrambled_semantic"":""8"",""num_scrambled_causal"":""4"",""num_scrambled_schematic"":""4"",""participantId"":""CB623644AE264AE5A51F2587B754F67B"",""assignmentId"":""0198b9c6-58c9-79e6-9a0c-f84da384f88f"",""projectId"":""0198b979-1f5e-7105-8b5f-48f920534529""}","https://test12345.live/?num_scrambled_semantic=8&num_scrambled_causal=4&num_scrambled_schematic=4&participantId=CB623644AE264AE5A51F2587B754F67B&assignmentId=0198b9c6-58c9-79e6-9a0c-f84da384f88f&projectId=0198b979-1f5e-7105-8b5f-48f920534529","CB623644AE264AE5A51F2587B754F67B-2025-08-17-21-27-02","","null","","[]","null","",""
"","","","","","image-button-response","92","466691","0.0-14.0-1.0-0.1","CB623644AE264AE5A51F2587B754F67B","CB623644AE264AE5A51F2587B754F67B","0198b9c6-58c9-79e6-9a0c-f84da384f88f","0198b979-1f5e-7105-8b5f-48f920534529","{""num_scrambled_semantic"":""8"",""num_scrambled_causal"":""4"",""num_scrambled_schematic"":""4"",""participantId"":""CB623644AE264AE5A51F2587B754F67B"",""assignmentId"":""0198b9c6-58c9-79e6-9a0c-f84da384f88f"",""projectId"":""0198b979-1f5e-7105-8b5f-48f920534529""}","https://test12345.live/?num_scrambled_semantic=8&num_scrambled_causal=4&num_scrambled_schematic=4&participantId=CB623644AE264AE5A51F2587B754F67B&assignmentId=0198b9c6-58c9-79e6-9a0c-f84da384f88f&projectId=0198b979-1f5e-7105-8b5f-48f920534529","CB623644AE264AE5A51F2587B754F67B-2025-08-17-21-27-02","","null","","images/causal_sequence/museum_causal/museum_causal_6.png","null","",""
"","","","","","image-button-response","93","467505","0.0-14.0-1.0-1.1","CB623644AE264AE5A51F2587B754F67B","CB623644AE264AE5A51F2587B754F67B","0198b9c6-58c9-79e6-9a0c-f84da384f88f","0198b979-1f5e-7105-8b5f-48f920534529","{""num_scrambled_semantic"":""8"",""num_scrambled_causal"":""4"",""num_scrambled_schematic"":""4"",""participantId"":""CB623644AE264AE5A51F2587B754F67B"",""assignmentId"":""0198b9c6-58c9-79e6-9a0c-f84da384f88f"",""projectId"":""0198b979-1f5e-7105-8b5f-48f920534529""}","https://test12345.live/?num_scrambled_semantic=8&num_scrambled_causal=4&num_scrambled_schematic=4&participantId=CB623644AE264AE5A51F2587B754F67B&assignmentId=0198b9c6-58c9-79e6-9a0c-f84da384f88f&projectId=0198b979-1f5e-7105-8b5f-48f920534529","CB623644AE264AE5A51F2587B754F67B-2025-08-17-21-27-02","","812","","images/causal_sequence/museum_causal/museum_causal_6.png","0","",""
"","","","","","image-button-response","94","472911","0.0-14.0-1.0-2.1","CB623644AE264AE5A51F2587B754F67B","CB623644AE264AE5A51F2587B754F67B","0198b9c6-58c9-79e6-9a0c-f84da384f88f","0198b979-1f5e-7105-8b5f-48f920534529","{""num_scrambled_semantic"":""8"",""num_scrambled_causal"":""4"",""num_scrambled_schematic"":""4"",""participantId"":""CB623644AE264AE5A51F2587B754F67B"",""assignmentId"":""0198b9c6-58c9-79e6-9a0c-f84da384f88f"",""projectId"":""0198b979-1f5e-7105-8b5f-48f920534529""}","https://test12345.live/?num_scrambled_semantic=8&num_scrambled_causal=4&num_scrambled_schematic=4&participantId=CB623644AE264AE5A51F2587B754F67B&assignmentId=0198b9c6-58c9-79e6-9a0c-f84da384f88f&projectId=0198b979-1f5e-7105-8b5f-48f920534529","CB623644AE264AE5A51F2587B754F67B-2025-08-17-21-27-02","","null","","[]","null","",""
"","","","","","image-button-response","95","477419","0.0-14.0-1.0-0.2","CB623644AE264AE5A51F2587B754F67B","CB623644AE264AE5A51F2587B754F67B","0198b9c6-58c9-79e6-9a0c-f84da384f88f","0198b979-1f5e-7105-8b5f-48f920534529","{""num_scrambled_semantic"":""8"",""num_scrambled_causal"":""4"",""num_scrambled_schematic"":""4"",""participantId"":""CB623644AE264AE5A51F2587B754F67B"",""assignmentId"":""0198b9c6-58c9-79e6-9a0c-f84da384f88f"",""projectId"":""0198b979-1f5e-7105-8b5f-48f920534529""}","https://test12345.live/?num_scrambled_semantic=8&num_scrambled_causal=4&num_scrambled_schematic=4&participantId=CB623644AE264AE5A51F2587B754F67B&assignmentId=0198b9c6-58c9-79e6-9a0c-f84da384f88f&projectId=0198b979-1f5e-7105-8b5f-48f920534529","CB623644AE264AE5A51F2587B754F67B-2025-08-17-21-27-02","","null","","images/causal_sequence/museum_causal/museum_causal_9.png","null","",""
"","","","","","image-button-response","96","479120","0.0-14.0-1.0-1.2","CB623644AE264AE5A51F2587B754F67B","CB623644AE264AE5A51F2587B754F67B","0198b9c6-58c9-79e6-9a0c-f84da384f88f","0198b979-1f5e-7105-8b5f-48f920534529","{""num_scrambled_semantic"":""8"",""num_scrambled_causal"":""4"",""num_scrambled_schematic"":""4"",""participantId"":""CB623644AE264AE5A51F2587B754F67B"",""assignmentId"":""0198b9c6-58c9-79e6-9a0c-f84da384f88f"",""projectId"":""0198b979-1f5e-7105-8b5f-48f920534529""}","https://test12345.live/?num_scrambled_semantic=8&num_scrambled_causal=4&num_scrambled_schematic=4&participantId=CB623644AE264AE5A51F2587B754F67B&assignmentId=0198b9c6-58c9-79e6-9a0c-f84da384f88f&projectId=0198b979-1f5e-7105-8b5f-48f920534529","CB623644AE264AE5A51F2587B754F67B-2025-08-17-21-27-02","","1699","","images/causal_sequence/museum_causal/museum_causal_9.png","1","",""
"","","","","","image-button-response","97","484529","0.0-14.0-1.0-2.2","CB623644AE264AE5A51F2587B754F67B","CB623644AE264AE5A51F2587B754F67B","0198b9c6-58c9-79e6-9a0c-f84da384f88f","0198b979-1f5e-7105-8b5f-48f920534529","{""num_scrambled_semantic"":""8"",""num_scrambled_causal"":""4"",""num_scrambled_schematic"":""4"",""participantId"":""CB623644AE264AE5A51F2587B754F67B"",""assignmentId"":""0198b9c6-58c9-79e6-9a0c-f84da384f88f"",""projectId"":""0198b979-1f5e-7105-8b5f-48f920534529""}","https://test12345.live/?num_scrambled_semantic=8&num_scrambled_causal=4&num_scrambled_schematic=4&participantId=CB623644AE264AE5A51F2587B754F67B&assignmentId=0198b9c6-58c9-79e6-9a0c-f84da384f88f&projectId=0198b979-1f5e-7105-8b5f-48f920534529","CB623644AE264AE5A51F2587B754F67B-2025-08-17-21-27-02","","null","","[]","null","",""
"","","","","","image-button-response","98","489036","0.0-14.0-1.0-0.3","CB623644AE264AE5A51F2587B754F67B","CB623644AE264AE5A51F2587B754F67B","0198b9c6-58c9-79e6-9a0c-f84da384f88f","0198b979-1f5e-7105-8b5f-48f920534529","{""num_scrambled_semantic"":""8"",""num_scrambled_causal"":""4"",""num_scrambled_schematic"":""4"",""participantId"":""CB623644AE264AE5A51F2587B754F67B"",""assignmentId"":""0198b9c6-58c9-79e6-9a0c-f84da384f88f"",""projectId"":""0198b979-1f5e-7105-8b5f-48f920534529""}","https://test12345.live/?num_scrambled_semantic=8&num_scrambled_causal=4&num_scrambled_schematic=4&participantId=CB623644AE264AE5A51F2587B754F67B&assignmentId=0198b9c6-58c9-79e6-9a0c-f84da384f88f&projectId=0198b979-1f5e-7105-8b5f-48f920534529","CB623644AE264AE5A51F2587B754F67B-2025-08-17-21-27-02","","null","","images/causal_sequence/museum_causal/museum_causal_2.png","null","",""
"","","","","","image-button-response","99","490539","0.0-14.0-1.0-1.3","CB623644AE264AE5A51F2587B754F67B","CB623644AE264AE5A51F2587B754F67B","0198b9c6-58c9-79e6-9a0c-f84da384f88f","0198b979-1f5e-7105-8b5f-48f920534529","{""num_scrambled_semantic"":""8"",""num_scrambled_causal"":""4"",""num_scrambled_schematic"":""4"",""participantId"":""CB623644AE264AE5A51F2587B754F67B"",""assignmentId"":""0198b9c6-58c9-79e6-9a0c-f84da384f88f"",""projectId"":""0198b979-1f5e-7105-8b5f-48f920534529""}","https://test12345.live/?num_scrambled_semantic=8&num_scrambled_causal=4&num_scrambled_schematic=4&participantId=CB623644AE264AE5A51F2587B754F67B&assignmentId=0198b9c6-58c9-79e6-9a0c-f84da384f88f&projectId=0198b979-1f5e-7105-8b5f-48f920534529","CB623644AE264AE5A51F2587B754F67B-2025-08-17-21-27-02","","1501","","images/causal_sequence/museum_causal/museum_causal_2.png","0","",""
"","","","","","image-button-response","100","495946","0.0-14.0-1.0-2.3","CB623644AE264AE5A51F2587B754F67B","CB623644AE264AE5A51F2587B754F67B","0198b9c6-58c9-79e6-9a0c-f84da384f88f","0198b979-1f5e-7105-8b5f-48f920534529","{""num_scrambled_semantic"":""8"",""num_scrambled_causal"":""4"",""num_scrambled_schematic"":""4"",""participantId"":""CB623644AE264AE5A51F2587B754F67B"",""assignmentId"":""0198b9c6-58c9-79e6-9a0c-f84da384f88f"",""projectId"":""0198b979-1f5e-7105-8b5f-48f920534529""}","https://test12345.live/?num_scrambled_semantic=8&num_scrambled_causal=4&num_scrambled_schematic=4&participantId=CB623644AE264AE5A51F2587B754F67B&assignmentId=0198b9c6-58c9-79e6-9a0c-f84da384f88f&projectId=0198b979-1f5e-7105-8b5f-48f920534529","CB623644AE264AE5A51F2587B754F67B-2025-08-17-21-27-02","","null","","[]","null","",""
"","","","","","image-button-response","101","500453","0.0-14.0-1.0-0.4","CB623644AE264AE5A51F2587B754F67B","CB623644AE264AE5A51F2587B754F67B","0198b9c6-58c9-79e6-9a0c-f84da384f88f","0198b979-1f5e-7105-8b5f-48f920534529","{""num_scrambled_semantic"":""8"",""num_scrambled_causal"":""4"",""num_scrambled_schematic"":""4"",""participantId"":""CB623644AE264AE5A51F2587B754F67B"",""assignmentId"":""0198b9c6-58c9-79e6-9a0c-f84da384f88f"",""projectId"":""0198b979-1f5e-7105-8b5f-48f920534529""}","https://test12345.live/?num_scrambled_semantic=8&num_scrambled_causal=4&num_scrambled_schematic=4&participantId=CB623644AE264AE5A51F2587B754F67B&assignmentId=0198b9c6-58c9-79e6-9a0c-f84da384f88f&projectId=0198b979-1f5e-7105-8b5f-48f920534529","CB623644AE264AE5A51F2587B754F67B-2025-08-17-21-27-02","","null","","images/causal_sequence/museum_causal/museum_causal_8.png","null","",""
"","","","","","image-button-response","102","502964","0.0-14.0-1.0-1.4","CB623644AE264AE5A51F2587B754F67B","CB623644AE264AE5A51F2587B754F67B","0198b9c6-58c9-79e6-9a0c-f84da384f88f","0198b979-1f5e-7105-8b5f-48f920534529","{""num_scrambled_semantic"":""8"",""num_scrambled_causal"":""4"",""num_scrambled_schematic"":""4"",""participantId"":""CB623644AE264AE5A51F2587B754F67B"",""assignmentId"":""0198b9c6-58c9-79e6-9a0c-f84da384f88f"",""projectId"":""0198b979-1f5e-7105-8b5f-48f920534529""}","https://test12345.live/?num_scrambled_semantic=8&num_scrambled_causal=4&num_scrambled_schematic=4&participantId=CB623644AE264AE5A51F2587B754F67B&assignmentId=0198b9c6-58c9-79e6-9a0c-f84da384f88f&projectId=0198b979-1f5e-7105-8b5f-48f920534529","CB623644AE264AE5A51F2587B754F67B-2025-08-17-21-27-02","","2510","","images/causal_sequence/museum_causal/museum_causal_8.png","0","",""
"","","","","","image-button-response","103","508370","0.0-14.0-1.0-2.4","CB623644AE264AE5A51F2587B754F67B","CB623644AE264AE5A51F2587B754F67B","0198b9c6-58c9-79e6-9a0c-f84da384f88f","0198b979-1f5e-7105-8b5f-48f920534529","{""num_scrambled_semantic"":""8"",""num_scrambled_causal"":""4"",""num_scrambled_schematic"":""4"",""participantId"":""CB623644AE264AE5A51F2587B754F67B"",""assignmentId"":""0198b9c6-58c9-79e6-9a0c-f84da384f88f"",""projectId"":""0198b979-1f5e-7105-8b5f-48f920534529""}","https://test12345.live/?num_scrambled_semantic=8&num_scrambled_causal=4&num_scrambled_schematic=4&participantId=CB623644AE264AE5A51F2587B754F67B&assignmentId=0198b9c6-58c9-79e6-9a0c-f84da384f88f&projectId=0198b979-1f5e-7105-8b5f-48f920534529","CB623644AE264AE5A51F2587B754F67B-2025-08-17-21-27-02","","null","","[]","null","",""
"","","","","","image-button-response","104","512874","0.0-14.0-1.0-0.5","CB623644AE264AE5A51F2587B754F67B","CB623644AE264AE5A51F2587B754F67B","0198b9c6-58c9-79e6-9a0c-f84da384f88f","0198b979-1f5e-7105-8b5f-48f920534529","{""num_scrambled_semantic"":""8"",""num_scrambled_causal"":""4"",""num_scrambled_schematic"":""4"",""participantId"":""CB623644AE264AE5A51F2587B754F67B"",""assignmentId"":""0198b9c6-58c9-79e6-9a0c-f84da384f88f"",""projectId"":""0198b979-1f5e-7105-8b5f-48f920534529""}","https://test12345.live/?num_scrambled_semantic=8&num_scrambled_causal=4&num_scrambled_schematic=4&participantId=CB623644AE264AE5A51F2587B754F67B&assignmentId=0198b9c6-58c9-79e6-9a0c-f84da384f88f&projectId=0198b979-1f5e-7105-8b5f-48f920534529","CB623644AE264AE5A51F2587B754F67B-2025-08-17-21-27-02","","null","","images/causal_sequence/museum_causal/museum_causal_ten.png","null","",""
"","","","","","image-button-response","105","513642","0.0-14.0-1.0-1.5","CB623644AE264AE5A51F2587B754F67B","CB623644AE264AE5A51F2587B754F67B","0198b9c6-58c9-79e6-9a0c-f84da384f88f","0198b979-1f5e-7105-8b5f-48f920534529","{""num_scrambled_semantic"":""8"",""num_scrambled_causal"":""4"",""num_scrambled_schematic"":""4"",""participantId"":""CB623644AE264AE5A51F2587B754F67B"",""assignmentId"":""0198b9c6-58c9-79e6-9a0c-f84da384f88f"",""projectId"":""0198b979-1f5e-7105-8b5f-48f920534529""}","https://test12345.live/?num_scrambled_semantic=8&num_scrambled_causal=4&num_scrambled_schematic=4&participantId=CB623644AE264AE5A51F2587B754F67B&assignmentId=0198b9c6-58c9-79e6-9a0c-f84da384f88f&projectId=0198b979-1f5e-7105-8b5f-48f920534529","CB623644AE264AE5A51F2587B754F67B-2025-08-17-21-27-02","","766","","images/causal_sequence/museum_causal/museum_causal_ten.png","0","",""
"","","","","","image-button-response","106","519044","0.0-14.0-1.0-2.5","CB623644AE264AE5A51F2587B754F67B","CB623644AE264AE5A51F2587B754F67B","0198b9c6-58c9-79e6-9a0c-f84da384f88f","0198b979-1f5e-7105-8b5f-48f920534529","{""num_scrambled_semantic"":""8"",""num_scrambled_causal"":""4"",""num_scrambled_schematic"":""4"",""participantId"":""CB623644AE264AE5A51F2587B754F67B"",""assignmentId"":""0198b9c6-58c9-79e6-9a0c-f84da384f88f"",""projectId"":""0198b979-1f5e-7105-8b5f-48f920534529""}","https://test12345.live/?num_scrambled_semantic=8&num_scrambled_causal=4&num_scrambled_schematic=4&participantId=CB623644AE264AE5A51F2587B754F67B&assignmentId=0198b9c6-58c9-79e6-9a0c-f84da384f88f&projectId=0198b979-1f5e-7105-8b5f-48f920534529","CB623644AE264AE5A51F2587B754F67B-2025-08-17-21-27-02","","null","","[]","null","",""
"","","","","","image-button-response","107","523546","0.0-14.0-1.0-0.6","CB623644AE264AE5A51F2587B754F67B","CB623644AE264AE5A51F2587B754F67B","0198b9c6-58c9-79e6-9a0c-f84da384f88f","0198b979-1f5e-7105-8b5f-48f920534529","{""num_scrambled_semantic"":""8"",""num_scrambled_causal"":""4"",""num_scrambled_schematic"":""4"",""participantId"":""CB623644AE264AE5A51F2587B754F67B"",""assignmentId"":""0198b9c6-58c9-79e6-9a0c-f84da384f88f"",""projectId"":""0198b979-1f5e-7105-8b5f-48f920534529""}","https://test12345.live/?num_scrambled_semantic=8&num_scrambled_causal=4&num_scrambled_schematic=4&participantId=CB623644AE264AE5A51F2587B754F67B&assignmentId=0198b9c6-58c9-79e6-9a0c-f84da384f88f&projectId=0198b979-1f5e-7105-8b5f-48f920534529","CB623644AE264AE5A51F2587B754F67B-2025-08-17-21-27-02","","null","","images/causal_sequence/museum_causal/museum_causal_1.png","null","",""
"","","","","","image-button-response","108","525797","0.0-14.0-1.0-1.6","CB623644AE264AE5A51F2587B754F67B","CB623644AE264AE5A51F2587B754F67B","0198b9c6-58c9-79e6-9a0c-f84da384f88f","0198b979-1f5e-7105-8b5f-48f920534529","{""num_scrambled_semantic"":""8"",""num_scrambled_causal"":""4"",""num_scrambled_schematic"":""4"",""participantId"":""CB623644AE264AE5A51F2587B754F67B"",""assignmentId"":""0198b9c6-58c9-79e6-9a0c-f84da384f88f"",""projectId"":""0198b979-1f5e-7105-8b5f-48f920534529""}","https://test12345.live/?num_scrambled_semantic=8&num_scrambled_causal=4&num_scrambled_schematic=4&participantId=CB623644AE264AE5A51F2587B754F67B&assignmentId=0198b9c6-58c9-79e6-9a0c-f84da384f88f&projectId=0198b979-1f5e-7105-8b5f-48f920534529","CB623644AE264AE5A51F2587B754F67B-2025-08-17-21-27-02","","2249","","images/causal_sequence/museum_causal/museum_causal_1.png","0","",""
"","","","","","image-button-response","109","531204","0.0-14.0-1.0-2.6","CB623644AE264AE5A51F2587B754F67B","CB623644AE264AE5A51F2587B754F67B","0198b9c6-58c9-79e6-9a0c-f84da384f88f","0198b979-1f5e-7105-8b5f-48f920534529","{""num_scrambled_semantic"":""8"",""num_scrambled_causal"":""4"",""num_scrambled_schematic"":""4"",""participantId"":""CB623644AE264AE5A51F2587B754F67B"",""assignmentId"":""0198b9c6-58c9-79e6-9a0c-f84da384f88f"",""projectId"":""0198b979-1f5e-7105-8b5f-48f920534529""}","https://test12345.live/?num_scrambled_semantic=8&num_scrambled_causal=4&num_scrambled_schematic=4&participantId=CB623644AE264AE5A51F2587B754F67B&assignmentId=0198b9c6-58c9-79e6-9a0c-f84da384f88f&projectId=0198b979-1f5e-7105-8b5f-48f920534529","CB623644AE264AE5A51F2587B754F67B-2025-08-17-21-27-02","","null","","[]","null","",""
"","","","","","image-button-response","110","535702","0.0-14.0-1.0-0.7","CB623644AE264AE5A51F2587B754F67B","CB623644AE264AE5A51F2587B754F67B","0198b9c6-58c9-79e6-9a0c-f84da384f88f","0198b979-1f5e-7105-8b5f-48f920534529","{""num_scrambled_semantic"":""8"",""num_scrambled_causal"":""4"",""num_scrambled_schematic"":""4"",""participantId"":""CB623644AE264AE5A51F2587B754F67B"",""assignmentId"":""0198b9c6-58c9-79e6-9a0c-f84da384f88f"",""projectId"":""0198b979-1f5e-7105-8b5f-48f920534529""}","https://test12345.live/?num_scrambled_semantic=8&num_scrambled_causal=4&num_scrambled_schematic=4&participantId=CB623644AE264AE5A51F2587B754F67B&assignmentId=0198b9c6-58c9-79e6-9a0c-f84da384f88f&projectId=0198b979-1f5e-7105-8b5f-48f920534529","CB623644AE264AE5A51F2587B754F67B-2025-08-17-21-27-02","","null","","images/causal_sequence/museum_causal/museum_causal_4.png","null","",""
"","","","","","image-button-response","111","537259","0.0-14.0-1.0-1.7","CB623644AE264AE5A51F2587B754F67B","CB623644AE264AE5A51F2587B754F67B","0198b9c6-58c9-79e6-9a0c-f84da384f88f","0198b979-1f5e-7105-8b5f-48f920534529","{""num_scrambled_semantic"":""8"",""num_scrambled_causal"":""4"",""num_scrambled_schematic"":""4"",""participantId"":""CB623644AE264AE5A51F2587B754F67B"",""assignmentId"":""0198b9c6-58c9-79e6-9a0c-f84da384f88f"",""projectId"":""0198b979-1f5e-7105-8b5f-48f920534529""}","https://test12345.live/?num_scrambled_semantic=8&num_scrambled_causal=4&num_scrambled_schematic=4&participantId=CB623644AE264AE5A51F2587B754F67B&assignmentId=0198b9c6-58c9-79e6-9a0c-f84da384f88f&projectId=0198b979-1f5e-7105-8b5f-48f920534529","CB623644AE264AE5A51F2587B754F67B-2025-08-17-21-27-02","","1561","","images/causal_sequence/museum_causal/museum_causal_4.png","1","",""
"","","","","","image-button-response","112","542652","0.0-14.0-1.0-2.7","CB623644AE264AE5A51F2587B754F67B","CB623644AE264AE5A51F2587B754F67B","0198b9c6-58c9-79e6-9a0c-f84da384f88f","0198b979-1f5e-7105-8b5f-48f920534529","{""num_scrambled_semantic"":""8"",""num_scrambled_causal"":""4"",""num_scrambled_schematic"":""4"",""participantId"":""CB623644AE264AE5A51F2587B754F67B"",""assignmentId"":""0198b9c6-58c9-79e6-9a0c-f84da384f88f"",""projectId"":""0198b979-1f5e-7105-8b5f-48f920534529""}","https://test12345.live/?num_scrambled_semantic=8&num_scrambled_causal=4&num_scrambled_schematic=4&participantId=CB623644AE264AE5A51F2587B754F67B&assignmentId=0198b9c6-58c9-79e6-9a0c-f84da384f88f&projectId=0198b979-1f5e-7105-8b5f-48f920534529","CB623644AE264AE5A51F2587B754F67B-2025-08-17-21-27-02","","null","","[]","null","",""
"","","","","","image-button-response","113","547148","0.0-14.0-1.0-0.8","CB623644AE264AE5A51F2587B754F67B","CB623644AE264AE5A51F2587B754F67B","0198b9c6-58c9-79e6-9a0c-f84da384f88f","0198b979-1f5e-7105-8b5f-48f920534529","{""num_scrambled_semantic"":""8"",""num_scrambled_causal"":""4"",""num_scrambled_schematic"":""4"",""participantId"":""CB623644AE264AE5A51F2587B754F67B"",""assignmentId"":""0198b9c6-58c9-79e6-9a0c-f84da384f88f"",""projectId"":""0198b979-1f5e-7105-8b5f-48f920534529""}","https://test12345.live/?num_scrambled_semantic=8&num_scrambled_causal=4&num_scrambled_schematic=4&participantId=CB623644AE264AE5A51F2587B754F67B&assignmentId=0198b9c6-58c9-79e6-9a0c-f84da384f88f&projectId=0198b979-1f5e-7105-8b5f-48f920534529","CB623644AE264AE5A51F2587B754F67B-2025-08-17-21-27-02","","null","","images/causal_sequence/museum_causal/museum_causal_7.png","null","",""
"","","","","","image-button-response","114","549628","0.0-14.0-1.0-1.8","CB623644AE264AE5A51F2587B754F67B","CB623644AE264AE5A51F2587B754F67B","0198b9c6-58c9-79e6-9a0c-f84da384f88f","0198b979-1f5e-7105-8b5f-48f920534529","{""num_scrambled_semantic"":""8"",""num_scrambled_causal"":""4"",""num_scrambled_schematic"":""4"",""participantId"":""CB623644AE264AE5A51F2587B754F67B"",""assignmentId"":""0198b9c6-58c9-79e6-9a0c-f84da384f88f"",""projectId"":""0198b979-1f5e-7105-8b5f-48f920534529""}","https://test12345.live/?num_scrambled_semantic=8&num_scrambled_causal=4&num_scrambled_schematic=4&participantId=CB623644AE264AE5A51F2587B754F67B&assignmentId=0198b9c6-58c9-79e6-9a0c-f84da384f88f&projectId=0198b979-1f5e-7105-8b5f-48f920534529","CB623644AE264AE5A51F2587B754F67B-2025-08-17-21-27-02","","2481","","images/causal_sequence/museum_causal/museum_causal_7.png","1","",""
"","","","","","image-button-response","115","555026","0.0-14.0-1.0-2.8","CB623644AE264AE5A51F2587B754F67B","CB623644AE264AE5A51F2587B754F67B","0198b9c6-58c9-79e6-9a0c-f84da384f88f","0198b979-1f5e-7105-8b5f-48f920534529","{""num_scrambled_semantic"":""8"",""num_scrambled_causal"":""4"",""num_scrambled_schematic"":""4"",""participantId"":""CB623644AE264AE5A51F2587B754F67B"",""assignmentId"":""0198b9c6-58c9-79e6-9a0c-f84da384f88f"",""projectId"":""0198b979-1f5e-7105-8b5f-48f920534529""}","https://test12345.live/?num_scrambled_semantic=8&num_scrambled_causal=4&num_scrambled_schematic=4&participantId=CB623644AE264AE5A51F2587B754F67B&assignmentId=0198b9c6-58c9-79e6-9a0c-f84da384f88f&projectId=0198b979-1f5e-7105-8b5f-48f920534529","CB623644AE264AE5A51F2587B754F67B-2025-08-17-21-27-02","","null","","[]","null","",""
