"success","timeout","failed_images","failed_audio","failed_video","trial_type","trial_index","time_elapsed","internal_node_id","subject","subject_id","study_id","session_id","urlvar","current_url","audio_id","view_history","rt","device_id","stimulus","response","estimated_stimulus_onset","seq_name"
"true","false","[]","[]","[]","preload","0","464","0.0-0.0","CD172C6EAA5B44979FAB299B0532079E","CD172C6EAA5B44979FAB299B0532079E","ee03306b-7110-4ba0-8fb5-3e0ed73b7ae2","051c06f1-75cc-4548-856d-4923ddaba0dc","{""num_scrambled_semantic"":""8"",""num_scrambled_causal"":""4"",""num_scrambled_schematic"":""4"",""participantId"":""CD172C6EAA5B44979FAB299B0532079E"",""assignmentId"":""ee03306b-7110-4ba0-8fb5-3e0ed73b7ae2"",""projectId"":""051c06f1-75cc-4548-856d-4923ddaba0dc""}","https://test12345.live/?num_scrambled_semantic=8&num_scrambled_causal=4&num_scrambled_schematic=4&participantId=CD172C6EAA5B44979FAB299B0532079E&assignmentId=ee03306b-7110-4ba0-8fb5-3e0ed73b7ae2&projectId=051c06f1-75cc-4548-856d-4923ddaba0dc","CD172C6EAA5B44979FAB299B0532079E-2025-05-15-19-19-30","","","","","","",""
"","","","","","instructions","1","19344","0.0-1.0","CD172C6EAA5B44979FAB299B0532079E","CD172C6EAA5B44979FAB299B0532079E","ee03306b-7110-4ba0-8fb5-3e0ed73b7ae2","051c06f1-75cc-4548-856d-4923ddaba0dc","{""num_scrambled_semantic"":""8"",""num_scrambled_causal"":""4"",""num_scrambled_schematic"":""4"",""participantId"":""CD172C6EAA5B44979FAB299B0532079E"",""assignmentId"":""ee03306b-7110-4ba0-8fb5-3e0ed73b7ae2"",""projectId"":""051c06f1-75cc-4548-856d-4923ddaba0dc""}","https://test12345.live/?num_scrambled_semantic=8&num_scrambled_causal=4&num_scrambled_schematic=4&participantId=CD172C6EAA5B44979FAB299B0532079E&assignmentId=ee03306b-7110-4ba0-8fb5-3e0ed73b7ae2&projectId=051c06f1-75cc-4548-856d-4923ddaba0dc","CD172C6EAA5B44979FAB299B0532079E-2025-05-15-19-19-30","[{""page_index"":0,""viewing_time"":18879}]","18879","","","","",""
"","","","","","instructions","2","22060","0.0-2.0","CD172C6EAA5B44979FAB299B0532079E","CD172C6EAA5B44979FAB299B0532079E","ee03306b-7110-4ba0-8fb5-3e0ed73b7ae2","051c06f1-75cc-4548-856d-4923ddaba0dc","{""num_scrambled_semantic"":""8"",""num_scrambled_causal"":""4"",""num_scrambled_schematic"":""4"",""participantId"":""CD172C6EAA5B44979FAB299B0532079E"",""assignmentId"":""ee03306b-7110-4ba0-8fb5-3e0ed73b7ae2"",""projectId"":""051c06f1-75cc-4548-856d-4923ddaba0dc""}","https://test12345.live/?num_scrambled_semantic=8&num_scrambled_causal=4&num_scrambled_schematic=4&participantId=CD172C6EAA5B44979FAB299B0532079E&assignmentId=ee03306b-7110-4ba0-8fb5-3e0ed73b7ae2&projectId=051c06f1-75cc-4548-856d-4923ddaba0dc","CD172C6EAA5B44979FAB299B0532079E-2025-05-15-19-19-30","[{""page_index"":0,""viewing_time"":2715}]","2715","","","","",""
"true","","","","","fullscreen","3","23920","0.0-3.0","CD172C6EAA5B44979FAB299B0532079E","CD172C6EAA5B44979FAB299B0532079E","ee03306b-7110-4ba0-8fb5-3e0ed73b7ae2","051c06f1-75cc-4548-856d-4923ddaba0dc","{""num_scrambled_semantic"":""8"",""num_scrambled_causal"":""4"",""num_scrambled_schematic"":""4"",""participantId"":""CD172C6EAA5B44979FAB299B0532079E"",""assignmentId"":""ee03306b-7110-4ba0-8fb5-3e0ed73b7ae2"",""projectId"":""051c06f1-75cc-4548-856d-4923ddaba0dc""}","https://test12345.live/?num_scrambled_semantic=8&num_scrambled_causal=4&num_scrambled_schematic=4&participantId=CD172C6EAA5B44979FAB299B0532079E&assignmentId=ee03306b-7110-4ba0-8fb5-3e0ed73b7ae2&projectId=051c06f1-75cc-4548-856d-4923ddaba0dc","CD172C6EAA5B44979FAB299B0532079E-2025-05-15-19-19-30","","854","","","","",""
"","","","","","initialize-microphone","4","36713","0.0-4.0-0.0","CD172C6EAA5B44979FAB299B0532079E","CD172C6EAA5B44979FAB299B0532079E","ee03306b-7110-4ba0-8fb5-3e0ed73b7ae2","051c06f1-75cc-4548-856d-4923ddaba0dc","{""num_scrambled_semantic"":""8"",""num_scrambled_causal"":""4"",""num_scrambled_schematic"":""4"",""participantId"":""CD172C6EAA5B44979FAB299B0532079E"",""assignmentId"":""ee03306b-7110-4ba0-8fb5-3e0ed73b7ae2"",""projectId"":""051c06f1-75cc-4548-856d-4923ddaba0dc""}","https://test12345.live/?num_scrambled_semantic=8&num_scrambled_causal=4&num_scrambled_schematic=4&participantId=CD172C6EAA5B44979FAB299B0532079E&assignmentId=ee03306b-7110-4ba0-8fb5-3e0ed73b7ae2&projectId=051c06f1-75cc-4548-856d-4923ddaba0dc","CD172C6EAA5B44979FAB299B0532079E-2025-05-15-19-19-30","","","34a248cb4a588ae23d00b8b56d1e09b3f70de97bbc7b300989a6bd952562a4f4","","","",""
"","","","","","html-audio-response","5","79540","0.0-4.0-1.0","CD172C6EAA5B44979FAB299B0532079E","CD172C6EAA5B44979FAB299B0532079E","ee03306b-7110-4ba0-8fb5-3e0ed73b7ae2","051c06f1-75cc-4548-856d-4923ddaba0dc","{""num_scrambled_semantic"":""8"",""num_scrambled_causal"":""4"",""num_scrambled_schematic"":""4"",""participantId"":""CD172C6EAA5B44979FAB299B0532079E"",""assignmentId"":""ee03306b-7110-4ba0-8fb5-3e0ed73b7ae2"",""projectId"":""051c06f1-75cc-4548-856d-4923ddaba0dc""}","https://test12345.live/?num_scrambled_semantic=8&num_scrambled_causal=4&num_scrambled_schematic=4&participantId=CD172C6EAA5B44979FAB299B0532079E&assignmentId=ee03306b-7110-4ba0-8fb5-3e0ed73b7ae2&projectId=051c06f1-75cc-4548-856d-4923ddaba0dc","CD172C6EAA5B44979FAB299B0532079E-2025-05-15-19-19-30","","6169","","<span style=""color: red; font-size: 24px""> NOW RECORDING</span>
        <p>Please test Microphone</p>","","1",""
"","","","","","html-button-response","6","82068","0.0-4.0-2.0","CD172C6EAA5B44979FAB299B0532079E","CD172C6EAA5B44979FAB299B0532079E","ee03306b-7110-4ba0-8fb5-3e0ed73b7ae2","051c06f1-75cc-4548-856d-4923ddaba0dc","{""num_scrambled_semantic"":""8"",""num_scrambled_causal"":""4"",""num_scrambled_schematic"":""4"",""participantId"":""CD172C6EAA5B44979FAB299B0532079E"",""assignmentId"":""ee03306b-7110-4ba0-8fb5-3e0ed73b7ae2"",""projectId"":""051c06f1-75cc-4548-856d-4923ddaba0dc""}","https://test12345.live/?num_scrambled_semantic=8&num_scrambled_causal=4&num_scrambled_schematic=4&participantId=CD172C6EAA5B44979FAB299B0532079E&assignmentId=ee03306b-7110-4ba0-8fb5-3e0ed73b7ae2&projectId=051c06f1-75cc-4548-856d-4923ddaba0dc","CD172C6EAA5B44979FAB299B0532079E-2025-05-15-19-19-30","","2527","","<p style=""font-size:48px; color:red;"">Is Microphone OK?</p>","1","",""
"","","","","","instructions","7","104208","0.0-5.0","CD172C6EAA5B44979FAB299B0532079E","CD172C6EAA5B44979FAB299B0532079E","ee03306b-7110-4ba0-8fb5-3e0ed73b7ae2","051c06f1-75cc-4548-856d-4923ddaba0dc","{""num_scrambled_semantic"":""8"",""num_scrambled_causal"":""4"",""num_scrambled_schematic"":""4"",""participantId"":""CD172C6EAA5B44979FAB299B0532079E"",""assignmentId"":""ee03306b-7110-4ba0-8fb5-3e0ed73b7ae2"",""projectId"":""051c06f1-75cc-4548-856d-4923ddaba0dc""}","https://test12345.live/?num_scrambled_semantic=8&num_scrambled_causal=4&num_scrambled_schematic=4&participantId=CD172C6EAA5B44979FAB299B0532079E&assignmentId=ee03306b-7110-4ba0-8fb5-3e0ed73b7ae2&projectId=051c06f1-75cc-4548-856d-4923ddaba0dc","CD172C6EAA5B44979FAB299B0532079E-2025-05-15-19-19-30","[{""page_index"":0,""viewing_time"":8331},{""page_index"":1,""viewing_time"":13808}]","22139","","","","",""
"","","","","","image-button-response","8","110210","0.0-6.0-0.0","CD172C6EAA5B44979FAB299B0532079E","CD172C6EAA5B44979FAB299B0532079E","ee03306b-7110-4ba0-8fb5-3e0ed73b7ae2","051c06f1-75cc-4548-856d-4923ddaba0dc","{""num_scrambled_semantic"":""8"",""num_scrambled_causal"":""4"",""num_scrambled_schematic"":""4"",""participantId"":""CD172C6EAA5B44979FAB299B0532079E"",""assignmentId"":""ee03306b-7110-4ba0-8fb5-3e0ed73b7ae2"",""projectId"":""051c06f1-75cc-4548-856d-4923ddaba0dc""}","https://test12345.live/?num_scrambled_semantic=8&num_scrambled_causal=4&num_scrambled_schematic=4&participantId=CD172C6EAA5B44979FAB299B0532079E&assignmentId=ee03306b-7110-4ba0-8fb5-3e0ed73b7ae2&projectId=051c06f1-75cc-4548-856d-4923ddaba0dc","CD172C6EAA5B44979FAB299B0532079E-2025-05-15-19-19-30","","null","","images/instructions/movie_0.png","null","",""
"","","","","","image-button-response","9","114716","0.0-6.0-1.0-0.0","CD172C6EAA5B44979FAB299B0532079E","CD172C6EAA5B44979FAB299B0532079E","ee03306b-7110-4ba0-8fb5-3e0ed73b7ae2","051c06f1-75cc-4548-856d-4923ddaba0dc","{""num_scrambled_semantic"":""8"",""num_scrambled_causal"":""4"",""num_scrambled_schematic"":""4"",""participantId"":""CD172C6EAA5B44979FAB299B0532079E"",""assignmentId"":""ee03306b-7110-4ba0-8fb5-3e0ed73b7ae2"",""projectId"":""051c06f1-75cc-4548-856d-4923ddaba0dc""}","https://test12345.live/?num_scrambled_semantic=8&num_scrambled_causal=4&num_scrambled_schematic=4&participantId=CD172C6EAA5B44979FAB299B0532079E&assignmentId=ee03306b-7110-4ba0-8fb5-3e0ed73b7ae2&projectId=051c06f1-75cc-4548-856d-4923ddaba0dc","CD172C6EAA5B44979FAB299B0532079E-2025-05-15-19-19-30","","null","","images/instructions/movie_1.png","null","",""
"","","","","","image-button-response","10","117964","0.0-6.0-1.0-1.0","CD172C6EAA5B44979FAB299B0532079E","CD172C6EAA5B44979FAB299B0532079E","ee03306b-7110-4ba0-8fb5-3e0ed73b7ae2","051c06f1-75cc-4548-856d-4923ddaba0dc","{""num_scrambled_semantic"":""8"",""num_scrambled_causal"":""4"",""num_scrambled_schematic"":""4"",""participantId"":""CD172C6EAA5B44979FAB299B0532079E"",""assignmentId"":""ee03306b-7110-4ba0-8fb5-3e0ed73b7ae2"",""projectId"":""051c06f1-75cc-4548-856d-4923ddaba0dc""}","https://test12345.live/?num_scrambled_semantic=8&num_scrambled_causal=4&num_scrambled_schematic=4&participantId=CD172C6EAA5B44979FAB299B0532079E&assignmentId=ee03306b-7110-4ba0-8fb5-3e0ed73b7ae2&projectId=051c06f1-75cc-4548-856d-4923ddaba0dc","CD172C6EAA5B44979FAB299B0532079E-2025-05-15-19-19-30","","3246","","images/instructions/movie_1.png","0","",""
"","","","","","image-button-response","11","119777","0.0-6.0-1.0-2.0","CD172C6EAA5B44979FAB299B0532079E","CD172C6EAA5B44979FAB299B0532079E","ee03306b-7110-4ba0-8fb5-3e0ed73b7ae2","051c06f1-75cc-4548-856d-4923ddaba0dc","{""num_scrambled_semantic"":""8"",""num_scrambled_causal"":""4"",""num_scrambled_schematic"":""4"",""participantId"":""CD172C6EAA5B44979FAB299B0532079E"",""assignmentId"":""ee03306b-7110-4ba0-8fb5-3e0ed73b7ae2"",""projectId"":""051c06f1-75cc-4548-856d-4923ddaba0dc""}","https://test12345.live/?num_scrambled_semantic=8&num_scrambled_causal=4&num_scrambled_schematic=4&participantId=CD172C6EAA5B44979FAB299B0532079E&assignmentId=ee03306b-7110-4ba0-8fb5-3e0ed73b7ae2&projectId=051c06f1-75cc-4548-856d-4923ddaba0dc","CD172C6EAA5B44979FAB299B0532079E-2025-05-15-19-19-30","","null","","[]","null","",""
"","","","","","image-button-response","12","124281","0.0-6.0-1.0-0.1","CD172C6EAA5B44979FAB299B0532079E","CD172C6EAA5B44979FAB299B0532079E","ee03306b-7110-4ba0-8fb5-3e0ed73b7ae2","051c06f1-75cc-4548-856d-4923ddaba0dc","{""num_scrambled_semantic"":""8"",""num_scrambled_causal"":""4"",""num_scrambled_schematic"":""4"",""participantId"":""CD172C6EAA5B44979FAB299B0532079E"",""assignmentId"":""ee03306b-7110-4ba0-8fb5-3e0ed73b7ae2"",""projectId"":""051c06f1-75cc-4548-856d-4923ddaba0dc""}","https://test12345.live/?num_scrambled_semantic=8&num_scrambled_causal=4&num_scrambled_schematic=4&participantId=CD172C6EAA5B44979FAB299B0532079E&assignmentId=ee03306b-7110-4ba0-8fb5-3e0ed73b7ae2&projectId=051c06f1-75cc-4548-856d-4923ddaba0dc","CD172C6EAA5B44979FAB299B0532079E-2025-05-15-19-19-30","","null","","images/instructions/movie_2.png","null","",""
"","","","","","image-button-response","13","126634","0.0-6.0-1.0-1.1","CD172C6EAA5B44979FAB299B0532079E","CD172C6EAA5B44979FAB299B0532079E","ee03306b-7110-4ba0-8fb5-3e0ed73b7ae2","051c06f1-75cc-4548-856d-4923ddaba0dc","{""num_scrambled_semantic"":""8"",""num_scrambled_causal"":""4"",""num_scrambled_schematic"":""4"",""participantId"":""CD172C6EAA5B44979FAB299B0532079E"",""assignmentId"":""ee03306b-7110-4ba0-8fb5-3e0ed73b7ae2"",""projectId"":""051c06f1-75cc-4548-856d-4923ddaba0dc""}","https://test12345.live/?num_scrambled_semantic=8&num_scrambled_causal=4&num_scrambled_schematic=4&participantId=CD172C6EAA5B44979FAB299B0532079E&assignmentId=ee03306b-7110-4ba0-8fb5-3e0ed73b7ae2&projectId=051c06f1-75cc-4548-856d-4923ddaba0dc","CD172C6EAA5B44979FAB299B0532079E-2025-05-15-19-19-30","","2351","","images/instructions/movie_2.png","1","",""
"","","","","","image-button-response","14","128447","0.0-6.0-1.0-2.1","CD172C6EAA5B44979FAB299B0532079E","CD172C6EAA5B44979FAB299B0532079E","ee03306b-7110-4ba0-8fb5-3e0ed73b7ae2","051c06f1-75cc-4548-856d-4923ddaba0dc","{""num_scrambled_semantic"":""8"",""num_scrambled_causal"":""4"",""num_scrambled_schematic"":""4"",""participantId"":""CD172C6EAA5B44979FAB299B0532079E"",""assignmentId"":""ee03306b-7110-4ba0-8fb5-3e0ed73b7ae2"",""projectId"":""051c06f1-75cc-4548-856d-4923ddaba0dc""}","https://test12345.live/?num_scrambled_semantic=8&num_scrambled_causal=4&num_scrambled_schematic=4&participantId=CD172C6EAA5B44979FAB299B0532079E&assignmentId=ee03306b-7110-4ba0-8fb5-3e0ed73b7ae2&projectId=051c06f1-75cc-4548-856d-4923ddaba0dc","CD172C6EAA5B44979FAB299B0532079E-2025-05-15-19-19-30","","null","","[]","null","",""
"","","","","","image-button-response","15","132967","0.0-6.0-1.0-0.2","CD172C6EAA5B44979FAB299B0532079E","CD172C6EAA5B44979FAB299B0532079E","ee03306b-7110-4ba0-8fb5-3e0ed73b7ae2","051c06f1-75cc-4548-856d-4923ddaba0dc","{""num_scrambled_semantic"":""8"",""num_scrambled_causal"":""4"",""num_scrambled_schematic"":""4"",""participantId"":""CD172C6EAA5B44979FAB299B0532079E"",""assignmentId"":""ee03306b-7110-4ba0-8fb5-3e0ed73b7ae2"",""projectId"":""051c06f1-75cc-4548-856d-4923ddaba0dc""}","https://test12345.live/?num_scrambled_semantic=8&num_scrambled_causal=4&num_scrambled_schematic=4&participantId=CD172C6EAA5B44979FAB299B0532079E&assignmentId=ee03306b-7110-4ba0-8fb5-3e0ed73b7ae2&projectId=051c06f1-75cc-4548-856d-4923ddaba0dc","CD172C6EAA5B44979FAB299B0532079E-2025-05-15-19-19-30","","null","","images/instructions/movie_3.png","null","",""
"","","","","","image-button-response","16","134141","0.0-6.0-1.0-1.2","CD172C6EAA5B44979FAB299B0532079E","CD172C6EAA5B44979FAB299B0532079E","ee03306b-7110-4ba0-8fb5-3e0ed73b7ae2","051c06f1-75cc-4548-856d-4923ddaba0dc","{""num_scrambled_semantic"":""8"",""num_scrambled_causal"":""4"",""num_scrambled_schematic"":""4"",""participantId"":""CD172C6EAA5B44979FAB299B0532079E"",""assignmentId"":""ee03306b-7110-4ba0-8fb5-3e0ed73b7ae2"",""projectId"":""051c06f1-75cc-4548-856d-4923ddaba0dc""}","https://test12345.live/?num_scrambled_semantic=8&num_scrambled_causal=4&num_scrambled_schematic=4&participantId=CD172C6EAA5B44979FAB299B0532079E&assignmentId=ee03306b-7110-4ba0-8fb5-3e0ed73b7ae2&projectId=051c06f1-75cc-4548-856d-4923ddaba0dc","CD172C6EAA5B44979FAB299B0532079E-2025-05-15-19-19-30","","1173","","images/instructions/movie_3.png","0","",""
"","","","","","image-button-response","17","135947","0.0-6.0-1.0-2.2","CD172C6EAA5B44979FAB299B0532079E","CD172C6EAA5B44979FAB299B0532079E","ee03306b-7110-4ba0-8fb5-3e0ed73b7ae2","051c06f1-75cc-4548-856d-4923ddaba0dc","{""num_scrambled_semantic"":""8"",""num_scrambled_causal"":""4"",""num_scrambled_schematic"":""4"",""participantId"":""CD172C6EAA5B44979FAB299B0532079E"",""assignmentId"":""ee03306b-7110-4ba0-8fb5-3e0ed73b7ae2"",""projectId"":""051c06f1-75cc-4548-856d-4923ddaba0dc""}","https://test12345.live/?num_scrambled_semantic=8&num_scrambled_causal=4&num_scrambled_schematic=4&participantId=CD172C6EAA5B44979FAB299B0532079E&assignmentId=ee03306b-7110-4ba0-8fb5-3e0ed73b7ae2&projectId=051c06f1-75cc-4548-856d-4923ddaba0dc","CD172C6EAA5B44979FAB299B0532079E-2025-05-15-19-19-30","","null","","[]","null","",""
"","","","","","image-button-response","18","140467","0.0-6.0-1.0-0.3","CD172C6EAA5B44979FAB299B0532079E","CD172C6EAA5B44979FAB299B0532079E","ee03306b-7110-4ba0-8fb5-3e0ed73b7ae2","051c06f1-75cc-4548-856d-4923ddaba0dc","{""num_scrambled_semantic"":""8"",""num_scrambled_causal"":""4"",""num_scrambled_schematic"":""4"",""participantId"":""CD172C6EAA5B44979FAB299B0532079E"",""assignmentId"":""ee03306b-7110-4ba0-8fb5-3e0ed73b7ae2"",""projectId"":""051c06f1-75cc-4548-856d-4923ddaba0dc""}","https://test12345.live/?num_scrambled_semantic=8&num_scrambled_causal=4&num_scrambled_schematic=4&participantId=CD172C6EAA5B44979FAB299B0532079E&assignmentId=ee03306b-7110-4ba0-8fb5-3e0ed73b7ae2&projectId=051c06f1-75cc-4548-856d-4923ddaba0dc","CD172C6EAA5B44979FAB299B0532079E-2025-05-15-19-19-30","","null","","images/instructions/movie_4.png","null","",""
"","","","","","image-button-response","19","142091","0.0-6.0-1.0-1.3","CD172C6EAA5B44979FAB299B0532079E","CD172C6EAA5B44979FAB299B0532079E","ee03306b-7110-4ba0-8fb5-3e0ed73b7ae2","051c06f1-75cc-4548-856d-4923ddaba0dc","{""num_scrambled_semantic"":""8"",""num_scrambled_causal"":""4"",""num_scrambled_schematic"":""4"",""participantId"":""CD172C6EAA5B44979FAB299B0532079E"",""assignmentId"":""ee03306b-7110-4ba0-8fb5-3e0ed73b7ae2"",""projectId"":""051c06f1-75cc-4548-856d-4923ddaba0dc""}","https://test12345.live/?num_scrambled_semantic=8&num_scrambled_causal=4&num_scrambled_schematic=4&participantId=CD172C6EAA5B44979FAB299B0532079E&assignmentId=ee03306b-7110-4ba0-8fb5-3e0ed73b7ae2&projectId=051c06f1-75cc-4548-856d-4923ddaba0dc","CD172C6EAA5B44979FAB299B0532079E-2025-05-15-19-19-30","","1623","","images/instructions/movie_4.png","0","",""
"","","","","","image-button-response","20","143896","0.0-6.0-1.0-2.3","CD172C6EAA5B44979FAB299B0532079E","CD172C6EAA5B44979FAB299B0532079E","ee03306b-7110-4ba0-8fb5-3e0ed73b7ae2","051c06f1-75cc-4548-856d-4923ddaba0dc","{""num_scrambled_semantic"":""8"",""num_scrambled_causal"":""4"",""num_scrambled_schematic"":""4"",""participantId"":""CD172C6EAA5B44979FAB299B0532079E"",""assignmentId"":""ee03306b-7110-4ba0-8fb5-3e0ed73b7ae2"",""projectId"":""051c06f1-75cc-4548-856d-4923ddaba0dc""}","https://test12345.live/?num_scrambled_semantic=8&num_scrambled_causal=4&num_scrambled_schematic=4&participantId=CD172C6EAA5B44979FAB299B0532079E&assignmentId=ee03306b-7110-4ba0-8fb5-3e0ed73b7ae2&projectId=051c06f1-75cc-4548-856d-4923ddaba0dc","CD172C6EAA5B44979FAB299B0532079E-2025-05-15-19-19-30","","null","","[]","null","",""
"","","","","","instructions","21","151151","0.0-7.0","CD172C6EAA5B44979FAB299B0532079E","CD172C6EAA5B44979FAB299B0532079E","ee03306b-7110-4ba0-8fb5-3e0ed73b7ae2","051c06f1-75cc-4548-856d-4923ddaba0dc","{""num_scrambled_semantic"":""8"",""num_scrambled_causal"":""4"",""num_scrambled_schematic"":""4"",""participantId"":""CD172C6EAA5B44979FAB299B0532079E"",""assignmentId"":""ee03306b-7110-4ba0-8fb5-3e0ed73b7ae2"",""projectId"":""051c06f1-75cc-4548-856d-4923ddaba0dc""}","https://test12345.live/?num_scrambled_semantic=8&num_scrambled_causal=4&num_scrambled_schematic=4&participantId=CD172C6EAA5B44979FAB299B0532079E&assignmentId=ee03306b-7110-4ba0-8fb5-3e0ed73b7ae2&projectId=051c06f1-75cc-4548-856d-4923ddaba0dc","CD172C6EAA5B44979FAB299B0532079E-2025-05-15-19-19-30","[{""page_index"":0,""viewing_time"":6203},{""page_index"":1,""viewing_time"":1051}]","7254","","","","",""
"","","","","","html-audio-response","22","192507","0.0-8.0","CD172C6EAA5B44979FAB299B0532079E","CD172C6EAA5B44979FAB299B0532079E","ee03306b-7110-4ba0-8fb5-3e0ed73b7ae2","051c06f1-75cc-4548-856d-4923ddaba0dc","{""num_scrambled_semantic"":""8"",""num_scrambled_causal"":""4"",""num_scrambled_schematic"":""4"",""participantId"":""CD172C6EAA5B44979FAB299B0532079E"",""assignmentId"":""ee03306b-7110-4ba0-8fb5-3e0ed73b7ae2"",""projectId"":""051c06f1-75cc-4548-856d-4923ddaba0dc""}","https://test12345.live/?num_scrambled_semantic=8&num_scrambled_causal=4&num_scrambled_schematic=4&participantId=CD172C6EAA5B44979FAB299B0532079E&assignmentId=ee03306b-7110-4ba0-8fb5-3e0ed73b7ae2&projectId=051c06f1-75cc-4548-856d-4923ddaba0dc","CD172C6EAA5B44979FAB299B0532079E-2025-05-15-19-19-30","","11662","","[""<span style=\""color: red; font-size: 24px\""> NOW RECORDING</span><p>Please say out loud all the images you saw, as many as you can remember. The images can be said in any order.</p>""]","","9",""
"","","","","","instructions","23","193489","0.0-9.0","CD172C6EAA5B44979FAB299B0532079E","CD172C6EAA5B44979FAB299B0532079E","ee03306b-7110-4ba0-8fb5-3e0ed73b7ae2","051c06f1-75cc-4548-856d-4923ddaba0dc","{""num_scrambled_semantic"":""8"",""num_scrambled_causal"":""4"",""num_scrambled_schematic"":""4"",""participantId"":""CD172C6EAA5B44979FAB299B0532079E"",""assignmentId"":""ee03306b-7110-4ba0-8fb5-3e0ed73b7ae2"",""projectId"":""051c06f1-75cc-4548-856d-4923ddaba0dc""}","https://test12345.live/?num_scrambled_semantic=8&num_scrambled_causal=4&num_scrambled_schematic=4&participantId=CD172C6EAA5B44979FAB299B0532079E&assignmentId=ee03306b-7110-4ba0-8fb5-3e0ed73b7ae2&projectId=051c06f1-75cc-4548-856d-4923ddaba0dc","CD172C6EAA5B44979FAB299B0532079E-2025-05-15-19-19-30","[{""page_index"":0,""viewing_time"":979}]","979","","","","",""
"","","","","","image-button-response","24","199506","0.0-10.0-0.0","CD172C6EAA5B44979FAB299B0532079E","CD172C6EAA5B44979FAB299B0532079E","ee03306b-7110-4ba0-8fb5-3e0ed73b7ae2","051c06f1-75cc-4548-856d-4923ddaba0dc","{""num_scrambled_semantic"":""8"",""num_scrambled_causal"":""4"",""num_scrambled_schematic"":""4"",""participantId"":""CD172C6EAA5B44979FAB299B0532079E"",""assignmentId"":""ee03306b-7110-4ba0-8fb5-3e0ed73b7ae2"",""projectId"":""051c06f1-75cc-4548-856d-4923ddaba0dc""}","https://test12345.live/?num_scrambled_semantic=8&num_scrambled_causal=4&num_scrambled_schematic=4&participantId=CD172C6EAA5B44979FAB299B0532079E&assignmentId=ee03306b-7110-4ba0-8fb5-3e0ed73b7ae2&projectId=051c06f1-75cc-4548-856d-4923ddaba0dc","CD172C6EAA5B44979FAB299B0532079E-2025-05-15-19-19-30","","null","","images/semantic_sequence/market_semantic/market_semantic_0.png","null","",""
"","","","","","image-button-response","25","204016","0.0-10.0-1.0-0.0","CD172C6EAA5B44979FAB299B0532079E","CD172C6EAA5B44979FAB299B0532079E","ee03306b-7110-4ba0-8fb5-3e0ed73b7ae2","051c06f1-75cc-4548-856d-4923ddaba0dc","{""num_scrambled_semantic"":""8"",""num_scrambled_causal"":""4"",""num_scrambled_schematic"":""4"",""participantId"":""CD172C6EAA5B44979FAB299B0532079E"",""assignmentId"":""ee03306b-7110-4ba0-8fb5-3e0ed73b7ae2"",""projectId"":""051c06f1-75cc-4548-856d-4923ddaba0dc""}","https://test12345.live/?num_scrambled_semantic=8&num_scrambled_causal=4&num_scrambled_schematic=4&participantId=CD172C6EAA5B44979FAB299B0532079E&assignmentId=ee03306b-7110-4ba0-8fb5-3e0ed73b7ae2&projectId=051c06f1-75cc-4548-856d-4923ddaba0dc","CD172C6EAA5B44979FAB299B0532079E-2025-05-15-19-19-30","","null","","images/semantic_sequence/market_semantic/market_semantic_9.png","null","",""
"","","","","","image-button-response","26","208026","0.0-10.0-1.0-1.0","CD172C6EAA5B44979FAB299B0532079E","CD172C6EAA5B44979FAB299B0532079E","ee03306b-7110-4ba0-8fb5-3e0ed73b7ae2","051c06f1-75cc-4548-856d-4923ddaba0dc","{""num_scrambled_semantic"":""8"",""num_scrambled_causal"":""4"",""num_scrambled_schematic"":""4"",""participantId"":""CD172C6EAA5B44979FAB299B0532079E"",""assignmentId"":""ee03306b-7110-4ba0-8fb5-3e0ed73b7ae2"",""projectId"":""051c06f1-75cc-4548-856d-4923ddaba0dc""}","https://test12345.live/?num_scrambled_semantic=8&num_scrambled_causal=4&num_scrambled_schematic=4&participantId=CD172C6EAA5B44979FAB299B0532079E&assignmentId=ee03306b-7110-4ba0-8fb5-3e0ed73b7ae2&projectId=051c06f1-75cc-4548-856d-4923ddaba0dc","CD172C6EAA5B44979FAB299B0532079E-2025-05-15-19-19-30","","null","","images/semantic_sequence/market_semantic/market_semantic_9.png","null","",""
"","","","","","image-button-response","27","209837","0.0-10.0-1.0-2.0","CD172C6EAA5B44979FAB299B0532079E","CD172C6EAA5B44979FAB299B0532079E","ee03306b-7110-4ba0-8fb5-3e0ed73b7ae2","051c06f1-75cc-4548-856d-4923ddaba0dc","{""num_scrambled_semantic"":""8"",""num_scrambled_causal"":""4"",""num_scrambled_schematic"":""4"",""participantId"":""CD172C6EAA5B44979FAB299B0532079E"",""assignmentId"":""ee03306b-7110-4ba0-8fb5-3e0ed73b7ae2"",""projectId"":""051c06f1-75cc-4548-856d-4923ddaba0dc""}","https://test12345.live/?num_scrambled_semantic=8&num_scrambled_causal=4&num_scrambled_schematic=4&participantId=CD172C6EAA5B44979FAB299B0532079E&assignmentId=ee03306b-7110-4ba0-8fb5-3e0ed73b7ae2&projectId=051c06f1-75cc-4548-856d-4923ddaba0dc","CD172C6EAA5B44979FAB299B0532079E-2025-05-15-19-19-30","","null","","[]","null","",""
"","","","","","image-button-response","28","214356","0.0-10.0-1.0-0.1","CD172C6EAA5B44979FAB299B0532079E","CD172C6EAA5B44979FAB299B0532079E","ee03306b-7110-4ba0-8fb5-3e0ed73b7ae2","051c06f1-75cc-4548-856d-4923ddaba0dc","{""num_scrambled_semantic"":""8"",""num_scrambled_causal"":""4"",""num_scrambled_schematic"":""4"",""participantId"":""CD172C6EAA5B44979FAB299B0532079E"",""assignmentId"":""ee03306b-7110-4ba0-8fb5-3e0ed73b7ae2"",""projectId"":""051c06f1-75cc-4548-856d-4923ddaba0dc""}","https://test12345.live/?num_scrambled_semantic=8&num_scrambled_causal=4&num_scrambled_schematic=4&participantId=CD172C6EAA5B44979FAB299B0532079E&assignmentId=ee03306b-7110-4ba0-8fb5-3e0ed73b7ae2&projectId=051c06f1-75cc-4548-856d-4923ddaba0dc","CD172C6EAA5B44979FAB299B0532079E-2025-05-15-19-19-30","","null","","images/semantic_sequence/market_semantic/market_semantic_4.png","null","",""
"","","","","","image-button-response","29","215473","0.0-10.0-1.0-1.1","CD172C6EAA5B44979FAB299B0532079E","CD172C6EAA5B44979FAB299B0532079E","ee03306b-7110-4ba0-8fb5-3e0ed73b7ae2","051c06f1-75cc-4548-856d-4923ddaba0dc","{""num_scrambled_semantic"":""8"",""num_scrambled_causal"":""4"",""num_scrambled_schematic"":""4"",""participantId"":""CD172C6EAA5B44979FAB299B0532079E"",""assignmentId"":""ee03306b-7110-4ba0-8fb5-3e0ed73b7ae2"",""projectId"":""051c06f1-75cc-4548-856d-4923ddaba0dc""}","https://test12345.live/?num_scrambled_semantic=8&num_scrambled_causal=4&num_scrambled_schematic=4&participantId=CD172C6EAA5B44979FAB299B0532079E&assignmentId=ee03306b-7110-4ba0-8fb5-3e0ed73b7ae2&projectId=051c06f1-75cc-4548-856d-4923ddaba0dc","CD172C6EAA5B44979FAB299B0532079E-2025-05-15-19-19-30","","1115","","images/semantic_sequence/market_semantic/market_semantic_4.png","0","",""
"","","","","","image-button-response","30","217285","0.0-10.0-1.0-2.1","CD172C6EAA5B44979FAB299B0532079E","CD172C6EAA5B44979FAB299B0532079E","ee03306b-7110-4ba0-8fb5-3e0ed73b7ae2","051c06f1-75cc-4548-856d-4923ddaba0dc","{""num_scrambled_semantic"":""8"",""num_scrambled_causal"":""4"",""num_scrambled_schematic"":""4"",""participantId"":""CD172C6EAA5B44979FAB299B0532079E"",""assignmentId"":""ee03306b-7110-4ba0-8fb5-3e0ed73b7ae2"",""projectId"":""051c06f1-75cc-4548-856d-4923ddaba0dc""}","https://test12345.live/?num_scrambled_semantic=8&num_scrambled_causal=4&num_scrambled_schematic=4&participantId=CD172C6EAA5B44979FAB299B0532079E&assignmentId=ee03306b-7110-4ba0-8fb5-3e0ed73b7ae2&projectId=051c06f1-75cc-4548-856d-4923ddaba0dc","CD172C6EAA5B44979FAB299B0532079E-2025-05-15-19-19-30","","null","","[]","null","",""
"","","","","","image-button-response","31","221792","0.0-10.0-1.0-0.2","CD172C6EAA5B44979FAB299B0532079E","CD172C6EAA5B44979FAB299B0532079E","ee03306b-7110-4ba0-8fb5-3e0ed73b7ae2","051c06f1-75cc-4548-856d-4923ddaba0dc","{""num_scrambled_semantic"":""8"",""num_scrambled_causal"":""4"",""num_scrambled_schematic"":""4"",""participantId"":""CD172C6EAA5B44979FAB299B0532079E"",""assignmentId"":""ee03306b-7110-4ba0-8fb5-3e0ed73b7ae2"",""projectId"":""051c06f1-75cc-4548-856d-4923ddaba0dc""}","https://test12345.live/?num_scrambled_semantic=8&num_scrambled_causal=4&num_scrambled_schematic=4&participantId=CD172C6EAA5B44979FAB299B0532079E&assignmentId=ee03306b-7110-4ba0-8fb5-3e0ed73b7ae2&projectId=051c06f1-75cc-4548-856d-4923ddaba0dc","CD172C6EAA5B44979FAB299B0532079E-2025-05-15-19-19-30","","null","","images/semantic_sequence/market_semantic/market_semantic_6.png","null","",""
"","","","","","image-button-response","32","223857","0.0-10.0-1.0-1.2","CD172C6EAA5B44979FAB299B0532079E","CD172C6EAA5B44979FAB299B0532079E","ee03306b-7110-4ba0-8fb5-3e0ed73b7ae2","051c06f1-75cc-4548-856d-4923ddaba0dc","{""num_scrambled_semantic"":""8"",""num_scrambled_causal"":""4"",""num_scrambled_schematic"":""4"",""participantId"":""CD172C6EAA5B44979FAB299B0532079E"",""assignmentId"":""ee03306b-7110-4ba0-8fb5-3e0ed73b7ae2"",""projectId"":""051c06f1-75cc-4548-856d-4923ddaba0dc""}","https://test12345.live/?num_scrambled_semantic=8&num_scrambled_causal=4&num_scrambled_schematic=4&participantId=CD172C6EAA5B44979FAB299B0532079E&assignmentId=ee03306b-7110-4ba0-8fb5-3e0ed73b7ae2&projectId=051c06f1-75cc-4548-856d-4923ddaba0dc","CD172C6EAA5B44979FAB299B0532079E-2025-05-15-19-19-30","","2064","","images/semantic_sequence/market_semantic/market_semantic_6.png","1","",""
"","","","","","image-button-response","33","225676","0.0-10.0-1.0-2.2","CD172C6EAA5B44979FAB299B0532079E","CD172C6EAA5B44979FAB299B0532079E","ee03306b-7110-4ba0-8fb5-3e0ed73b7ae2","051c06f1-75cc-4548-856d-4923ddaba0dc","{""num_scrambled_semantic"":""8"",""num_scrambled_causal"":""4"",""num_scrambled_schematic"":""4"",""participantId"":""CD172C6EAA5B44979FAB299B0532079E"",""assignmentId"":""ee03306b-7110-4ba0-8fb5-3e0ed73b7ae2"",""projectId"":""051c06f1-75cc-4548-856d-4923ddaba0dc""}","https://test12345.live/?num_scrambled_semantic=8&num_scrambled_causal=4&num_scrambled_schematic=4&participantId=CD172C6EAA5B44979FAB299B0532079E&assignmentId=ee03306b-7110-4ba0-8fb5-3e0ed73b7ae2&projectId=051c06f1-75cc-4548-856d-4923ddaba0dc","CD172C6EAA5B44979FAB299B0532079E-2025-05-15-19-19-30","","null","","[]","null","",""
"","","","","","image-button-response","34","230195","0.0-10.0-1.0-0.3","CD172C6EAA5B44979FAB299B0532079E","CD172C6EAA5B44979FAB299B0532079E","ee03306b-7110-4ba0-8fb5-3e0ed73b7ae2","051c06f1-75cc-4548-856d-4923ddaba0dc","{""num_scrambled_semantic"":""8"",""num_scrambled_causal"":""4"",""num_scrambled_schematic"":""4"",""participantId"":""CD172C6EAA5B44979FAB299B0532079E"",""assignmentId"":""ee03306b-7110-4ba0-8fb5-3e0ed73b7ae2"",""projectId"":""051c06f1-75cc-4548-856d-4923ddaba0dc""}","https://test12345.live/?num_scrambled_semantic=8&num_scrambled_causal=4&num_scrambled_schematic=4&participantId=CD172C6EAA5B44979FAB299B0532079E&assignmentId=ee03306b-7110-4ba0-8fb5-3e0ed73b7ae2&projectId=051c06f1-75cc-4548-856d-4923ddaba0dc","CD172C6EAA5B44979FAB299B0532079E-2025-05-15-19-19-30","","null","","images/semantic_sequence/market_semantic/market_semantic_7.png","null","",""
"","","","","","image-button-response","35","232288","0.0-10.0-1.0-1.3","CD172C6EAA5B44979FAB299B0532079E","CD172C6EAA5B44979FAB299B0532079E","ee03306b-7110-4ba0-8fb5-3e0ed73b7ae2","051c06f1-75cc-4548-856d-4923ddaba0dc","{""num_scrambled_semantic"":""8"",""num_scrambled_causal"":""4"",""num_scrambled_schematic"":""4"",""participantId"":""CD172C6EAA5B44979FAB299B0532079E"",""assignmentId"":""ee03306b-7110-4ba0-8fb5-3e0ed73b7ae2"",""projectId"":""051c06f1-75cc-4548-856d-4923ddaba0dc""}","https://test12345.live/?num_scrambled_semantic=8&num_scrambled_causal=4&num_scrambled_schematic=4&participantId=CD172C6EAA5B44979FAB299B0532079E&assignmentId=ee03306b-7110-4ba0-8fb5-3e0ed73b7ae2&projectId=051c06f1-75cc-4548-856d-4923ddaba0dc","CD172C6EAA5B44979FAB299B0532079E-2025-05-15-19-19-30","","2092","","images/semantic_sequence/market_semantic/market_semantic_7.png","0","",""
"","","","","","image-button-response","36","234106","0.0-10.0-1.0-2.3","CD172C6EAA5B44979FAB299B0532079E","CD172C6EAA5B44979FAB299B0532079E","ee03306b-7110-4ba0-8fb5-3e0ed73b7ae2","051c06f1-75cc-4548-856d-4923ddaba0dc","{""num_scrambled_semantic"":""8"",""num_scrambled_causal"":""4"",""num_scrambled_schematic"":""4"",""participantId"":""CD172C6EAA5B44979FAB299B0532079E"",""assignmentId"":""ee03306b-7110-4ba0-8fb5-3e0ed73b7ae2"",""projectId"":""051c06f1-75cc-4548-856d-4923ddaba0dc""}","https://test12345.live/?num_scrambled_semantic=8&num_scrambled_causal=4&num_scrambled_schematic=4&participantId=CD172C6EAA5B44979FAB299B0532079E&assignmentId=ee03306b-7110-4ba0-8fb5-3e0ed73b7ae2&projectId=051c06f1-75cc-4548-856d-4923ddaba0dc","CD172C6EAA5B44979FAB299B0532079E-2025-05-15-19-19-30","","null","","[]","null","",""
"","","","","","image-button-response","37","238609","0.0-10.0-1.0-0.4","CD172C6EAA5B44979FAB299B0532079E","CD172C6EAA5B44979FAB299B0532079E","ee03306b-7110-4ba0-8fb5-3e0ed73b7ae2","051c06f1-75cc-4548-856d-4923ddaba0dc","{""num_scrambled_semantic"":""8"",""num_scrambled_causal"":""4"",""num_scrambled_schematic"":""4"",""participantId"":""CD172C6EAA5B44979FAB299B0532079E"",""assignmentId"":""ee03306b-7110-4ba0-8fb5-3e0ed73b7ae2"",""projectId"":""051c06f1-75cc-4548-856d-4923ddaba0dc""}","https://test12345.live/?num_scrambled_semantic=8&num_scrambled_causal=4&num_scrambled_schematic=4&participantId=CD172C6EAA5B44979FAB299B0532079E&assignmentId=ee03306b-7110-4ba0-8fb5-3e0ed73b7ae2&projectId=051c06f1-75cc-4548-856d-4923ddaba0dc","CD172C6EAA5B44979FAB299B0532079E-2025-05-15-19-19-30","","null","","images/semantic_sequence/market_semantic/market_semantic_1.png","null","",""
"","","","","","image-button-response","38","239360","0.0-10.0-1.0-1.4","CD172C6EAA5B44979FAB299B0532079E","CD172C6EAA5B44979FAB299B0532079E","ee03306b-7110-4ba0-8fb5-3e0ed73b7ae2","051c06f1-75cc-4548-856d-4923ddaba0dc","{""num_scrambled_semantic"":""8"",""num_scrambled_causal"":""4"",""num_scrambled_schematic"":""4"",""participantId"":""CD172C6EAA5B44979FAB299B0532079E"",""assignmentId"":""ee03306b-7110-4ba0-8fb5-3e0ed73b7ae2"",""projectId"":""051c06f1-75cc-4548-856d-4923ddaba0dc""}","https://test12345.live/?num_scrambled_semantic=8&num_scrambled_causal=4&num_scrambled_schematic=4&participantId=CD172C6EAA5B44979FAB299B0532079E&assignmentId=ee03306b-7110-4ba0-8fb5-3e0ed73b7ae2&projectId=051c06f1-75cc-4548-856d-4923ddaba0dc","CD172C6EAA5B44979FAB299B0532079E-2025-05-15-19-19-30","","750","","images/semantic_sequence/market_semantic/market_semantic_1.png","1","",""
"","","","","","image-button-response","39","241176","0.0-10.0-1.0-2.4","CD172C6EAA5B44979FAB299B0532079E","CD172C6EAA5B44979FAB299B0532079E","ee03306b-7110-4ba0-8fb5-3e0ed73b7ae2","051c06f1-75cc-4548-856d-4923ddaba0dc","{""num_scrambled_semantic"":""8"",""num_scrambled_causal"":""4"",""num_scrambled_schematic"":""4"",""participantId"":""CD172C6EAA5B44979FAB299B0532079E"",""assignmentId"":""ee03306b-7110-4ba0-8fb5-3e0ed73b7ae2"",""projectId"":""051c06f1-75cc-4548-856d-4923ddaba0dc""}","https://test12345.live/?num_scrambled_semantic=8&num_scrambled_causal=4&num_scrambled_schematic=4&participantId=CD172C6EAA5B44979FAB299B0532079E&assignmentId=ee03306b-7110-4ba0-8fb5-3e0ed73b7ae2&projectId=051c06f1-75cc-4548-856d-4923ddaba0dc","CD172C6EAA5B44979FAB299B0532079E-2025-05-15-19-19-30","","null","","[]","null","",""
"","","","","","image-button-response","40","245687","0.0-10.0-1.0-0.5","CD172C6EAA5B44979FAB299B0532079E","CD172C6EAA5B44979FAB299B0532079E","ee03306b-7110-4ba0-8fb5-3e0ed73b7ae2","051c06f1-75cc-4548-856d-4923ddaba0dc","{""num_scrambled_semantic"":""8"",""num_scrambled_causal"":""4"",""num_scrambled_schematic"":""4"",""participantId"":""CD172C6EAA5B44979FAB299B0532079E"",""assignmentId"":""ee03306b-7110-4ba0-8fb5-3e0ed73b7ae2"",""projectId"":""051c06f1-75cc-4548-856d-4923ddaba0dc""}","https://test12345.live/?num_scrambled_semantic=8&num_scrambled_causal=4&num_scrambled_schematic=4&participantId=CD172C6EAA5B44979FAB299B0532079E&assignmentId=ee03306b-7110-4ba0-8fb5-3e0ed73b7ae2&projectId=051c06f1-75cc-4548-856d-4923ddaba0dc","CD172C6EAA5B44979FAB299B0532079E-2025-05-15-19-19-30","","null","","images/semantic_sequence/market_semantic/market_semantic_5.png","null","",""
"","","","","","image-button-response","41","246815","0.0-10.0-1.0-1.5","CD172C6EAA5B44979FAB299B0532079E","CD172C6EAA5B44979FAB299B0532079E","ee03306b-7110-4ba0-8fb5-3e0ed73b7ae2","051c06f1-75cc-4548-856d-4923ddaba0dc","{""num_scrambled_semantic"":""8"",""num_scrambled_causal"":""4"",""num_scrambled_schematic"":""4"",""participantId"":""CD172C6EAA5B44979FAB299B0532079E"",""assignmentId"":""ee03306b-7110-4ba0-8fb5-3e0ed73b7ae2"",""projectId"":""051c06f1-75cc-4548-856d-4923ddaba0dc""}","https://test12345.live/?num_scrambled_semantic=8&num_scrambled_causal=4&num_scrambled_schematic=4&participantId=CD172C6EAA5B44979FAB299B0532079E&assignmentId=ee03306b-7110-4ba0-8fb5-3e0ed73b7ae2&projectId=051c06f1-75cc-4548-856d-4923ddaba0dc","CD172C6EAA5B44979FAB299B0532079E-2025-05-15-19-19-30","","1127","","images/semantic_sequence/market_semantic/market_semantic_5.png","1","",""
"","","","","","image-button-response","42","248626","0.0-10.0-1.0-2.5","CD172C6EAA5B44979FAB299B0532079E","CD172C6EAA5B44979FAB299B0532079E","ee03306b-7110-4ba0-8fb5-3e0ed73b7ae2","051c06f1-75cc-4548-856d-4923ddaba0dc","{""num_scrambled_semantic"":""8"",""num_scrambled_causal"":""4"",""num_scrambled_schematic"":""4"",""participantId"":""CD172C6EAA5B44979FAB299B0532079E"",""assignmentId"":""ee03306b-7110-4ba0-8fb5-3e0ed73b7ae2"",""projectId"":""051c06f1-75cc-4548-856d-4923ddaba0dc""}","https://test12345.live/?num_scrambled_semantic=8&num_scrambled_causal=4&num_scrambled_schematic=4&participantId=CD172C6EAA5B44979FAB299B0532079E&assignmentId=ee03306b-7110-4ba0-8fb5-3e0ed73b7ae2&projectId=051c06f1-75cc-4548-856d-4923ddaba0dc","CD172C6EAA5B44979FAB299B0532079E-2025-05-15-19-19-30","","null","","[]","null","",""
"","","","","","image-button-response","43","253133","0.0-10.0-1.0-0.6","CD172C6EAA5B44979FAB299B0532079E","CD172C6EAA5B44979FAB299B0532079E","ee03306b-7110-4ba0-8fb5-3e0ed73b7ae2","051c06f1-75cc-4548-856d-4923ddaba0dc","{""num_scrambled_semantic"":""8"",""num_scrambled_causal"":""4"",""num_scrambled_schematic"":""4"",""participantId"":""CD172C6EAA5B44979FAB299B0532079E"",""assignmentId"":""ee03306b-7110-4ba0-8fb5-3e0ed73b7ae2"",""projectId"":""051c06f1-75cc-4548-856d-4923ddaba0dc""}","https://test12345.live/?num_scrambled_semantic=8&num_scrambled_causal=4&num_scrambled_schematic=4&participantId=CD172C6EAA5B44979FAB299B0532079E&assignmentId=ee03306b-7110-4ba0-8fb5-3e0ed73b7ae2&projectId=051c06f1-75cc-4548-856d-4923ddaba0dc","CD172C6EAA5B44979FAB299B0532079E-2025-05-15-19-19-30","","null","","images/semantic_sequence/market_semantic/market_semantic_3.png","null","",""
"","","","","","image-button-response","44","253903","0.0-10.0-1.0-1.6","CD172C6EAA5B44979FAB299B0532079E","CD172C6EAA5B44979FAB299B0532079E","ee03306b-7110-4ba0-8fb5-3e0ed73b7ae2","051c06f1-75cc-4548-856d-4923ddaba0dc","{""num_scrambled_semantic"":""8"",""num_scrambled_causal"":""4"",""num_scrambled_schematic"":""4"",""participantId"":""CD172C6EAA5B44979FAB299B0532079E"",""assignmentId"":""ee03306b-7110-4ba0-8fb5-3e0ed73b7ae2"",""projectId"":""051c06f1-75cc-4548-856d-4923ddaba0dc""}","https://test12345.live/?num_scrambled_semantic=8&num_scrambled_causal=4&num_scrambled_schematic=4&participantId=CD172C6EAA5B44979FAB299B0532079E&assignmentId=ee03306b-7110-4ba0-8fb5-3e0ed73b7ae2&projectId=051c06f1-75cc-4548-856d-4923ddaba0dc","CD172C6EAA5B44979FAB299B0532079E-2025-05-15-19-19-30","","769","","images/semantic_sequence/market_semantic/market_semantic_3.png","0","",""
"","","","","","image-button-response","45","255706","0.0-10.0-1.0-2.6","CD172C6EAA5B44979FAB299B0532079E","CD172C6EAA5B44979FAB299B0532079E","ee03306b-7110-4ba0-8fb5-3e0ed73b7ae2","051c06f1-75cc-4548-856d-4923ddaba0dc","{""num_scrambled_semantic"":""8"",""num_scrambled_causal"":""4"",""num_scrambled_schematic"":""4"",""participantId"":""CD172C6EAA5B44979FAB299B0532079E"",""assignmentId"":""ee03306b-7110-4ba0-8fb5-3e0ed73b7ae2"",""projectId"":""051c06f1-75cc-4548-856d-4923ddaba0dc""}","https://test12345.live/?num_scrambled_semantic=8&num_scrambled_causal=4&num_scrambled_schematic=4&participantId=CD172C6EAA5B44979FAB299B0532079E&assignmentId=ee03306b-7110-4ba0-8fb5-3e0ed73b7ae2&projectId=051c06f1-75cc-4548-856d-4923ddaba0dc","CD172C6EAA5B44979FAB299B0532079E-2025-05-15-19-19-30","","null","","[]","null","",""
"","","","","","image-button-response","46","260215","0.0-10.0-1.0-0.7","CD172C6EAA5B44979FAB299B0532079E","CD172C6EAA5B44979FAB299B0532079E","ee03306b-7110-4ba0-8fb5-3e0ed73b7ae2","051c06f1-75cc-4548-856d-4923ddaba0dc","{""num_scrambled_semantic"":""8"",""num_scrambled_causal"":""4"",""num_scrambled_schematic"":""4"",""participantId"":""CD172C6EAA5B44979FAB299B0532079E"",""assignmentId"":""ee03306b-7110-4ba0-8fb5-3e0ed73b7ae2"",""projectId"":""051c06f1-75cc-4548-856d-4923ddaba0dc""}","https://test12345.live/?num_scrambled_semantic=8&num_scrambled_causal=4&num_scrambled_schematic=4&participantId=CD172C6EAA5B44979FAB299B0532079E&assignmentId=ee03306b-7110-4ba0-8fb5-3e0ed73b7ae2&projectId=051c06f1-75cc-4548-856d-4923ddaba0dc","CD172C6EAA5B44979FAB299B0532079E-2025-05-15-19-19-30","","null","","images/semantic_sequence/market_semantic/market_semantic_ten.png","null","",""
"","","","","","image-button-response","47","261343","0.0-10.0-1.0-1.7","CD172C6EAA5B44979FAB299B0532079E","CD172C6EAA5B44979FAB299B0532079E","ee03306b-7110-4ba0-8fb5-3e0ed73b7ae2","051c06f1-75cc-4548-856d-4923ddaba0dc","{""num_scrambled_semantic"":""8"",""num_scrambled_causal"":""4"",""num_scrambled_schematic"":""4"",""participantId"":""CD172C6EAA5B44979FAB299B0532079E"",""assignmentId"":""ee03306b-7110-4ba0-8fb5-3e0ed73b7ae2"",""projectId"":""051c06f1-75cc-4548-856d-4923ddaba0dc""}","https://test12345.live/?num_scrambled_semantic=8&num_scrambled_causal=4&num_scrambled_schematic=4&participantId=CD172C6EAA5B44979FAB299B0532079E&assignmentId=ee03306b-7110-4ba0-8fb5-3e0ed73b7ae2&projectId=051c06f1-75cc-4548-856d-4923ddaba0dc","CD172C6EAA5B44979FAB299B0532079E-2025-05-15-19-19-30","","1126","","images/semantic_sequence/market_semantic/market_semantic_ten.png","1","",""
"","","","","","image-button-response","48","263147","0.0-10.0-1.0-2.7","CD172C6EAA5B44979FAB299B0532079E","CD172C6EAA5B44979FAB299B0532079E","ee03306b-7110-4ba0-8fb5-3e0ed73b7ae2","051c06f1-75cc-4548-856d-4923ddaba0dc","{""num_scrambled_semantic"":""8"",""num_scrambled_causal"":""4"",""num_scrambled_schematic"":""4"",""participantId"":""CD172C6EAA5B44979FAB299B0532079E"",""assignmentId"":""ee03306b-7110-4ba0-8fb5-3e0ed73b7ae2"",""projectId"":""051c06f1-75cc-4548-856d-4923ddaba0dc""}","https://test12345.live/?num_scrambled_semantic=8&num_scrambled_causal=4&num_scrambled_schematic=4&participantId=CD172C6EAA5B44979FAB299B0532079E&assignmentId=ee03306b-7110-4ba0-8fb5-3e0ed73b7ae2&projectId=051c06f1-75cc-4548-856d-4923ddaba0dc","CD172C6EAA5B44979FAB299B0532079E-2025-05-15-19-19-30","","null","","[]","null","",""
"","","","","","image-button-response","49","267656","0.0-10.0-1.0-0.8","CD172C6EAA5B44979FAB299B0532079E","CD172C6EAA5B44979FAB299B0532079E","ee03306b-7110-4ba0-8fb5-3e0ed73b7ae2","051c06f1-75cc-4548-856d-4923ddaba0dc","{""num_scrambled_semantic"":""8"",""num_scrambled_causal"":""4"",""num_scrambled_schematic"":""4"",""participantId"":""CD172C6EAA5B44979FAB299B0532079E"",""assignmentId"":""ee03306b-7110-4ba0-8fb5-3e0ed73b7ae2"",""projectId"":""051c06f1-75cc-4548-856d-4923ddaba0dc""}","https://test12345.live/?num_scrambled_semantic=8&num_scrambled_causal=4&num_scrambled_schematic=4&participantId=CD172C6EAA5B44979FAB299B0532079E&assignmentId=ee03306b-7110-4ba0-8fb5-3e0ed73b7ae2&projectId=051c06f1-75cc-4548-856d-4923ddaba0dc","CD172C6EAA5B44979FAB299B0532079E-2025-05-15-19-19-30","","null","","images/semantic_sequence/market_semantic/market_semantic_8.png","null","",""
"","","","","","image-button-response","50","270268","0.0-10.0-1.0-1.8","CD172C6EAA5B44979FAB299B0532079E","CD172C6EAA5B44979FAB299B0532079E","ee03306b-7110-4ba0-8fb5-3e0ed73b7ae2","051c06f1-75cc-4548-856d-4923ddaba0dc","{""num_scrambled_semantic"":""8"",""num_scrambled_causal"":""4"",""num_scrambled_schematic"":""4"",""participantId"":""CD172C6EAA5B44979FAB299B0532079E"",""assignmentId"":""ee03306b-7110-4ba0-8fb5-3e0ed73b7ae2"",""projectId"":""051c06f1-75cc-4548-856d-4923ddaba0dc""}","https://test12345.live/?num_scrambled_semantic=8&num_scrambled_causal=4&num_scrambled_schematic=4&participantId=CD172C6EAA5B44979FAB299B0532079E&assignmentId=ee03306b-7110-4ba0-8fb5-3e0ed73b7ae2&projectId=051c06f1-75cc-4548-856d-4923ddaba0dc","CD172C6EAA5B44979FAB299B0532079E-2025-05-15-19-19-30","","2610","","images/semantic_sequence/market_semantic/market_semantic_8.png","0","",""
"","","","","","image-button-response","51","272087","0.0-10.0-1.0-2.8","CD172C6EAA5B44979FAB299B0532079E","CD172C6EAA5B44979FAB299B0532079E","ee03306b-7110-4ba0-8fb5-3e0ed73b7ae2","051c06f1-75cc-4548-856d-4923ddaba0dc","{""num_scrambled_semantic"":""8"",""num_scrambled_causal"":""4"",""num_scrambled_schematic"":""4"",""participantId"":""CD172C6EAA5B44979FAB299B0532079E"",""assignmentId"":""ee03306b-7110-4ba0-8fb5-3e0ed73b7ae2"",""projectId"":""051c06f1-75cc-4548-856d-4923ddaba0dc""}","https://test12345.live/?num_scrambled_semantic=8&num_scrambled_causal=4&num_scrambled_schematic=4&participantId=CD172C6EAA5B44979FAB299B0532079E&assignmentId=ee03306b-7110-4ba0-8fb5-3e0ed73b7ae2&projectId=051c06f1-75cc-4548-856d-4923ddaba0dc","CD172C6EAA5B44979FAB299B0532079E-2025-05-15-19-19-30","","null","","[]","null","",""
"","","","","","image-button-response","52","276606","0.0-10.0-1.0-0.9","CD172C6EAA5B44979FAB299B0532079E","CD172C6EAA5B44979FAB299B0532079E","ee03306b-7110-4ba0-8fb5-3e0ed73b7ae2","051c06f1-75cc-4548-856d-4923ddaba0dc","{""num_scrambled_semantic"":""8"",""num_scrambled_causal"":""4"",""num_scrambled_schematic"":""4"",""participantId"":""CD172C6EAA5B44979FAB299B0532079E"",""assignmentId"":""ee03306b-7110-4ba0-8fb5-3e0ed73b7ae2"",""projectId"":""051c06f1-75cc-4548-856d-4923ddaba0dc""}","https://test12345.live/?num_scrambled_semantic=8&num_scrambled_causal=4&num_scrambled_schematic=4&participantId=CD172C6EAA5B44979FAB299B0532079E&assignmentId=ee03306b-7110-4ba0-8fb5-3e0ed73b7ae2&projectId=051c06f1-75cc-4548-856d-4923ddaba0dc","CD172C6EAA5B44979FAB299B0532079E-2025-05-15-19-19-30","","null","","images/semantic_sequence/market_semantic/market_semantic_2.png","null","",""
"","","","","","image-button-response","53","277318","0.0-10.0-1.0-1.9","CD172C6EAA5B44979FAB299B0532079E","CD172C6EAA5B44979FAB299B0532079E","ee03306b-7110-4ba0-8fb5-3e0ed73b7ae2","051c06f1-75cc-4548-856d-4923ddaba0dc","{""num_scrambled_semantic"":""8"",""num_scrambled_causal"":""4"",""num_scrambled_schematic"":""4"",""participantId"":""CD172C6EAA5B44979FAB299B0532079E"",""assignmentId"":""ee03306b-7110-4ba0-8fb5-3e0ed73b7ae2"",""projectId"":""051c06f1-75cc-4548-856d-4923ddaba0dc""}","https://test12345.live/?num_scrambled_semantic=8&num_scrambled_causal=4&num_scrambled_schematic=4&participantId=CD172C6EAA5B44979FAB299B0532079E&assignmentId=ee03306b-7110-4ba0-8fb5-3e0ed73b7ae2&projectId=051c06f1-75cc-4548-856d-4923ddaba0dc","CD172C6EAA5B44979FAB299B0532079E-2025-05-15-19-19-30","","710","","images/semantic_sequence/market_semantic/market_semantic_2.png","1","",""
"","","","","","image-button-response","54","279126","0.0-10.0-1.0-2.9","CD172C6EAA5B44979FAB299B0532079E","CD172C6EAA5B44979FAB299B0532079E","ee03306b-7110-4ba0-8fb5-3e0ed73b7ae2","051c06f1-75cc-4548-856d-4923ddaba0dc","{""num_scrambled_semantic"":""8"",""num_scrambled_causal"":""4"",""num_scrambled_schematic"":""4"",""participantId"":""CD172C6EAA5B44979FAB299B0532079E"",""assignmentId"":""ee03306b-7110-4ba0-8fb5-3e0ed73b7ae2"",""projectId"":""051c06f1-75cc-4548-856d-4923ddaba0dc""}","https://test12345.live/?num_scrambled_semantic=8&num_scrambled_causal=4&num_scrambled_schematic=4&participantId=CD172C6EAA5B44979FAB299B0532079E&assignmentId=ee03306b-7110-4ba0-8fb5-3e0ed73b7ae2&projectId=051c06f1-75cc-4548-856d-4923ddaba0dc","CD172C6EAA5B44979FAB299B0532079E-2025-05-15-19-19-30","","null","","[]","null","",""
"","","","","","html-audio-response","55","317526","0.0-11.0","CD172C6EAA5B44979FAB299B0532079E","CD172C6EAA5B44979FAB299B0532079E","ee03306b-7110-4ba0-8fb5-3e0ed73b7ae2","051c06f1-75cc-4548-856d-4923ddaba0dc","{""num_scrambled_semantic"":""8"",""num_scrambled_causal"":""4"",""num_scrambled_schematic"":""4"",""participantId"":""CD172C6EAA5B44979FAB299B0532079E"",""assignmentId"":""ee03306b-7110-4ba0-8fb5-3e0ed73b7ae2"",""projectId"":""051c06f1-75cc-4548-856d-4923ddaba0dc""}","https://test12345.live/?num_scrambled_semantic=8&num_scrambled_causal=4&num_scrambled_schematic=4&participantId=CD172C6EAA5B44979FAB299B0532079E&assignmentId=ee03306b-7110-4ba0-8fb5-3e0ed73b7ae2&projectId=051c06f1-75cc-4548-856d-4923ddaba0dc","CD172C6EAA5B44979FAB299B0532079E-2025-05-15-19-19-30","","18155","","[""<span style=\""color: red; font-size: 24px\""> NOW RECORDING</span><p>Please say out loud all the images you saw, as many as you can remember. The images can be said in any order.</p>""]","","2","market_semantic"
"","","","","","image-button-response","56","323546","0.0-12.0-0.0","CD172C6EAA5B44979FAB299B0532079E","CD172C6EAA5B44979FAB299B0532079E","ee03306b-7110-4ba0-8fb5-3e0ed73b7ae2","051c06f1-75cc-4548-856d-4923ddaba0dc","{""num_scrambled_semantic"":""8"",""num_scrambled_causal"":""4"",""num_scrambled_schematic"":""4"",""participantId"":""CD172C6EAA5B44979FAB299B0532079E"",""assignmentId"":""ee03306b-7110-4ba0-8fb5-3e0ed73b7ae2"",""projectId"":""051c06f1-75cc-4548-856d-4923ddaba0dc""}","https://test12345.live/?num_scrambled_semantic=8&num_scrambled_causal=4&num_scrambled_schematic=4&participantId=CD172C6EAA5B44979FAB299B0532079E&assignmentId=ee03306b-7110-4ba0-8fb5-3e0ed73b7ae2&projectId=051c06f1-75cc-4548-856d-4923ddaba0dc","CD172C6EAA5B44979FAB299B0532079E-2025-05-15-19-19-30","","null","","images/semantic_sequence/using_technology_semantic/using_technology_semantic_0.png","null","",""
"","","","","","image-button-response","57","328051","0.0-12.0-1.0-0.0","CD172C6EAA5B44979FAB299B0532079E","CD172C6EAA5B44979FAB299B0532079E","ee03306b-7110-4ba0-8fb5-3e0ed73b7ae2","051c06f1-75cc-4548-856d-4923ddaba0dc","{""num_scrambled_semantic"":""8"",""num_scrambled_causal"":""4"",""num_scrambled_schematic"":""4"",""participantId"":""CD172C6EAA5B44979FAB299B0532079E"",""assignmentId"":""ee03306b-7110-4ba0-8fb5-3e0ed73b7ae2"",""projectId"":""051c06f1-75cc-4548-856d-4923ddaba0dc""}","https://test12345.live/?num_scrambled_semantic=8&num_scrambled_causal=4&num_scrambled_schematic=4&participantId=CD172C6EAA5B44979FAB299B0532079E&assignmentId=ee03306b-7110-4ba0-8fb5-3e0ed73b7ae2&projectId=051c06f1-75cc-4548-856d-4923ddaba0dc","CD172C6EAA5B44979FAB299B0532079E-2025-05-15-19-19-30","","null","","images/semantic_sequence/using_technology_semantic/using_technology_semantic_2.png","null","",""
"","","","","","image-button-response","58","329136","0.0-12.0-1.0-1.0","CD172C6EAA5B44979FAB299B0532079E","CD172C6EAA5B44979FAB299B0532079E","ee03306b-7110-4ba0-8fb5-3e0ed73b7ae2","051c06f1-75cc-4548-856d-4923ddaba0dc","{""num_scrambled_semantic"":""8"",""num_scrambled_causal"":""4"",""num_scrambled_schematic"":""4"",""participantId"":""CD172C6EAA5B44979FAB299B0532079E"",""assignmentId"":""ee03306b-7110-4ba0-8fb5-3e0ed73b7ae2"",""projectId"":""051c06f1-75cc-4548-856d-4923ddaba0dc""}","https://test12345.live/?num_scrambled_semantic=8&num_scrambled_causal=4&num_scrambled_schematic=4&participantId=CD172C6EAA5B44979FAB299B0532079E&assignmentId=ee03306b-7110-4ba0-8fb5-3e0ed73b7ae2&projectId=051c06f1-75cc-4548-856d-4923ddaba0dc","CD172C6EAA5B44979FAB299B0532079E-2025-05-15-19-19-30","","1084","","images/semantic_sequence/using_technology_semantic/using_technology_semantic_2.png","0","",""
"","","","","","image-button-response","59","330956","0.0-12.0-1.0-2.0","CD172C6EAA5B44979FAB299B0532079E","CD172C6EAA5B44979FAB299B0532079E","ee03306b-7110-4ba0-8fb5-3e0ed73b7ae2","051c06f1-75cc-4548-856d-4923ddaba0dc","{""num_scrambled_semantic"":""8"",""num_scrambled_causal"":""4"",""num_scrambled_schematic"":""4"",""participantId"":""CD172C6EAA5B44979FAB299B0532079E"",""assignmentId"":""ee03306b-7110-4ba0-8fb5-3e0ed73b7ae2"",""projectId"":""051c06f1-75cc-4548-856d-4923ddaba0dc""}","https://test12345.live/?num_scrambled_semantic=8&num_scrambled_causal=4&num_scrambled_schematic=4&participantId=CD172C6EAA5B44979FAB299B0532079E&assignmentId=ee03306b-7110-4ba0-8fb5-3e0ed73b7ae2&projectId=051c06f1-75cc-4548-856d-4923ddaba0dc","CD172C6EAA5B44979FAB299B0532079E-2025-05-15-19-19-30","","null","","[]","null","",""
"","","","","","image-button-response","60","335476","0.0-12.0-1.0-0.1","CD172C6EAA5B44979FAB299B0532079E","CD172C6EAA5B44979FAB299B0532079E","ee03306b-7110-4ba0-8fb5-3e0ed73b7ae2","051c06f1-75cc-4548-856d-4923ddaba0dc","{""num_scrambled_semantic"":""8"",""num_scrambled_causal"":""4"",""num_scrambled_schematic"":""4"",""participantId"":""CD172C6EAA5B44979FAB299B0532079E"",""assignmentId"":""ee03306b-7110-4ba0-8fb5-3e0ed73b7ae2"",""projectId"":""051c06f1-75cc-4548-856d-4923ddaba0dc""}","https://test12345.live/?num_scrambled_semantic=8&num_scrambled_causal=4&num_scrambled_schematic=4&participantId=CD172C6EAA5B44979FAB299B0532079E&assignmentId=ee03306b-7110-4ba0-8fb5-3e0ed73b7ae2&projectId=051c06f1-75cc-4548-856d-4923ddaba0dc","CD172C6EAA5B44979FAB299B0532079E-2025-05-15-19-19-30","","null","","images/semantic_sequence/using_technology_semantic/using_technology_semantic_ten.png","null","",""
"","","","","","image-button-response","61","336629","0.0-12.0-1.0-1.1","CD172C6EAA5B44979FAB299B0532079E","CD172C6EAA5B44979FAB299B0532079E","ee03306b-7110-4ba0-8fb5-3e0ed73b7ae2","051c06f1-75cc-4548-856d-4923ddaba0dc","{""num_scrambled_semantic"":""8"",""num_scrambled_causal"":""4"",""num_scrambled_schematic"":""4"",""participantId"":""CD172C6EAA5B44979FAB299B0532079E"",""assignmentId"":""ee03306b-7110-4ba0-8fb5-3e0ed73b7ae2"",""projectId"":""051c06f1-75cc-4548-856d-4923ddaba0dc""}","https://test12345.live/?num_scrambled_semantic=8&num_scrambled_causal=4&num_scrambled_schematic=4&participantId=CD172C6EAA5B44979FAB299B0532079E&assignmentId=ee03306b-7110-4ba0-8fb5-3e0ed73b7ae2&projectId=051c06f1-75cc-4548-856d-4923ddaba0dc","CD172C6EAA5B44979FAB299B0532079E-2025-05-15-19-19-30","","1152","","images/semantic_sequence/using_technology_semantic/using_technology_semantic_ten.png","0","",""
"","","","","","image-button-response","62","338446","0.0-12.0-1.0-2.1","CD172C6EAA5B44979FAB299B0532079E","CD172C6EAA5B44979FAB299B0532079E","ee03306b-7110-4ba0-8fb5-3e0ed73b7ae2","051c06f1-75cc-4548-856d-4923ddaba0dc","{""num_scrambled_semantic"":""8"",""num_scrambled_causal"":""4"",""num_scrambled_schematic"":""4"",""participantId"":""CD172C6EAA5B44979FAB299B0532079E"",""assignmentId"":""ee03306b-7110-4ba0-8fb5-3e0ed73b7ae2"",""projectId"":""051c06f1-75cc-4548-856d-4923ddaba0dc""}","https://test12345.live/?num_scrambled_semantic=8&num_scrambled_causal=4&num_scrambled_schematic=4&participantId=CD172C6EAA5B44979FAB299B0532079E&assignmentId=ee03306b-7110-4ba0-8fb5-3e0ed73b7ae2&projectId=051c06f1-75cc-4548-856d-4923ddaba0dc","CD172C6EAA5B44979FAB299B0532079E-2025-05-15-19-19-30","","null","","[]","null","",""
"","","","","","image-button-response","63","342956","0.0-12.0-1.0-0.2","CD172C6EAA5B44979FAB299B0532079E","CD172C6EAA5B44979FAB299B0532079E","ee03306b-7110-4ba0-8fb5-3e0ed73b7ae2","051c06f1-75cc-4548-856d-4923ddaba0dc","{""num_scrambled_semantic"":""8"",""num_scrambled_causal"":""4"",""num_scrambled_schematic"":""4"",""participantId"":""CD172C6EAA5B44979FAB299B0532079E"",""assignmentId"":""ee03306b-7110-4ba0-8fb5-3e0ed73b7ae2"",""projectId"":""051c06f1-75cc-4548-856d-4923ddaba0dc""}","https://test12345.live/?num_scrambled_semantic=8&num_scrambled_causal=4&num_scrambled_schematic=4&participantId=CD172C6EAA5B44979FAB299B0532079E&assignmentId=ee03306b-7110-4ba0-8fb5-3e0ed73b7ae2&projectId=051c06f1-75cc-4548-856d-4923ddaba0dc","CD172C6EAA5B44979FAB299B0532079E-2025-05-15-19-19-30","","null","","images/semantic_sequence/using_technology_semantic/using_technology_semantic_8.png","null","",""
"","","","","","image-button-response","64","343912","0.0-12.0-1.0-1.2","CD172C6EAA5B44979FAB299B0532079E","CD172C6EAA5B44979FAB299B0532079E","ee03306b-7110-4ba0-8fb5-3e0ed73b7ae2","051c06f1-75cc-4548-856d-4923ddaba0dc","{""num_scrambled_semantic"":""8"",""num_scrambled_causal"":""4"",""num_scrambled_schematic"":""4"",""participantId"":""CD172C6EAA5B44979FAB299B0532079E"",""assignmentId"":""ee03306b-7110-4ba0-8fb5-3e0ed73b7ae2"",""projectId"":""051c06f1-75cc-4548-856d-4923ddaba0dc""}","https://test12345.live/?num_scrambled_semantic=8&num_scrambled_causal=4&num_scrambled_schematic=4&participantId=CD172C6EAA5B44979FAB299B0532079E&assignmentId=ee03306b-7110-4ba0-8fb5-3e0ed73b7ae2&projectId=051c06f1-75cc-4548-856d-4923ddaba0dc","CD172C6EAA5B44979FAB299B0532079E-2025-05-15-19-19-30","","954","","images/semantic_sequence/using_technology_semantic/using_technology_semantic_8.png","0","",""
"","","","","","image-button-response","65","345715","0.0-12.0-1.0-2.2","CD172C6EAA5B44979FAB299B0532079E","CD172C6EAA5B44979FAB299B0532079E","ee03306b-7110-4ba0-8fb5-3e0ed73b7ae2","051c06f1-75cc-4548-856d-4923ddaba0dc","{""num_scrambled_semantic"":""8"",""num_scrambled_causal"":""4"",""num_scrambled_schematic"":""4"",""participantId"":""CD172C6EAA5B44979FAB299B0532079E"",""assignmentId"":""ee03306b-7110-4ba0-8fb5-3e0ed73b7ae2"",""projectId"":""051c06f1-75cc-4548-856d-4923ddaba0dc""}","https://test12345.live/?num_scrambled_semantic=8&num_scrambled_causal=4&num_scrambled_schematic=4&participantId=CD172C6EAA5B44979FAB299B0532079E&assignmentId=ee03306b-7110-4ba0-8fb5-3e0ed73b7ae2&projectId=051c06f1-75cc-4548-856d-4923ddaba0dc","CD172C6EAA5B44979FAB299B0532079E-2025-05-15-19-19-30","","null","","[]","null","",""
"","","","","","image-button-response","66","350217","0.0-12.0-1.0-0.3","CD172C6EAA5B44979FAB299B0532079E","CD172C6EAA5B44979FAB299B0532079E","ee03306b-7110-4ba0-8fb5-3e0ed73b7ae2","051c06f1-75cc-4548-856d-4923ddaba0dc","{""num_scrambled_semantic"":""8"",""num_scrambled_causal"":""4"",""num_scrambled_schematic"":""4"",""participantId"":""CD172C6EAA5B44979FAB299B0532079E"",""assignmentId"":""ee03306b-7110-4ba0-8fb5-3e0ed73b7ae2"",""projectId"":""051c06f1-75cc-4548-856d-4923ddaba0dc""}","https://test12345.live/?num_scrambled_semantic=8&num_scrambled_causal=4&num_scrambled_schematic=4&participantId=CD172C6EAA5B44979FAB299B0532079E&assignmentId=ee03306b-7110-4ba0-8fb5-3e0ed73b7ae2&projectId=051c06f1-75cc-4548-856d-4923ddaba0dc","CD172C6EAA5B44979FAB299B0532079E-2025-05-15-19-19-30","","null","","images/semantic_sequence/using_technology_semantic/using_technology_semantic_6.png","null","",""
"","","","","","image-button-response","67","352139","0.0-12.0-1.0-1.3","CD172C6EAA5B44979FAB299B0532079E","CD172C6EAA5B44979FAB299B0532079E","ee03306b-7110-4ba0-8fb5-3e0ed73b7ae2","051c06f1-75cc-4548-856d-4923ddaba0dc","{""num_scrambled_semantic"":""8"",""num_scrambled_causal"":""4"",""num_scrambled_schematic"":""4"",""participantId"":""CD172C6EAA5B44979FAB299B0532079E"",""assignmentId"":""ee03306b-7110-4ba0-8fb5-3e0ed73b7ae2"",""projectId"":""051c06f1-75cc-4548-856d-4923ddaba0dc""}","https://test12345.live/?num_scrambled_semantic=8&num_scrambled_causal=4&num_scrambled_schematic=4&participantId=CD172C6EAA5B44979FAB299B0532079E&assignmentId=ee03306b-7110-4ba0-8fb5-3e0ed73b7ae2&projectId=051c06f1-75cc-4548-856d-4923ddaba0dc","CD172C6EAA5B44979FAB299B0532079E-2025-05-15-19-19-30","","1920","","images/semantic_sequence/using_technology_semantic/using_technology_semantic_6.png","0","",""
"","","","","","image-button-response","68","353940","0.0-12.0-1.0-2.3","CD172C6EAA5B44979FAB299B0532079E","CD172C6EAA5B44979FAB299B0532079E","ee03306b-7110-4ba0-8fb5-3e0ed73b7ae2","051c06f1-75cc-4548-856d-4923ddaba0dc","{""num_scrambled_semantic"":""8"",""num_scrambled_causal"":""4"",""num_scrambled_schematic"":""4"",""participantId"":""CD172C6EAA5B44979FAB299B0532079E"",""assignmentId"":""ee03306b-7110-4ba0-8fb5-3e0ed73b7ae2"",""projectId"":""051c06f1-75cc-4548-856d-4923ddaba0dc""}","https://test12345.live/?num_scrambled_semantic=8&num_scrambled_causal=4&num_scrambled_schematic=4&participantId=CD172C6EAA5B44979FAB299B0532079E&assignmentId=ee03306b-7110-4ba0-8fb5-3e0ed73b7ae2&projectId=051c06f1-75cc-4548-856d-4923ddaba0dc","CD172C6EAA5B44979FAB299B0532079E-2025-05-15-19-19-30","","null","","[]","null","",""
"","","","","","image-button-response","69","358442","0.0-12.0-1.0-0.4","CD172C6EAA5B44979FAB299B0532079E","CD172C6EAA5B44979FAB299B0532079E","ee03306b-7110-4ba0-8fb5-3e0ed73b7ae2","051c06f1-75cc-4548-856d-4923ddaba0dc","{""num_scrambled_semantic"":""8"",""num_scrambled_causal"":""4"",""num_scrambled_schematic"":""4"",""participantId"":""CD172C6EAA5B44979FAB299B0532079E"",""assignmentId"":""ee03306b-7110-4ba0-8fb5-3e0ed73b7ae2"",""projectId"":""051c06f1-75cc-4548-856d-4923ddaba0dc""}","https://test12345.live/?num_scrambled_semantic=8&num_scrambled_causal=4&num_scrambled_schematic=4&participantId=CD172C6EAA5B44979FAB299B0532079E&assignmentId=ee03306b-7110-4ba0-8fb5-3e0ed73b7ae2&projectId=051c06f1-75cc-4548-856d-4923ddaba0dc","CD172C6EAA5B44979FAB299B0532079E-2025-05-15-19-19-30","","null","","images/semantic_sequence/using_technology_semantic/using_technology_semantic_5.png","null","",""
"","","","","","image-button-response","70","359564","0.0-12.0-1.0-1.4","CD172C6EAA5B44979FAB299B0532079E","CD172C6EAA5B44979FAB299B0532079E","ee03306b-7110-4ba0-8fb5-3e0ed73b7ae2","051c06f1-75cc-4548-856d-4923ddaba0dc","{""num_scrambled_semantic"":""8"",""num_scrambled_causal"":""4"",""num_scrambled_schematic"":""4"",""participantId"":""CD172C6EAA5B44979FAB299B0532079E"",""assignmentId"":""ee03306b-7110-4ba0-8fb5-3e0ed73b7ae2"",""projectId"":""051c06f1-75cc-4548-856d-4923ddaba0dc""}","https://test12345.live/?num_scrambled_semantic=8&num_scrambled_causal=4&num_scrambled_schematic=4&participantId=CD172C6EAA5B44979FAB299B0532079E&assignmentId=ee03306b-7110-4ba0-8fb5-3e0ed73b7ae2&projectId=051c06f1-75cc-4548-856d-4923ddaba0dc","CD172C6EAA5B44979FAB299B0532079E-2025-05-15-19-19-30","","1120","","images/semantic_sequence/using_technology_semantic/using_technology_semantic_5.png","0","",""
"","","","","","image-button-response","71","361373","0.0-12.0-1.0-2.4","CD172C6EAA5B44979FAB299B0532079E","CD172C6EAA5B44979FAB299B0532079E","ee03306b-7110-4ba0-8fb5-3e0ed73b7ae2","051c06f1-75cc-4548-856d-4923ddaba0dc","{""num_scrambled_semantic"":""8"",""num_scrambled_causal"":""4"",""num_scrambled_schematic"":""4"",""participantId"":""CD172C6EAA5B44979FAB299B0532079E"",""assignmentId"":""ee03306b-7110-4ba0-8fb5-3e0ed73b7ae2"",""projectId"":""051c06f1-75cc-4548-856d-4923ddaba0dc""}","https://test12345.live/?num_scrambled_semantic=8&num_scrambled_causal=4&num_scrambled_schematic=4&participantId=CD172C6EAA5B44979FAB299B0532079E&assignmentId=ee03306b-7110-4ba0-8fb5-3e0ed73b7ae2&projectId=051c06f1-75cc-4548-856d-4923ddaba0dc","CD172C6EAA5B44979FAB299B0532079E-2025-05-15-19-19-30","","null","","[]","null","",""
"","","","","","image-button-response","72","365896","0.0-12.0-1.0-0.5","CD172C6EAA5B44979FAB299B0532079E","CD172C6EAA5B44979FAB299B0532079E","ee03306b-7110-4ba0-8fb5-3e0ed73b7ae2","051c06f1-75cc-4548-856d-4923ddaba0dc","{""num_scrambled_semantic"":""8"",""num_scrambled_causal"":""4"",""num_scrambled_schematic"":""4"",""participantId"":""CD172C6EAA5B44979FAB299B0532079E"",""assignmentId"":""ee03306b-7110-4ba0-8fb5-3e0ed73b7ae2"",""projectId"":""051c06f1-75cc-4548-856d-4923ddaba0dc""}","https://test12345.live/?num_scrambled_semantic=8&num_scrambled_causal=4&num_scrambled_schematic=4&participantId=CD172C6EAA5B44979FAB299B0532079E&assignmentId=ee03306b-7110-4ba0-8fb5-3e0ed73b7ae2&projectId=051c06f1-75cc-4548-856d-4923ddaba0dc","CD172C6EAA5B44979FAB299B0532079E-2025-05-15-19-19-30","","null","","images/semantic_sequence/using_technology_semantic/using_technology_semantic_4.png","null","",""
"","","","","","image-button-response","73","369906","0.0-12.0-1.0-1.5","CD172C6EAA5B44979FAB299B0532079E","CD172C6EAA5B44979FAB299B0532079E","ee03306b-7110-4ba0-8fb5-3e0ed73b7ae2","051c06f1-75cc-4548-856d-4923ddaba0dc","{""num_scrambled_semantic"":""8"",""num_scrambled_causal"":""4"",""num_scrambled_schematic"":""4"",""participantId"":""CD172C6EAA5B44979FAB299B0532079E"",""assignmentId"":""ee03306b-7110-4ba0-8fb5-3e0ed73b7ae2"",""projectId"":""051c06f1-75cc-4548-856d-4923ddaba0dc""}","https://test12345.live/?num_scrambled_semantic=8&num_scrambled_causal=4&num_scrambled_schematic=4&participantId=CD172C6EAA5B44979FAB299B0532079E&assignmentId=ee03306b-7110-4ba0-8fb5-3e0ed73b7ae2&projectId=051c06f1-75cc-4548-856d-4923ddaba0dc","CD172C6EAA5B44979FAB299B0532079E-2025-05-15-19-19-30","","null","","images/semantic_sequence/using_technology_semantic/using_technology_semantic_4.png","null","",""
"","","","","","image-button-response","74","371714","0.0-12.0-1.0-2.5","CD172C6EAA5B44979FAB299B0532079E","CD172C6EAA5B44979FAB299B0532079E","ee03306b-7110-4ba0-8fb5-3e0ed73b7ae2","051c06f1-75cc-4548-856d-4923ddaba0dc","{""num_scrambled_semantic"":""8"",""num_scrambled_causal"":""4"",""num_scrambled_schematic"":""4"",""participantId"":""CD172C6EAA5B44979FAB299B0532079E"",""assignmentId"":""ee03306b-7110-4ba0-8fb5-3e0ed73b7ae2"",""projectId"":""051c06f1-75cc-4548-856d-4923ddaba0dc""}","https://test12345.live/?num_scrambled_semantic=8&num_scrambled_causal=4&num_scrambled_schematic=4&participantId=CD172C6EAA5B44979FAB299B0532079E&assignmentId=ee03306b-7110-4ba0-8fb5-3e0ed73b7ae2&projectId=051c06f1-75cc-4548-856d-4923ddaba0dc","CD172C6EAA5B44979FAB299B0532079E-2025-05-15-19-19-30","","null","","[]","null","",""
"","","","","","image-button-response","75","376216","0.0-12.0-1.0-0.6","CD172C6EAA5B44979FAB299B0532079E","CD172C6EAA5B44979FAB299B0532079E","ee03306b-7110-4ba0-8fb5-3e0ed73b7ae2","051c06f1-75cc-4548-856d-4923ddaba0dc","{""num_scrambled_semantic"":""8"",""num_scrambled_causal"":""4"",""num_scrambled_schematic"":""4"",""participantId"":""CD172C6EAA5B44979FAB299B0532079E"",""assignmentId"":""ee03306b-7110-4ba0-8fb5-3e0ed73b7ae2"",""projectId"":""051c06f1-75cc-4548-856d-4923ddaba0dc""}","https://test12345.live/?num_scrambled_semantic=8&num_scrambled_causal=4&num_scrambled_schematic=4&participantId=CD172C6EAA5B44979FAB299B0532079E&assignmentId=ee03306b-7110-4ba0-8fb5-3e0ed73b7ae2&projectId=051c06f1-75cc-4548-856d-4923ddaba0dc","CD172C6EAA5B44979FAB299B0532079E-2025-05-15-19-19-30","","null","","images/semantic_sequence/using_technology_semantic/using_technology_semantic_9.png","null","",""
"","","","","","image-button-response","76","377647","0.0-12.0-1.0-1.6","CD172C6EAA5B44979FAB299B0532079E","CD172C6EAA5B44979FAB299B0532079E","ee03306b-7110-4ba0-8fb5-3e0ed73b7ae2","051c06f1-75cc-4548-856d-4923ddaba0dc","{""num_scrambled_semantic"":""8"",""num_scrambled_causal"":""4"",""num_scrambled_schematic"":""4"",""participantId"":""CD172C6EAA5B44979FAB299B0532079E"",""assignmentId"":""ee03306b-7110-4ba0-8fb5-3e0ed73b7ae2"",""projectId"":""051c06f1-75cc-4548-856d-4923ddaba0dc""}","https://test12345.live/?num_scrambled_semantic=8&num_scrambled_causal=4&num_scrambled_schematic=4&participantId=CD172C6EAA5B44979FAB299B0532079E&assignmentId=ee03306b-7110-4ba0-8fb5-3e0ed73b7ae2&projectId=051c06f1-75cc-4548-856d-4923ddaba0dc","CD172C6EAA5B44979FAB299B0532079E-2025-05-15-19-19-30","","1429","","images/semantic_sequence/using_technology_semantic/using_technology_semantic_9.png","0","",""
"","","","","","image-button-response","77","379456","0.0-12.0-1.0-2.6","CD172C6EAA5B44979FAB299B0532079E","CD172C6EAA5B44979FAB299B0532079E","ee03306b-7110-4ba0-8fb5-3e0ed73b7ae2","051c06f1-75cc-4548-856d-4923ddaba0dc","{""num_scrambled_semantic"":""8"",""num_scrambled_causal"":""4"",""num_scrambled_schematic"":""4"",""participantId"":""CD172C6EAA5B44979FAB299B0532079E"",""assignmentId"":""ee03306b-7110-4ba0-8fb5-3e0ed73b7ae2"",""projectId"":""051c06f1-75cc-4548-856d-4923ddaba0dc""}","https://test12345.live/?num_scrambled_semantic=8&num_scrambled_causal=4&num_scrambled_schematic=4&participantId=CD172C6EAA5B44979FAB299B0532079E&assignmentId=ee03306b-7110-4ba0-8fb5-3e0ed73b7ae2&projectId=051c06f1-75cc-4548-856d-4923ddaba0dc","CD172C6EAA5B44979FAB299B0532079E-2025-05-15-19-19-30","","null","","[]","null","",""
"","","","","","image-button-response","78","383971","0.0-12.0-1.0-0.7","CD172C6EAA5B44979FAB299B0532079E","CD172C6EAA5B44979FAB299B0532079E","ee03306b-7110-4ba0-8fb5-3e0ed73b7ae2","051c06f1-75cc-4548-856d-4923ddaba0dc","{""num_scrambled_semantic"":""8"",""num_scrambled_causal"":""4"",""num_scrambled_schematic"":""4"",""participantId"":""CD172C6EAA5B44979FAB299B0532079E"",""assignmentId"":""ee03306b-7110-4ba0-8fb5-3e0ed73b7ae2"",""projectId"":""051c06f1-75cc-4548-856d-4923ddaba0dc""}","https://test12345.live/?num_scrambled_semantic=8&num_scrambled_causal=4&num_scrambled_schematic=4&participantId=CD172C6EAA5B44979FAB299B0532079E&assignmentId=ee03306b-7110-4ba0-8fb5-3e0ed73b7ae2&projectId=051c06f1-75cc-4548-856d-4923ddaba0dc","CD172C6EAA5B44979FAB299B0532079E-2025-05-15-19-19-30","","null","","images/semantic_sequence/using_technology_semantic/using_technology_semantic_1.png","null","",""
"","","","","","image-button-response","79","384974","0.0-12.0-1.0-1.7","CD172C6EAA5B44979FAB299B0532079E","CD172C6EAA5B44979FAB299B0532079E","ee03306b-7110-4ba0-8fb5-3e0ed73b7ae2","051c06f1-75cc-4548-856d-4923ddaba0dc","{""num_scrambled_semantic"":""8"",""num_scrambled_causal"":""4"",""num_scrambled_schematic"":""4"",""participantId"":""CD172C6EAA5B44979FAB299B0532079E"",""assignmentId"":""ee03306b-7110-4ba0-8fb5-3e0ed73b7ae2"",""projectId"":""051c06f1-75cc-4548-856d-4923ddaba0dc""}","https://test12345.live/?num_scrambled_semantic=8&num_scrambled_causal=4&num_scrambled_schematic=4&participantId=CD172C6EAA5B44979FAB299B0532079E&assignmentId=ee03306b-7110-4ba0-8fb5-3e0ed73b7ae2&projectId=051c06f1-75cc-4548-856d-4923ddaba0dc","CD172C6EAA5B44979FAB299B0532079E-2025-05-15-19-19-30","","1001","","images/semantic_sequence/using_technology_semantic/using_technology_semantic_1.png","0","",""
"","","","","","image-button-response","80","386786","0.0-12.0-1.0-2.7","CD172C6EAA5B44979FAB299B0532079E","CD172C6EAA5B44979FAB299B0532079E","ee03306b-7110-4ba0-8fb5-3e0ed73b7ae2","051c06f1-75cc-4548-856d-4923ddaba0dc","{""num_scrambled_semantic"":""8"",""num_scrambled_causal"":""4"",""num_scrambled_schematic"":""4"",""participantId"":""CD172C6EAA5B44979FAB299B0532079E"",""assignmentId"":""ee03306b-7110-4ba0-8fb5-3e0ed73b7ae2"",""projectId"":""051c06f1-75cc-4548-856d-4923ddaba0dc""}","https://test12345.live/?num_scrambled_semantic=8&num_scrambled_causal=4&num_scrambled_schematic=4&participantId=CD172C6EAA5B44979FAB299B0532079E&assignmentId=ee03306b-7110-4ba0-8fb5-3e0ed73b7ae2&projectId=051c06f1-75cc-4548-856d-4923ddaba0dc","CD172C6EAA5B44979FAB299B0532079E-2025-05-15-19-19-30","","null","","[]","null","",""
"","","","","","image-button-response","81","391306","0.0-12.0-1.0-0.8","CD172C6EAA5B44979FAB299B0532079E","CD172C6EAA5B44979FAB299B0532079E","ee03306b-7110-4ba0-8fb5-3e0ed73b7ae2","051c06f1-75cc-4548-856d-4923ddaba0dc","{""num_scrambled_semantic"":""8"",""num_scrambled_causal"":""4"",""num_scrambled_schematic"":""4"",""participantId"":""CD172C6EAA5B44979FAB299B0532079E"",""assignmentId"":""ee03306b-7110-4ba0-8fb5-3e0ed73b7ae2"",""projectId"":""051c06f1-75cc-4548-856d-4923ddaba0dc""}","https://test12345.live/?num_scrambled_semantic=8&num_scrambled_causal=4&num_scrambled_schematic=4&participantId=CD172C6EAA5B44979FAB299B0532079E&assignmentId=ee03306b-7110-4ba0-8fb5-3e0ed73b7ae2&projectId=051c06f1-75cc-4548-856d-4923ddaba0dc","CD172C6EAA5B44979FAB299B0532079E-2025-05-15-19-19-30","","null","","images/semantic_sequence/using_technology_semantic/using_technology_semantic_3.png","null","",""
"","","","","","image-button-response","82","392534","0.0-12.0-1.0-1.8","CD172C6EAA5B44979FAB299B0532079E","CD172C6EAA5B44979FAB299B0532079E","ee03306b-7110-4ba0-8fb5-3e0ed73b7ae2","051c06f1-75cc-4548-856d-4923ddaba0dc","{""num_scrambled_semantic"":""8"",""num_scrambled_causal"":""4"",""num_scrambled_schematic"":""4"",""participantId"":""CD172C6EAA5B44979FAB299B0532079E"",""assignmentId"":""ee03306b-7110-4ba0-8fb5-3e0ed73b7ae2"",""projectId"":""051c06f1-75cc-4548-856d-4923ddaba0dc""}","https://test12345.live/?num_scrambled_semantic=8&num_scrambled_causal=4&num_scrambled_schematic=4&participantId=CD172C6EAA5B44979FAB299B0532079E&assignmentId=ee03306b-7110-4ba0-8fb5-3e0ed73b7ae2&projectId=051c06f1-75cc-4548-856d-4923ddaba0dc","CD172C6EAA5B44979FAB299B0532079E-2025-05-15-19-19-30","","1227","","images/semantic_sequence/using_technology_semantic/using_technology_semantic_3.png","0","",""
"","","","","","image-button-response","83","394346","0.0-12.0-1.0-2.8","CD172C6EAA5B44979FAB299B0532079E","CD172C6EAA5B44979FAB299B0532079E","ee03306b-7110-4ba0-8fb5-3e0ed73b7ae2","051c06f1-75cc-4548-856d-4923ddaba0dc","{""num_scrambled_semantic"":""8"",""num_scrambled_causal"":""4"",""num_scrambled_schematic"":""4"",""participantId"":""CD172C6EAA5B44979FAB299B0532079E"",""assignmentId"":""ee03306b-7110-4ba0-8fb5-3e0ed73b7ae2"",""projectId"":""051c06f1-75cc-4548-856d-4923ddaba0dc""}","https://test12345.live/?num_scrambled_semantic=8&num_scrambled_causal=4&num_scrambled_schematic=4&participantId=CD172C6EAA5B44979FAB299B0532079E&assignmentId=ee03306b-7110-4ba0-8fb5-3e0ed73b7ae2&projectId=051c06f1-75cc-4548-856d-4923ddaba0dc","CD172C6EAA5B44979FAB299B0532079E-2025-05-15-19-19-30","","null","","[]","null","",""
"","","","","","image-button-response","84","398851","0.0-12.0-1.0-0.9","CD172C6EAA5B44979FAB299B0532079E","CD172C6EAA5B44979FAB299B0532079E","ee03306b-7110-4ba0-8fb5-3e0ed73b7ae2","051c06f1-75cc-4548-856d-4923ddaba0dc","{""num_scrambled_semantic"":""8"",""num_scrambled_causal"":""4"",""num_scrambled_schematic"":""4"",""participantId"":""CD172C6EAA5B44979FAB299B0532079E"",""assignmentId"":""ee03306b-7110-4ba0-8fb5-3e0ed73b7ae2"",""projectId"":""051c06f1-75cc-4548-856d-4923ddaba0dc""}","https://test12345.live/?num_scrambled_semantic=8&num_scrambled_causal=4&num_scrambled_schematic=4&participantId=CD172C6EAA5B44979FAB299B0532079E&assignmentId=ee03306b-7110-4ba0-8fb5-3e0ed73b7ae2&projectId=051c06f1-75cc-4548-856d-4923ddaba0dc","CD172C6EAA5B44979FAB299B0532079E-2025-05-15-19-19-30","","null","","images/semantic_sequence/using_technology_semantic/using_technology_semantic_7.png","null","",""
"","","","","","image-button-response","85","399749","0.0-12.0-1.0-1.9","CD172C6EAA5B44979FAB299B0532079E","CD172C6EAA5B44979FAB299B0532079E","ee03306b-7110-4ba0-8fb5-3e0ed73b7ae2","051c06f1-75cc-4548-856d-4923ddaba0dc","{""num_scrambled_semantic"":""8"",""num_scrambled_causal"":""4"",""num_scrambled_schematic"":""4"",""participantId"":""CD172C6EAA5B44979FAB299B0532079E"",""assignmentId"":""ee03306b-7110-4ba0-8fb5-3e0ed73b7ae2"",""projectId"":""051c06f1-75cc-4548-856d-4923ddaba0dc""}","https://test12345.live/?num_scrambled_semantic=8&num_scrambled_causal=4&num_scrambled_schematic=4&participantId=CD172C6EAA5B44979FAB299B0532079E&assignmentId=ee03306b-7110-4ba0-8fb5-3e0ed73b7ae2&projectId=051c06f1-75cc-4548-856d-4923ddaba0dc","CD172C6EAA5B44979FAB299B0532079E-2025-05-15-19-19-30","","897","","images/semantic_sequence/using_technology_semantic/using_technology_semantic_7.png","0","",""
"","","","","","image-button-response","86","401550","0.0-12.0-1.0-2.9","CD172C6EAA5B44979FAB299B0532079E","CD172C6EAA5B44979FAB299B0532079E","ee03306b-7110-4ba0-8fb5-3e0ed73b7ae2","051c06f1-75cc-4548-856d-4923ddaba0dc","{""num_scrambled_semantic"":""8"",""num_scrambled_causal"":""4"",""num_scrambled_schematic"":""4"",""participantId"":""CD172C6EAA5B44979FAB299B0532079E"",""assignmentId"":""ee03306b-7110-4ba0-8fb5-3e0ed73b7ae2"",""projectId"":""051c06f1-75cc-4548-856d-4923ddaba0dc""}","https://test12345.live/?num_scrambled_semantic=8&num_scrambled_causal=4&num_scrambled_schematic=4&participantId=CD172C6EAA5B44979FAB299B0532079E&assignmentId=ee03306b-7110-4ba0-8fb5-3e0ed73b7ae2&projectId=051c06f1-75cc-4548-856d-4923ddaba0dc","CD172C6EAA5B44979FAB299B0532079E-2025-05-15-19-19-30","","null","","[]","null","",""
"","","","","","html-audio-response","87","524147","0.0-13.0","CD172C6EAA5B44979FAB299B0532079E","CD172C6EAA5B44979FAB299B0532079E","ee03306b-7110-4ba0-8fb5-3e0ed73b7ae2","051c06f1-75cc-4548-856d-4923ddaba0dc","{""num_scrambled_semantic"":""8"",""num_scrambled_causal"":""4"",""num_scrambled_schematic"":""4"",""participantId"":""CD172C6EAA5B44979FAB299B0532079E"",""assignmentId"":""ee03306b-7110-4ba0-8fb5-3e0ed73b7ae2"",""projectId"":""051c06f1-75cc-4548-856d-4923ddaba0dc""}","https://test12345.live/?num_scrambled_semantic=8&num_scrambled_causal=4&num_scrambled_schematic=4&participantId=CD172C6EAA5B44979FAB299B0532079E&assignmentId=ee03306b-7110-4ba0-8fb5-3e0ed73b7ae2&projectId=051c06f1-75cc-4548-856d-4923ddaba0dc","CD172C6EAA5B44979FAB299B0532079E-2025-05-15-19-19-30","","4116","","[""<span style=\""color: red; font-size: 24px\""> NOW RECORDING</span><p>Please say out loud all the images you saw, as many as you can remember. The images can be said in any order.</p>""]","","11","using_technology_semantic"
"","","","","","image-button-response","88","530156","0.0-14.0-0.0","CD172C6EAA5B44979FAB299B0532079E","CD172C6EAA5B44979FAB299B0532079E","ee03306b-7110-4ba0-8fb5-3e0ed73b7ae2","051c06f1-75cc-4548-856d-4923ddaba0dc","{""num_scrambled_semantic"":""8"",""num_scrambled_causal"":""4"",""num_scrambled_schematic"":""4"",""participantId"":""CD172C6EAA5B44979FAB299B0532079E"",""assignmentId"":""ee03306b-7110-4ba0-8fb5-3e0ed73b7ae2"",""projectId"":""051c06f1-75cc-4548-856d-4923ddaba0dc""}","https://test12345.live/?num_scrambled_semantic=8&num_scrambled_causal=4&num_scrambled_schematic=4&participantId=CD172C6EAA5B44979FAB299B0532079E&assignmentId=ee03306b-7110-4ba0-8fb5-3e0ed73b7ae2&projectId=051c06f1-75cc-4548-856d-4923ddaba0dc","CD172C6EAA5B44979FAB299B0532079E-2025-05-15-19-19-30","","null","","images/schematic_sequence/dinner_party_scheme/dinner_party_scheme_0.png","null","",""
"","","","","","image-button-response","89","534676","0.0-14.0-1.0-0.0","CD172C6EAA5B44979FAB299B0532079E","CD172C6EAA5B44979FAB299B0532079E","ee03306b-7110-4ba0-8fb5-3e0ed73b7ae2","051c06f1-75cc-4548-856d-4923ddaba0dc","{""num_scrambled_semantic"":""8"",""num_scrambled_causal"":""4"",""num_scrambled_schematic"":""4"",""participantId"":""CD172C6EAA5B44979FAB299B0532079E"",""assignmentId"":""ee03306b-7110-4ba0-8fb5-3e0ed73b7ae2"",""projectId"":""051c06f1-75cc-4548-856d-4923ddaba0dc""}","https://test12345.live/?num_scrambled_semantic=8&num_scrambled_causal=4&num_scrambled_schematic=4&participantId=CD172C6EAA5B44979FAB299B0532079E&assignmentId=ee03306b-7110-4ba0-8fb5-3e0ed73b7ae2&projectId=051c06f1-75cc-4548-856d-4923ddaba0dc","CD172C6EAA5B44979FAB299B0532079E-2025-05-15-19-19-30","","null","","images/schematic_sequence/dinner_party_scheme/dinner_party_scheme_1.png","null","",""
"","","","","","image-button-response","90","538696","0.0-14.0-1.0-1.0","CD172C6EAA5B44979FAB299B0532079E","CD172C6EAA5B44979FAB299B0532079E","ee03306b-7110-4ba0-8fb5-3e0ed73b7ae2","051c06f1-75cc-4548-856d-4923ddaba0dc","{""num_scrambled_semantic"":""8"",""num_scrambled_causal"":""4"",""num_scrambled_schematic"":""4"",""participantId"":""CD172C6EAA5B44979FAB299B0532079E"",""assignmentId"":""ee03306b-7110-4ba0-8fb5-3e0ed73b7ae2"",""projectId"":""051c06f1-75cc-4548-856d-4923ddaba0dc""}","https://test12345.live/?num_scrambled_semantic=8&num_scrambled_causal=4&num_scrambled_schematic=4&participantId=CD172C6EAA5B44979FAB299B0532079E&assignmentId=ee03306b-7110-4ba0-8fb5-3e0ed73b7ae2&projectId=051c06f1-75cc-4548-856d-4923ddaba0dc","CD172C6EAA5B44979FAB299B0532079E-2025-05-15-19-19-30","","null","","images/schematic_sequence/dinner_party_scheme/dinner_party_scheme_1.png","null","",""
"","","","","","image-button-response","91","540516","0.0-14.0-1.0-2.0","CD172C6EAA5B44979FAB299B0532079E","CD172C6EAA5B44979FAB299B0532079E","ee03306b-7110-4ba0-8fb5-3e0ed73b7ae2","051c06f1-75cc-4548-856d-4923ddaba0dc","{""num_scrambled_semantic"":""8"",""num_scrambled_causal"":""4"",""num_scrambled_schematic"":""4"",""participantId"":""CD172C6EAA5B44979FAB299B0532079E"",""assignmentId"":""ee03306b-7110-4ba0-8fb5-3e0ed73b7ae2"",""projectId"":""051c06f1-75cc-4548-856d-4923ddaba0dc""}","https://test12345.live/?num_scrambled_semantic=8&num_scrambled_causal=4&num_scrambled_schematic=4&participantId=CD172C6EAA5B44979FAB299B0532079E&assignmentId=ee03306b-7110-4ba0-8fb5-3e0ed73b7ae2&projectId=051c06f1-75cc-4548-856d-4923ddaba0dc","CD172C6EAA5B44979FAB299B0532079E-2025-05-15-19-19-30","","null","","[]","null","",""
"","","","","","image-button-response","92","545020","0.0-14.0-1.0-0.1","CD172C6EAA5B44979FAB299B0532079E","CD172C6EAA5B44979FAB299B0532079E","ee03306b-7110-4ba0-8fb5-3e0ed73b7ae2","051c06f1-75cc-4548-856d-4923ddaba0dc","{""num_scrambled_semantic"":""8"",""num_scrambled_causal"":""4"",""num_scrambled_schematic"":""4"",""participantId"":""CD172C6EAA5B44979FAB299B0532079E"",""assignmentId"":""ee03306b-7110-4ba0-8fb5-3e0ed73b7ae2"",""projectId"":""051c06f1-75cc-4548-856d-4923ddaba0dc""}","https://test12345.live/?num_scrambled_semantic=8&num_scrambled_causal=4&num_scrambled_schematic=4&participantId=CD172C6EAA5B44979FAB299B0532079E&assignmentId=ee03306b-7110-4ba0-8fb5-3e0ed73b7ae2&projectId=051c06f1-75cc-4548-856d-4923ddaba0dc","CD172C6EAA5B44979FAB299B0532079E-2025-05-15-19-19-30","","null","","images/schematic_sequence/dinner_party_scheme/dinner_party_scheme_2.png","null","",""
"","","","","","image-button-response","93","546122","0.0-14.0-1.0-1.1","CD172C6EAA5B44979FAB299B0532079E","CD172C6EAA5B44979FAB299B0532079E","ee03306b-7110-4ba0-8fb5-3e0ed73b7ae2","051c06f1-75cc-4548-856d-4923ddaba0dc","{""num_scrambled_semantic"":""8"",""num_scrambled_causal"":""4"",""num_scrambled_schematic"":""4"",""participantId"":""CD172C6EAA5B44979FAB299B0532079E"",""assignmentId"":""ee03306b-7110-4ba0-8fb5-3e0ed73b7ae2"",""projectId"":""051c06f1-75cc-4548-856d-4923ddaba0dc""}","https://test12345.live/?num_scrambled_semantic=8&num_scrambled_causal=4&num_scrambled_schematic=4&participantId=CD172C6EAA5B44979FAB299B0532079E&assignmentId=ee03306b-7110-4ba0-8fb5-3e0ed73b7ae2&projectId=051c06f1-75cc-4548-856d-4923ddaba0dc","CD172C6EAA5B44979FAB299B0532079E-2025-05-15-19-19-30","","1101","","images/schematic_sequence/dinner_party_scheme/dinner_party_scheme_2.png","0","",""
"","","","","","image-button-response","94","547936","0.0-14.0-1.0-2.1","CD172C6EAA5B44979FAB299B0532079E","CD172C6EAA5B44979FAB299B0532079E","ee03306b-7110-4ba0-8fb5-3e0ed73b7ae2","051c06f1-75cc-4548-856d-4923ddaba0dc","{""num_scrambled_semantic"":""8"",""num_scrambled_causal"":""4"",""num_scrambled_schematic"":""4"",""participantId"":""CD172C6EAA5B44979FAB299B0532079E"",""assignmentId"":""ee03306b-7110-4ba0-8fb5-3e0ed73b7ae2"",""projectId"":""051c06f1-75cc-4548-856d-4923ddaba0dc""}","https://test12345.live/?num_scrambled_semantic=8&num_scrambled_causal=4&num_scrambled_schematic=4&participantId=CD172C6EAA5B44979FAB299B0532079E&assignmentId=ee03306b-7110-4ba0-8fb5-3e0ed73b7ae2&projectId=051c06f1-75cc-4548-856d-4923ddaba0dc","CD172C6EAA5B44979FAB299B0532079E-2025-05-15-19-19-30","","null","","[]","null","",""
"","","","","","image-button-response","95","552456","0.0-14.0-1.0-0.2","CD172C6EAA5B44979FAB299B0532079E","CD172C6EAA5B44979FAB299B0532079E","ee03306b-7110-4ba0-8fb5-3e0ed73b7ae2","051c06f1-75cc-4548-856d-4923ddaba0dc","{""num_scrambled_semantic"":""8"",""num_scrambled_causal"":""4"",""num_scrambled_schematic"":""4"",""participantId"":""CD172C6EAA5B44979FAB299B0532079E"",""assignmentId"":""ee03306b-7110-4ba0-8fb5-3e0ed73b7ae2"",""projectId"":""051c06f1-75cc-4548-856d-4923ddaba0dc""}","https://test12345.live/?num_scrambled_semantic=8&num_scrambled_causal=4&num_scrambled_schematic=4&participantId=CD172C6EAA5B44979FAB299B0532079E&assignmentId=ee03306b-7110-4ba0-8fb5-3e0ed73b7ae2&projectId=051c06f1-75cc-4548-856d-4923ddaba0dc","CD172C6EAA5B44979FAB299B0532079E-2025-05-15-19-19-30","","null","","images/schematic_sequence/dinner_party_scheme/dinner_party_scheme_3.png","null","",""
"","","","","","image-button-response","96","554088","0.0-14.0-1.0-1.2","CD172C6EAA5B44979FAB299B0532079E","CD172C6EAA5B44979FAB299B0532079E","ee03306b-7110-4ba0-8fb5-3e0ed73b7ae2","051c06f1-75cc-4548-856d-4923ddaba0dc","{""num_scrambled_semantic"":""8"",""num_scrambled_causal"":""4"",""num_scrambled_schematic"":""4"",""participantId"":""CD172C6EAA5B44979FAB299B0532079E"",""assignmentId"":""ee03306b-7110-4ba0-8fb5-3e0ed73b7ae2"",""projectId"":""051c06f1-75cc-4548-856d-4923ddaba0dc""}","https://test12345.live/?num_scrambled_semantic=8&num_scrambled_causal=4&num_scrambled_schematic=4&participantId=CD172C6EAA5B44979FAB299B0532079E&assignmentId=ee03306b-7110-4ba0-8fb5-3e0ed73b7ae2&projectId=051c06f1-75cc-4548-856d-4923ddaba0dc","CD172C6EAA5B44979FAB299B0532079E-2025-05-15-19-19-30","","1630","","images/schematic_sequence/dinner_party_scheme/dinner_party_scheme_3.png","0","",""
"","","","","","image-button-response","97","555889","0.0-14.0-1.0-2.2","CD172C6EAA5B44979FAB299B0532079E","CD172C6EAA5B44979FAB299B0532079E","ee03306b-7110-4ba0-8fb5-3e0ed73b7ae2","051c06f1-75cc-4548-856d-4923ddaba0dc","{""num_scrambled_semantic"":""8"",""num_scrambled_causal"":""4"",""num_scrambled_schematic"":""4"",""participantId"":""CD172C6EAA5B44979FAB299B0532079E"",""assignmentId"":""ee03306b-7110-4ba0-8fb5-3e0ed73b7ae2"",""projectId"":""051c06f1-75cc-4548-856d-4923ddaba0dc""}","https://test12345.live/?num_scrambled_semantic=8&num_scrambled_causal=4&num_scrambled_schematic=4&participantId=CD172C6EAA5B44979FAB299B0532079E&assignmentId=ee03306b-7110-4ba0-8fb5-3e0ed73b7ae2&projectId=051c06f1-75cc-4548-856d-4923ddaba0dc","CD172C6EAA5B44979FAB299B0532079E-2025-05-15-19-19-30","","null","","[]","null","",""
"","","","","","image-button-response","98","560396","0.0-14.0-1.0-0.3","CD172C6EAA5B44979FAB299B0532079E","CD172C6EAA5B44979FAB299B0532079E","ee03306b-7110-4ba0-8fb5-3e0ed73b7ae2","051c06f1-75cc-4548-856d-4923ddaba0dc","{""num_scrambled_semantic"":""8"",""num_scrambled_causal"":""4"",""num_scrambled_schematic"":""4"",""participantId"":""CD172C6EAA5B44979FAB299B0532079E"",""assignmentId"":""ee03306b-7110-4ba0-8fb5-3e0ed73b7ae2"",""projectId"":""051c06f1-75cc-4548-856d-4923ddaba0dc""}","https://test12345.live/?num_scrambled_semantic=8&num_scrambled_causal=4&num_scrambled_schematic=4&participantId=CD172C6EAA5B44979FAB299B0532079E&assignmentId=ee03306b-7110-4ba0-8fb5-3e0ed73b7ae2&projectId=051c06f1-75cc-4548-856d-4923ddaba0dc","CD172C6EAA5B44979FAB299B0532079E-2025-05-15-19-19-30","","null","","images/schematic_sequence/dinner_party_scheme/dinner_party_scheme_4.png","null","",""
"","","","","","image-button-response","99","561910","0.0-14.0-1.0-1.3","CD172C6EAA5B44979FAB299B0532079E","CD172C6EAA5B44979FAB299B0532079E","ee03306b-7110-4ba0-8fb5-3e0ed73b7ae2","051c06f1-75cc-4548-856d-4923ddaba0dc","{""num_scrambled_semantic"":""8"",""num_scrambled_causal"":""4"",""num_scrambled_schematic"":""4"",""participantId"":""CD172C6EAA5B44979FAB299B0532079E"",""assignmentId"":""ee03306b-7110-4ba0-8fb5-3e0ed73b7ae2"",""projectId"":""051c06f1-75cc-4548-856d-4923ddaba0dc""}","https://test12345.live/?num_scrambled_semantic=8&num_scrambled_causal=4&num_scrambled_schematic=4&participantId=CD172C6EAA5B44979FAB299B0532079E&assignmentId=ee03306b-7110-4ba0-8fb5-3e0ed73b7ae2&projectId=051c06f1-75cc-4548-856d-4923ddaba0dc","CD172C6EAA5B44979FAB299B0532079E-2025-05-15-19-19-30","","1513","","images/schematic_sequence/dinner_party_scheme/dinner_party_scheme_4.png","0","",""
"","","","","","image-button-response","100","563715","0.0-14.0-1.0-2.3","CD172C6EAA5B44979FAB299B0532079E","CD172C6EAA5B44979FAB299B0532079E","ee03306b-7110-4ba0-8fb5-3e0ed73b7ae2","051c06f1-75cc-4548-856d-4923ddaba0dc","{""num_scrambled_semantic"":""8"",""num_scrambled_causal"":""4"",""num_scrambled_schematic"":""4"",""participantId"":""CD172C6EAA5B44979FAB299B0532079E"",""assignmentId"":""ee03306b-7110-4ba0-8fb5-3e0ed73b7ae2"",""projectId"":""051c06f1-75cc-4548-856d-4923ddaba0dc""}","https://test12345.live/?num_scrambled_semantic=8&num_scrambled_causal=4&num_scrambled_schematic=4&participantId=CD172C6EAA5B44979FAB299B0532079E&assignmentId=ee03306b-7110-4ba0-8fb5-3e0ed73b7ae2&projectId=051c06f1-75cc-4548-856d-4923ddaba0dc","CD172C6EAA5B44979FAB299B0532079E-2025-05-15-19-19-30","","null","","[]","null","",""
"","","","","","image-button-response","101","568236","0.0-14.0-1.0-0.4","CD172C6EAA5B44979FAB299B0532079E","CD172C6EAA5B44979FAB299B0532079E","ee03306b-7110-4ba0-8fb5-3e0ed73b7ae2","051c06f1-75cc-4548-856d-4923ddaba0dc","{""num_scrambled_semantic"":""8"",""num_scrambled_causal"":""4"",""num_scrambled_schematic"":""4"",""participantId"":""CD172C6EAA5B44979FAB299B0532079E"",""assignmentId"":""ee03306b-7110-4ba0-8fb5-3e0ed73b7ae2"",""projectId"":""051c06f1-75cc-4548-856d-4923ddaba0dc""}","https://test12345.live/?num_scrambled_semantic=8&num_scrambled_causal=4&num_scrambled_schematic=4&participantId=CD172C6EAA5B44979FAB299B0532079E&assignmentId=ee03306b-7110-4ba0-8fb5-3e0ed73b7ae2&projectId=051c06f1-75cc-4548-856d-4923ddaba0dc","CD172C6EAA5B44979FAB299B0532079E-2025-05-15-19-19-30","","null","","images/schematic_sequence/dinner_party_scheme/dinner_party_scheme_5.png","null","",""
"","","","","","image-button-response","102","569343","0.0-14.0-1.0-1.4","CD172C6EAA5B44979FAB299B0532079E","CD172C6EAA5B44979FAB299B0532079E","ee03306b-7110-4ba0-8fb5-3e0ed73b7ae2","051c06f1-75cc-4548-856d-4923ddaba0dc","{""num_scrambled_semantic"":""8"",""num_scrambled_causal"":""4"",""num_scrambled_schematic"":""4"",""participantId"":""CD172C6EAA5B44979FAB299B0532079E"",""assignmentId"":""ee03306b-7110-4ba0-8fb5-3e0ed73b7ae2"",""projectId"":""051c06f1-75cc-4548-856d-4923ddaba0dc""}","https://test12345.live/?num_scrambled_semantic=8&num_scrambled_causal=4&num_scrambled_schematic=4&participantId=CD172C6EAA5B44979FAB299B0532079E&assignmentId=ee03306b-7110-4ba0-8fb5-3e0ed73b7ae2&projectId=051c06f1-75cc-4548-856d-4923ddaba0dc","CD172C6EAA5B44979FAB299B0532079E-2025-05-15-19-19-30","","1105","","images/schematic_sequence/dinner_party_scheme/dinner_party_scheme_5.png","0","",""
"","","","","","image-button-response","103","571146","0.0-14.0-1.0-2.4","CD172C6EAA5B44979FAB299B0532079E","CD172C6EAA5B44979FAB299B0532079E","ee03306b-7110-4ba0-8fb5-3e0ed73b7ae2","051c06f1-75cc-4548-856d-4923ddaba0dc","{""num_scrambled_semantic"":""8"",""num_scrambled_causal"":""4"",""num_scrambled_schematic"":""4"",""participantId"":""CD172C6EAA5B44979FAB299B0532079E"",""assignmentId"":""ee03306b-7110-4ba0-8fb5-3e0ed73b7ae2"",""projectId"":""051c06f1-75cc-4548-856d-4923ddaba0dc""}","https://test12345.live/?num_scrambled_semantic=8&num_scrambled_causal=4&num_scrambled_schematic=4&participantId=CD172C6EAA5B44979FAB299B0532079E&assignmentId=ee03306b-7110-4ba0-8fb5-3e0ed73b7ae2&projectId=051c06f1-75cc-4548-856d-4923ddaba0dc","CD172C6EAA5B44979FAB299B0532079E-2025-05-15-19-19-30","","null","","[]","null","",""
"","","","","","image-button-response","104","575656","0.0-14.0-1.0-0.5","CD172C6EAA5B44979FAB299B0532079E","CD172C6EAA5B44979FAB299B0532079E","ee03306b-7110-4ba0-8fb5-3e0ed73b7ae2","051c06f1-75cc-4548-856d-4923ddaba0dc","{""num_scrambled_semantic"":""8"",""num_scrambled_causal"":""4"",""num_scrambled_schematic"":""4"",""participantId"":""CD172C6EAA5B44979FAB299B0532079E"",""assignmentId"":""ee03306b-7110-4ba0-8fb5-3e0ed73b7ae2"",""projectId"":""051c06f1-75cc-4548-856d-4923ddaba0dc""}","https://test12345.live/?num_scrambled_semantic=8&num_scrambled_causal=4&num_scrambled_schematic=4&participantId=CD172C6EAA5B44979FAB299B0532079E&assignmentId=ee03306b-7110-4ba0-8fb5-3e0ed73b7ae2&projectId=051c06f1-75cc-4548-856d-4923ddaba0dc","CD172C6EAA5B44979FAB299B0532079E-2025-05-15-19-19-30","","null","","images/schematic_sequence/dinner_party_scheme/dinner_party_scheme_6.png","null","",""
"","","","","","image-button-response","105","576760","0.0-14.0-1.0-1.5","CD172C6EAA5B44979FAB299B0532079E","CD172C6EAA5B44979FAB299B0532079E","ee03306b-7110-4ba0-8fb5-3e0ed73b7ae2","051c06f1-75cc-4548-856d-4923ddaba0dc","{""num_scrambled_semantic"":""8"",""num_scrambled_causal"":""4"",""num_scrambled_schematic"":""4"",""participantId"":""CD172C6EAA5B44979FAB299B0532079E"",""assignmentId"":""ee03306b-7110-4ba0-8fb5-3e0ed73b7ae2"",""projectId"":""051c06f1-75cc-4548-856d-4923ddaba0dc""}","https://test12345.live/?num_scrambled_semantic=8&num_scrambled_causal=4&num_scrambled_schematic=4&participantId=CD172C6EAA5B44979FAB299B0532079E&assignmentId=ee03306b-7110-4ba0-8fb5-3e0ed73b7ae2&projectId=051c06f1-75cc-4548-856d-4923ddaba0dc","CD172C6EAA5B44979FAB299B0532079E-2025-05-15-19-19-30","","1103","","images/schematic_sequence/dinner_party_scheme/dinner_party_scheme_6.png","0","",""
"","","","","","image-button-response","106","578573","0.0-14.0-1.0-2.5","CD172C6EAA5B44979FAB299B0532079E","CD172C6EAA5B44979FAB299B0532079E","ee03306b-7110-4ba0-8fb5-3e0ed73b7ae2","051c06f1-75cc-4548-856d-4923ddaba0dc","{""num_scrambled_semantic"":""8"",""num_scrambled_causal"":""4"",""num_scrambled_schematic"":""4"",""participantId"":""CD172C6EAA5B44979FAB299B0532079E"",""assignmentId"":""ee03306b-7110-4ba0-8fb5-3e0ed73b7ae2"",""projectId"":""051c06f1-75cc-4548-856d-4923ddaba0dc""}","https://test12345.live/?num_scrambled_semantic=8&num_scrambled_causal=4&num_scrambled_schematic=4&participantId=CD172C6EAA5B44979FAB299B0532079E&assignmentId=ee03306b-7110-4ba0-8fb5-3e0ed73b7ae2&projectId=051c06f1-75cc-4548-856d-4923ddaba0dc","CD172C6EAA5B44979FAB299B0532079E-2025-05-15-19-19-30","","null","","[]","null","",""
"","","","","","image-button-response","107","583080","0.0-14.0-1.0-0.6","CD172C6EAA5B44979FAB299B0532079E","CD172C6EAA5B44979FAB299B0532079E","ee03306b-7110-4ba0-8fb5-3e0ed73b7ae2","051c06f1-75cc-4548-856d-4923ddaba0dc","{""num_scrambled_semantic"":""8"",""num_scrambled_causal"":""4"",""num_scrambled_schematic"":""4"",""participantId"":""CD172C6EAA5B44979FAB299B0532079E"",""assignmentId"":""ee03306b-7110-4ba0-8fb5-3e0ed73b7ae2"",""projectId"":""051c06f1-75cc-4548-856d-4923ddaba0dc""}","https://test12345.live/?num_scrambled_semantic=8&num_scrambled_causal=4&num_scrambled_schematic=4&participantId=CD172C6EAA5B44979FAB299B0532079E&assignmentId=ee03306b-7110-4ba0-8fb5-3e0ed73b7ae2&projectId=051c06f1-75cc-4548-856d-4923ddaba0dc","CD172C6EAA5B44979FAB299B0532079E-2025-05-15-19-19-30","","null","","images/schematic_sequence/dinner_party_scheme/dinner_party_scheme_7.png","null","",""
"","","","","","image-button-response","108","587096","0.0-14.0-1.0-1.6","CD172C6EAA5B44979FAB299B0532079E","CD172C6EAA5B44979FAB299B0532079E","ee03306b-7110-4ba0-8fb5-3e0ed73b7ae2","051c06f1-75cc-4548-856d-4923ddaba0dc","{""num_scrambled_semantic"":""8"",""num_scrambled_causal"":""4"",""num_scrambled_schematic"":""4"",""participantId"":""CD172C6EAA5B44979FAB299B0532079E"",""assignmentId"":""ee03306b-7110-4ba0-8fb5-3e0ed73b7ae2"",""projectId"":""051c06f1-75cc-4548-856d-4923ddaba0dc""}","https://test12345.live/?num_scrambled_semantic=8&num_scrambled_causal=4&num_scrambled_schematic=4&participantId=CD172C6EAA5B44979FAB299B0532079E&assignmentId=ee03306b-7110-4ba0-8fb5-3e0ed73b7ae2&projectId=051c06f1-75cc-4548-856d-4923ddaba0dc","CD172C6EAA5B44979FAB299B0532079E-2025-05-15-19-19-30","","null","","images/schematic_sequence/dinner_party_scheme/dinner_party_scheme_7.png","null","",""
"","","","","","image-button-response","109","588906","0.0-14.0-1.0-2.6","CD172C6EAA5B44979FAB299B0532079E","CD172C6EAA5B44979FAB299B0532079E","ee03306b-7110-4ba0-8fb5-3e0ed73b7ae2","051c06f1-75cc-4548-856d-4923ddaba0dc","{""num_scrambled_semantic"":""8"",""num_scrambled_causal"":""4"",""num_scrambled_schematic"":""4"",""participantId"":""CD172C6EAA5B44979FAB299B0532079E"",""assignmentId"":""ee03306b-7110-4ba0-8fb5-3e0ed73b7ae2"",""projectId"":""051c06f1-75cc-4548-856d-4923ddaba0dc""}","https://test12345.live/?num_scrambled_semantic=8&num_scrambled_causal=4&num_scrambled_schematic=4&participantId=CD172C6EAA5B44979FAB299B0532079E&assignmentId=ee03306b-7110-4ba0-8fb5-3e0ed73b7ae2&projectId=051c06f1-75cc-4548-856d-4923ddaba0dc","CD172C6EAA5B44979FAB299B0532079E-2025-05-15-19-19-30","","null","","[]","null","",""
"","","","","","image-button-response","110","593416","0.0-14.0-1.0-0.7","CD172C6EAA5B44979FAB299B0532079E","CD172C6EAA5B44979FAB299B0532079E","ee03306b-7110-4ba0-8fb5-3e0ed73b7ae2","051c06f1-75cc-4548-856d-4923ddaba0dc","{""num_scrambled_semantic"":""8"",""num_scrambled_causal"":""4"",""num_scrambled_schematic"":""4"",""participantId"":""CD172C6EAA5B44979FAB299B0532079E"",""assignmentId"":""ee03306b-7110-4ba0-8fb5-3e0ed73b7ae2"",""projectId"":""051c06f1-75cc-4548-856d-4923ddaba0dc""}","https://test12345.live/?num_scrambled_semantic=8&num_scrambled_causal=4&num_scrambled_schematic=4&participantId=CD172C6EAA5B44979FAB299B0532079E&assignmentId=ee03306b-7110-4ba0-8fb5-3e0ed73b7ae2&projectId=051c06f1-75cc-4548-856d-4923ddaba0dc","CD172C6EAA5B44979FAB299B0532079E-2025-05-15-19-19-30","","null","","images/schematic_sequence/dinner_party_scheme/dinner_party_scheme_8.png","null","",""
"","","","","","image-button-response","111","594700","0.0-14.0-1.0-1.7","CD172C6EAA5B44979FAB299B0532079E","CD172C6EAA5B44979FAB299B0532079E","ee03306b-7110-4ba0-8fb5-3e0ed73b7ae2","051c06f1-75cc-4548-856d-4923ddaba0dc","{""num_scrambled_semantic"":""8"",""num_scrambled_causal"":""4"",""num_scrambled_schematic"":""4"",""participantId"":""CD172C6EAA5B44979FAB299B0532079E"",""assignmentId"":""ee03306b-7110-4ba0-8fb5-3e0ed73b7ae2"",""projectId"":""051c06f1-75cc-4548-856d-4923ddaba0dc""}","https://test12345.live/?num_scrambled_semantic=8&num_scrambled_causal=4&num_scrambled_schematic=4&participantId=CD172C6EAA5B44979FAB299B0532079E&assignmentId=ee03306b-7110-4ba0-8fb5-3e0ed73b7ae2&projectId=051c06f1-75cc-4548-856d-4923ddaba0dc","CD172C6EAA5B44979FAB299B0532079E-2025-05-15-19-19-30","","1283","","images/schematic_sequence/dinner_party_scheme/dinner_party_scheme_8.png","0","",""
"","","","","","image-button-response","112","596506","0.0-14.0-1.0-2.7","CD172C6EAA5B44979FAB299B0532079E","CD172C6EAA5B44979FAB299B0532079E","ee03306b-7110-4ba0-8fb5-3e0ed73b7ae2","051c06f1-75cc-4548-856d-4923ddaba0dc","{""num_scrambled_semantic"":""8"",""num_scrambled_causal"":""4"",""num_scrambled_schematic"":""4"",""participantId"":""CD172C6EAA5B44979FAB299B0532079E"",""assignmentId"":""ee03306b-7110-4ba0-8fb5-3e0ed73b7ae2"",""projectId"":""051c06f1-75cc-4548-856d-4923ddaba0dc""}","https://test12345.live/?num_scrambled_semantic=8&num_scrambled_causal=4&num_scrambled_schematic=4&participantId=CD172C6EAA5B44979FAB299B0532079E&assignmentId=ee03306b-7110-4ba0-8fb5-3e0ed73b7ae2&projectId=051c06f1-75cc-4548-856d-4923ddaba0dc","CD172C6EAA5B44979FAB299B0532079E-2025-05-15-19-19-30","","null","","[]","null","",""
"","","","","","image-button-response","113","601025","0.0-14.0-1.0-0.8","CD172C6EAA5B44979FAB299B0532079E","CD172C6EAA5B44979FAB299B0532079E","ee03306b-7110-4ba0-8fb5-3e0ed73b7ae2","051c06f1-75cc-4548-856d-4923ddaba0dc","{""num_scrambled_semantic"":""8"",""num_scrambled_causal"":""4"",""num_scrambled_schematic"":""4"",""participantId"":""CD172C6EAA5B44979FAB299B0532079E"",""assignmentId"":""ee03306b-7110-4ba0-8fb5-3e0ed73b7ae2"",""projectId"":""051c06f1-75cc-4548-856d-4923ddaba0dc""}","https://test12345.live/?num_scrambled_semantic=8&num_scrambled_causal=4&num_scrambled_schematic=4&participantId=CD172C6EAA5B44979FAB299B0532079E&assignmentId=ee03306b-7110-4ba0-8fb5-3e0ed73b7ae2&projectId=051c06f1-75cc-4548-856d-4923ddaba0dc","CD172C6EAA5B44979FAB299B0532079E-2025-05-15-19-19-30","","null","","images/schematic_sequence/dinner_party_scheme/dinner_party_scheme_9.png","null","",""
"","","","","","image-button-response","114","602118","0.0-14.0-1.0-1.8","CD172C6EAA5B44979FAB299B0532079E","CD172C6EAA5B44979FAB299B0532079E","ee03306b-7110-4ba0-8fb5-3e0ed73b7ae2","051c06f1-75cc-4548-856d-4923ddaba0dc","{""num_scrambled_semantic"":""8"",""num_scrambled_causal"":""4"",""num_scrambled_schematic"":""4"",""participantId"":""CD172C6EAA5B44979FAB299B0532079E"",""assignmentId"":""ee03306b-7110-4ba0-8fb5-3e0ed73b7ae2"",""projectId"":""051c06f1-75cc-4548-856d-4923ddaba0dc""}","https://test12345.live/?num_scrambled_semantic=8&num_scrambled_causal=4&num_scrambled_schematic=4&participantId=CD172C6EAA5B44979FAB299B0532079E&assignmentId=ee03306b-7110-4ba0-8fb5-3e0ed73b7ae2&projectId=051c06f1-75cc-4548-856d-4923ddaba0dc","CD172C6EAA5B44979FAB299B0532079E-2025-05-15-19-19-30","","1091","","images/schematic_sequence/dinner_party_scheme/dinner_party_scheme_9.png","0","",""
