"success","timeout","failed_images","failed_audio","failed_video","trial_type","trial_index","time_elapsed","internal_node_id","subject","subject_id","study_id","session_id","urlvar","current_url","audio_id","view_history","rt","device_id","stimulus","response","estimated_stimulus_onset","seq_name"
"true","false","[]","[]","[]","preload","0","6754","0.0-0.0","CE61CE69FCD54A55980C6183DFBF9B90","CE61CE69FCD54A55980C6183DFBF9B90","dc42b247-f0da-4477-96d2-8d0e148540a7","ba640c14-69c5-453e-80b2-29051492c0e0","{""num_scrambled_semantic"":""8"",""num_scrambled_causal"":""4"",""num_scrambled_schematic"":""4"",""participantId"":""CE61CE69FCD54A55980C6183DFBF9B90"",""assignmentId"":""dc42b247-f0da-4477-96d2-8d0e148540a7"",""projectId"":""ba640c14-69c5-453e-80b2-29051492c0e0""}","https://test12345.live/?num_scrambled_semantic=8&num_scrambled_causal=4&num_scrambled_schematic=4&participantId=CE61CE69FCD54A55980C6183DFBF9B90&assignmentId=dc42b247-f0da-4477-96d2-8d0e148540a7&projectId=ba640c14-69c5-453e-80b2-29051492c0e0","CE61CE69FCD54A55980C6183DFBF9B90-2025-05-14-21-55-58","","","","","","",""
"","","","","","instructions","1","278606","0.0-1.0","CE61CE69FCD54A55980C6183DFBF9B90","CE61CE69FCD54A55980C6183DFBF9B90","dc42b247-f0da-4477-96d2-8d0e148540a7","ba640c14-69c5-453e-80b2-29051492c0e0","{""num_scrambled_semantic"":""8"",""num_scrambled_causal"":""4"",""num_scrambled_schematic"":""4"",""participantId"":""CE61CE69FCD54A55980C6183DFBF9B90"",""assignmentId"":""dc42b247-f0da-4477-96d2-8d0e148540a7"",""projectId"":""ba640c14-69c5-453e-80b2-29051492c0e0""}","https://test12345.live/?num_scrambled_semantic=8&num_scrambled_causal=4&num_scrambled_schematic=4&participantId=CE61CE69FCD54A55980C6183DFBF9B90&assignmentId=dc42b247-f0da-4477-96d2-8d0e148540a7&projectId=ba640c14-69c5-453e-80b2-29051492c0e0","CE61CE69FCD54A55980C6183DFBF9B90-2025-05-14-21-55-58","[{""page_index"":0,""viewing_time"":271851}]","271851","","","","",""
"","","","","","instructions","2","282359","0.0-2.0","CE61CE69FCD54A55980C6183DFBF9B90","CE61CE69FCD54A55980C6183DFBF9B90","dc42b247-f0da-4477-96d2-8d0e148540a7","ba640c14-69c5-453e-80b2-29051492c0e0","{""num_scrambled_semantic"":""8"",""num_scrambled_causal"":""4"",""num_scrambled_schematic"":""4"",""participantId"":""CE61CE69FCD54A55980C6183DFBF9B90"",""assignmentId"":""dc42b247-f0da-4477-96d2-8d0e148540a7"",""projectId"":""ba640c14-69c5-453e-80b2-29051492c0e0""}","https://test12345.live/?num_scrambled_semantic=8&num_scrambled_causal=4&num_scrambled_schematic=4&participantId=CE61CE69FCD54A55980C6183DFBF9B90&assignmentId=dc42b247-f0da-4477-96d2-8d0e148540a7&projectId=ba640c14-69c5-453e-80b2-29051492c0e0","CE61CE69FCD54A55980C6183DFBF9B90-2025-05-14-21-55-58","[{""page_index"":0,""viewing_time"":3753}]","3753","","","","",""
"true","","","","","fullscreen","3","284767","0.0-3.0","CE61CE69FCD54A55980C6183DFBF9B90","CE61CE69FCD54A55980C6183DFBF9B90","dc42b247-f0da-4477-96d2-8d0e148540a7","ba640c14-69c5-453e-80b2-29051492c0e0","{""num_scrambled_semantic"":""8"",""num_scrambled_causal"":""4"",""num_scrambled_schematic"":""4"",""participantId"":""CE61CE69FCD54A55980C6183DFBF9B90"",""assignmentId"":""dc42b247-f0da-4477-96d2-8d0e148540a7"",""projectId"":""ba640c14-69c5-453e-80b2-29051492c0e0""}","https://test12345.live/?num_scrambled_semantic=8&num_scrambled_causal=4&num_scrambled_schematic=4&participantId=CE61CE69FCD54A55980C6183DFBF9B90&assignmentId=dc42b247-f0da-4477-96d2-8d0e148540a7&projectId=ba640c14-69c5-453e-80b2-29051492c0e0","CE61CE69FCD54A55980C6183DFBF9B90-2025-05-14-21-55-58","","1404","","","","",""
"","","","","","initialize-microphone","4","296550","0.0-4.0-0.0","CE61CE69FCD54A55980C6183DFBF9B90","CE61CE69FCD54A55980C6183DFBF9B90","dc42b247-f0da-4477-96d2-8d0e148540a7","ba640c14-69c5-453e-80b2-29051492c0e0","{""num_scrambled_semantic"":""8"",""num_scrambled_causal"":""4"",""num_scrambled_schematic"":""4"",""participantId"":""CE61CE69FCD54A55980C6183DFBF9B90"",""assignmentId"":""dc42b247-f0da-4477-96d2-8d0e148540a7"",""projectId"":""ba640c14-69c5-453e-80b2-29051492c0e0""}","https://test12345.live/?num_scrambled_semantic=8&num_scrambled_causal=4&num_scrambled_schematic=4&participantId=CE61CE69FCD54A55980C6183DFBF9B90&assignmentId=dc42b247-f0da-4477-96d2-8d0e148540a7&projectId=ba640c14-69c5-453e-80b2-29051492c0e0","CE61CE69FCD54A55980C6183DFBF9B90-2025-05-14-21-55-58","","","631b15060e4c4961812690b098eded499cbaa2940029b18c044070fa06e16ffa","","","",""
"","","","","","html-audio-response","5","301659","0.0-4.0-1.0","CE61CE69FCD54A55980C6183DFBF9B90","CE61CE69FCD54A55980C6183DFBF9B90","dc42b247-f0da-4477-96d2-8d0e148540a7","ba640c14-69c5-453e-80b2-29051492c0e0","{""num_scrambled_semantic"":""8"",""num_scrambled_causal"":""4"",""num_scrambled_schematic"":""4"",""participantId"":""CE61CE69FCD54A55980C6183DFBF9B90"",""assignmentId"":""dc42b247-f0da-4477-96d2-8d0e148540a7"",""projectId"":""ba640c14-69c5-453e-80b2-29051492c0e0""}","https://test12345.live/?num_scrambled_semantic=8&num_scrambled_causal=4&num_scrambled_schematic=4&participantId=CE61CE69FCD54A55980C6183DFBF9B90&assignmentId=dc42b247-f0da-4477-96d2-8d0e148540a7&projectId=ba640c14-69c5-453e-80b2-29051492c0e0","CE61CE69FCD54A55980C6183DFBF9B90-2025-05-14-21-55-58","","1795","","<span style=""color: red; font-size: 24px""> NOW RECORDING</span>
        <p>Please test Microphone</p>","","7",""
"","","","","","html-button-response","6","303076","0.0-4.0-2.0","CE61CE69FCD54A55980C6183DFBF9B90","CE61CE69FCD54A55980C6183DFBF9B90","dc42b247-f0da-4477-96d2-8d0e148540a7","ba640c14-69c5-453e-80b2-29051492c0e0","{""num_scrambled_semantic"":""8"",""num_scrambled_causal"":""4"",""num_scrambled_schematic"":""4"",""participantId"":""CE61CE69FCD54A55980C6183DFBF9B90"",""assignmentId"":""dc42b247-f0da-4477-96d2-8d0e148540a7"",""projectId"":""ba640c14-69c5-453e-80b2-29051492c0e0""}","https://test12345.live/?num_scrambled_semantic=8&num_scrambled_causal=4&num_scrambled_schematic=4&participantId=CE61CE69FCD54A55980C6183DFBF9B90&assignmentId=dc42b247-f0da-4477-96d2-8d0e148540a7&projectId=ba640c14-69c5-453e-80b2-29051492c0e0","CE61CE69FCD54A55980C6183DFBF9B90-2025-05-14-21-55-58","","1416","","<p style=""font-size:48px; color:red;"">Is Microphone OK?</p>","1","",""
"","","","","","instructions","7","1263955","0.0-5.0","CE61CE69FCD54A55980C6183DFBF9B90","CE61CE69FCD54A55980C6183DFBF9B90","dc42b247-f0da-4477-96d2-8d0e148540a7","ba640c14-69c5-453e-80b2-29051492c0e0","{""num_scrambled_semantic"":""8"",""num_scrambled_causal"":""4"",""num_scrambled_schematic"":""4"",""participantId"":""CE61CE69FCD54A55980C6183DFBF9B90"",""assignmentId"":""dc42b247-f0da-4477-96d2-8d0e148540a7"",""projectId"":""ba640c14-69c5-453e-80b2-29051492c0e0""}","https://test12345.live/?num_scrambled_semantic=8&num_scrambled_causal=4&num_scrambled_schematic=4&participantId=CE61CE69FCD54A55980C6183DFBF9B90&assignmentId=dc42b247-f0da-4477-96d2-8d0e148540a7&projectId=ba640c14-69c5-453e-80b2-29051492c0e0","CE61CE69FCD54A55980C6183DFBF9B90-2025-05-14-21-55-58","[{""page_index"":0,""viewing_time"":2338},{""page_index"":1,""viewing_time"":958541}]","960879","","","","",""
"","","","","","image-button-response","8","1269967","0.0-6.0-0.0","CE61CE69FCD54A55980C6183DFBF9B90","CE61CE69FCD54A55980C6183DFBF9B90","dc42b247-f0da-4477-96d2-8d0e148540a7","ba640c14-69c5-453e-80b2-29051492c0e0","{""num_scrambled_semantic"":""8"",""num_scrambled_causal"":""4"",""num_scrambled_schematic"":""4"",""participantId"":""CE61CE69FCD54A55980C6183DFBF9B90"",""assignmentId"":""dc42b247-f0da-4477-96d2-8d0e148540a7"",""projectId"":""ba640c14-69c5-453e-80b2-29051492c0e0""}","https://test12345.live/?num_scrambled_semantic=8&num_scrambled_causal=4&num_scrambled_schematic=4&participantId=CE61CE69FCD54A55980C6183DFBF9B90&assignmentId=dc42b247-f0da-4477-96d2-8d0e148540a7&projectId=ba640c14-69c5-453e-80b2-29051492c0e0","CE61CE69FCD54A55980C6183DFBF9B90-2025-05-14-21-55-58","","null","","images/instructions/movie_0.png","null","",""
"","","","","","image-button-response","9","1274470","0.0-6.0-1.0-0.0","CE61CE69FCD54A55980C6183DFBF9B90","CE61CE69FCD54A55980C6183DFBF9B90","dc42b247-f0da-4477-96d2-8d0e148540a7","ba640c14-69c5-453e-80b2-29051492c0e0","{""num_scrambled_semantic"":""8"",""num_scrambled_causal"":""4"",""num_scrambled_schematic"":""4"",""participantId"":""CE61CE69FCD54A55980C6183DFBF9B90"",""assignmentId"":""dc42b247-f0da-4477-96d2-8d0e148540a7"",""projectId"":""ba640c14-69c5-453e-80b2-29051492c0e0""}","https://test12345.live/?num_scrambled_semantic=8&num_scrambled_causal=4&num_scrambled_schematic=4&participantId=CE61CE69FCD54A55980C6183DFBF9B90&assignmentId=dc42b247-f0da-4477-96d2-8d0e148540a7&projectId=ba640c14-69c5-453e-80b2-29051492c0e0","CE61CE69FCD54A55980C6183DFBF9B90-2025-05-14-21-55-58","","null","","images/instructions/movie_1.png","null","",""
"","","","","","image-button-response","10","1277269","0.0-6.0-1.0-1.0","CE61CE69FCD54A55980C6183DFBF9B90","CE61CE69FCD54A55980C6183DFBF9B90","dc42b247-f0da-4477-96d2-8d0e148540a7","ba640c14-69c5-453e-80b2-29051492c0e0","{""num_scrambled_semantic"":""8"",""num_scrambled_causal"":""4"",""num_scrambled_schematic"":""4"",""participantId"":""CE61CE69FCD54A55980C6183DFBF9B90"",""assignmentId"":""dc42b247-f0da-4477-96d2-8d0e148540a7"",""projectId"":""ba640c14-69c5-453e-80b2-29051492c0e0""}","https://test12345.live/?num_scrambled_semantic=8&num_scrambled_causal=4&num_scrambled_schematic=4&participantId=CE61CE69FCD54A55980C6183DFBF9B90&assignmentId=dc42b247-f0da-4477-96d2-8d0e148540a7&projectId=ba640c14-69c5-453e-80b2-29051492c0e0","CE61CE69FCD54A55980C6183DFBF9B90-2025-05-14-21-55-58","","2798","","images/instructions/movie_1.png","0","",""
"","","","","","image-button-response","11","1279076","0.0-6.0-1.0-2.0","CE61CE69FCD54A55980C6183DFBF9B90","CE61CE69FCD54A55980C6183DFBF9B90","dc42b247-f0da-4477-96d2-8d0e148540a7","ba640c14-69c5-453e-80b2-29051492c0e0","{""num_scrambled_semantic"":""8"",""num_scrambled_causal"":""4"",""num_scrambled_schematic"":""4"",""participantId"":""CE61CE69FCD54A55980C6183DFBF9B90"",""assignmentId"":""dc42b247-f0da-4477-96d2-8d0e148540a7"",""projectId"":""ba640c14-69c5-453e-80b2-29051492c0e0""}","https://test12345.live/?num_scrambled_semantic=8&num_scrambled_causal=4&num_scrambled_schematic=4&participantId=CE61CE69FCD54A55980C6183DFBF9B90&assignmentId=dc42b247-f0da-4477-96d2-8d0e148540a7&projectId=ba640c14-69c5-453e-80b2-29051492c0e0","CE61CE69FCD54A55980C6183DFBF9B90-2025-05-14-21-55-58","","null","","[]","null","",""
"","","","","","image-button-response","12","1283591","0.0-6.0-1.0-0.1","CE61CE69FCD54A55980C6183DFBF9B90","CE61CE69FCD54A55980C6183DFBF9B90","dc42b247-f0da-4477-96d2-8d0e148540a7","ba640c14-69c5-453e-80b2-29051492c0e0","{""num_scrambled_semantic"":""8"",""num_scrambled_causal"":""4"",""num_scrambled_schematic"":""4"",""participantId"":""CE61CE69FCD54A55980C6183DFBF9B90"",""assignmentId"":""dc42b247-f0da-4477-96d2-8d0e148540a7"",""projectId"":""ba640c14-69c5-453e-80b2-29051492c0e0""}","https://test12345.live/?num_scrambled_semantic=8&num_scrambled_causal=4&num_scrambled_schematic=4&participantId=CE61CE69FCD54A55980C6183DFBF9B90&assignmentId=dc42b247-f0da-4477-96d2-8d0e148540a7&projectId=ba640c14-69c5-453e-80b2-29051492c0e0","CE61CE69FCD54A55980C6183DFBF9B90-2025-05-14-21-55-58","","null","","images/instructions/movie_2.png","null","",""
"","","","","","image-button-response","13","1284965","0.0-6.0-1.0-1.1","CE61CE69FCD54A55980C6183DFBF9B90","CE61CE69FCD54A55980C6183DFBF9B90","dc42b247-f0da-4477-96d2-8d0e148540a7","ba640c14-69c5-453e-80b2-29051492c0e0","{""num_scrambled_semantic"":""8"",""num_scrambled_causal"":""4"",""num_scrambled_schematic"":""4"",""participantId"":""CE61CE69FCD54A55980C6183DFBF9B90"",""assignmentId"":""dc42b247-f0da-4477-96d2-8d0e148540a7"",""projectId"":""ba640c14-69c5-453e-80b2-29051492c0e0""}","https://test12345.live/?num_scrambled_semantic=8&num_scrambled_causal=4&num_scrambled_schematic=4&participantId=CE61CE69FCD54A55980C6183DFBF9B90&assignmentId=dc42b247-f0da-4477-96d2-8d0e148540a7&projectId=ba640c14-69c5-453e-80b2-29051492c0e0","CE61CE69FCD54A55980C6183DFBF9B90-2025-05-14-21-55-58","","1373","","images/instructions/movie_2.png","0","",""
"","","","","","image-button-response","14","1286776","0.0-6.0-1.0-2.1","CE61CE69FCD54A55980C6183DFBF9B90","CE61CE69FCD54A55980C6183DFBF9B90","dc42b247-f0da-4477-96d2-8d0e148540a7","ba640c14-69c5-453e-80b2-29051492c0e0","{""num_scrambled_semantic"":""8"",""num_scrambled_causal"":""4"",""num_scrambled_schematic"":""4"",""participantId"":""CE61CE69FCD54A55980C6183DFBF9B90"",""assignmentId"":""dc42b247-f0da-4477-96d2-8d0e148540a7"",""projectId"":""ba640c14-69c5-453e-80b2-29051492c0e0""}","https://test12345.live/?num_scrambled_semantic=8&num_scrambled_causal=4&num_scrambled_schematic=4&participantId=CE61CE69FCD54A55980C6183DFBF9B90&assignmentId=dc42b247-f0da-4477-96d2-8d0e148540a7&projectId=ba640c14-69c5-453e-80b2-29051492c0e0","CE61CE69FCD54A55980C6183DFBF9B90-2025-05-14-21-55-58","","null","","[]","null","",""
"","","","","","image-button-response","15","1291290","0.0-6.0-1.0-0.2","CE61CE69FCD54A55980C6183DFBF9B90","CE61CE69FCD54A55980C6183DFBF9B90","dc42b247-f0da-4477-96d2-8d0e148540a7","ba640c14-69c5-453e-80b2-29051492c0e0","{""num_scrambled_semantic"":""8"",""num_scrambled_causal"":""4"",""num_scrambled_schematic"":""4"",""participantId"":""CE61CE69FCD54A55980C6183DFBF9B90"",""assignmentId"":""dc42b247-f0da-4477-96d2-8d0e148540a7"",""projectId"":""ba640c14-69c5-453e-80b2-29051492c0e0""}","https://test12345.live/?num_scrambled_semantic=8&num_scrambled_causal=4&num_scrambled_schematic=4&participantId=CE61CE69FCD54A55980C6183DFBF9B90&assignmentId=dc42b247-f0da-4477-96d2-8d0e148540a7&projectId=ba640c14-69c5-453e-80b2-29051492c0e0","CE61CE69FCD54A55980C6183DFBF9B90-2025-05-14-21-55-58","","null","","images/instructions/movie_3.png","null","",""
"","","","","","image-button-response","16","1292180","0.0-6.0-1.0-1.2","CE61CE69FCD54A55980C6183DFBF9B90","CE61CE69FCD54A55980C6183DFBF9B90","dc42b247-f0da-4477-96d2-8d0e148540a7","ba640c14-69c5-453e-80b2-29051492c0e0","{""num_scrambled_semantic"":""8"",""num_scrambled_causal"":""4"",""num_scrambled_schematic"":""4"",""participantId"":""CE61CE69FCD54A55980C6183DFBF9B90"",""assignmentId"":""dc42b247-f0da-4477-96d2-8d0e148540a7"",""projectId"":""ba640c14-69c5-453e-80b2-29051492c0e0""}","https://test12345.live/?num_scrambled_semantic=8&num_scrambled_causal=4&num_scrambled_schematic=4&participantId=CE61CE69FCD54A55980C6183DFBF9B90&assignmentId=dc42b247-f0da-4477-96d2-8d0e148540a7&projectId=ba640c14-69c5-453e-80b2-29051492c0e0","CE61CE69FCD54A55980C6183DFBF9B90-2025-05-14-21-55-58","","889","","images/instructions/movie_3.png","0","",""
"","","","","","image-button-response","17","1293984","0.0-6.0-1.0-2.2","CE61CE69FCD54A55980C6183DFBF9B90","CE61CE69FCD54A55980C6183DFBF9B90","dc42b247-f0da-4477-96d2-8d0e148540a7","ba640c14-69c5-453e-80b2-29051492c0e0","{""num_scrambled_semantic"":""8"",""num_scrambled_causal"":""4"",""num_scrambled_schematic"":""4"",""participantId"":""CE61CE69FCD54A55980C6183DFBF9B90"",""assignmentId"":""dc42b247-f0da-4477-96d2-8d0e148540a7"",""projectId"":""ba640c14-69c5-453e-80b2-29051492c0e0""}","https://test12345.live/?num_scrambled_semantic=8&num_scrambled_causal=4&num_scrambled_schematic=4&participantId=CE61CE69FCD54A55980C6183DFBF9B90&assignmentId=dc42b247-f0da-4477-96d2-8d0e148540a7&projectId=ba640c14-69c5-453e-80b2-29051492c0e0","CE61CE69FCD54A55980C6183DFBF9B90-2025-05-14-21-55-58","","null","","[]","null","",""
"","","","","","image-button-response","18","1298495","0.0-6.0-1.0-0.3","CE61CE69FCD54A55980C6183DFBF9B90","CE61CE69FCD54A55980C6183DFBF9B90","dc42b247-f0da-4477-96d2-8d0e148540a7","ba640c14-69c5-453e-80b2-29051492c0e0","{""num_scrambled_semantic"":""8"",""num_scrambled_causal"":""4"",""num_scrambled_schematic"":""4"",""participantId"":""CE61CE69FCD54A55980C6183DFBF9B90"",""assignmentId"":""dc42b247-f0da-4477-96d2-8d0e148540a7"",""projectId"":""ba640c14-69c5-453e-80b2-29051492c0e0""}","https://test12345.live/?num_scrambled_semantic=8&num_scrambled_causal=4&num_scrambled_schematic=4&participantId=CE61CE69FCD54A55980C6183DFBF9B90&assignmentId=dc42b247-f0da-4477-96d2-8d0e148540a7&projectId=ba640c14-69c5-453e-80b2-29051492c0e0","CE61CE69FCD54A55980C6183DFBF9B90-2025-05-14-21-55-58","","null","","images/instructions/movie_4.png","null","",""
"","","","","","image-button-response","19","1299415","0.0-6.0-1.0-1.3","CE61CE69FCD54A55980C6183DFBF9B90","CE61CE69FCD54A55980C6183DFBF9B90","dc42b247-f0da-4477-96d2-8d0e148540a7","ba640c14-69c5-453e-80b2-29051492c0e0","{""num_scrambled_semantic"":""8"",""num_scrambled_causal"":""4"",""num_scrambled_schematic"":""4"",""participantId"":""CE61CE69FCD54A55980C6183DFBF9B90"",""assignmentId"":""dc42b247-f0da-4477-96d2-8d0e148540a7"",""projectId"":""ba640c14-69c5-453e-80b2-29051492c0e0""}","https://test12345.live/?num_scrambled_semantic=8&num_scrambled_causal=4&num_scrambled_schematic=4&participantId=CE61CE69FCD54A55980C6183DFBF9B90&assignmentId=dc42b247-f0da-4477-96d2-8d0e148540a7&projectId=ba640c14-69c5-453e-80b2-29051492c0e0","CE61CE69FCD54A55980C6183DFBF9B90-2025-05-14-21-55-58","","920","","images/instructions/movie_4.png","0","",""
"","","","","","image-button-response","20","1301217","0.0-6.0-1.0-2.3","CE61CE69FCD54A55980C6183DFBF9B90","CE61CE69FCD54A55980C6183DFBF9B90","dc42b247-f0da-4477-96d2-8d0e148540a7","ba640c14-69c5-453e-80b2-29051492c0e0","{""num_scrambled_semantic"":""8"",""num_scrambled_causal"":""4"",""num_scrambled_schematic"":""4"",""participantId"":""CE61CE69FCD54A55980C6183DFBF9B90"",""assignmentId"":""dc42b247-f0da-4477-96d2-8d0e148540a7"",""projectId"":""ba640c14-69c5-453e-80b2-29051492c0e0""}","https://test12345.live/?num_scrambled_semantic=8&num_scrambled_causal=4&num_scrambled_schematic=4&participantId=CE61CE69FCD54A55980C6183DFBF9B90&assignmentId=dc42b247-f0da-4477-96d2-8d0e148540a7&projectId=ba640c14-69c5-453e-80b2-29051492c0e0","CE61CE69FCD54A55980C6183DFBF9B90-2025-05-14-21-55-58","","null","","[]","null","",""
"","","","","","instructions","21","1310240","0.0-7.0","CE61CE69FCD54A55980C6183DFBF9B90","CE61CE69FCD54A55980C6183DFBF9B90","dc42b247-f0da-4477-96d2-8d0e148540a7","ba640c14-69c5-453e-80b2-29051492c0e0","{""num_scrambled_semantic"":""8"",""num_scrambled_causal"":""4"",""num_scrambled_schematic"":""4"",""participantId"":""CE61CE69FCD54A55980C6183DFBF9B90"",""assignmentId"":""dc42b247-f0da-4477-96d2-8d0e148540a7"",""projectId"":""ba640c14-69c5-453e-80b2-29051492c0e0""}","https://test12345.live/?num_scrambled_semantic=8&num_scrambled_causal=4&num_scrambled_schematic=4&participantId=CE61CE69FCD54A55980C6183DFBF9B90&assignmentId=dc42b247-f0da-4477-96d2-8d0e148540a7&projectId=ba640c14-69c5-453e-80b2-29051492c0e0","CE61CE69FCD54A55980C6183DFBF9B90-2025-05-14-21-55-58","[{""page_index"":0,""viewing_time"":8282},{""page_index"":1,""viewing_time"":740}]","9022","","","","",""
"","","","","","html-audio-response","22","1371906","0.0-8.0","CE61CE69FCD54A55980C6183DFBF9B90","CE61CE69FCD54A55980C6183DFBF9B90","dc42b247-f0da-4477-96d2-8d0e148540a7","ba640c14-69c5-453e-80b2-29051492c0e0","{""num_scrambled_semantic"":""8"",""num_scrambled_causal"":""4"",""num_scrambled_schematic"":""4"",""participantId"":""CE61CE69FCD54A55980C6183DFBF9B90"",""assignmentId"":""dc42b247-f0da-4477-96d2-8d0e148540a7"",""projectId"":""ba640c14-69c5-453e-80b2-29051492c0e0""}","https://test12345.live/?num_scrambled_semantic=8&num_scrambled_causal=4&num_scrambled_schematic=4&participantId=CE61CE69FCD54A55980C6183DFBF9B90&assignmentId=dc42b247-f0da-4477-96d2-8d0e148540a7&projectId=ba640c14-69c5-453e-80b2-29051492c0e0","CE61CE69FCD54A55980C6183DFBF9B90-2025-05-14-21-55-58","","21343","","[""<span style=\""color: red; font-size: 24px\""> NOW RECORDING</span><p>Please say out loud all the images you saw, as many as you can remember. The images can be said in any order.</p>""]","","1",""
"","","","","","instructions","23","1373942","0.0-9.0","CE61CE69FCD54A55980C6183DFBF9B90","CE61CE69FCD54A55980C6183DFBF9B90","dc42b247-f0da-4477-96d2-8d0e148540a7","ba640c14-69c5-453e-80b2-29051492c0e0","{""num_scrambled_semantic"":""8"",""num_scrambled_causal"":""4"",""num_scrambled_schematic"":""4"",""participantId"":""CE61CE69FCD54A55980C6183DFBF9B90"",""assignmentId"":""dc42b247-f0da-4477-96d2-8d0e148540a7"",""projectId"":""ba640c14-69c5-453e-80b2-29051492c0e0""}","https://test12345.live/?num_scrambled_semantic=8&num_scrambled_causal=4&num_scrambled_schematic=4&participantId=CE61CE69FCD54A55980C6183DFBF9B90&assignmentId=dc42b247-f0da-4477-96d2-8d0e148540a7&projectId=ba640c14-69c5-453e-80b2-29051492c0e0","CE61CE69FCD54A55980C6183DFBF9B90-2025-05-14-21-55-58","[{""page_index"":0,""viewing_time"":2031}]","2031","","","","",""
"","","","","","image-button-response","24","1379949","0.0-10.0-0.0","CE61CE69FCD54A55980C6183DFBF9B90","CE61CE69FCD54A55980C6183DFBF9B90","dc42b247-f0da-4477-96d2-8d0e148540a7","ba640c14-69c5-453e-80b2-29051492c0e0","{""num_scrambled_semantic"":""8"",""num_scrambled_causal"":""4"",""num_scrambled_schematic"":""4"",""participantId"":""CE61CE69FCD54A55980C6183DFBF9B90"",""assignmentId"":""dc42b247-f0da-4477-96d2-8d0e148540a7"",""projectId"":""ba640c14-69c5-453e-80b2-29051492c0e0""}","https://test12345.live/?num_scrambled_semantic=8&num_scrambled_causal=4&num_scrambled_schematic=4&participantId=CE61CE69FCD54A55980C6183DFBF9B90&assignmentId=dc42b247-f0da-4477-96d2-8d0e148540a7&projectId=ba640c14-69c5-453e-80b2-29051492c0e0","CE61CE69FCD54A55980C6183DFBF9B90-2025-05-14-21-55-58","","null","","images/semantic_sequence/exploring_nature_semantic/exploring_nature_semantic_0.png","null","",""
"","","","","","image-button-response","25","1384457","0.0-10.0-1.0-0.0","CE61CE69FCD54A55980C6183DFBF9B90","CE61CE69FCD54A55980C6183DFBF9B90","dc42b247-f0da-4477-96d2-8d0e148540a7","ba640c14-69c5-453e-80b2-29051492c0e0","{""num_scrambled_semantic"":""8"",""num_scrambled_causal"":""4"",""num_scrambled_schematic"":""4"",""participantId"":""CE61CE69FCD54A55980C6183DFBF9B90"",""assignmentId"":""dc42b247-f0da-4477-96d2-8d0e148540a7"",""projectId"":""ba640c14-69c5-453e-80b2-29051492c0e0""}","https://test12345.live/?num_scrambled_semantic=8&num_scrambled_causal=4&num_scrambled_schematic=4&participantId=CE61CE69FCD54A55980C6183DFBF9B90&assignmentId=dc42b247-f0da-4477-96d2-8d0e148540a7&projectId=ba640c14-69c5-453e-80b2-29051492c0e0","CE61CE69FCD54A55980C6183DFBF9B90-2025-05-14-21-55-58","","null","","images/semantic_sequence/exploring_nature_semantic/exploring_nature_semantic_1.png","null","",""
"","","","","","image-button-response","26","1385675","0.0-10.0-1.0-1.0","CE61CE69FCD54A55980C6183DFBF9B90","CE61CE69FCD54A55980C6183DFBF9B90","dc42b247-f0da-4477-96d2-8d0e148540a7","ba640c14-69c5-453e-80b2-29051492c0e0","{""num_scrambled_semantic"":""8"",""num_scrambled_causal"":""4"",""num_scrambled_schematic"":""4"",""participantId"":""CE61CE69FCD54A55980C6183DFBF9B90"",""assignmentId"":""dc42b247-f0da-4477-96d2-8d0e148540a7"",""projectId"":""ba640c14-69c5-453e-80b2-29051492c0e0""}","https://test12345.live/?num_scrambled_semantic=8&num_scrambled_causal=4&num_scrambled_schematic=4&participantId=CE61CE69FCD54A55980C6183DFBF9B90&assignmentId=dc42b247-f0da-4477-96d2-8d0e148540a7&projectId=ba640c14-69c5-453e-80b2-29051492c0e0","CE61CE69FCD54A55980C6183DFBF9B90-2025-05-14-21-55-58","","1217","","images/semantic_sequence/exploring_nature_semantic/exploring_nature_semantic_1.png","0","",""
"","","","","","image-button-response","27","1387485","0.0-10.0-1.0-2.0","CE61CE69FCD54A55980C6183DFBF9B90","CE61CE69FCD54A55980C6183DFBF9B90","dc42b247-f0da-4477-96d2-8d0e148540a7","ba640c14-69c5-453e-80b2-29051492c0e0","{""num_scrambled_semantic"":""8"",""num_scrambled_causal"":""4"",""num_scrambled_schematic"":""4"",""participantId"":""CE61CE69FCD54A55980C6183DFBF9B90"",""assignmentId"":""dc42b247-f0da-4477-96d2-8d0e148540a7"",""projectId"":""ba640c14-69c5-453e-80b2-29051492c0e0""}","https://test12345.live/?num_scrambled_semantic=8&num_scrambled_causal=4&num_scrambled_schematic=4&participantId=CE61CE69FCD54A55980C6183DFBF9B90&assignmentId=dc42b247-f0da-4477-96d2-8d0e148540a7&projectId=ba640c14-69c5-453e-80b2-29051492c0e0","CE61CE69FCD54A55980C6183DFBF9B90-2025-05-14-21-55-58","","null","","[]","null","",""
"","","","","","image-button-response","28","1391988","0.0-10.0-1.0-0.1","CE61CE69FCD54A55980C6183DFBF9B90","CE61CE69FCD54A55980C6183DFBF9B90","dc42b247-f0da-4477-96d2-8d0e148540a7","ba640c14-69c5-453e-80b2-29051492c0e0","{""num_scrambled_semantic"":""8"",""num_scrambled_causal"":""4"",""num_scrambled_schematic"":""4"",""participantId"":""CE61CE69FCD54A55980C6183DFBF9B90"",""assignmentId"":""dc42b247-f0da-4477-96d2-8d0e148540a7"",""projectId"":""ba640c14-69c5-453e-80b2-29051492c0e0""}","https://test12345.live/?num_scrambled_semantic=8&num_scrambled_causal=4&num_scrambled_schematic=4&participantId=CE61CE69FCD54A55980C6183DFBF9B90&assignmentId=dc42b247-f0da-4477-96d2-8d0e148540a7&projectId=ba640c14-69c5-453e-80b2-29051492c0e0","CE61CE69FCD54A55980C6183DFBF9B90-2025-05-14-21-55-58","","null","","images/semantic_sequence/exploring_nature_semantic/exploring_nature_semantic_3.png","null","",""
"","","","","","image-button-response","29","1394431","0.0-10.0-1.0-1.1","CE61CE69FCD54A55980C6183DFBF9B90","CE61CE69FCD54A55980C6183DFBF9B90","dc42b247-f0da-4477-96d2-8d0e148540a7","ba640c14-69c5-453e-80b2-29051492c0e0","{""num_scrambled_semantic"":""8"",""num_scrambled_causal"":""4"",""num_scrambled_schematic"":""4"",""participantId"":""CE61CE69FCD54A55980C6183DFBF9B90"",""assignmentId"":""dc42b247-f0da-4477-96d2-8d0e148540a7"",""projectId"":""ba640c14-69c5-453e-80b2-29051492c0e0""}","https://test12345.live/?num_scrambled_semantic=8&num_scrambled_causal=4&num_scrambled_schematic=4&participantId=CE61CE69FCD54A55980C6183DFBF9B90&assignmentId=dc42b247-f0da-4477-96d2-8d0e148540a7&projectId=ba640c14-69c5-453e-80b2-29051492c0e0","CE61CE69FCD54A55980C6183DFBF9B90-2025-05-14-21-55-58","","2442","","images/semantic_sequence/exploring_nature_semantic/exploring_nature_semantic_3.png","0","",""
"","","","","","image-button-response","30","1396232","0.0-10.0-1.0-2.1","CE61CE69FCD54A55980C6183DFBF9B90","CE61CE69FCD54A55980C6183DFBF9B90","dc42b247-f0da-4477-96d2-8d0e148540a7","ba640c14-69c5-453e-80b2-29051492c0e0","{""num_scrambled_semantic"":""8"",""num_scrambled_causal"":""4"",""num_scrambled_schematic"":""4"",""participantId"":""CE61CE69FCD54A55980C6183DFBF9B90"",""assignmentId"":""dc42b247-f0da-4477-96d2-8d0e148540a7"",""projectId"":""ba640c14-69c5-453e-80b2-29051492c0e0""}","https://test12345.live/?num_scrambled_semantic=8&num_scrambled_causal=4&num_scrambled_schematic=4&participantId=CE61CE69FCD54A55980C6183DFBF9B90&assignmentId=dc42b247-f0da-4477-96d2-8d0e148540a7&projectId=ba640c14-69c5-453e-80b2-29051492c0e0","CE61CE69FCD54A55980C6183DFBF9B90-2025-05-14-21-55-58","","null","","[]","null","",""
"","","","","","image-button-response","31","1400744","0.0-10.0-1.0-0.2","CE61CE69FCD54A55980C6183DFBF9B90","CE61CE69FCD54A55980C6183DFBF9B90","dc42b247-f0da-4477-96d2-8d0e148540a7","ba640c14-69c5-453e-80b2-29051492c0e0","{""num_scrambled_semantic"":""8"",""num_scrambled_causal"":""4"",""num_scrambled_schematic"":""4"",""participantId"":""CE61CE69FCD54A55980C6183DFBF9B90"",""assignmentId"":""dc42b247-f0da-4477-96d2-8d0e148540a7"",""projectId"":""ba640c14-69c5-453e-80b2-29051492c0e0""}","https://test12345.live/?num_scrambled_semantic=8&num_scrambled_causal=4&num_scrambled_schematic=4&participantId=CE61CE69FCD54A55980C6183DFBF9B90&assignmentId=dc42b247-f0da-4477-96d2-8d0e148540a7&projectId=ba640c14-69c5-453e-80b2-29051492c0e0","CE61CE69FCD54A55980C6183DFBF9B90-2025-05-14-21-55-58","","null","","images/semantic_sequence/exploring_nature_semantic/exploring_nature_semantic_2.png","null","",""
"","","","","","image-button-response","32","1401641","0.0-10.0-1.0-1.2","CE61CE69FCD54A55980C6183DFBF9B90","CE61CE69FCD54A55980C6183DFBF9B90","dc42b247-f0da-4477-96d2-8d0e148540a7","ba640c14-69c5-453e-80b2-29051492c0e0","{""num_scrambled_semantic"":""8"",""num_scrambled_causal"":""4"",""num_scrambled_schematic"":""4"",""participantId"":""CE61CE69FCD54A55980C6183DFBF9B90"",""assignmentId"":""dc42b247-f0da-4477-96d2-8d0e148540a7"",""projectId"":""ba640c14-69c5-453e-80b2-29051492c0e0""}","https://test12345.live/?num_scrambled_semantic=8&num_scrambled_causal=4&num_scrambled_schematic=4&participantId=CE61CE69FCD54A55980C6183DFBF9B90&assignmentId=dc42b247-f0da-4477-96d2-8d0e148540a7&projectId=ba640c14-69c5-453e-80b2-29051492c0e0","CE61CE69FCD54A55980C6183DFBF9B90-2025-05-14-21-55-58","","896","","images/semantic_sequence/exploring_nature_semantic/exploring_nature_semantic_2.png","0","",""
"","","","","","image-button-response","33","1403450","0.0-10.0-1.0-2.2","CE61CE69FCD54A55980C6183DFBF9B90","CE61CE69FCD54A55980C6183DFBF9B90","dc42b247-f0da-4477-96d2-8d0e148540a7","ba640c14-69c5-453e-80b2-29051492c0e0","{""num_scrambled_semantic"":""8"",""num_scrambled_causal"":""4"",""num_scrambled_schematic"":""4"",""participantId"":""CE61CE69FCD54A55980C6183DFBF9B90"",""assignmentId"":""dc42b247-f0da-4477-96d2-8d0e148540a7"",""projectId"":""ba640c14-69c5-453e-80b2-29051492c0e0""}","https://test12345.live/?num_scrambled_semantic=8&num_scrambled_causal=4&num_scrambled_schematic=4&participantId=CE61CE69FCD54A55980C6183DFBF9B90&assignmentId=dc42b247-f0da-4477-96d2-8d0e148540a7&projectId=ba640c14-69c5-453e-80b2-29051492c0e0","CE61CE69FCD54A55980C6183DFBF9B90-2025-05-14-21-55-58","","null","","[]","null","",""
"","","","","","image-button-response","34","1407954","0.0-10.0-1.0-0.3","CE61CE69FCD54A55980C6183DFBF9B90","CE61CE69FCD54A55980C6183DFBF9B90","dc42b247-f0da-4477-96d2-8d0e148540a7","ba640c14-69c5-453e-80b2-29051492c0e0","{""num_scrambled_semantic"":""8"",""num_scrambled_causal"":""4"",""num_scrambled_schematic"":""4"",""participantId"":""CE61CE69FCD54A55980C6183DFBF9B90"",""assignmentId"":""dc42b247-f0da-4477-96d2-8d0e148540a7"",""projectId"":""ba640c14-69c5-453e-80b2-29051492c0e0""}","https://test12345.live/?num_scrambled_semantic=8&num_scrambled_causal=4&num_scrambled_schematic=4&participantId=CE61CE69FCD54A55980C6183DFBF9B90&assignmentId=dc42b247-f0da-4477-96d2-8d0e148540a7&projectId=ba640c14-69c5-453e-80b2-29051492c0e0","CE61CE69FCD54A55980C6183DFBF9B90-2025-05-14-21-55-58","","null","","images/semantic_sequence/exploring_nature_semantic/exploring_nature_semantic_6.png","null","",""
"","","","","","image-button-response","35","1408806","0.0-10.0-1.0-1.3","CE61CE69FCD54A55980C6183DFBF9B90","CE61CE69FCD54A55980C6183DFBF9B90","dc42b247-f0da-4477-96d2-8d0e148540a7","ba640c14-69c5-453e-80b2-29051492c0e0","{""num_scrambled_semantic"":""8"",""num_scrambled_causal"":""4"",""num_scrambled_schematic"":""4"",""participantId"":""CE61CE69FCD54A55980C6183DFBF9B90"",""assignmentId"":""dc42b247-f0da-4477-96d2-8d0e148540a7"",""projectId"":""ba640c14-69c5-453e-80b2-29051492c0e0""}","https://test12345.live/?num_scrambled_semantic=8&num_scrambled_causal=4&num_scrambled_schematic=4&participantId=CE61CE69FCD54A55980C6183DFBF9B90&assignmentId=dc42b247-f0da-4477-96d2-8d0e148540a7&projectId=ba640c14-69c5-453e-80b2-29051492c0e0","CE61CE69FCD54A55980C6183DFBF9B90-2025-05-14-21-55-58","","851","","images/semantic_sequence/exploring_nature_semantic/exploring_nature_semantic_6.png","0","",""
"","","","","","image-button-response","36","1410621","0.0-10.0-1.0-2.3","CE61CE69FCD54A55980C6183DFBF9B90","CE61CE69FCD54A55980C6183DFBF9B90","dc42b247-f0da-4477-96d2-8d0e148540a7","ba640c14-69c5-453e-80b2-29051492c0e0","{""num_scrambled_semantic"":""8"",""num_scrambled_causal"":""4"",""num_scrambled_schematic"":""4"",""participantId"":""CE61CE69FCD54A55980C6183DFBF9B90"",""assignmentId"":""dc42b247-f0da-4477-96d2-8d0e148540a7"",""projectId"":""ba640c14-69c5-453e-80b2-29051492c0e0""}","https://test12345.live/?num_scrambled_semantic=8&num_scrambled_causal=4&num_scrambled_schematic=4&participantId=CE61CE69FCD54A55980C6183DFBF9B90&assignmentId=dc42b247-f0da-4477-96d2-8d0e148540a7&projectId=ba640c14-69c5-453e-80b2-29051492c0e0","CE61CE69FCD54A55980C6183DFBF9B90-2025-05-14-21-55-58","","null","","[]","null","",""
"","","","","","image-button-response","37","1415135","0.0-10.0-1.0-0.4","CE61CE69FCD54A55980C6183DFBF9B90","CE61CE69FCD54A55980C6183DFBF9B90","dc42b247-f0da-4477-96d2-8d0e148540a7","ba640c14-69c5-453e-80b2-29051492c0e0","{""num_scrambled_semantic"":""8"",""num_scrambled_causal"":""4"",""num_scrambled_schematic"":""4"",""participantId"":""CE61CE69FCD54A55980C6183DFBF9B90"",""assignmentId"":""dc42b247-f0da-4477-96d2-8d0e148540a7"",""projectId"":""ba640c14-69c5-453e-80b2-29051492c0e0""}","https://test12345.live/?num_scrambled_semantic=8&num_scrambled_causal=4&num_scrambled_schematic=4&participantId=CE61CE69FCD54A55980C6183DFBF9B90&assignmentId=dc42b247-f0da-4477-96d2-8d0e148540a7&projectId=ba640c14-69c5-453e-80b2-29051492c0e0","CE61CE69FCD54A55980C6183DFBF9B90-2025-05-14-21-55-58","","null","","images/semantic_sequence/exploring_nature_semantic/exploring_nature_semantic_4.png","null","",""
"","","","","","image-button-response","38","1415875","0.0-10.0-1.0-1.4","CE61CE69FCD54A55980C6183DFBF9B90","CE61CE69FCD54A55980C6183DFBF9B90","dc42b247-f0da-4477-96d2-8d0e148540a7","ba640c14-69c5-453e-80b2-29051492c0e0","{""num_scrambled_semantic"":""8"",""num_scrambled_causal"":""4"",""num_scrambled_schematic"":""4"",""participantId"":""CE61CE69FCD54A55980C6183DFBF9B90"",""assignmentId"":""dc42b247-f0da-4477-96d2-8d0e148540a7"",""projectId"":""ba640c14-69c5-453e-80b2-29051492c0e0""}","https://test12345.live/?num_scrambled_semantic=8&num_scrambled_causal=4&num_scrambled_schematic=4&participantId=CE61CE69FCD54A55980C6183DFBF9B90&assignmentId=dc42b247-f0da-4477-96d2-8d0e148540a7&projectId=ba640c14-69c5-453e-80b2-29051492c0e0","CE61CE69FCD54A55980C6183DFBF9B90-2025-05-14-21-55-58","","739","","images/semantic_sequence/exploring_nature_semantic/exploring_nature_semantic_4.png","0","",""
"","","","","","image-button-response","39","1417686","0.0-10.0-1.0-2.4","CE61CE69FCD54A55980C6183DFBF9B90","CE61CE69FCD54A55980C6183DFBF9B90","dc42b247-f0da-4477-96d2-8d0e148540a7","ba640c14-69c5-453e-80b2-29051492c0e0","{""num_scrambled_semantic"":""8"",""num_scrambled_causal"":""4"",""num_scrambled_schematic"":""4"",""participantId"":""CE61CE69FCD54A55980C6183DFBF9B90"",""assignmentId"":""dc42b247-f0da-4477-96d2-8d0e148540a7"",""projectId"":""ba640c14-69c5-453e-80b2-29051492c0e0""}","https://test12345.live/?num_scrambled_semantic=8&num_scrambled_causal=4&num_scrambled_schematic=4&participantId=CE61CE69FCD54A55980C6183DFBF9B90&assignmentId=dc42b247-f0da-4477-96d2-8d0e148540a7&projectId=ba640c14-69c5-453e-80b2-29051492c0e0","CE61CE69FCD54A55980C6183DFBF9B90-2025-05-14-21-55-58","","null","","[]","null","",""
"","","","","","image-button-response","40","1422198","0.0-10.0-1.0-0.5","CE61CE69FCD54A55980C6183DFBF9B90","CE61CE69FCD54A55980C6183DFBF9B90","dc42b247-f0da-4477-96d2-8d0e148540a7","ba640c14-69c5-453e-80b2-29051492c0e0","{""num_scrambled_semantic"":""8"",""num_scrambled_causal"":""4"",""num_scrambled_schematic"":""4"",""participantId"":""CE61CE69FCD54A55980C6183DFBF9B90"",""assignmentId"":""dc42b247-f0da-4477-96d2-8d0e148540a7"",""projectId"":""ba640c14-69c5-453e-80b2-29051492c0e0""}","https://test12345.live/?num_scrambled_semantic=8&num_scrambled_causal=4&num_scrambled_schematic=4&participantId=CE61CE69FCD54A55980C6183DFBF9B90&assignmentId=dc42b247-f0da-4477-96d2-8d0e148540a7&projectId=ba640c14-69c5-453e-80b2-29051492c0e0","CE61CE69FCD54A55980C6183DFBF9B90-2025-05-14-21-55-58","","null","","images/semantic_sequence/exploring_nature_semantic/exploring_nature_semantic_8.png","null","",""
"","","","","","image-button-response","41","1422842","0.0-10.0-1.0-1.5","CE61CE69FCD54A55980C6183DFBF9B90","CE61CE69FCD54A55980C6183DFBF9B90","dc42b247-f0da-4477-96d2-8d0e148540a7","ba640c14-69c5-453e-80b2-29051492c0e0","{""num_scrambled_semantic"":""8"",""num_scrambled_causal"":""4"",""num_scrambled_schematic"":""4"",""participantId"":""CE61CE69FCD54A55980C6183DFBF9B90"",""assignmentId"":""dc42b247-f0da-4477-96d2-8d0e148540a7"",""projectId"":""ba640c14-69c5-453e-80b2-29051492c0e0""}","https://test12345.live/?num_scrambled_semantic=8&num_scrambled_causal=4&num_scrambled_schematic=4&participantId=CE61CE69FCD54A55980C6183DFBF9B90&assignmentId=dc42b247-f0da-4477-96d2-8d0e148540a7&projectId=ba640c14-69c5-453e-80b2-29051492c0e0","CE61CE69FCD54A55980C6183DFBF9B90-2025-05-14-21-55-58","","643","","images/semantic_sequence/exploring_nature_semantic/exploring_nature_semantic_8.png","0","",""
"","","","","","image-button-response","42","1424644","0.0-10.0-1.0-2.5","CE61CE69FCD54A55980C6183DFBF9B90","CE61CE69FCD54A55980C6183DFBF9B90","dc42b247-f0da-4477-96d2-8d0e148540a7","ba640c14-69c5-453e-80b2-29051492c0e0","{""num_scrambled_semantic"":""8"",""num_scrambled_causal"":""4"",""num_scrambled_schematic"":""4"",""participantId"":""CE61CE69FCD54A55980C6183DFBF9B90"",""assignmentId"":""dc42b247-f0da-4477-96d2-8d0e148540a7"",""projectId"":""ba640c14-69c5-453e-80b2-29051492c0e0""}","https://test12345.live/?num_scrambled_semantic=8&num_scrambled_causal=4&num_scrambled_schematic=4&participantId=CE61CE69FCD54A55980C6183DFBF9B90&assignmentId=dc42b247-f0da-4477-96d2-8d0e148540a7&projectId=ba640c14-69c5-453e-80b2-29051492c0e0","CE61CE69FCD54A55980C6183DFBF9B90-2025-05-14-21-55-58","","null","","[]","null","",""
"","","","","","image-button-response","43","1429148","0.0-10.0-1.0-0.6","CE61CE69FCD54A55980C6183DFBF9B90","CE61CE69FCD54A55980C6183DFBF9B90","dc42b247-f0da-4477-96d2-8d0e148540a7","ba640c14-69c5-453e-80b2-29051492c0e0","{""num_scrambled_semantic"":""8"",""num_scrambled_causal"":""4"",""num_scrambled_schematic"":""4"",""participantId"":""CE61CE69FCD54A55980C6183DFBF9B90"",""assignmentId"":""dc42b247-f0da-4477-96d2-8d0e148540a7"",""projectId"":""ba640c14-69c5-453e-80b2-29051492c0e0""}","https://test12345.live/?num_scrambled_semantic=8&num_scrambled_causal=4&num_scrambled_schematic=4&participantId=CE61CE69FCD54A55980C6183DFBF9B90&assignmentId=dc42b247-f0da-4477-96d2-8d0e148540a7&projectId=ba640c14-69c5-453e-80b2-29051492c0e0","CE61CE69FCD54A55980C6183DFBF9B90-2025-05-14-21-55-58","","null","","images/semantic_sequence/exploring_nature_semantic/exploring_nature_semantic_ten.png","null","",""
"","","","","","image-button-response","44","1429736","0.0-10.0-1.0-1.6","CE61CE69FCD54A55980C6183DFBF9B90","CE61CE69FCD54A55980C6183DFBF9B90","dc42b247-f0da-4477-96d2-8d0e148540a7","ba640c14-69c5-453e-80b2-29051492c0e0","{""num_scrambled_semantic"":""8"",""num_scrambled_causal"":""4"",""num_scrambled_schematic"":""4"",""participantId"":""CE61CE69FCD54A55980C6183DFBF9B90"",""assignmentId"":""dc42b247-f0da-4477-96d2-8d0e148540a7"",""projectId"":""ba640c14-69c5-453e-80b2-29051492c0e0""}","https://test12345.live/?num_scrambled_semantic=8&num_scrambled_causal=4&num_scrambled_schematic=4&participantId=CE61CE69FCD54A55980C6183DFBF9B90&assignmentId=dc42b247-f0da-4477-96d2-8d0e148540a7&projectId=ba640c14-69c5-453e-80b2-29051492c0e0","CE61CE69FCD54A55980C6183DFBF9B90-2025-05-14-21-55-58","","587","","images/semantic_sequence/exploring_nature_semantic/exploring_nature_semantic_ten.png","0","",""
"","","","","","image-button-response","45","1431543","0.0-10.0-1.0-2.6","CE61CE69FCD54A55980C6183DFBF9B90","CE61CE69FCD54A55980C6183DFBF9B90","dc42b247-f0da-4477-96d2-8d0e148540a7","ba640c14-69c5-453e-80b2-29051492c0e0","{""num_scrambled_semantic"":""8"",""num_scrambled_causal"":""4"",""num_scrambled_schematic"":""4"",""participantId"":""CE61CE69FCD54A55980C6183DFBF9B90"",""assignmentId"":""dc42b247-f0da-4477-96d2-8d0e148540a7"",""projectId"":""ba640c14-69c5-453e-80b2-29051492c0e0""}","https://test12345.live/?num_scrambled_semantic=8&num_scrambled_causal=4&num_scrambled_schematic=4&participantId=CE61CE69FCD54A55980C6183DFBF9B90&assignmentId=dc42b247-f0da-4477-96d2-8d0e148540a7&projectId=ba640c14-69c5-453e-80b2-29051492c0e0","CE61CE69FCD54A55980C6183DFBF9B90-2025-05-14-21-55-58","","null","","[]","null","",""
"","","","","","image-button-response","46","1436045","0.0-10.0-1.0-0.7","CE61CE69FCD54A55980C6183DFBF9B90","CE61CE69FCD54A55980C6183DFBF9B90","dc42b247-f0da-4477-96d2-8d0e148540a7","ba640c14-69c5-453e-80b2-29051492c0e0","{""num_scrambled_semantic"":""8"",""num_scrambled_causal"":""4"",""num_scrambled_schematic"":""4"",""participantId"":""CE61CE69FCD54A55980C6183DFBF9B90"",""assignmentId"":""dc42b247-f0da-4477-96d2-8d0e148540a7"",""projectId"":""ba640c14-69c5-453e-80b2-29051492c0e0""}","https://test12345.live/?num_scrambled_semantic=8&num_scrambled_causal=4&num_scrambled_schematic=4&participantId=CE61CE69FCD54A55980C6183DFBF9B90&assignmentId=dc42b247-f0da-4477-96d2-8d0e148540a7&projectId=ba640c14-69c5-453e-80b2-29051492c0e0","CE61CE69FCD54A55980C6183DFBF9B90-2025-05-14-21-55-58","","null","","images/semantic_sequence/exploring_nature_semantic/exploring_nature_semantic_5.png","null","",""
"","","","","","image-button-response","47","1436785","0.0-10.0-1.0-1.7","CE61CE69FCD54A55980C6183DFBF9B90","CE61CE69FCD54A55980C6183DFBF9B90","dc42b247-f0da-4477-96d2-8d0e148540a7","ba640c14-69c5-453e-80b2-29051492c0e0","{""num_scrambled_semantic"":""8"",""num_scrambled_causal"":""4"",""num_scrambled_schematic"":""4"",""participantId"":""CE61CE69FCD54A55980C6183DFBF9B90"",""assignmentId"":""dc42b247-f0da-4477-96d2-8d0e148540a7"",""projectId"":""ba640c14-69c5-453e-80b2-29051492c0e0""}","https://test12345.live/?num_scrambled_semantic=8&num_scrambled_causal=4&num_scrambled_schematic=4&participantId=CE61CE69FCD54A55980C6183DFBF9B90&assignmentId=dc42b247-f0da-4477-96d2-8d0e148540a7&projectId=ba640c14-69c5-453e-80b2-29051492c0e0","CE61CE69FCD54A55980C6183DFBF9B90-2025-05-14-21-55-58","","739","","images/semantic_sequence/exploring_nature_semantic/exploring_nature_semantic_5.png","0","",""
"","","","","","image-button-response","48","1438599","0.0-10.0-1.0-2.7","CE61CE69FCD54A55980C6183DFBF9B90","CE61CE69FCD54A55980C6183DFBF9B90","dc42b247-f0da-4477-96d2-8d0e148540a7","ba640c14-69c5-453e-80b2-29051492c0e0","{""num_scrambled_semantic"":""8"",""num_scrambled_causal"":""4"",""num_scrambled_schematic"":""4"",""participantId"":""CE61CE69FCD54A55980C6183DFBF9B90"",""assignmentId"":""dc42b247-f0da-4477-96d2-8d0e148540a7"",""projectId"":""ba640c14-69c5-453e-80b2-29051492c0e0""}","https://test12345.live/?num_scrambled_semantic=8&num_scrambled_causal=4&num_scrambled_schematic=4&participantId=CE61CE69FCD54A55980C6183DFBF9B90&assignmentId=dc42b247-f0da-4477-96d2-8d0e148540a7&projectId=ba640c14-69c5-453e-80b2-29051492c0e0","CE61CE69FCD54A55980C6183DFBF9B90-2025-05-14-21-55-58","","null","","[]","null","",""
"","","","","","image-button-response","49","1443113","0.0-10.0-1.0-0.8","CE61CE69FCD54A55980C6183DFBF9B90","CE61CE69FCD54A55980C6183DFBF9B90","dc42b247-f0da-4477-96d2-8d0e148540a7","ba640c14-69c5-453e-80b2-29051492c0e0","{""num_scrambled_semantic"":""8"",""num_scrambled_causal"":""4"",""num_scrambled_schematic"":""4"",""participantId"":""CE61CE69FCD54A55980C6183DFBF9B90"",""assignmentId"":""dc42b247-f0da-4477-96d2-8d0e148540a7"",""projectId"":""ba640c14-69c5-453e-80b2-29051492c0e0""}","https://test12345.live/?num_scrambled_semantic=8&num_scrambled_causal=4&num_scrambled_schematic=4&participantId=CE61CE69FCD54A55980C6183DFBF9B90&assignmentId=dc42b247-f0da-4477-96d2-8d0e148540a7&projectId=ba640c14-69c5-453e-80b2-29051492c0e0","CE61CE69FCD54A55980C6183DFBF9B90-2025-05-14-21-55-58","","null","","images/semantic_sequence/exploring_nature_semantic/exploring_nature_semantic_7.png","null","",""
"","","","","","image-button-response","50","1443806","0.0-10.0-1.0-1.8","CE61CE69FCD54A55980C6183DFBF9B90","CE61CE69FCD54A55980C6183DFBF9B90","dc42b247-f0da-4477-96d2-8d0e148540a7","ba640c14-69c5-453e-80b2-29051492c0e0","{""num_scrambled_semantic"":""8"",""num_scrambled_causal"":""4"",""num_scrambled_schematic"":""4"",""participantId"":""CE61CE69FCD54A55980C6183DFBF9B90"",""assignmentId"":""dc42b247-f0da-4477-96d2-8d0e148540a7"",""projectId"":""ba640c14-69c5-453e-80b2-29051492c0e0""}","https://test12345.live/?num_scrambled_semantic=8&num_scrambled_causal=4&num_scrambled_schematic=4&participantId=CE61CE69FCD54A55980C6183DFBF9B90&assignmentId=dc42b247-f0da-4477-96d2-8d0e148540a7&projectId=ba640c14-69c5-453e-80b2-29051492c0e0","CE61CE69FCD54A55980C6183DFBF9B90-2025-05-14-21-55-58","","692","","images/semantic_sequence/exploring_nature_semantic/exploring_nature_semantic_7.png","0","",""
"","","","","","image-button-response","51","1445615","0.0-10.0-1.0-2.8","CE61CE69FCD54A55980C6183DFBF9B90","CE61CE69FCD54A55980C6183DFBF9B90","dc42b247-f0da-4477-96d2-8d0e148540a7","ba640c14-69c5-453e-80b2-29051492c0e0","{""num_scrambled_semantic"":""8"",""num_scrambled_causal"":""4"",""num_scrambled_schematic"":""4"",""participantId"":""CE61CE69FCD54A55980C6183DFBF9B90"",""assignmentId"":""dc42b247-f0da-4477-96d2-8d0e148540a7"",""projectId"":""ba640c14-69c5-453e-80b2-29051492c0e0""}","https://test12345.live/?num_scrambled_semantic=8&num_scrambled_causal=4&num_scrambled_schematic=4&participantId=CE61CE69FCD54A55980C6183DFBF9B90&assignmentId=dc42b247-f0da-4477-96d2-8d0e148540a7&projectId=ba640c14-69c5-453e-80b2-29051492c0e0","CE61CE69FCD54A55980C6183DFBF9B90-2025-05-14-21-55-58","","null","","[]","null","",""
"","","","","","image-button-response","52","1450118","0.0-10.0-1.0-0.9","CE61CE69FCD54A55980C6183DFBF9B90","CE61CE69FCD54A55980C6183DFBF9B90","dc42b247-f0da-4477-96d2-8d0e148540a7","ba640c14-69c5-453e-80b2-29051492c0e0","{""num_scrambled_semantic"":""8"",""num_scrambled_causal"":""4"",""num_scrambled_schematic"":""4"",""participantId"":""CE61CE69FCD54A55980C6183DFBF9B90"",""assignmentId"":""dc42b247-f0da-4477-96d2-8d0e148540a7"",""projectId"":""ba640c14-69c5-453e-80b2-29051492c0e0""}","https://test12345.live/?num_scrambled_semantic=8&num_scrambled_causal=4&num_scrambled_schematic=4&participantId=CE61CE69FCD54A55980C6183DFBF9B90&assignmentId=dc42b247-f0da-4477-96d2-8d0e148540a7&projectId=ba640c14-69c5-453e-80b2-29051492c0e0","CE61CE69FCD54A55980C6183DFBF9B90-2025-05-14-21-55-58","","null","","images/semantic_sequence/exploring_nature_semantic/exploring_nature_semantic_9.png","null","",""
"","","","","","image-button-response","53","1450740","0.0-10.0-1.0-1.9","CE61CE69FCD54A55980C6183DFBF9B90","CE61CE69FCD54A55980C6183DFBF9B90","dc42b247-f0da-4477-96d2-8d0e148540a7","ba640c14-69c5-453e-80b2-29051492c0e0","{""num_scrambled_semantic"":""8"",""num_scrambled_causal"":""4"",""num_scrambled_schematic"":""4"",""participantId"":""CE61CE69FCD54A55980C6183DFBF9B90"",""assignmentId"":""dc42b247-f0da-4477-96d2-8d0e148540a7"",""projectId"":""ba640c14-69c5-453e-80b2-29051492c0e0""}","https://test12345.live/?num_scrambled_semantic=8&num_scrambled_causal=4&num_scrambled_schematic=4&participantId=CE61CE69FCD54A55980C6183DFBF9B90&assignmentId=dc42b247-f0da-4477-96d2-8d0e148540a7&projectId=ba640c14-69c5-453e-80b2-29051492c0e0","CE61CE69FCD54A55980C6183DFBF9B90-2025-05-14-21-55-58","","621","","images/semantic_sequence/exploring_nature_semantic/exploring_nature_semantic_9.png","0","",""
"","","","","","image-button-response","54","1452551","0.0-10.0-1.0-2.9","CE61CE69FCD54A55980C6183DFBF9B90","CE61CE69FCD54A55980C6183DFBF9B90","dc42b247-f0da-4477-96d2-8d0e148540a7","ba640c14-69c5-453e-80b2-29051492c0e0","{""num_scrambled_semantic"":""8"",""num_scrambled_causal"":""4"",""num_scrambled_schematic"":""4"",""participantId"":""CE61CE69FCD54A55980C6183DFBF9B90"",""assignmentId"":""dc42b247-f0da-4477-96d2-8d0e148540a7"",""projectId"":""ba640c14-69c5-453e-80b2-29051492c0e0""}","https://test12345.live/?num_scrambled_semantic=8&num_scrambled_causal=4&num_scrambled_schematic=4&participantId=CE61CE69FCD54A55980C6183DFBF9B90&assignmentId=dc42b247-f0da-4477-96d2-8d0e148540a7&projectId=ba640c14-69c5-453e-80b2-29051492c0e0","CE61CE69FCD54A55980C6183DFBF9B90-2025-05-14-21-55-58","","null","","[]","null","",""
"","","","","","html-audio-response","55","1472251","0.0-11.0","CE61CE69FCD54A55980C6183DFBF9B90","CE61CE69FCD54A55980C6183DFBF9B90","dc42b247-f0da-4477-96d2-8d0e148540a7","ba640c14-69c5-453e-80b2-29051492c0e0","{""num_scrambled_semantic"":""8"",""num_scrambled_causal"":""4"",""num_scrambled_schematic"":""4"",""participantId"":""CE61CE69FCD54A55980C6183DFBF9B90"",""assignmentId"":""dc42b247-f0da-4477-96d2-8d0e148540a7"",""projectId"":""ba640c14-69c5-453e-80b2-29051492c0e0""}","https://test12345.live/?num_scrambled_semantic=8&num_scrambled_causal=4&num_scrambled_schematic=4&participantId=CE61CE69FCD54A55980C6183DFBF9B90&assignmentId=dc42b247-f0da-4477-96d2-8d0e148540a7&projectId=ba640c14-69c5-453e-80b2-29051492c0e0","CE61CE69FCD54A55980C6183DFBF9B90-2025-05-14-21-55-58","","15152","","[""<span style=\""color: red; font-size: 24px\""> NOW RECORDING</span><p>Please say out loud all the images you saw, as many as you can remember. The images can be said in any order.</p>""]","","1","exploring_nature_semantic"
"","","","","","image-button-response","56","1478256","0.0-12.0-0.0","CE61CE69FCD54A55980C6183DFBF9B90","CE61CE69FCD54A55980C6183DFBF9B90","dc42b247-f0da-4477-96d2-8d0e148540a7","ba640c14-69c5-453e-80b2-29051492c0e0","{""num_scrambled_semantic"":""8"",""num_scrambled_causal"":""4"",""num_scrambled_schematic"":""4"",""participantId"":""CE61CE69FCD54A55980C6183DFBF9B90"",""assignmentId"":""dc42b247-f0da-4477-96d2-8d0e148540a7"",""projectId"":""ba640c14-69c5-453e-80b2-29051492c0e0""}","https://test12345.live/?num_scrambled_semantic=8&num_scrambled_causal=4&num_scrambled_schematic=4&participantId=CE61CE69FCD54A55980C6183DFBF9B90&assignmentId=dc42b247-f0da-4477-96d2-8d0e148540a7&projectId=ba640c14-69c5-453e-80b2-29051492c0e0","CE61CE69FCD54A55980C6183DFBF9B90-2025-05-14-21-55-58","","null","","images/semantic_sequence/housework_semantic/housework_semantic_0.png","null","",""
"","","","","","image-button-response","57","1482758","0.0-12.0-1.0-0.0","CE61CE69FCD54A55980C6183DFBF9B90","CE61CE69FCD54A55980C6183DFBF9B90","dc42b247-f0da-4477-96d2-8d0e148540a7","ba640c14-69c5-453e-80b2-29051492c0e0","{""num_scrambled_semantic"":""8"",""num_scrambled_causal"":""4"",""num_scrambled_schematic"":""4"",""participantId"":""CE61CE69FCD54A55980C6183DFBF9B90"",""assignmentId"":""dc42b247-f0da-4477-96d2-8d0e148540a7"",""projectId"":""ba640c14-69c5-453e-80b2-29051492c0e0""}","https://test12345.live/?num_scrambled_semantic=8&num_scrambled_causal=4&num_scrambled_schematic=4&participantId=CE61CE69FCD54A55980C6183DFBF9B90&assignmentId=dc42b247-f0da-4477-96d2-8d0e148540a7&projectId=ba640c14-69c5-453e-80b2-29051492c0e0","CE61CE69FCD54A55980C6183DFBF9B90-2025-05-14-21-55-58","","null","","images/semantic_sequence/housework_semantic/housework_semantic_3.png","null","",""
"","","","","","image-button-response","58","1484715","0.0-12.0-1.0-1.0","CE61CE69FCD54A55980C6183DFBF9B90","CE61CE69FCD54A55980C6183DFBF9B90","dc42b247-f0da-4477-96d2-8d0e148540a7","ba640c14-69c5-453e-80b2-29051492c0e0","{""num_scrambled_semantic"":""8"",""num_scrambled_causal"":""4"",""num_scrambled_schematic"":""4"",""participantId"":""CE61CE69FCD54A55980C6183DFBF9B90"",""assignmentId"":""dc42b247-f0da-4477-96d2-8d0e148540a7"",""projectId"":""ba640c14-69c5-453e-80b2-29051492c0e0""}","https://test12345.live/?num_scrambled_semantic=8&num_scrambled_causal=4&num_scrambled_schematic=4&participantId=CE61CE69FCD54A55980C6183DFBF9B90&assignmentId=dc42b247-f0da-4477-96d2-8d0e148540a7&projectId=ba640c14-69c5-453e-80b2-29051492c0e0","CE61CE69FCD54A55980C6183DFBF9B90-2025-05-14-21-55-58","","1957","","images/semantic_sequence/housework_semantic/housework_semantic_3.png","0","",""
"","","","","","image-button-response","59","1486527","0.0-12.0-1.0-2.0","CE61CE69FCD54A55980C6183DFBF9B90","CE61CE69FCD54A55980C6183DFBF9B90","dc42b247-f0da-4477-96d2-8d0e148540a7","ba640c14-69c5-453e-80b2-29051492c0e0","{""num_scrambled_semantic"":""8"",""num_scrambled_causal"":""4"",""num_scrambled_schematic"":""4"",""participantId"":""CE61CE69FCD54A55980C6183DFBF9B90"",""assignmentId"":""dc42b247-f0da-4477-96d2-8d0e148540a7"",""projectId"":""ba640c14-69c5-453e-80b2-29051492c0e0""}","https://test12345.live/?num_scrambled_semantic=8&num_scrambled_causal=4&num_scrambled_schematic=4&participantId=CE61CE69FCD54A55980C6183DFBF9B90&assignmentId=dc42b247-f0da-4477-96d2-8d0e148540a7&projectId=ba640c14-69c5-453e-80b2-29051492c0e0","CE61CE69FCD54A55980C6183DFBF9B90-2025-05-14-21-55-58","","null","","[]","null","",""
"","","","","","image-button-response","60","1491038","0.0-12.0-1.0-0.1","CE61CE69FCD54A55980C6183DFBF9B90","CE61CE69FCD54A55980C6183DFBF9B90","dc42b247-f0da-4477-96d2-8d0e148540a7","ba640c14-69c5-453e-80b2-29051492c0e0","{""num_scrambled_semantic"":""8"",""num_scrambled_causal"":""4"",""num_scrambled_schematic"":""4"",""participantId"":""CE61CE69FCD54A55980C6183DFBF9B90"",""assignmentId"":""dc42b247-f0da-4477-96d2-8d0e148540a7"",""projectId"":""ba640c14-69c5-453e-80b2-29051492c0e0""}","https://test12345.live/?num_scrambled_semantic=8&num_scrambled_causal=4&num_scrambled_schematic=4&participantId=CE61CE69FCD54A55980C6183DFBF9B90&assignmentId=dc42b247-f0da-4477-96d2-8d0e148540a7&projectId=ba640c14-69c5-453e-80b2-29051492c0e0","CE61CE69FCD54A55980C6183DFBF9B90-2025-05-14-21-55-58","","null","","images/semantic_sequence/housework_semantic/housework_semantic_6.png","null","",""
"","","","","","image-button-response","61","1492911","0.0-12.0-1.0-1.1","CE61CE69FCD54A55980C6183DFBF9B90","CE61CE69FCD54A55980C6183DFBF9B90","dc42b247-f0da-4477-96d2-8d0e148540a7","ba640c14-69c5-453e-80b2-29051492c0e0","{""num_scrambled_semantic"":""8"",""num_scrambled_causal"":""4"",""num_scrambled_schematic"":""4"",""participantId"":""CE61CE69FCD54A55980C6183DFBF9B90"",""assignmentId"":""dc42b247-f0da-4477-96d2-8d0e148540a7"",""projectId"":""ba640c14-69c5-453e-80b2-29051492c0e0""}","https://test12345.live/?num_scrambled_semantic=8&num_scrambled_causal=4&num_scrambled_schematic=4&participantId=CE61CE69FCD54A55980C6183DFBF9B90&assignmentId=dc42b247-f0da-4477-96d2-8d0e148540a7&projectId=ba640c14-69c5-453e-80b2-29051492c0e0","CE61CE69FCD54A55980C6183DFBF9B90-2025-05-14-21-55-58","","1872","","images/semantic_sequence/housework_semantic/housework_semantic_6.png","0","",""
"","","","","","image-button-response","62","1494714","0.0-12.0-1.0-2.1","CE61CE69FCD54A55980C6183DFBF9B90","CE61CE69FCD54A55980C6183DFBF9B90","dc42b247-f0da-4477-96d2-8d0e148540a7","ba640c14-69c5-453e-80b2-29051492c0e0","{""num_scrambled_semantic"":""8"",""num_scrambled_causal"":""4"",""num_scrambled_schematic"":""4"",""participantId"":""CE61CE69FCD54A55980C6183DFBF9B90"",""assignmentId"":""dc42b247-f0da-4477-96d2-8d0e148540a7"",""projectId"":""ba640c14-69c5-453e-80b2-29051492c0e0""}","https://test12345.live/?num_scrambled_semantic=8&num_scrambled_causal=4&num_scrambled_schematic=4&participantId=CE61CE69FCD54A55980C6183DFBF9B90&assignmentId=dc42b247-f0da-4477-96d2-8d0e148540a7&projectId=ba640c14-69c5-453e-80b2-29051492c0e0","CE61CE69FCD54A55980C6183DFBF9B90-2025-05-14-21-55-58","","null","","[]","null","",""
"","","","","","image-button-response","63","1499215","0.0-12.0-1.0-0.2","CE61CE69FCD54A55980C6183DFBF9B90","CE61CE69FCD54A55980C6183DFBF9B90","dc42b247-f0da-4477-96d2-8d0e148540a7","ba640c14-69c5-453e-80b2-29051492c0e0","{""num_scrambled_semantic"":""8"",""num_scrambled_causal"":""4"",""num_scrambled_schematic"":""4"",""participantId"":""CE61CE69FCD54A55980C6183DFBF9B90"",""assignmentId"":""dc42b247-f0da-4477-96d2-8d0e148540a7"",""projectId"":""ba640c14-69c5-453e-80b2-29051492c0e0""}","https://test12345.live/?num_scrambled_semantic=8&num_scrambled_causal=4&num_scrambled_schematic=4&participantId=CE61CE69FCD54A55980C6183DFBF9B90&assignmentId=dc42b247-f0da-4477-96d2-8d0e148540a7&projectId=ba640c14-69c5-453e-80b2-29051492c0e0","CE61CE69FCD54A55980C6183DFBF9B90-2025-05-14-21-55-58","","null","","images/semantic_sequence/housework_semantic/housework_semantic_2.png","null","",""
"","","","","","image-button-response","64","1500080","0.0-12.0-1.0-1.2","CE61CE69FCD54A55980C6183DFBF9B90","CE61CE69FCD54A55980C6183DFBF9B90","dc42b247-f0da-4477-96d2-8d0e148540a7","ba640c14-69c5-453e-80b2-29051492c0e0","{""num_scrambled_semantic"":""8"",""num_scrambled_causal"":""4"",""num_scrambled_schematic"":""4"",""participantId"":""CE61CE69FCD54A55980C6183DFBF9B90"",""assignmentId"":""dc42b247-f0da-4477-96d2-8d0e148540a7"",""projectId"":""ba640c14-69c5-453e-80b2-29051492c0e0""}","https://test12345.live/?num_scrambled_semantic=8&num_scrambled_causal=4&num_scrambled_schematic=4&participantId=CE61CE69FCD54A55980C6183DFBF9B90&assignmentId=dc42b247-f0da-4477-96d2-8d0e148540a7&projectId=ba640c14-69c5-453e-80b2-29051492c0e0","CE61CE69FCD54A55980C6183DFBF9B90-2025-05-14-21-55-58","","864","","images/semantic_sequence/housework_semantic/housework_semantic_2.png","0","",""
"","","","","","image-button-response","65","1501882","0.0-12.0-1.0-2.2","CE61CE69FCD54A55980C6183DFBF9B90","CE61CE69FCD54A55980C6183DFBF9B90","dc42b247-f0da-4477-96d2-8d0e148540a7","ba640c14-69c5-453e-80b2-29051492c0e0","{""num_scrambled_semantic"":""8"",""num_scrambled_causal"":""4"",""num_scrambled_schematic"":""4"",""participantId"":""CE61CE69FCD54A55980C6183DFBF9B90"",""assignmentId"":""dc42b247-f0da-4477-96d2-8d0e148540a7"",""projectId"":""ba640c14-69c5-453e-80b2-29051492c0e0""}","https://test12345.live/?num_scrambled_semantic=8&num_scrambled_causal=4&num_scrambled_schematic=4&participantId=CE61CE69FCD54A55980C6183DFBF9B90&assignmentId=dc42b247-f0da-4477-96d2-8d0e148540a7&projectId=ba640c14-69c5-453e-80b2-29051492c0e0","CE61CE69FCD54A55980C6183DFBF9B90-2025-05-14-21-55-58","","null","","[]","null","",""
"","","","","","image-button-response","66","1506386","0.0-12.0-1.0-0.3","CE61CE69FCD54A55980C6183DFBF9B90","CE61CE69FCD54A55980C6183DFBF9B90","dc42b247-f0da-4477-96d2-8d0e148540a7","ba640c14-69c5-453e-80b2-29051492c0e0","{""num_scrambled_semantic"":""8"",""num_scrambled_causal"":""4"",""num_scrambled_schematic"":""4"",""participantId"":""CE61CE69FCD54A55980C6183DFBF9B90"",""assignmentId"":""dc42b247-f0da-4477-96d2-8d0e148540a7"",""projectId"":""ba640c14-69c5-453e-80b2-29051492c0e0""}","https://test12345.live/?num_scrambled_semantic=8&num_scrambled_causal=4&num_scrambled_schematic=4&participantId=CE61CE69FCD54A55980C6183DFBF9B90&assignmentId=dc42b247-f0da-4477-96d2-8d0e148540a7&projectId=ba640c14-69c5-453e-80b2-29051492c0e0","CE61CE69FCD54A55980C6183DFBF9B90-2025-05-14-21-55-58","","null","","images/semantic_sequence/housework_semantic/housework_semantic_8.png","null","",""
"","","","","","image-button-response","67","1507110","0.0-12.0-1.0-1.3","CE61CE69FCD54A55980C6183DFBF9B90","CE61CE69FCD54A55980C6183DFBF9B90","dc42b247-f0da-4477-96d2-8d0e148540a7","ba640c14-69c5-453e-80b2-29051492c0e0","{""num_scrambled_semantic"":""8"",""num_scrambled_causal"":""4"",""num_scrambled_schematic"":""4"",""participantId"":""CE61CE69FCD54A55980C6183DFBF9B90"",""assignmentId"":""dc42b247-f0da-4477-96d2-8d0e148540a7"",""projectId"":""ba640c14-69c5-453e-80b2-29051492c0e0""}","https://test12345.live/?num_scrambled_semantic=8&num_scrambled_causal=4&num_scrambled_schematic=4&participantId=CE61CE69FCD54A55980C6183DFBF9B90&assignmentId=dc42b247-f0da-4477-96d2-8d0e148540a7&projectId=ba640c14-69c5-453e-80b2-29051492c0e0","CE61CE69FCD54A55980C6183DFBF9B90-2025-05-14-21-55-58","","723","","images/semantic_sequence/housework_semantic/housework_semantic_8.png","0","",""
"","","","","","image-button-response","68","1508920","0.0-12.0-1.0-2.3","CE61CE69FCD54A55980C6183DFBF9B90","CE61CE69FCD54A55980C6183DFBF9B90","dc42b247-f0da-4477-96d2-8d0e148540a7","ba640c14-69c5-453e-80b2-29051492c0e0","{""num_scrambled_semantic"":""8"",""num_scrambled_causal"":""4"",""num_scrambled_schematic"":""4"",""participantId"":""CE61CE69FCD54A55980C6183DFBF9B90"",""assignmentId"":""dc42b247-f0da-4477-96d2-8d0e148540a7"",""projectId"":""ba640c14-69c5-453e-80b2-29051492c0e0""}","https://test12345.live/?num_scrambled_semantic=8&num_scrambled_causal=4&num_scrambled_schematic=4&participantId=CE61CE69FCD54A55980C6183DFBF9B90&assignmentId=dc42b247-f0da-4477-96d2-8d0e148540a7&projectId=ba640c14-69c5-453e-80b2-29051492c0e0","CE61CE69FCD54A55980C6183DFBF9B90-2025-05-14-21-55-58","","null","","[]","null","",""
"","","","","","image-button-response","69","1513423","0.0-12.0-1.0-0.4","CE61CE69FCD54A55980C6183DFBF9B90","CE61CE69FCD54A55980C6183DFBF9B90","dc42b247-f0da-4477-96d2-8d0e148540a7","ba640c14-69c5-453e-80b2-29051492c0e0","{""num_scrambled_semantic"":""8"",""num_scrambled_causal"":""4"",""num_scrambled_schematic"":""4"",""participantId"":""CE61CE69FCD54A55980C6183DFBF9B90"",""assignmentId"":""dc42b247-f0da-4477-96d2-8d0e148540a7"",""projectId"":""ba640c14-69c5-453e-80b2-29051492c0e0""}","https://test12345.live/?num_scrambled_semantic=8&num_scrambled_causal=4&num_scrambled_schematic=4&participantId=CE61CE69FCD54A55980C6183DFBF9B90&assignmentId=dc42b247-f0da-4477-96d2-8d0e148540a7&projectId=ba640c14-69c5-453e-80b2-29051492c0e0","CE61CE69FCD54A55980C6183DFBF9B90-2025-05-14-21-55-58","","null","","images/semantic_sequence/housework_semantic/housework_semantic_7.png","null","",""
"","","","","","image-button-response","70","1514095","0.0-12.0-1.0-1.4","CE61CE69FCD54A55980C6183DFBF9B90","CE61CE69FCD54A55980C6183DFBF9B90","dc42b247-f0da-4477-96d2-8d0e148540a7","ba640c14-69c5-453e-80b2-29051492c0e0","{""num_scrambled_semantic"":""8"",""num_scrambled_causal"":""4"",""num_scrambled_schematic"":""4"",""participantId"":""CE61CE69FCD54A55980C6183DFBF9B90"",""assignmentId"":""dc42b247-f0da-4477-96d2-8d0e148540a7"",""projectId"":""ba640c14-69c5-453e-80b2-29051492c0e0""}","https://test12345.live/?num_scrambled_semantic=8&num_scrambled_causal=4&num_scrambled_schematic=4&participantId=CE61CE69FCD54A55980C6183DFBF9B90&assignmentId=dc42b247-f0da-4477-96d2-8d0e148540a7&projectId=ba640c14-69c5-453e-80b2-29051492c0e0","CE61CE69FCD54A55980C6183DFBF9B90-2025-05-14-21-55-58","","671","","images/semantic_sequence/housework_semantic/housework_semantic_7.png","0","",""
"","","","","","image-button-response","71","1515897","0.0-12.0-1.0-2.4","CE61CE69FCD54A55980C6183DFBF9B90","CE61CE69FCD54A55980C6183DFBF9B90","dc42b247-f0da-4477-96d2-8d0e148540a7","ba640c14-69c5-453e-80b2-29051492c0e0","{""num_scrambled_semantic"":""8"",""num_scrambled_causal"":""4"",""num_scrambled_schematic"":""4"",""participantId"":""CE61CE69FCD54A55980C6183DFBF9B90"",""assignmentId"":""dc42b247-f0da-4477-96d2-8d0e148540a7"",""projectId"":""ba640c14-69c5-453e-80b2-29051492c0e0""}","https://test12345.live/?num_scrambled_semantic=8&num_scrambled_causal=4&num_scrambled_schematic=4&participantId=CE61CE69FCD54A55980C6183DFBF9B90&assignmentId=dc42b247-f0da-4477-96d2-8d0e148540a7&projectId=ba640c14-69c5-453e-80b2-29051492c0e0","CE61CE69FCD54A55980C6183DFBF9B90-2025-05-14-21-55-58","","null","","[]","null","",""
"","","","","","image-button-response","72","1520405","0.0-12.0-1.0-0.5","CE61CE69FCD54A55980C6183DFBF9B90","CE61CE69FCD54A55980C6183DFBF9B90","dc42b247-f0da-4477-96d2-8d0e148540a7","ba640c14-69c5-453e-80b2-29051492c0e0","{""num_scrambled_semantic"":""8"",""num_scrambled_causal"":""4"",""num_scrambled_schematic"":""4"",""participantId"":""CE61CE69FCD54A55980C6183DFBF9B90"",""assignmentId"":""dc42b247-f0da-4477-96d2-8d0e148540a7"",""projectId"":""ba640c14-69c5-453e-80b2-29051492c0e0""}","https://test12345.live/?num_scrambled_semantic=8&num_scrambled_causal=4&num_scrambled_schematic=4&participantId=CE61CE69FCD54A55980C6183DFBF9B90&assignmentId=dc42b247-f0da-4477-96d2-8d0e148540a7&projectId=ba640c14-69c5-453e-80b2-29051492c0e0","CE61CE69FCD54A55980C6183DFBF9B90-2025-05-14-21-55-58","","null","","images/semantic_sequence/housework_semantic/housework_semantic_4.png","null","",""
"","","","","","image-button-response","73","1521004","0.0-12.0-1.0-1.5","CE61CE69FCD54A55980C6183DFBF9B90","CE61CE69FCD54A55980C6183DFBF9B90","dc42b247-f0da-4477-96d2-8d0e148540a7","ba640c14-69c5-453e-80b2-29051492c0e0","{""num_scrambled_semantic"":""8"",""num_scrambled_causal"":""4"",""num_scrambled_schematic"":""4"",""participantId"":""CE61CE69FCD54A55980C6183DFBF9B90"",""assignmentId"":""dc42b247-f0da-4477-96d2-8d0e148540a7"",""projectId"":""ba640c14-69c5-453e-80b2-29051492c0e0""}","https://test12345.live/?num_scrambled_semantic=8&num_scrambled_causal=4&num_scrambled_schematic=4&participantId=CE61CE69FCD54A55980C6183DFBF9B90&assignmentId=dc42b247-f0da-4477-96d2-8d0e148540a7&projectId=ba640c14-69c5-453e-80b2-29051492c0e0","CE61CE69FCD54A55980C6183DFBF9B90-2025-05-14-21-55-58","","598","","images/semantic_sequence/housework_semantic/housework_semantic_4.png","0","",""
"","","","","","image-button-response","74","1522807","0.0-12.0-1.0-2.5","CE61CE69FCD54A55980C6183DFBF9B90","CE61CE69FCD54A55980C6183DFBF9B90","dc42b247-f0da-4477-96d2-8d0e148540a7","ba640c14-69c5-453e-80b2-29051492c0e0","{""num_scrambled_semantic"":""8"",""num_scrambled_causal"":""4"",""num_scrambled_schematic"":""4"",""participantId"":""CE61CE69FCD54A55980C6183DFBF9B90"",""assignmentId"":""dc42b247-f0da-4477-96d2-8d0e148540a7"",""projectId"":""ba640c14-69c5-453e-80b2-29051492c0e0""}","https://test12345.live/?num_scrambled_semantic=8&num_scrambled_causal=4&num_scrambled_schematic=4&participantId=CE61CE69FCD54A55980C6183DFBF9B90&assignmentId=dc42b247-f0da-4477-96d2-8d0e148540a7&projectId=ba640c14-69c5-453e-80b2-29051492c0e0","CE61CE69FCD54A55980C6183DFBF9B90-2025-05-14-21-55-58","","null","","[]","null","",""
"","","","","","image-button-response","75","1527316","0.0-12.0-1.0-0.6","CE61CE69FCD54A55980C6183DFBF9B90","CE61CE69FCD54A55980C6183DFBF9B90","dc42b247-f0da-4477-96d2-8d0e148540a7","ba640c14-69c5-453e-80b2-29051492c0e0","{""num_scrambled_semantic"":""8"",""num_scrambled_causal"":""4"",""num_scrambled_schematic"":""4"",""participantId"":""CE61CE69FCD54A55980C6183DFBF9B90"",""assignmentId"":""dc42b247-f0da-4477-96d2-8d0e148540a7"",""projectId"":""ba640c14-69c5-453e-80b2-29051492c0e0""}","https://test12345.live/?num_scrambled_semantic=8&num_scrambled_causal=4&num_scrambled_schematic=4&participantId=CE61CE69FCD54A55980C6183DFBF9B90&assignmentId=dc42b247-f0da-4477-96d2-8d0e148540a7&projectId=ba640c14-69c5-453e-80b2-29051492c0e0","CE61CE69FCD54A55980C6183DFBF9B90-2025-05-14-21-55-58","","null","","images/semantic_sequence/housework_semantic/housework_semantic_1.png","null","",""
"","","","","","image-button-response","76","1527851","0.0-12.0-1.0-1.6","CE61CE69FCD54A55980C6183DFBF9B90","CE61CE69FCD54A55980C6183DFBF9B90","dc42b247-f0da-4477-96d2-8d0e148540a7","ba640c14-69c5-453e-80b2-29051492c0e0","{""num_scrambled_semantic"":""8"",""num_scrambled_causal"":""4"",""num_scrambled_schematic"":""4"",""participantId"":""CE61CE69FCD54A55980C6183DFBF9B90"",""assignmentId"":""dc42b247-f0da-4477-96d2-8d0e148540a7"",""projectId"":""ba640c14-69c5-453e-80b2-29051492c0e0""}","https://test12345.live/?num_scrambled_semantic=8&num_scrambled_causal=4&num_scrambled_schematic=4&participantId=CE61CE69FCD54A55980C6183DFBF9B90&assignmentId=dc42b247-f0da-4477-96d2-8d0e148540a7&projectId=ba640c14-69c5-453e-80b2-29051492c0e0","CE61CE69FCD54A55980C6183DFBF9B90-2025-05-14-21-55-58","","534","","images/semantic_sequence/housework_semantic/housework_semantic_1.png","0","",""
"","","","","","image-button-response","77","1529658","0.0-12.0-1.0-2.6","CE61CE69FCD54A55980C6183DFBF9B90","CE61CE69FCD54A55980C6183DFBF9B90","dc42b247-f0da-4477-96d2-8d0e148540a7","ba640c14-69c5-453e-80b2-29051492c0e0","{""num_scrambled_semantic"":""8"",""num_scrambled_causal"":""4"",""num_scrambled_schematic"":""4"",""participantId"":""CE61CE69FCD54A55980C6183DFBF9B90"",""assignmentId"":""dc42b247-f0da-4477-96d2-8d0e148540a7"",""projectId"":""ba640c14-69c5-453e-80b2-29051492c0e0""}","https://test12345.live/?num_scrambled_semantic=8&num_scrambled_causal=4&num_scrambled_schematic=4&participantId=CE61CE69FCD54A55980C6183DFBF9B90&assignmentId=dc42b247-f0da-4477-96d2-8d0e148540a7&projectId=ba640c14-69c5-453e-80b2-29051492c0e0","CE61CE69FCD54A55980C6183DFBF9B90-2025-05-14-21-55-58","","null","","[]","null","",""
"","","","","","image-button-response","78","1534165","0.0-12.0-1.0-0.7","CE61CE69FCD54A55980C6183DFBF9B90","CE61CE69FCD54A55980C6183DFBF9B90","dc42b247-f0da-4477-96d2-8d0e148540a7","ba640c14-69c5-453e-80b2-29051492c0e0","{""num_scrambled_semantic"":""8"",""num_scrambled_causal"":""4"",""num_scrambled_schematic"":""4"",""participantId"":""CE61CE69FCD54A55980C6183DFBF9B90"",""assignmentId"":""dc42b247-f0da-4477-96d2-8d0e148540a7"",""projectId"":""ba640c14-69c5-453e-80b2-29051492c0e0""}","https://test12345.live/?num_scrambled_semantic=8&num_scrambled_causal=4&num_scrambled_schematic=4&participantId=CE61CE69FCD54A55980C6183DFBF9B90&assignmentId=dc42b247-f0da-4477-96d2-8d0e148540a7&projectId=ba640c14-69c5-453e-80b2-29051492c0e0","CE61CE69FCD54A55980C6183DFBF9B90-2025-05-14-21-55-58","","null","","images/semantic_sequence/housework_semantic/housework_semantic_ten.png","null","",""
"","","","","","image-button-response","79","1534665","0.0-12.0-1.0-1.7","CE61CE69FCD54A55980C6183DFBF9B90","CE61CE69FCD54A55980C6183DFBF9B90","dc42b247-f0da-4477-96d2-8d0e148540a7","ba640c14-69c5-453e-80b2-29051492c0e0","{""num_scrambled_semantic"":""8"",""num_scrambled_causal"":""4"",""num_scrambled_schematic"":""4"",""participantId"":""CE61CE69FCD54A55980C6183DFBF9B90"",""assignmentId"":""dc42b247-f0da-4477-96d2-8d0e148540a7"",""projectId"":""ba640c14-69c5-453e-80b2-29051492c0e0""}","https://test12345.live/?num_scrambled_semantic=8&num_scrambled_causal=4&num_scrambled_schematic=4&participantId=CE61CE69FCD54A55980C6183DFBF9B90&assignmentId=dc42b247-f0da-4477-96d2-8d0e148540a7&projectId=ba640c14-69c5-453e-80b2-29051492c0e0","CE61CE69FCD54A55980C6183DFBF9B90-2025-05-14-21-55-58","","499","","images/semantic_sequence/housework_semantic/housework_semantic_ten.png","0","",""
"","","","","","image-button-response","80","1536469","0.0-12.0-1.0-2.7","CE61CE69FCD54A55980C6183DFBF9B90","CE61CE69FCD54A55980C6183DFBF9B90","dc42b247-f0da-4477-96d2-8d0e148540a7","ba640c14-69c5-453e-80b2-29051492c0e0","{""num_scrambled_semantic"":""8"",""num_scrambled_causal"":""4"",""num_scrambled_schematic"":""4"",""participantId"":""CE61CE69FCD54A55980C6183DFBF9B90"",""assignmentId"":""dc42b247-f0da-4477-96d2-8d0e148540a7"",""projectId"":""ba640c14-69c5-453e-80b2-29051492c0e0""}","https://test12345.live/?num_scrambled_semantic=8&num_scrambled_causal=4&num_scrambled_schematic=4&participantId=CE61CE69FCD54A55980C6183DFBF9B90&assignmentId=dc42b247-f0da-4477-96d2-8d0e148540a7&projectId=ba640c14-69c5-453e-80b2-29051492c0e0","CE61CE69FCD54A55980C6183DFBF9B90-2025-05-14-21-55-58","","null","","[]","null","",""
"","","","","","image-button-response","81","1540970","0.0-12.0-1.0-0.8","CE61CE69FCD54A55980C6183DFBF9B90","CE61CE69FCD54A55980C6183DFBF9B90","dc42b247-f0da-4477-96d2-8d0e148540a7","ba640c14-69c5-453e-80b2-29051492c0e0","{""num_scrambled_semantic"":""8"",""num_scrambled_causal"":""4"",""num_scrambled_schematic"":""4"",""participantId"":""CE61CE69FCD54A55980C6183DFBF9B90"",""assignmentId"":""dc42b247-f0da-4477-96d2-8d0e148540a7"",""projectId"":""ba640c14-69c5-453e-80b2-29051492c0e0""}","https://test12345.live/?num_scrambled_semantic=8&num_scrambled_causal=4&num_scrambled_schematic=4&participantId=CE61CE69FCD54A55980C6183DFBF9B90&assignmentId=dc42b247-f0da-4477-96d2-8d0e148540a7&projectId=ba640c14-69c5-453e-80b2-29051492c0e0","CE61CE69FCD54A55980C6183DFBF9B90-2025-05-14-21-55-58","","null","","images/semantic_sequence/housework_semantic/housework_semantic_9.png","null","",""
"","","","","","image-button-response","82","1541355","0.0-12.0-1.0-1.8","CE61CE69FCD54A55980C6183DFBF9B90","CE61CE69FCD54A55980C6183DFBF9B90","dc42b247-f0da-4477-96d2-8d0e148540a7","ba640c14-69c5-453e-80b2-29051492c0e0","{""num_scrambled_semantic"":""8"",""num_scrambled_causal"":""4"",""num_scrambled_schematic"":""4"",""participantId"":""CE61CE69FCD54A55980C6183DFBF9B90"",""assignmentId"":""dc42b247-f0da-4477-96d2-8d0e148540a7"",""projectId"":""ba640c14-69c5-453e-80b2-29051492c0e0""}","https://test12345.live/?num_scrambled_semantic=8&num_scrambled_causal=4&num_scrambled_schematic=4&participantId=CE61CE69FCD54A55980C6183DFBF9B90&assignmentId=dc42b247-f0da-4477-96d2-8d0e148540a7&projectId=ba640c14-69c5-453e-80b2-29051492c0e0","CE61CE69FCD54A55980C6183DFBF9B90-2025-05-14-21-55-58","","384","","images/semantic_sequence/housework_semantic/housework_semantic_9.png","0","",""
"","","","","","image-button-response","83","1543171","0.0-12.0-1.0-2.8","CE61CE69FCD54A55980C6183DFBF9B90","CE61CE69FCD54A55980C6183DFBF9B90","dc42b247-f0da-4477-96d2-8d0e148540a7","ba640c14-69c5-453e-80b2-29051492c0e0","{""num_scrambled_semantic"":""8"",""num_scrambled_causal"":""4"",""num_scrambled_schematic"":""4"",""participantId"":""CE61CE69FCD54A55980C6183DFBF9B90"",""assignmentId"":""dc42b247-f0da-4477-96d2-8d0e148540a7"",""projectId"":""ba640c14-69c5-453e-80b2-29051492c0e0""}","https://test12345.live/?num_scrambled_semantic=8&num_scrambled_causal=4&num_scrambled_schematic=4&participantId=CE61CE69FCD54A55980C6183DFBF9B90&assignmentId=dc42b247-f0da-4477-96d2-8d0e148540a7&projectId=ba640c14-69c5-453e-80b2-29051492c0e0","CE61CE69FCD54A55980C6183DFBF9B90-2025-05-14-21-55-58","","null","","[]","null","",""
"","","","","","image-button-response","84","1547682","0.0-12.0-1.0-0.9","CE61CE69FCD54A55980C6183DFBF9B90","CE61CE69FCD54A55980C6183DFBF9B90","dc42b247-f0da-4477-96d2-8d0e148540a7","ba640c14-69c5-453e-80b2-29051492c0e0","{""num_scrambled_semantic"":""8"",""num_scrambled_causal"":""4"",""num_scrambled_schematic"":""4"",""participantId"":""CE61CE69FCD54A55980C6183DFBF9B90"",""assignmentId"":""dc42b247-f0da-4477-96d2-8d0e148540a7"",""projectId"":""ba640c14-69c5-453e-80b2-29051492c0e0""}","https://test12345.live/?num_scrambled_semantic=8&num_scrambled_causal=4&num_scrambled_schematic=4&participantId=CE61CE69FCD54A55980C6183DFBF9B90&assignmentId=dc42b247-f0da-4477-96d2-8d0e148540a7&projectId=ba640c14-69c5-453e-80b2-29051492c0e0","CE61CE69FCD54A55980C6183DFBF9B90-2025-05-14-21-55-58","","null","","images/semantic_sequence/housework_semantic/housework_semantic_5.png","null","",""
"","","","","","image-button-response","85","1549051","0.0-12.0-1.0-1.9","CE61CE69FCD54A55980C6183DFBF9B90","CE61CE69FCD54A55980C6183DFBF9B90","dc42b247-f0da-4477-96d2-8d0e148540a7","ba640c14-69c5-453e-80b2-29051492c0e0","{""num_scrambled_semantic"":""8"",""num_scrambled_causal"":""4"",""num_scrambled_schematic"":""4"",""participantId"":""CE61CE69FCD54A55980C6183DFBF9B90"",""assignmentId"":""dc42b247-f0da-4477-96d2-8d0e148540a7"",""projectId"":""ba640c14-69c5-453e-80b2-29051492c0e0""}","https://test12345.live/?num_scrambled_semantic=8&num_scrambled_causal=4&num_scrambled_schematic=4&participantId=CE61CE69FCD54A55980C6183DFBF9B90&assignmentId=dc42b247-f0da-4477-96d2-8d0e148540a7&projectId=ba640c14-69c5-453e-80b2-29051492c0e0","CE61CE69FCD54A55980C6183DFBF9B90-2025-05-14-21-55-58","","1368","","images/semantic_sequence/housework_semantic/housework_semantic_5.png","0","",""
"","","","","","image-button-response","86","1550854","0.0-12.0-1.0-2.9","CE61CE69FCD54A55980C6183DFBF9B90","CE61CE69FCD54A55980C6183DFBF9B90","dc42b247-f0da-4477-96d2-8d0e148540a7","ba640c14-69c5-453e-80b2-29051492c0e0","{""num_scrambled_semantic"":""8"",""num_scrambled_causal"":""4"",""num_scrambled_schematic"":""4"",""participantId"":""CE61CE69FCD54A55980C6183DFBF9B90"",""assignmentId"":""dc42b247-f0da-4477-96d2-8d0e148540a7"",""projectId"":""ba640c14-69c5-453e-80b2-29051492c0e0""}","https://test12345.live/?num_scrambled_semantic=8&num_scrambled_causal=4&num_scrambled_schematic=4&participantId=CE61CE69FCD54A55980C6183DFBF9B90&assignmentId=dc42b247-f0da-4477-96d2-8d0e148540a7&projectId=ba640c14-69c5-453e-80b2-29051492c0e0","CE61CE69FCD54A55980C6183DFBF9B90-2025-05-14-21-55-58","","null","","[]","null","",""
"","","","","","html-audio-response","87","1568815","0.0-13.0","CE61CE69FCD54A55980C6183DFBF9B90","CE61CE69FCD54A55980C6183DFBF9B90","dc42b247-f0da-4477-96d2-8d0e148540a7","ba640c14-69c5-453e-80b2-29051492c0e0","{""num_scrambled_semantic"":""8"",""num_scrambled_causal"":""4"",""num_scrambled_schematic"":""4"",""participantId"":""CE61CE69FCD54A55980C6183DFBF9B90"",""assignmentId"":""dc42b247-f0da-4477-96d2-8d0e148540a7"",""projectId"":""ba640c14-69c5-453e-80b2-29051492c0e0""}","https://test12345.live/?num_scrambled_semantic=8&num_scrambled_causal=4&num_scrambled_schematic=4&participantId=CE61CE69FCD54A55980C6183DFBF9B90&assignmentId=dc42b247-f0da-4477-96d2-8d0e148540a7&projectId=ba640c14-69c5-453e-80b2-29051492c0e0","CE61CE69FCD54A55980C6183DFBF9B90-2025-05-14-21-55-58","","17339","","[""<span style=\""color: red; font-size: 24px\""> NOW RECORDING</span><p>Please say out loud all the images you saw, as many as you can remember. The images can be said in any order.</p>""]","","1","housework_semantic"
"","","","","","image-button-response","88","1574821","0.0-14.0-0.0","CE61CE69FCD54A55980C6183DFBF9B90","CE61CE69FCD54A55980C6183DFBF9B90","dc42b247-f0da-4477-96d2-8d0e148540a7","ba640c14-69c5-453e-80b2-29051492c0e0","{""num_scrambled_semantic"":""8"",""num_scrambled_causal"":""4"",""num_scrambled_schematic"":""4"",""participantId"":""CE61CE69FCD54A55980C6183DFBF9B90"",""assignmentId"":""dc42b247-f0da-4477-96d2-8d0e148540a7"",""projectId"":""ba640c14-69c5-453e-80b2-29051492c0e0""}","https://test12345.live/?num_scrambled_semantic=8&num_scrambled_causal=4&num_scrambled_schematic=4&participantId=CE61CE69FCD54A55980C6183DFBF9B90&assignmentId=dc42b247-f0da-4477-96d2-8d0e148540a7&projectId=ba640c14-69c5-453e-80b2-29051492c0e0","CE61CE69FCD54A55980C6183DFBF9B90-2025-05-14-21-55-58","","null","","images/schematic_sequence/interview_scheme/interview_scheme_0.png","null","",""
"","","","","","image-button-response","89","1579332","0.0-14.0-1.0-0.0","CE61CE69FCD54A55980C6183DFBF9B90","CE61CE69FCD54A55980C6183DFBF9B90","dc42b247-f0da-4477-96d2-8d0e148540a7","ba640c14-69c5-453e-80b2-29051492c0e0","{""num_scrambled_semantic"":""8"",""num_scrambled_causal"":""4"",""num_scrambled_schematic"":""4"",""participantId"":""CE61CE69FCD54A55980C6183DFBF9B90"",""assignmentId"":""dc42b247-f0da-4477-96d2-8d0e148540a7"",""projectId"":""ba640c14-69c5-453e-80b2-29051492c0e0""}","https://test12345.live/?num_scrambled_semantic=8&num_scrambled_causal=4&num_scrambled_schematic=4&participantId=CE61CE69FCD54A55980C6183DFBF9B90&assignmentId=dc42b247-f0da-4477-96d2-8d0e148540a7&projectId=ba640c14-69c5-453e-80b2-29051492c0e0","CE61CE69FCD54A55980C6183DFBF9B90-2025-05-14-21-55-58","","null","","images/schematic_sequence/interview_scheme/interview_scheme_6.png","null","",""
"","","","","","image-button-response","90","1581550","0.0-14.0-1.0-1.0","CE61CE69FCD54A55980C6183DFBF9B90","CE61CE69FCD54A55980C6183DFBF9B90","dc42b247-f0da-4477-96d2-8d0e148540a7","ba640c14-69c5-453e-80b2-29051492c0e0","{""num_scrambled_semantic"":""8"",""num_scrambled_causal"":""4"",""num_scrambled_schematic"":""4"",""participantId"":""CE61CE69FCD54A55980C6183DFBF9B90"",""assignmentId"":""dc42b247-f0da-4477-96d2-8d0e148540a7"",""projectId"":""ba640c14-69c5-453e-80b2-29051492c0e0""}","https://test12345.live/?num_scrambled_semantic=8&num_scrambled_causal=4&num_scrambled_schematic=4&participantId=CE61CE69FCD54A55980C6183DFBF9B90&assignmentId=dc42b247-f0da-4477-96d2-8d0e148540a7&projectId=ba640c14-69c5-453e-80b2-29051492c0e0","CE61CE69FCD54A55980C6183DFBF9B90-2025-05-14-21-55-58","","2218","","images/schematic_sequence/interview_scheme/interview_scheme_6.png","0","",""
"","","","","","image-button-response","91","1583365","0.0-14.0-1.0-2.0","CE61CE69FCD54A55980C6183DFBF9B90","CE61CE69FCD54A55980C6183DFBF9B90","dc42b247-f0da-4477-96d2-8d0e148540a7","ba640c14-69c5-453e-80b2-29051492c0e0","{""num_scrambled_semantic"":""8"",""num_scrambled_causal"":""4"",""num_scrambled_schematic"":""4"",""participantId"":""CE61CE69FCD54A55980C6183DFBF9B90"",""assignmentId"":""dc42b247-f0da-4477-96d2-8d0e148540a7"",""projectId"":""ba640c14-69c5-453e-80b2-29051492c0e0""}","https://test12345.live/?num_scrambled_semantic=8&num_scrambled_causal=4&num_scrambled_schematic=4&participantId=CE61CE69FCD54A55980C6183DFBF9B90&assignmentId=dc42b247-f0da-4477-96d2-8d0e148540a7&projectId=ba640c14-69c5-453e-80b2-29051492c0e0","CE61CE69FCD54A55980C6183DFBF9B90-2025-05-14-21-55-58","","null","","[]","null","",""
"","","","","","image-button-response","92","1587874","0.0-14.0-1.0-0.1","CE61CE69FCD54A55980C6183DFBF9B90","CE61CE69FCD54A55980C6183DFBF9B90","dc42b247-f0da-4477-96d2-8d0e148540a7","ba640c14-69c5-453e-80b2-29051492c0e0","{""num_scrambled_semantic"":""8"",""num_scrambled_causal"":""4"",""num_scrambled_schematic"":""4"",""participantId"":""CE61CE69FCD54A55980C6183DFBF9B90"",""assignmentId"":""dc42b247-f0da-4477-96d2-8d0e148540a7"",""projectId"":""ba640c14-69c5-453e-80b2-29051492c0e0""}","https://test12345.live/?num_scrambled_semantic=8&num_scrambled_causal=4&num_scrambled_schematic=4&participantId=CE61CE69FCD54A55980C6183DFBF9B90&assignmentId=dc42b247-f0da-4477-96d2-8d0e148540a7&projectId=ba640c14-69c5-453e-80b2-29051492c0e0","CE61CE69FCD54A55980C6183DFBF9B90-2025-05-14-21-55-58","","null","","images/schematic_sequence/interview_scheme/interview_scheme_9.png","null","",""
"","","","","","image-button-response","93","1588435","0.0-14.0-1.0-1.1","CE61CE69FCD54A55980C6183DFBF9B90","CE61CE69FCD54A55980C6183DFBF9B90","dc42b247-f0da-4477-96d2-8d0e148540a7","ba640c14-69c5-453e-80b2-29051492c0e0","{""num_scrambled_semantic"":""8"",""num_scrambled_causal"":""4"",""num_scrambled_schematic"":""4"",""participantId"":""CE61CE69FCD54A55980C6183DFBF9B90"",""assignmentId"":""dc42b247-f0da-4477-96d2-8d0e148540a7"",""projectId"":""ba640c14-69c5-453e-80b2-29051492c0e0""}","https://test12345.live/?num_scrambled_semantic=8&num_scrambled_causal=4&num_scrambled_schematic=4&participantId=CE61CE69FCD54A55980C6183DFBF9B90&assignmentId=dc42b247-f0da-4477-96d2-8d0e148540a7&projectId=ba640c14-69c5-453e-80b2-29051492c0e0","CE61CE69FCD54A55980C6183DFBF9B90-2025-05-14-21-55-58","","561","","images/schematic_sequence/interview_scheme/interview_scheme_9.png","0","",""
"","","","","","image-button-response","94","1590244","0.0-14.0-1.0-2.1","CE61CE69FCD54A55980C6183DFBF9B90","CE61CE69FCD54A55980C6183DFBF9B90","dc42b247-f0da-4477-96d2-8d0e148540a7","ba640c14-69c5-453e-80b2-29051492c0e0","{""num_scrambled_semantic"":""8"",""num_scrambled_causal"":""4"",""num_scrambled_schematic"":""4"",""participantId"":""CE61CE69FCD54A55980C6183DFBF9B90"",""assignmentId"":""dc42b247-f0da-4477-96d2-8d0e148540a7"",""projectId"":""ba640c14-69c5-453e-80b2-29051492c0e0""}","https://test12345.live/?num_scrambled_semantic=8&num_scrambled_causal=4&num_scrambled_schematic=4&participantId=CE61CE69FCD54A55980C6183DFBF9B90&assignmentId=dc42b247-f0da-4477-96d2-8d0e148540a7&projectId=ba640c14-69c5-453e-80b2-29051492c0e0","CE61CE69FCD54A55980C6183DFBF9B90-2025-05-14-21-55-58","","null","","[]","null","",""
"","","","","","image-button-response","95","1594756","0.0-14.0-1.0-0.2","CE61CE69FCD54A55980C6183DFBF9B90","CE61CE69FCD54A55980C6183DFBF9B90","dc42b247-f0da-4477-96d2-8d0e148540a7","ba640c14-69c5-453e-80b2-29051492c0e0","{""num_scrambled_semantic"":""8"",""num_scrambled_causal"":""4"",""num_scrambled_schematic"":""4"",""participantId"":""CE61CE69FCD54A55980C6183DFBF9B90"",""assignmentId"":""dc42b247-f0da-4477-96d2-8d0e148540a7"",""projectId"":""ba640c14-69c5-453e-80b2-29051492c0e0""}","https://test12345.live/?num_scrambled_semantic=8&num_scrambled_causal=4&num_scrambled_schematic=4&participantId=CE61CE69FCD54A55980C6183DFBF9B90&assignmentId=dc42b247-f0da-4477-96d2-8d0e148540a7&projectId=ba640c14-69c5-453e-80b2-29051492c0e0","CE61CE69FCD54A55980C6183DFBF9B90-2025-05-14-21-55-58","","null","","images/schematic_sequence/interview_scheme/interview_scheme_2.png","null","",""
"","","","","","image-button-response","96","1595556","0.0-14.0-1.0-1.2","CE61CE69FCD54A55980C6183DFBF9B90","CE61CE69FCD54A55980C6183DFBF9B90","dc42b247-f0da-4477-96d2-8d0e148540a7","ba640c14-69c5-453e-80b2-29051492c0e0","{""num_scrambled_semantic"":""8"",""num_scrambled_causal"":""4"",""num_scrambled_schematic"":""4"",""participantId"":""CE61CE69FCD54A55980C6183DFBF9B90"",""assignmentId"":""dc42b247-f0da-4477-96d2-8d0e148540a7"",""projectId"":""ba640c14-69c5-453e-80b2-29051492c0e0""}","https://test12345.live/?num_scrambled_semantic=8&num_scrambled_causal=4&num_scrambled_schematic=4&participantId=CE61CE69FCD54A55980C6183DFBF9B90&assignmentId=dc42b247-f0da-4477-96d2-8d0e148540a7&projectId=ba640c14-69c5-453e-80b2-29051492c0e0","CE61CE69FCD54A55980C6183DFBF9B90-2025-05-14-21-55-58","","799","","images/schematic_sequence/interview_scheme/interview_scheme_2.png","0","",""
"","","","","","image-button-response","97","1597360","0.0-14.0-1.0-2.2","CE61CE69FCD54A55980C6183DFBF9B90","CE61CE69FCD54A55980C6183DFBF9B90","dc42b247-f0da-4477-96d2-8d0e148540a7","ba640c14-69c5-453e-80b2-29051492c0e0","{""num_scrambled_semantic"":""8"",""num_scrambled_causal"":""4"",""num_scrambled_schematic"":""4"",""participantId"":""CE61CE69FCD54A55980C6183DFBF9B90"",""assignmentId"":""dc42b247-f0da-4477-96d2-8d0e148540a7"",""projectId"":""ba640c14-69c5-453e-80b2-29051492c0e0""}","https://test12345.live/?num_scrambled_semantic=8&num_scrambled_causal=4&num_scrambled_schematic=4&participantId=CE61CE69FCD54A55980C6183DFBF9B90&assignmentId=dc42b247-f0da-4477-96d2-8d0e148540a7&projectId=ba640c14-69c5-453e-80b2-29051492c0e0","CE61CE69FCD54A55980C6183DFBF9B90-2025-05-14-21-55-58","","null","","[]","null","",""
"","","","","","image-button-response","98","1601869","0.0-14.0-1.0-0.3","CE61CE69FCD54A55980C6183DFBF9B90","CE61CE69FCD54A55980C6183DFBF9B90","dc42b247-f0da-4477-96d2-8d0e148540a7","ba640c14-69c5-453e-80b2-29051492c0e0","{""num_scrambled_semantic"":""8"",""num_scrambled_causal"":""4"",""num_scrambled_schematic"":""4"",""participantId"":""CE61CE69FCD54A55980C6183DFBF9B90"",""assignmentId"":""dc42b247-f0da-4477-96d2-8d0e148540a7"",""projectId"":""ba640c14-69c5-453e-80b2-29051492c0e0""}","https://test12345.live/?num_scrambled_semantic=8&num_scrambled_causal=4&num_scrambled_schematic=4&participantId=CE61CE69FCD54A55980C6183DFBF9B90&assignmentId=dc42b247-f0da-4477-96d2-8d0e148540a7&projectId=ba640c14-69c5-453e-80b2-29051492c0e0","CE61CE69FCD54A55980C6183DFBF9B90-2025-05-14-21-55-58","","null","","images/schematic_sequence/interview_scheme/interview_scheme_7.png","null","",""
"","","","","","image-button-response","99","1602350","0.0-14.0-1.0-1.3","CE61CE69FCD54A55980C6183DFBF9B90","CE61CE69FCD54A55980C6183DFBF9B90","dc42b247-f0da-4477-96d2-8d0e148540a7","ba640c14-69c5-453e-80b2-29051492c0e0","{""num_scrambled_semantic"":""8"",""num_scrambled_causal"":""4"",""num_scrambled_schematic"":""4"",""participantId"":""CE61CE69FCD54A55980C6183DFBF9B90"",""assignmentId"":""dc42b247-f0da-4477-96d2-8d0e148540a7"",""projectId"":""ba640c14-69c5-453e-80b2-29051492c0e0""}","https://test12345.live/?num_scrambled_semantic=8&num_scrambled_causal=4&num_scrambled_schematic=4&participantId=CE61CE69FCD54A55980C6183DFBF9B90&assignmentId=dc42b247-f0da-4477-96d2-8d0e148540a7&projectId=ba640c14-69c5-453e-80b2-29051492c0e0","CE61CE69FCD54A55980C6183DFBF9B90-2025-05-14-21-55-58","","480","","images/schematic_sequence/interview_scheme/interview_scheme_7.png","0","",""
"","","","","","image-button-response","100","1604161","0.0-14.0-1.0-2.3","CE61CE69FCD54A55980C6183DFBF9B90","CE61CE69FCD54A55980C6183DFBF9B90","dc42b247-f0da-4477-96d2-8d0e148540a7","ba640c14-69c5-453e-80b2-29051492c0e0","{""num_scrambled_semantic"":""8"",""num_scrambled_causal"":""4"",""num_scrambled_schematic"":""4"",""participantId"":""CE61CE69FCD54A55980C6183DFBF9B90"",""assignmentId"":""dc42b247-f0da-4477-96d2-8d0e148540a7"",""projectId"":""ba640c14-69c5-453e-80b2-29051492c0e0""}","https://test12345.live/?num_scrambled_semantic=8&num_scrambled_causal=4&num_scrambled_schematic=4&participantId=CE61CE69FCD54A55980C6183DFBF9B90&assignmentId=dc42b247-f0da-4477-96d2-8d0e148540a7&projectId=ba640c14-69c5-453e-80b2-29051492c0e0","CE61CE69FCD54A55980C6183DFBF9B90-2025-05-14-21-55-58","","null","","[]","null","",""
"","","","","","image-button-response","101","1608668","0.0-14.0-1.0-0.4","CE61CE69FCD54A55980C6183DFBF9B90","CE61CE69FCD54A55980C6183DFBF9B90","dc42b247-f0da-4477-96d2-8d0e148540a7","ba640c14-69c5-453e-80b2-29051492c0e0","{""num_scrambled_semantic"":""8"",""num_scrambled_causal"":""4"",""num_scrambled_schematic"":""4"",""participantId"":""CE61CE69FCD54A55980C6183DFBF9B90"",""assignmentId"":""dc42b247-f0da-4477-96d2-8d0e148540a7"",""projectId"":""ba640c14-69c5-453e-80b2-29051492c0e0""}","https://test12345.live/?num_scrambled_semantic=8&num_scrambled_causal=4&num_scrambled_schematic=4&participantId=CE61CE69FCD54A55980C6183DFBF9B90&assignmentId=dc42b247-f0da-4477-96d2-8d0e148540a7&projectId=ba640c14-69c5-453e-80b2-29051492c0e0","CE61CE69FCD54A55980C6183DFBF9B90-2025-05-14-21-55-58","","null","","images/schematic_sequence/interview_scheme/interview_scheme_5.png","null","",""
"","","","","","image-button-response","102","1609585","0.0-14.0-1.0-1.4","CE61CE69FCD54A55980C6183DFBF9B90","CE61CE69FCD54A55980C6183DFBF9B90","dc42b247-f0da-4477-96d2-8d0e148540a7","ba640c14-69c5-453e-80b2-29051492c0e0","{""num_scrambled_semantic"":""8"",""num_scrambled_causal"":""4"",""num_scrambled_schematic"":""4"",""participantId"":""CE61CE69FCD54A55980C6183DFBF9B90"",""assignmentId"":""dc42b247-f0da-4477-96d2-8d0e148540a7"",""projectId"":""ba640c14-69c5-453e-80b2-29051492c0e0""}","https://test12345.live/?num_scrambled_semantic=8&num_scrambled_causal=4&num_scrambled_schematic=4&participantId=CE61CE69FCD54A55980C6183DFBF9B90&assignmentId=dc42b247-f0da-4477-96d2-8d0e148540a7&projectId=ba640c14-69c5-453e-80b2-29051492c0e0","CE61CE69FCD54A55980C6183DFBF9B90-2025-05-14-21-55-58","","917","","images/schematic_sequence/interview_scheme/interview_scheme_5.png","0","",""
"","","","","","image-button-response","103","1611401","0.0-14.0-1.0-2.4","CE61CE69FCD54A55980C6183DFBF9B90","CE61CE69FCD54A55980C6183DFBF9B90","dc42b247-f0da-4477-96d2-8d0e148540a7","ba640c14-69c5-453e-80b2-29051492c0e0","{""num_scrambled_semantic"":""8"",""num_scrambled_causal"":""4"",""num_scrambled_schematic"":""4"",""participantId"":""CE61CE69FCD54A55980C6183DFBF9B90"",""assignmentId"":""dc42b247-f0da-4477-96d2-8d0e148540a7"",""projectId"":""ba640c14-69c5-453e-80b2-29051492c0e0""}","https://test12345.live/?num_scrambled_semantic=8&num_scrambled_causal=4&num_scrambled_schematic=4&participantId=CE61CE69FCD54A55980C6183DFBF9B90&assignmentId=dc42b247-f0da-4477-96d2-8d0e148540a7&projectId=ba640c14-69c5-453e-80b2-29051492c0e0","CE61CE69FCD54A55980C6183DFBF9B90-2025-05-14-21-55-58","","null","","[]","null","",""
"","","","","","image-button-response","104","1615914","0.0-14.0-1.0-0.5","CE61CE69FCD54A55980C6183DFBF9B90","CE61CE69FCD54A55980C6183DFBF9B90","dc42b247-f0da-4477-96d2-8d0e148540a7","ba640c14-69c5-453e-80b2-29051492c0e0","{""num_scrambled_semantic"":""8"",""num_scrambled_causal"":""4"",""num_scrambled_schematic"":""4"",""participantId"":""CE61CE69FCD54A55980C6183DFBF9B90"",""assignmentId"":""dc42b247-f0da-4477-96d2-8d0e148540a7"",""projectId"":""ba640c14-69c5-453e-80b2-29051492c0e0""}","https://test12345.live/?num_scrambled_semantic=8&num_scrambled_causal=4&num_scrambled_schematic=4&participantId=CE61CE69FCD54A55980C6183DFBF9B90&assignmentId=dc42b247-f0da-4477-96d2-8d0e148540a7&projectId=ba640c14-69c5-453e-80b2-29051492c0e0","CE61CE69FCD54A55980C6183DFBF9B90-2025-05-14-21-55-58","","null","","images/schematic_sequence/interview_scheme/interview_scheme_1.png","null","",""
"","","","","","image-button-response","105","1616451","0.0-14.0-1.0-1.5","CE61CE69FCD54A55980C6183DFBF9B90","CE61CE69FCD54A55980C6183DFBF9B90","dc42b247-f0da-4477-96d2-8d0e148540a7","ba640c14-69c5-453e-80b2-29051492c0e0","{""num_scrambled_semantic"":""8"",""num_scrambled_causal"":""4"",""num_scrambled_schematic"":""4"",""participantId"":""CE61CE69FCD54A55980C6183DFBF9B90"",""assignmentId"":""dc42b247-f0da-4477-96d2-8d0e148540a7"",""projectId"":""ba640c14-69c5-453e-80b2-29051492c0e0""}","https://test12345.live/?num_scrambled_semantic=8&num_scrambled_causal=4&num_scrambled_schematic=4&participantId=CE61CE69FCD54A55980C6183DFBF9B90&assignmentId=dc42b247-f0da-4477-96d2-8d0e148540a7&projectId=ba640c14-69c5-453e-80b2-29051492c0e0","CE61CE69FCD54A55980C6183DFBF9B90-2025-05-14-21-55-58","","536","","images/schematic_sequence/interview_scheme/interview_scheme_1.png","0","",""
"","","","","","image-button-response","106","1618254","0.0-14.0-1.0-2.5","CE61CE69FCD54A55980C6183DFBF9B90","CE61CE69FCD54A55980C6183DFBF9B90","dc42b247-f0da-4477-96d2-8d0e148540a7","ba640c14-69c5-453e-80b2-29051492c0e0","{""num_scrambled_semantic"":""8"",""num_scrambled_causal"":""4"",""num_scrambled_schematic"":""4"",""participantId"":""CE61CE69FCD54A55980C6183DFBF9B90"",""assignmentId"":""dc42b247-f0da-4477-96d2-8d0e148540a7"",""projectId"":""ba640c14-69c5-453e-80b2-29051492c0e0""}","https://test12345.live/?num_scrambled_semantic=8&num_scrambled_causal=4&num_scrambled_schematic=4&participantId=CE61CE69FCD54A55980C6183DFBF9B90&assignmentId=dc42b247-f0da-4477-96d2-8d0e148540a7&projectId=ba640c14-69c5-453e-80b2-29051492c0e0","CE61CE69FCD54A55980C6183DFBF9B90-2025-05-14-21-55-58","","null","","[]","null","",""
"","","","","","image-button-response","107","1622755","0.0-14.0-1.0-0.6","CE61CE69FCD54A55980C6183DFBF9B90","CE61CE69FCD54A55980C6183DFBF9B90","dc42b247-f0da-4477-96d2-8d0e148540a7","ba640c14-69c5-453e-80b2-29051492c0e0","{""num_scrambled_semantic"":""8"",""num_scrambled_causal"":""4"",""num_scrambled_schematic"":""4"",""participantId"":""CE61CE69FCD54A55980C6183DFBF9B90"",""assignmentId"":""dc42b247-f0da-4477-96d2-8d0e148540a7"",""projectId"":""ba640c14-69c5-453e-80b2-29051492c0e0""}","https://test12345.live/?num_scrambled_semantic=8&num_scrambled_causal=4&num_scrambled_schematic=4&participantId=CE61CE69FCD54A55980C6183DFBF9B90&assignmentId=dc42b247-f0da-4477-96d2-8d0e148540a7&projectId=ba640c14-69c5-453e-80b2-29051492c0e0","CE61CE69FCD54A55980C6183DFBF9B90-2025-05-14-21-55-58","","null","","images/schematic_sequence/interview_scheme/interview_scheme_3.png","null","",""
"","","","","","image-button-response","108","1623296","0.0-14.0-1.0-1.6","CE61CE69FCD54A55980C6183DFBF9B90","CE61CE69FCD54A55980C6183DFBF9B90","dc42b247-f0da-4477-96d2-8d0e148540a7","ba640c14-69c5-453e-80b2-29051492c0e0","{""num_scrambled_semantic"":""8"",""num_scrambled_causal"":""4"",""num_scrambled_schematic"":""4"",""participantId"":""CE61CE69FCD54A55980C6183DFBF9B90"",""assignmentId"":""dc42b247-f0da-4477-96d2-8d0e148540a7"",""projectId"":""ba640c14-69c5-453e-80b2-29051492c0e0""}","https://test12345.live/?num_scrambled_semantic=8&num_scrambled_causal=4&num_scrambled_schematic=4&participantId=CE61CE69FCD54A55980C6183DFBF9B90&assignmentId=dc42b247-f0da-4477-96d2-8d0e148540a7&projectId=ba640c14-69c5-453e-80b2-29051492c0e0","CE61CE69FCD54A55980C6183DFBF9B90-2025-05-14-21-55-58","","540","","images/schematic_sequence/interview_scheme/interview_scheme_3.png","1","",""
"","","","","","image-button-response","109","1625098","0.0-14.0-1.0-2.6","CE61CE69FCD54A55980C6183DFBF9B90","CE61CE69FCD54A55980C6183DFBF9B90","dc42b247-f0da-4477-96d2-8d0e148540a7","ba640c14-69c5-453e-80b2-29051492c0e0","{""num_scrambled_semantic"":""8"",""num_scrambled_causal"":""4"",""num_scrambled_schematic"":""4"",""participantId"":""CE61CE69FCD54A55980C6183DFBF9B90"",""assignmentId"":""dc42b247-f0da-4477-96d2-8d0e148540a7"",""projectId"":""ba640c14-69c5-453e-80b2-29051492c0e0""}","https://test12345.live/?num_scrambled_semantic=8&num_scrambled_causal=4&num_scrambled_schematic=4&participantId=CE61CE69FCD54A55980C6183DFBF9B90&assignmentId=dc42b247-f0da-4477-96d2-8d0e148540a7&projectId=ba640c14-69c5-453e-80b2-29051492c0e0","CE61CE69FCD54A55980C6183DFBF9B90-2025-05-14-21-55-58","","null","","[]","null","",""
"","","","","","image-button-response","110","1629599","0.0-14.0-1.0-0.7","CE61CE69FCD54A55980C6183DFBF9B90","CE61CE69FCD54A55980C6183DFBF9B90","dc42b247-f0da-4477-96d2-8d0e148540a7","ba640c14-69c5-453e-80b2-29051492c0e0","{""num_scrambled_semantic"":""8"",""num_scrambled_causal"":""4"",""num_scrambled_schematic"":""4"",""participantId"":""CE61CE69FCD54A55980C6183DFBF9B90"",""assignmentId"":""dc42b247-f0da-4477-96d2-8d0e148540a7"",""projectId"":""ba640c14-69c5-453e-80b2-29051492c0e0""}","https://test12345.live/?num_scrambled_semantic=8&num_scrambled_causal=4&num_scrambled_schematic=4&participantId=CE61CE69FCD54A55980C6183DFBF9B90&assignmentId=dc42b247-f0da-4477-96d2-8d0e148540a7&projectId=ba640c14-69c5-453e-80b2-29051492c0e0","CE61CE69FCD54A55980C6183DFBF9B90-2025-05-14-21-55-58","","null","","images/schematic_sequence/interview_scheme/interview_scheme_4.png","null","",""
"","","","","","image-button-response","111","1630155","0.0-14.0-1.0-1.7","CE61CE69FCD54A55980C6183DFBF9B90","CE61CE69FCD54A55980C6183DFBF9B90","dc42b247-f0da-4477-96d2-8d0e148540a7","ba640c14-69c5-453e-80b2-29051492c0e0","{""num_scrambled_semantic"":""8"",""num_scrambled_causal"":""4"",""num_scrambled_schematic"":""4"",""participantId"":""CE61CE69FCD54A55980C6183DFBF9B90"",""assignmentId"":""dc42b247-f0da-4477-96d2-8d0e148540a7"",""projectId"":""ba640c14-69c5-453e-80b2-29051492c0e0""}","https://test12345.live/?num_scrambled_semantic=8&num_scrambled_causal=4&num_scrambled_schematic=4&participantId=CE61CE69FCD54A55980C6183DFBF9B90&assignmentId=dc42b247-f0da-4477-96d2-8d0e148540a7&projectId=ba640c14-69c5-453e-80b2-29051492c0e0","CE61CE69FCD54A55980C6183DFBF9B90-2025-05-14-21-55-58","","555","","images/schematic_sequence/interview_scheme/interview_scheme_4.png","1","",""
"","","","","","image-button-response","112","1631961","0.0-14.0-1.0-2.7","CE61CE69FCD54A55980C6183DFBF9B90","CE61CE69FCD54A55980C6183DFBF9B90","dc42b247-f0da-4477-96d2-8d0e148540a7","ba640c14-69c5-453e-80b2-29051492c0e0","{""num_scrambled_semantic"":""8"",""num_scrambled_causal"":""4"",""num_scrambled_schematic"":""4"",""participantId"":""CE61CE69FCD54A55980C6183DFBF9B90"",""assignmentId"":""dc42b247-f0da-4477-96d2-8d0e148540a7"",""projectId"":""ba640c14-69c5-453e-80b2-29051492c0e0""}","https://test12345.live/?num_scrambled_semantic=8&num_scrambled_causal=4&num_scrambled_schematic=4&participantId=CE61CE69FCD54A55980C6183DFBF9B90&assignmentId=dc42b247-f0da-4477-96d2-8d0e148540a7&projectId=ba640c14-69c5-453e-80b2-29051492c0e0","CE61CE69FCD54A55980C6183DFBF9B90-2025-05-14-21-55-58","","null","","[]","null","",""
"","","","","","image-button-response","113","1636468","0.0-14.0-1.0-0.8","CE61CE69FCD54A55980C6183DFBF9B90","CE61CE69FCD54A55980C6183DFBF9B90","dc42b247-f0da-4477-96d2-8d0e148540a7","ba640c14-69c5-453e-80b2-29051492c0e0","{""num_scrambled_semantic"":""8"",""num_scrambled_causal"":""4"",""num_scrambled_schematic"":""4"",""participantId"":""CE61CE69FCD54A55980C6183DFBF9B90"",""assignmentId"":""dc42b247-f0da-4477-96d2-8d0e148540a7"",""projectId"":""ba640c14-69c5-453e-80b2-29051492c0e0""}","https://test12345.live/?num_scrambled_semantic=8&num_scrambled_causal=4&num_scrambled_schematic=4&participantId=CE61CE69FCD54A55980C6183DFBF9B90&assignmentId=dc42b247-f0da-4477-96d2-8d0e148540a7&projectId=ba640c14-69c5-453e-80b2-29051492c0e0","CE61CE69FCD54A55980C6183DFBF9B90-2025-05-14-21-55-58","","null","","images/schematic_sequence/interview_scheme/interview_scheme_ten.png","null","",""
