"success","timeout","failed_images","failed_audio","failed_video","trial_type","trial_index","time_elapsed","internal_node_id","subject","subject_id","study_id","session_id","urlvar","current_url","audio_id","view_history","rt","device_id","stimulus","response","estimated_stimulus_onset","seq_name"
"true","false","[]","[]","[]","preload","0","21316","0.0-0.0","CE95632B40AE4ABDBD33010653E26936","CE95632B40AE4ABDBD33010653E26936","a30452d6-0ed2-4a58-9ee4-3a098b6ca351","a6b6d205-fa41-4c5b-a7a5-7fc4b51b0cea","{""num_scrambled_semantic"":""8"",""num_scrambled_causal"":""4"",""num_scrambled_schematic"":""4"",""participantId"":""CE95632B40AE4ABDBD33010653E26936"",""assignmentId"":""a30452d6-0ed2-4a58-9ee4-3a098b6ca351"",""projectId"":""a6b6d205-fa41-4c5b-a7a5-7fc4b51b0cea""}","https://test12345.live/?num_scrambled_semantic=8&num_scrambled_causal=4&num_scrambled_schematic=4&participantId=CE95632B40AE4ABDBD33010653E26936&assignmentId=a30452d6-0ed2-4a58-9ee4-3a098b6ca351&projectId=a6b6d205-fa41-4c5b-a7a5-7fc4b51b0cea","CE95632B40AE4ABDBD33010653E26936-2025-05-27-17-15-10","","","","","","",""
"","","","","","instructions","1","68953","0.0-1.0","CE95632B40AE4ABDBD33010653E26936","CE95632B40AE4ABDBD33010653E26936","a30452d6-0ed2-4a58-9ee4-3a098b6ca351","a6b6d205-fa41-4c5b-a7a5-7fc4b51b0cea","{""num_scrambled_semantic"":""8"",""num_scrambled_causal"":""4"",""num_scrambled_schematic"":""4"",""participantId"":""CE95632B40AE4ABDBD33010653E26936"",""assignmentId"":""a30452d6-0ed2-4a58-9ee4-3a098b6ca351"",""projectId"":""a6b6d205-fa41-4c5b-a7a5-7fc4b51b0cea""}","https://test12345.live/?num_scrambled_semantic=8&num_scrambled_causal=4&num_scrambled_schematic=4&participantId=CE95632B40AE4ABDBD33010653E26936&assignmentId=a30452d6-0ed2-4a58-9ee4-3a098b6ca351&projectId=a6b6d205-fa41-4c5b-a7a5-7fc4b51b0cea","CE95632B40AE4ABDBD33010653E26936-2025-05-27-17-15-10","[{""page_index"":0,""viewing_time"":47639}]","47639","","","","",""
"","","","","","instructions","2","73701","0.0-2.0","CE95632B40AE4ABDBD33010653E26936","CE95632B40AE4ABDBD33010653E26936","a30452d6-0ed2-4a58-9ee4-3a098b6ca351","a6b6d205-fa41-4c5b-a7a5-7fc4b51b0cea","{""num_scrambled_semantic"":""8"",""num_scrambled_causal"":""4"",""num_scrambled_schematic"":""4"",""participantId"":""CE95632B40AE4ABDBD33010653E26936"",""assignmentId"":""a30452d6-0ed2-4a58-9ee4-3a098b6ca351"",""projectId"":""a6b6d205-fa41-4c5b-a7a5-7fc4b51b0cea""}","https://test12345.live/?num_scrambled_semantic=8&num_scrambled_causal=4&num_scrambled_schematic=4&participantId=CE95632B40AE4ABDBD33010653E26936&assignmentId=a30452d6-0ed2-4a58-9ee4-3a098b6ca351&projectId=a6b6d205-fa41-4c5b-a7a5-7fc4b51b0cea","CE95632B40AE4ABDBD33010653E26936-2025-05-27-17-15-10","[{""page_index"":0,""viewing_time"":4747}]","4748","","","","",""
"true","","","","","fullscreen","3","76478","0.0-3.0","CE95632B40AE4ABDBD33010653E26936","CE95632B40AE4ABDBD33010653E26936","a30452d6-0ed2-4a58-9ee4-3a098b6ca351","a6b6d205-fa41-4c5b-a7a5-7fc4b51b0cea","{""num_scrambled_semantic"":""8"",""num_scrambled_causal"":""4"",""num_scrambled_schematic"":""4"",""participantId"":""CE95632B40AE4ABDBD33010653E26936"",""assignmentId"":""a30452d6-0ed2-4a58-9ee4-3a098b6ca351"",""projectId"":""a6b6d205-fa41-4c5b-a7a5-7fc4b51b0cea""}","https://test12345.live/?num_scrambled_semantic=8&num_scrambled_causal=4&num_scrambled_schematic=4&participantId=CE95632B40AE4ABDBD33010653E26936&assignmentId=a30452d6-0ed2-4a58-9ee4-3a098b6ca351&projectId=a6b6d205-fa41-4c5b-a7a5-7fc4b51b0cea","CE95632B40AE4ABDBD33010653E26936-2025-05-27-17-15-10","","1774","","","","",""
"","","","","","initialize-microphone","4","171059","0.0-4.0-0.0","CE95632B40AE4ABDBD33010653E26936","CE95632B40AE4ABDBD33010653E26936","a30452d6-0ed2-4a58-9ee4-3a098b6ca351","a6b6d205-fa41-4c5b-a7a5-7fc4b51b0cea","{""num_scrambled_semantic"":""8"",""num_scrambled_causal"":""4"",""num_scrambled_schematic"":""4"",""participantId"":""CE95632B40AE4ABDBD33010653E26936"",""assignmentId"":""a30452d6-0ed2-4a58-9ee4-3a098b6ca351"",""projectId"":""a6b6d205-fa41-4c5b-a7a5-7fc4b51b0cea""}","https://test12345.live/?num_scrambled_semantic=8&num_scrambled_causal=4&num_scrambled_schematic=4&participantId=CE95632B40AE4ABDBD33010653E26936&assignmentId=a30452d6-0ed2-4a58-9ee4-3a098b6ca351&projectId=a6b6d205-fa41-4c5b-a7a5-7fc4b51b0cea","CE95632B40AE4ABDBD33010653E26936-2025-05-27-17-15-10","","","984a64b56a43fbe8020412b016456a185574ad8d1ea8fc0b32e593b3d2d82c27","","","",""
"","","","","","html-audio-response","5","187602","0.0-4.0-1.0","CE95632B40AE4ABDBD33010653E26936","CE95632B40AE4ABDBD33010653E26936","a30452d6-0ed2-4a58-9ee4-3a098b6ca351","a6b6d205-fa41-4c5b-a7a5-7fc4b51b0cea","{""num_scrambled_semantic"":""8"",""num_scrambled_causal"":""4"",""num_scrambled_schematic"":""4"",""participantId"":""CE95632B40AE4ABDBD33010653E26936"",""assignmentId"":""a30452d6-0ed2-4a58-9ee4-3a098b6ca351"",""projectId"":""a6b6d205-fa41-4c5b-a7a5-7fc4b51b0cea""}","https://test12345.live/?num_scrambled_semantic=8&num_scrambled_causal=4&num_scrambled_schematic=4&participantId=CE95632B40AE4ABDBD33010653E26936&assignmentId=a30452d6-0ed2-4a58-9ee4-3a098b6ca351&projectId=a6b6d205-fa41-4c5b-a7a5-7fc4b51b0cea","CE95632B40AE4ABDBD33010653E26936-2025-05-27-17-15-10","","6666","","<span style=""color: red; font-size: 24px""> NOW RECORDING</span>
        <p>Please test Microphone</p>","","1",""
"","","","","","html-button-response","6","189000","0.0-4.0-2.0","CE95632B40AE4ABDBD33010653E26936","CE95632B40AE4ABDBD33010653E26936","a30452d6-0ed2-4a58-9ee4-3a098b6ca351","a6b6d205-fa41-4c5b-a7a5-7fc4b51b0cea","{""num_scrambled_semantic"":""8"",""num_scrambled_causal"":""4"",""num_scrambled_schematic"":""4"",""participantId"":""CE95632B40AE4ABDBD33010653E26936"",""assignmentId"":""a30452d6-0ed2-4a58-9ee4-3a098b6ca351"",""projectId"":""a6b6d205-fa41-4c5b-a7a5-7fc4b51b0cea""}","https://test12345.live/?num_scrambled_semantic=8&num_scrambled_causal=4&num_scrambled_schematic=4&participantId=CE95632B40AE4ABDBD33010653E26936&assignmentId=a30452d6-0ed2-4a58-9ee4-3a098b6ca351&projectId=a6b6d205-fa41-4c5b-a7a5-7fc4b51b0cea","CE95632B40AE4ABDBD33010653E26936-2025-05-27-17-15-10","","1396","","<p style=""font-size:48px; color:red;"">Is Microphone OK?</p>","1","",""
"","","","","","instructions","7","201567","0.0-5.0","CE95632B40AE4ABDBD33010653E26936","CE95632B40AE4ABDBD33010653E26936","a30452d6-0ed2-4a58-9ee4-3a098b6ca351","a6b6d205-fa41-4c5b-a7a5-7fc4b51b0cea","{""num_scrambled_semantic"":""8"",""num_scrambled_causal"":""4"",""num_scrambled_schematic"":""4"",""participantId"":""CE95632B40AE4ABDBD33010653E26936"",""assignmentId"":""a30452d6-0ed2-4a58-9ee4-3a098b6ca351"",""projectId"":""a6b6d205-fa41-4c5b-a7a5-7fc4b51b0cea""}","https://test12345.live/?num_scrambled_semantic=8&num_scrambled_causal=4&num_scrambled_schematic=4&participantId=CE95632B40AE4ABDBD33010653E26936&assignmentId=a30452d6-0ed2-4a58-9ee4-3a098b6ca351&projectId=a6b6d205-fa41-4c5b-a7a5-7fc4b51b0cea","CE95632B40AE4ABDBD33010653E26936-2025-05-27-17-15-10","[{""page_index"":0,""viewing_time"":6768},{""page_index"":1,""viewing_time"":5799}]","12567","","","","",""
"","","","","","image-button-response","8","207576","0.0-6.0-0.0","CE95632B40AE4ABDBD33010653E26936","CE95632B40AE4ABDBD33010653E26936","a30452d6-0ed2-4a58-9ee4-3a098b6ca351","a6b6d205-fa41-4c5b-a7a5-7fc4b51b0cea","{""num_scrambled_semantic"":""8"",""num_scrambled_causal"":""4"",""num_scrambled_schematic"":""4"",""participantId"":""CE95632B40AE4ABDBD33010653E26936"",""assignmentId"":""a30452d6-0ed2-4a58-9ee4-3a098b6ca351"",""projectId"":""a6b6d205-fa41-4c5b-a7a5-7fc4b51b0cea""}","https://test12345.live/?num_scrambled_semantic=8&num_scrambled_causal=4&num_scrambled_schematic=4&participantId=CE95632B40AE4ABDBD33010653E26936&assignmentId=a30452d6-0ed2-4a58-9ee4-3a098b6ca351&projectId=a6b6d205-fa41-4c5b-a7a5-7fc4b51b0cea","CE95632B40AE4ABDBD33010653E26936-2025-05-27-17-15-10","","null","","images/instructions/movie_0.png","null","",""
"","","","","","image-button-response","9","212084","0.0-6.0-1.0-0.0","CE95632B40AE4ABDBD33010653E26936","CE95632B40AE4ABDBD33010653E26936","a30452d6-0ed2-4a58-9ee4-3a098b6ca351","a6b6d205-fa41-4c5b-a7a5-7fc4b51b0cea","{""num_scrambled_semantic"":""8"",""num_scrambled_causal"":""4"",""num_scrambled_schematic"":""4"",""participantId"":""CE95632B40AE4ABDBD33010653E26936"",""assignmentId"":""a30452d6-0ed2-4a58-9ee4-3a098b6ca351"",""projectId"":""a6b6d205-fa41-4c5b-a7a5-7fc4b51b0cea""}","https://test12345.live/?num_scrambled_semantic=8&num_scrambled_causal=4&num_scrambled_schematic=4&participantId=CE95632B40AE4ABDBD33010653E26936&assignmentId=a30452d6-0ed2-4a58-9ee4-3a098b6ca351&projectId=a6b6d205-fa41-4c5b-a7a5-7fc4b51b0cea","CE95632B40AE4ABDBD33010653E26936-2025-05-27-17-15-10","","null","","images/instructions/movie_1.png","null","",""
"","","","","","image-button-response","10","216088","0.0-6.0-1.0-1.0","CE95632B40AE4ABDBD33010653E26936","CE95632B40AE4ABDBD33010653E26936","a30452d6-0ed2-4a58-9ee4-3a098b6ca351","a6b6d205-fa41-4c5b-a7a5-7fc4b51b0cea","{""num_scrambled_semantic"":""8"",""num_scrambled_causal"":""4"",""num_scrambled_schematic"":""4"",""participantId"":""CE95632B40AE4ABDBD33010653E26936"",""assignmentId"":""a30452d6-0ed2-4a58-9ee4-3a098b6ca351"",""projectId"":""a6b6d205-fa41-4c5b-a7a5-7fc4b51b0cea""}","https://test12345.live/?num_scrambled_semantic=8&num_scrambled_causal=4&num_scrambled_schematic=4&participantId=CE95632B40AE4ABDBD33010653E26936&assignmentId=a30452d6-0ed2-4a58-9ee4-3a098b6ca351&projectId=a6b6d205-fa41-4c5b-a7a5-7fc4b51b0cea","CE95632B40AE4ABDBD33010653E26936-2025-05-27-17-15-10","","null","","images/instructions/movie_1.png","null","",""
"","","","","","image-button-response","11","217896","0.0-6.0-1.0-2.0","CE95632B40AE4ABDBD33010653E26936","CE95632B40AE4ABDBD33010653E26936","a30452d6-0ed2-4a58-9ee4-3a098b6ca351","a6b6d205-fa41-4c5b-a7a5-7fc4b51b0cea","{""num_scrambled_semantic"":""8"",""num_scrambled_causal"":""4"",""num_scrambled_schematic"":""4"",""participantId"":""CE95632B40AE4ABDBD33010653E26936"",""assignmentId"":""a30452d6-0ed2-4a58-9ee4-3a098b6ca351"",""projectId"":""a6b6d205-fa41-4c5b-a7a5-7fc4b51b0cea""}","https://test12345.live/?num_scrambled_semantic=8&num_scrambled_causal=4&num_scrambled_schematic=4&participantId=CE95632B40AE4ABDBD33010653E26936&assignmentId=a30452d6-0ed2-4a58-9ee4-3a098b6ca351&projectId=a6b6d205-fa41-4c5b-a7a5-7fc4b51b0cea","CE95632B40AE4ABDBD33010653E26936-2025-05-27-17-15-10","","null","","[]","null","",""
"","","","","","image-button-response","12","222401","0.0-6.0-1.0-0.1","CE95632B40AE4ABDBD33010653E26936","CE95632B40AE4ABDBD33010653E26936","a30452d6-0ed2-4a58-9ee4-3a098b6ca351","a6b6d205-fa41-4c5b-a7a5-7fc4b51b0cea","{""num_scrambled_semantic"":""8"",""num_scrambled_causal"":""4"",""num_scrambled_schematic"":""4"",""participantId"":""CE95632B40AE4ABDBD33010653E26936"",""assignmentId"":""a30452d6-0ed2-4a58-9ee4-3a098b6ca351"",""projectId"":""a6b6d205-fa41-4c5b-a7a5-7fc4b51b0cea""}","https://test12345.live/?num_scrambled_semantic=8&num_scrambled_causal=4&num_scrambled_schematic=4&participantId=CE95632B40AE4ABDBD33010653E26936&assignmentId=a30452d6-0ed2-4a58-9ee4-3a098b6ca351&projectId=a6b6d205-fa41-4c5b-a7a5-7fc4b51b0cea","CE95632B40AE4ABDBD33010653E26936-2025-05-27-17-15-10","","null","","images/instructions/movie_2.png","null","",""
"","","","","","image-button-response","13","224551","0.0-6.0-1.0-1.1","CE95632B40AE4ABDBD33010653E26936","CE95632B40AE4ABDBD33010653E26936","a30452d6-0ed2-4a58-9ee4-3a098b6ca351","a6b6d205-fa41-4c5b-a7a5-7fc4b51b0cea","{""num_scrambled_semantic"":""8"",""num_scrambled_causal"":""4"",""num_scrambled_schematic"":""4"",""participantId"":""CE95632B40AE4ABDBD33010653E26936"",""assignmentId"":""a30452d6-0ed2-4a58-9ee4-3a098b6ca351"",""projectId"":""a6b6d205-fa41-4c5b-a7a5-7fc4b51b0cea""}","https://test12345.live/?num_scrambled_semantic=8&num_scrambled_causal=4&num_scrambled_schematic=4&participantId=CE95632B40AE4ABDBD33010653E26936&assignmentId=a30452d6-0ed2-4a58-9ee4-3a098b6ca351&projectId=a6b6d205-fa41-4c5b-a7a5-7fc4b51b0cea","CE95632B40AE4ABDBD33010653E26936-2025-05-27-17-15-10","","2149","","images/instructions/movie_2.png","0","",""
"","","","","","image-button-response","14","226355","0.0-6.0-1.0-2.1","CE95632B40AE4ABDBD33010653E26936","CE95632B40AE4ABDBD33010653E26936","a30452d6-0ed2-4a58-9ee4-3a098b6ca351","a6b6d205-fa41-4c5b-a7a5-7fc4b51b0cea","{""num_scrambled_semantic"":""8"",""num_scrambled_causal"":""4"",""num_scrambled_schematic"":""4"",""participantId"":""CE95632B40AE4ABDBD33010653E26936"",""assignmentId"":""a30452d6-0ed2-4a58-9ee4-3a098b6ca351"",""projectId"":""a6b6d205-fa41-4c5b-a7a5-7fc4b51b0cea""}","https://test12345.live/?num_scrambled_semantic=8&num_scrambled_causal=4&num_scrambled_schematic=4&participantId=CE95632B40AE4ABDBD33010653E26936&assignmentId=a30452d6-0ed2-4a58-9ee4-3a098b6ca351&projectId=a6b6d205-fa41-4c5b-a7a5-7fc4b51b0cea","CE95632B40AE4ABDBD33010653E26936-2025-05-27-17-15-10","","null","","[]","null","",""
"","","","","","image-button-response","15","230859","0.0-6.0-1.0-0.2","CE95632B40AE4ABDBD33010653E26936","CE95632B40AE4ABDBD33010653E26936","a30452d6-0ed2-4a58-9ee4-3a098b6ca351","a6b6d205-fa41-4c5b-a7a5-7fc4b51b0cea","{""num_scrambled_semantic"":""8"",""num_scrambled_causal"":""4"",""num_scrambled_schematic"":""4"",""participantId"":""CE95632B40AE4ABDBD33010653E26936"",""assignmentId"":""a30452d6-0ed2-4a58-9ee4-3a098b6ca351"",""projectId"":""a6b6d205-fa41-4c5b-a7a5-7fc4b51b0cea""}","https://test12345.live/?num_scrambled_semantic=8&num_scrambled_causal=4&num_scrambled_schematic=4&participantId=CE95632B40AE4ABDBD33010653E26936&assignmentId=a30452d6-0ed2-4a58-9ee4-3a098b6ca351&projectId=a6b6d205-fa41-4c5b-a7a5-7fc4b51b0cea","CE95632B40AE4ABDBD33010653E26936-2025-05-27-17-15-10","","null","","images/instructions/movie_3.png","null","",""
"","","","","","image-button-response","16","232067","0.0-6.0-1.0-1.2","CE95632B40AE4ABDBD33010653E26936","CE95632B40AE4ABDBD33010653E26936","a30452d6-0ed2-4a58-9ee4-3a098b6ca351","a6b6d205-fa41-4c5b-a7a5-7fc4b51b0cea","{""num_scrambled_semantic"":""8"",""num_scrambled_causal"":""4"",""num_scrambled_schematic"":""4"",""participantId"":""CE95632B40AE4ABDBD33010653E26936"",""assignmentId"":""a30452d6-0ed2-4a58-9ee4-3a098b6ca351"",""projectId"":""a6b6d205-fa41-4c5b-a7a5-7fc4b51b0cea""}","https://test12345.live/?num_scrambled_semantic=8&num_scrambled_causal=4&num_scrambled_schematic=4&participantId=CE95632B40AE4ABDBD33010653E26936&assignmentId=a30452d6-0ed2-4a58-9ee4-3a098b6ca351&projectId=a6b6d205-fa41-4c5b-a7a5-7fc4b51b0cea","CE95632B40AE4ABDBD33010653E26936-2025-05-27-17-15-10","","1205","","images/instructions/movie_3.png","0","",""
"","","","","","image-button-response","17","233873","0.0-6.0-1.0-2.2","CE95632B40AE4ABDBD33010653E26936","CE95632B40AE4ABDBD33010653E26936","a30452d6-0ed2-4a58-9ee4-3a098b6ca351","a6b6d205-fa41-4c5b-a7a5-7fc4b51b0cea","{""num_scrambled_semantic"":""8"",""num_scrambled_causal"":""4"",""num_scrambled_schematic"":""4"",""participantId"":""CE95632B40AE4ABDBD33010653E26936"",""assignmentId"":""a30452d6-0ed2-4a58-9ee4-3a098b6ca351"",""projectId"":""a6b6d205-fa41-4c5b-a7a5-7fc4b51b0cea""}","https://test12345.live/?num_scrambled_semantic=8&num_scrambled_causal=4&num_scrambled_schematic=4&participantId=CE95632B40AE4ABDBD33010653E26936&assignmentId=a30452d6-0ed2-4a58-9ee4-3a098b6ca351&projectId=a6b6d205-fa41-4c5b-a7a5-7fc4b51b0cea","CE95632B40AE4ABDBD33010653E26936-2025-05-27-17-15-10","","null","","[]","null","",""
"","","","","","image-button-response","18","238377","0.0-6.0-1.0-0.3","CE95632B40AE4ABDBD33010653E26936","CE95632B40AE4ABDBD33010653E26936","a30452d6-0ed2-4a58-9ee4-3a098b6ca351","a6b6d205-fa41-4c5b-a7a5-7fc4b51b0cea","{""num_scrambled_semantic"":""8"",""num_scrambled_causal"":""4"",""num_scrambled_schematic"":""4"",""participantId"":""CE95632B40AE4ABDBD33010653E26936"",""assignmentId"":""a30452d6-0ed2-4a58-9ee4-3a098b6ca351"",""projectId"":""a6b6d205-fa41-4c5b-a7a5-7fc4b51b0cea""}","https://test12345.live/?num_scrambled_semantic=8&num_scrambled_causal=4&num_scrambled_schematic=4&participantId=CE95632B40AE4ABDBD33010653E26936&assignmentId=a30452d6-0ed2-4a58-9ee4-3a098b6ca351&projectId=a6b6d205-fa41-4c5b-a7a5-7fc4b51b0cea","CE95632B40AE4ABDBD33010653E26936-2025-05-27-17-15-10","","null","","images/instructions/movie_4.png","null","",""
"","","","","","image-button-response","19","239601","0.0-6.0-1.0-1.3","CE95632B40AE4ABDBD33010653E26936","CE95632B40AE4ABDBD33010653E26936","a30452d6-0ed2-4a58-9ee4-3a098b6ca351","a6b6d205-fa41-4c5b-a7a5-7fc4b51b0cea","{""num_scrambled_semantic"":""8"",""num_scrambled_causal"":""4"",""num_scrambled_schematic"":""4"",""participantId"":""CE95632B40AE4ABDBD33010653E26936"",""assignmentId"":""a30452d6-0ed2-4a58-9ee4-3a098b6ca351"",""projectId"":""a6b6d205-fa41-4c5b-a7a5-7fc4b51b0cea""}","https://test12345.live/?num_scrambled_semantic=8&num_scrambled_causal=4&num_scrambled_schematic=4&participantId=CE95632B40AE4ABDBD33010653E26936&assignmentId=a30452d6-0ed2-4a58-9ee4-3a098b6ca351&projectId=a6b6d205-fa41-4c5b-a7a5-7fc4b51b0cea","CE95632B40AE4ABDBD33010653E26936-2025-05-27-17-15-10","","1222","","images/instructions/movie_4.png","0","",""
"","","","","","image-button-response","20","241407","0.0-6.0-1.0-2.3","CE95632B40AE4ABDBD33010653E26936","CE95632B40AE4ABDBD33010653E26936","a30452d6-0ed2-4a58-9ee4-3a098b6ca351","a6b6d205-fa41-4c5b-a7a5-7fc4b51b0cea","{""num_scrambled_semantic"":""8"",""num_scrambled_causal"":""4"",""num_scrambled_schematic"":""4"",""participantId"":""CE95632B40AE4ABDBD33010653E26936"",""assignmentId"":""a30452d6-0ed2-4a58-9ee4-3a098b6ca351"",""projectId"":""a6b6d205-fa41-4c5b-a7a5-7fc4b51b0cea""}","https://test12345.live/?num_scrambled_semantic=8&num_scrambled_causal=4&num_scrambled_schematic=4&participantId=CE95632B40AE4ABDBD33010653E26936&assignmentId=a30452d6-0ed2-4a58-9ee4-3a098b6ca351&projectId=a6b6d205-fa41-4c5b-a7a5-7fc4b51b0cea","CE95632B40AE4ABDBD33010653E26936-2025-05-27-17-15-10","","null","","[]","null","",""
"","","","","","instructions","21","252467","0.0-7.0","CE95632B40AE4ABDBD33010653E26936","CE95632B40AE4ABDBD33010653E26936","a30452d6-0ed2-4a58-9ee4-3a098b6ca351","a6b6d205-fa41-4c5b-a7a5-7fc4b51b0cea","{""num_scrambled_semantic"":""8"",""num_scrambled_causal"":""4"",""num_scrambled_schematic"":""4"",""participantId"":""CE95632B40AE4ABDBD33010653E26936"",""assignmentId"":""a30452d6-0ed2-4a58-9ee4-3a098b6ca351"",""projectId"":""a6b6d205-fa41-4c5b-a7a5-7fc4b51b0cea""}","https://test12345.live/?num_scrambled_semantic=8&num_scrambled_causal=4&num_scrambled_schematic=4&participantId=CE95632B40AE4ABDBD33010653E26936&assignmentId=a30452d6-0ed2-4a58-9ee4-3a098b6ca351&projectId=a6b6d205-fa41-4c5b-a7a5-7fc4b51b0cea","CE95632B40AE4ABDBD33010653E26936-2025-05-27-17-15-10","[{""page_index"":0,""viewing_time"":9827},{""page_index"":1,""viewing_time"":1232}]","11059","","","","",""
"","","","","","html-audio-response","22","281719","0.0-8.0","CE95632B40AE4ABDBD33010653E26936","CE95632B40AE4ABDBD33010653E26936","a30452d6-0ed2-4a58-9ee4-3a098b6ca351","a6b6d205-fa41-4c5b-a7a5-7fc4b51b0cea","{""num_scrambled_semantic"":""8"",""num_scrambled_causal"":""4"",""num_scrambled_schematic"":""4"",""participantId"":""CE95632B40AE4ABDBD33010653E26936"",""assignmentId"":""a30452d6-0ed2-4a58-9ee4-3a098b6ca351"",""projectId"":""a6b6d205-fa41-4c5b-a7a5-7fc4b51b0cea""}","https://test12345.live/?num_scrambled_semantic=8&num_scrambled_causal=4&num_scrambled_schematic=4&participantId=CE95632B40AE4ABDBD33010653E26936&assignmentId=a30452d6-0ed2-4a58-9ee4-3a098b6ca351&projectId=a6b6d205-fa41-4c5b-a7a5-7fc4b51b0cea","CE95632B40AE4ABDBD33010653E26936-2025-05-27-17-15-10","","9003","","[""<span style=\""color: red; font-size: 24px\""> NOW RECORDING</span><p>Please say out loud all the images you saw in the exact order you saw them. Try to recall as many images as you can, but remember: getting the order right is more important than the number of images you recall.</p>""]","","3",""
"","","","","","instructions","23","283081","0.0-9.0","CE95632B40AE4ABDBD33010653E26936","CE95632B40AE4ABDBD33010653E26936","a30452d6-0ed2-4a58-9ee4-3a098b6ca351","a6b6d205-fa41-4c5b-a7a5-7fc4b51b0cea","{""num_scrambled_semantic"":""8"",""num_scrambled_causal"":""4"",""num_scrambled_schematic"":""4"",""participantId"":""CE95632B40AE4ABDBD33010653E26936"",""assignmentId"":""a30452d6-0ed2-4a58-9ee4-3a098b6ca351"",""projectId"":""a6b6d205-fa41-4c5b-a7a5-7fc4b51b0cea""}","https://test12345.live/?num_scrambled_semantic=8&num_scrambled_causal=4&num_scrambled_schematic=4&participantId=CE95632B40AE4ABDBD33010653E26936&assignmentId=a30452d6-0ed2-4a58-9ee4-3a098b6ca351&projectId=a6b6d205-fa41-4c5b-a7a5-7fc4b51b0cea","CE95632B40AE4ABDBD33010653E26936-2025-05-27-17-15-10","[{""page_index"":0,""viewing_time"":1358}]","1358","","","","",""
"","","","","","image-button-response","24","289085","0.0-10.0-0.0","CE95632B40AE4ABDBD33010653E26936","CE95632B40AE4ABDBD33010653E26936","a30452d6-0ed2-4a58-9ee4-3a098b6ca351","a6b6d205-fa41-4c5b-a7a5-7fc4b51b0cea","{""num_scrambled_semantic"":""8"",""num_scrambled_causal"":""4"",""num_scrambled_schematic"":""4"",""participantId"":""CE95632B40AE4ABDBD33010653E26936"",""assignmentId"":""a30452d6-0ed2-4a58-9ee4-3a098b6ca351"",""projectId"":""a6b6d205-fa41-4c5b-a7a5-7fc4b51b0cea""}","https://test12345.live/?num_scrambled_semantic=8&num_scrambled_causal=4&num_scrambled_schematic=4&participantId=CE95632B40AE4ABDBD33010653E26936&assignmentId=a30452d6-0ed2-4a58-9ee4-3a098b6ca351&projectId=a6b6d205-fa41-4c5b-a7a5-7fc4b51b0cea","CE95632B40AE4ABDBD33010653E26936-2025-05-27-17-15-10","","null","","images/schematic_sequence/hotel_scheme/hotel_scheme_0.png","null","",""
"","","","","","image-button-response","25","293593","0.0-10.0-1.0-0.0","CE95632B40AE4ABDBD33010653E26936","CE95632B40AE4ABDBD33010653E26936","a30452d6-0ed2-4a58-9ee4-3a098b6ca351","a6b6d205-fa41-4c5b-a7a5-7fc4b51b0cea","{""num_scrambled_semantic"":""8"",""num_scrambled_causal"":""4"",""num_scrambled_schematic"":""4"",""participantId"":""CE95632B40AE4ABDBD33010653E26936"",""assignmentId"":""a30452d6-0ed2-4a58-9ee4-3a098b6ca351"",""projectId"":""a6b6d205-fa41-4c5b-a7a5-7fc4b51b0cea""}","https://test12345.live/?num_scrambled_semantic=8&num_scrambled_causal=4&num_scrambled_schematic=4&participantId=CE95632B40AE4ABDBD33010653E26936&assignmentId=a30452d6-0ed2-4a58-9ee4-3a098b6ca351&projectId=a6b6d205-fa41-4c5b-a7a5-7fc4b51b0cea","CE95632B40AE4ABDBD33010653E26936-2025-05-27-17-15-10","","null","","images/schematic_sequence/hotel_scheme/hotel_scheme_8.png","null","",""
"","","","","","image-button-response","26","294535","0.0-10.0-1.0-1.0","CE95632B40AE4ABDBD33010653E26936","CE95632B40AE4ABDBD33010653E26936","a30452d6-0ed2-4a58-9ee4-3a098b6ca351","a6b6d205-fa41-4c5b-a7a5-7fc4b51b0cea","{""num_scrambled_semantic"":""8"",""num_scrambled_causal"":""4"",""num_scrambled_schematic"":""4"",""participantId"":""CE95632B40AE4ABDBD33010653E26936"",""assignmentId"":""a30452d6-0ed2-4a58-9ee4-3a098b6ca351"",""projectId"":""a6b6d205-fa41-4c5b-a7a5-7fc4b51b0cea""}","https://test12345.live/?num_scrambled_semantic=8&num_scrambled_causal=4&num_scrambled_schematic=4&participantId=CE95632B40AE4ABDBD33010653E26936&assignmentId=a30452d6-0ed2-4a58-9ee4-3a098b6ca351&projectId=a6b6d205-fa41-4c5b-a7a5-7fc4b51b0cea","CE95632B40AE4ABDBD33010653E26936-2025-05-27-17-15-10","","940","","images/schematic_sequence/hotel_scheme/hotel_scheme_8.png","0","",""
"","","","","","image-button-response","27","296341","0.0-10.0-1.0-2.0","CE95632B40AE4ABDBD33010653E26936","CE95632B40AE4ABDBD33010653E26936","a30452d6-0ed2-4a58-9ee4-3a098b6ca351","a6b6d205-fa41-4c5b-a7a5-7fc4b51b0cea","{""num_scrambled_semantic"":""8"",""num_scrambled_causal"":""4"",""num_scrambled_schematic"":""4"",""participantId"":""CE95632B40AE4ABDBD33010653E26936"",""assignmentId"":""a30452d6-0ed2-4a58-9ee4-3a098b6ca351"",""projectId"":""a6b6d205-fa41-4c5b-a7a5-7fc4b51b0cea""}","https://test12345.live/?num_scrambled_semantic=8&num_scrambled_causal=4&num_scrambled_schematic=4&participantId=CE95632B40AE4ABDBD33010653E26936&assignmentId=a30452d6-0ed2-4a58-9ee4-3a098b6ca351&projectId=a6b6d205-fa41-4c5b-a7a5-7fc4b51b0cea","CE95632B40AE4ABDBD33010653E26936-2025-05-27-17-15-10","","null","","[]","null","",""
"","","","","","image-button-response","28","300844","0.0-10.0-1.0-0.1","CE95632B40AE4ABDBD33010653E26936","CE95632B40AE4ABDBD33010653E26936","a30452d6-0ed2-4a58-9ee4-3a098b6ca351","a6b6d205-fa41-4c5b-a7a5-7fc4b51b0cea","{""num_scrambled_semantic"":""8"",""num_scrambled_causal"":""4"",""num_scrambled_schematic"":""4"",""participantId"":""CE95632B40AE4ABDBD33010653E26936"",""assignmentId"":""a30452d6-0ed2-4a58-9ee4-3a098b6ca351"",""projectId"":""a6b6d205-fa41-4c5b-a7a5-7fc4b51b0cea""}","https://test12345.live/?num_scrambled_semantic=8&num_scrambled_causal=4&num_scrambled_schematic=4&participantId=CE95632B40AE4ABDBD33010653E26936&assignmentId=a30452d6-0ed2-4a58-9ee4-3a098b6ca351&projectId=a6b6d205-fa41-4c5b-a7a5-7fc4b51b0cea","CE95632B40AE4ABDBD33010653E26936-2025-05-27-17-15-10","","null","","images/schematic_sequence/hotel_scheme/hotel_scheme_4.png","null","",""
"","","","","","image-button-response","29","302452","0.0-10.0-1.0-1.1","CE95632B40AE4ABDBD33010653E26936","CE95632B40AE4ABDBD33010653E26936","a30452d6-0ed2-4a58-9ee4-3a098b6ca351","a6b6d205-fa41-4c5b-a7a5-7fc4b51b0cea","{""num_scrambled_semantic"":""8"",""num_scrambled_causal"":""4"",""num_scrambled_schematic"":""4"",""participantId"":""CE95632B40AE4ABDBD33010653E26936"",""assignmentId"":""a30452d6-0ed2-4a58-9ee4-3a098b6ca351"",""projectId"":""a6b6d205-fa41-4c5b-a7a5-7fc4b51b0cea""}","https://test12345.live/?num_scrambled_semantic=8&num_scrambled_causal=4&num_scrambled_schematic=4&participantId=CE95632B40AE4ABDBD33010653E26936&assignmentId=a30452d6-0ed2-4a58-9ee4-3a098b6ca351&projectId=a6b6d205-fa41-4c5b-a7a5-7fc4b51b0cea","CE95632B40AE4ABDBD33010653E26936-2025-05-27-17-15-10","","1605","","images/schematic_sequence/hotel_scheme/hotel_scheme_4.png","1","",""
"","","","","","image-button-response","30","304259","0.0-10.0-1.0-2.1","CE95632B40AE4ABDBD33010653E26936","CE95632B40AE4ABDBD33010653E26936","a30452d6-0ed2-4a58-9ee4-3a098b6ca351","a6b6d205-fa41-4c5b-a7a5-7fc4b51b0cea","{""num_scrambled_semantic"":""8"",""num_scrambled_causal"":""4"",""num_scrambled_schematic"":""4"",""participantId"":""CE95632B40AE4ABDBD33010653E26936"",""assignmentId"":""a30452d6-0ed2-4a58-9ee4-3a098b6ca351"",""projectId"":""a6b6d205-fa41-4c5b-a7a5-7fc4b51b0cea""}","https://test12345.live/?num_scrambled_semantic=8&num_scrambled_causal=4&num_scrambled_schematic=4&participantId=CE95632B40AE4ABDBD33010653E26936&assignmentId=a30452d6-0ed2-4a58-9ee4-3a098b6ca351&projectId=a6b6d205-fa41-4c5b-a7a5-7fc4b51b0cea","CE95632B40AE4ABDBD33010653E26936-2025-05-27-17-15-10","","null","","[]","null","",""
"","","","","","image-button-response","31","308763","0.0-10.0-1.0-0.2","CE95632B40AE4ABDBD33010653E26936","CE95632B40AE4ABDBD33010653E26936","a30452d6-0ed2-4a58-9ee4-3a098b6ca351","a6b6d205-fa41-4c5b-a7a5-7fc4b51b0cea","{""num_scrambled_semantic"":""8"",""num_scrambled_causal"":""4"",""num_scrambled_schematic"":""4"",""participantId"":""CE95632B40AE4ABDBD33010653E26936"",""assignmentId"":""a30452d6-0ed2-4a58-9ee4-3a098b6ca351"",""projectId"":""a6b6d205-fa41-4c5b-a7a5-7fc4b51b0cea""}","https://test12345.live/?num_scrambled_semantic=8&num_scrambled_causal=4&num_scrambled_schematic=4&participantId=CE95632B40AE4ABDBD33010653E26936&assignmentId=a30452d6-0ed2-4a58-9ee4-3a098b6ca351&projectId=a6b6d205-fa41-4c5b-a7a5-7fc4b51b0cea","CE95632B40AE4ABDBD33010653E26936-2025-05-27-17-15-10","","null","","images/schematic_sequence/hotel_scheme/hotel_scheme_6.png","null","",""
"","","","","","image-button-response","32","309701","0.0-10.0-1.0-1.2","CE95632B40AE4ABDBD33010653E26936","CE95632B40AE4ABDBD33010653E26936","a30452d6-0ed2-4a58-9ee4-3a098b6ca351","a6b6d205-fa41-4c5b-a7a5-7fc4b51b0cea","{""num_scrambled_semantic"":""8"",""num_scrambled_causal"":""4"",""num_scrambled_schematic"":""4"",""participantId"":""CE95632B40AE4ABDBD33010653E26936"",""assignmentId"":""a30452d6-0ed2-4a58-9ee4-3a098b6ca351"",""projectId"":""a6b6d205-fa41-4c5b-a7a5-7fc4b51b0cea""}","https://test12345.live/?num_scrambled_semantic=8&num_scrambled_causal=4&num_scrambled_schematic=4&participantId=CE95632B40AE4ABDBD33010653E26936&assignmentId=a30452d6-0ed2-4a58-9ee4-3a098b6ca351&projectId=a6b6d205-fa41-4c5b-a7a5-7fc4b51b0cea","CE95632B40AE4ABDBD33010653E26936-2025-05-27-17-15-10","","936","","images/schematic_sequence/hotel_scheme/hotel_scheme_6.png","0","",""
"","","","","","image-button-response","33","311508","0.0-10.0-1.0-2.2","CE95632B40AE4ABDBD33010653E26936","CE95632B40AE4ABDBD33010653E26936","a30452d6-0ed2-4a58-9ee4-3a098b6ca351","a6b6d205-fa41-4c5b-a7a5-7fc4b51b0cea","{""num_scrambled_semantic"":""8"",""num_scrambled_causal"":""4"",""num_scrambled_schematic"":""4"",""participantId"":""CE95632B40AE4ABDBD33010653E26936"",""assignmentId"":""a30452d6-0ed2-4a58-9ee4-3a098b6ca351"",""projectId"":""a6b6d205-fa41-4c5b-a7a5-7fc4b51b0cea""}","https://test12345.live/?num_scrambled_semantic=8&num_scrambled_causal=4&num_scrambled_schematic=4&participantId=CE95632B40AE4ABDBD33010653E26936&assignmentId=a30452d6-0ed2-4a58-9ee4-3a098b6ca351&projectId=a6b6d205-fa41-4c5b-a7a5-7fc4b51b0cea","CE95632B40AE4ABDBD33010653E26936-2025-05-27-17-15-10","","null","","[]","null","",""
"","","","","","image-button-response","34","316010","0.0-10.0-1.0-0.3","CE95632B40AE4ABDBD33010653E26936","CE95632B40AE4ABDBD33010653E26936","a30452d6-0ed2-4a58-9ee4-3a098b6ca351","a6b6d205-fa41-4c5b-a7a5-7fc4b51b0cea","{""num_scrambled_semantic"":""8"",""num_scrambled_causal"":""4"",""num_scrambled_schematic"":""4"",""participantId"":""CE95632B40AE4ABDBD33010653E26936"",""assignmentId"":""a30452d6-0ed2-4a58-9ee4-3a098b6ca351"",""projectId"":""a6b6d205-fa41-4c5b-a7a5-7fc4b51b0cea""}","https://test12345.live/?num_scrambled_semantic=8&num_scrambled_causal=4&num_scrambled_schematic=4&participantId=CE95632B40AE4ABDBD33010653E26936&assignmentId=a30452d6-0ed2-4a58-9ee4-3a098b6ca351&projectId=a6b6d205-fa41-4c5b-a7a5-7fc4b51b0cea","CE95632B40AE4ABDBD33010653E26936-2025-05-27-17-15-10","","null","","images/schematic_sequence/hotel_scheme/hotel_scheme_5.png","null","",""
"","","","","","image-button-response","35","317717","0.0-10.0-1.0-1.3","CE95632B40AE4ABDBD33010653E26936","CE95632B40AE4ABDBD33010653E26936","a30452d6-0ed2-4a58-9ee4-3a098b6ca351","a6b6d205-fa41-4c5b-a7a5-7fc4b51b0cea","{""num_scrambled_semantic"":""8"",""num_scrambled_causal"":""4"",""num_scrambled_schematic"":""4"",""participantId"":""CE95632B40AE4ABDBD33010653E26936"",""assignmentId"":""a30452d6-0ed2-4a58-9ee4-3a098b6ca351"",""projectId"":""a6b6d205-fa41-4c5b-a7a5-7fc4b51b0cea""}","https://test12345.live/?num_scrambled_semantic=8&num_scrambled_causal=4&num_scrambled_schematic=4&participantId=CE95632B40AE4ABDBD33010653E26936&assignmentId=a30452d6-0ed2-4a58-9ee4-3a098b6ca351&projectId=a6b6d205-fa41-4c5b-a7a5-7fc4b51b0cea","CE95632B40AE4ABDBD33010653E26936-2025-05-27-17-15-10","","1705","","images/schematic_sequence/hotel_scheme/hotel_scheme_5.png","0","",""
"","","","","","image-button-response","36","319525","0.0-10.0-1.0-2.3","CE95632B40AE4ABDBD33010653E26936","CE95632B40AE4ABDBD33010653E26936","a30452d6-0ed2-4a58-9ee4-3a098b6ca351","a6b6d205-fa41-4c5b-a7a5-7fc4b51b0cea","{""num_scrambled_semantic"":""8"",""num_scrambled_causal"":""4"",""num_scrambled_schematic"":""4"",""participantId"":""CE95632B40AE4ABDBD33010653E26936"",""assignmentId"":""a30452d6-0ed2-4a58-9ee4-3a098b6ca351"",""projectId"":""a6b6d205-fa41-4c5b-a7a5-7fc4b51b0cea""}","https://test12345.live/?num_scrambled_semantic=8&num_scrambled_causal=4&num_scrambled_schematic=4&participantId=CE95632B40AE4ABDBD33010653E26936&assignmentId=a30452d6-0ed2-4a58-9ee4-3a098b6ca351&projectId=a6b6d205-fa41-4c5b-a7a5-7fc4b51b0cea","CE95632B40AE4ABDBD33010653E26936-2025-05-27-17-15-10","","null","","[]","null","",""
"","","","","","image-button-response","37","324028","0.0-10.0-1.0-0.4","CE95632B40AE4ABDBD33010653E26936","CE95632B40AE4ABDBD33010653E26936","a30452d6-0ed2-4a58-9ee4-3a098b6ca351","a6b6d205-fa41-4c5b-a7a5-7fc4b51b0cea","{""num_scrambled_semantic"":""8"",""num_scrambled_causal"":""4"",""num_scrambled_schematic"":""4"",""participantId"":""CE95632B40AE4ABDBD33010653E26936"",""assignmentId"":""a30452d6-0ed2-4a58-9ee4-3a098b6ca351"",""projectId"":""a6b6d205-fa41-4c5b-a7a5-7fc4b51b0cea""}","https://test12345.live/?num_scrambled_semantic=8&num_scrambled_causal=4&num_scrambled_schematic=4&participantId=CE95632B40AE4ABDBD33010653E26936&assignmentId=a30452d6-0ed2-4a58-9ee4-3a098b6ca351&projectId=a6b6d205-fa41-4c5b-a7a5-7fc4b51b0cea","CE95632B40AE4ABDBD33010653E26936-2025-05-27-17-15-10","","null","","images/schematic_sequence/hotel_scheme/hotel_scheme_7.png","null","",""
"","","","","","image-button-response","38","325615","0.0-10.0-1.0-1.4","CE95632B40AE4ABDBD33010653E26936","CE95632B40AE4ABDBD33010653E26936","a30452d6-0ed2-4a58-9ee4-3a098b6ca351","a6b6d205-fa41-4c5b-a7a5-7fc4b51b0cea","{""num_scrambled_semantic"":""8"",""num_scrambled_causal"":""4"",""num_scrambled_schematic"":""4"",""participantId"":""CE95632B40AE4ABDBD33010653E26936"",""assignmentId"":""a30452d6-0ed2-4a58-9ee4-3a098b6ca351"",""projectId"":""a6b6d205-fa41-4c5b-a7a5-7fc4b51b0cea""}","https://test12345.live/?num_scrambled_semantic=8&num_scrambled_causal=4&num_scrambled_schematic=4&participantId=CE95632B40AE4ABDBD33010653E26936&assignmentId=a30452d6-0ed2-4a58-9ee4-3a098b6ca351&projectId=a6b6d205-fa41-4c5b-a7a5-7fc4b51b0cea","CE95632B40AE4ABDBD33010653E26936-2025-05-27-17-15-10","","1585","","images/schematic_sequence/hotel_scheme/hotel_scheme_7.png","0","",""
"","","","","","image-button-response","39","327421","0.0-10.0-1.0-2.4","CE95632B40AE4ABDBD33010653E26936","CE95632B40AE4ABDBD33010653E26936","a30452d6-0ed2-4a58-9ee4-3a098b6ca351","a6b6d205-fa41-4c5b-a7a5-7fc4b51b0cea","{""num_scrambled_semantic"":""8"",""num_scrambled_causal"":""4"",""num_scrambled_schematic"":""4"",""participantId"":""CE95632B40AE4ABDBD33010653E26936"",""assignmentId"":""a30452d6-0ed2-4a58-9ee4-3a098b6ca351"",""projectId"":""a6b6d205-fa41-4c5b-a7a5-7fc4b51b0cea""}","https://test12345.live/?num_scrambled_semantic=8&num_scrambled_causal=4&num_scrambled_schematic=4&participantId=CE95632B40AE4ABDBD33010653E26936&assignmentId=a30452d6-0ed2-4a58-9ee4-3a098b6ca351&projectId=a6b6d205-fa41-4c5b-a7a5-7fc4b51b0cea","CE95632B40AE4ABDBD33010653E26936-2025-05-27-17-15-10","","null","","[]","null","",""
"","","","","","image-button-response","40","331928","0.0-10.0-1.0-0.5","CE95632B40AE4ABDBD33010653E26936","CE95632B40AE4ABDBD33010653E26936","a30452d6-0ed2-4a58-9ee4-3a098b6ca351","a6b6d205-fa41-4c5b-a7a5-7fc4b51b0cea","{""num_scrambled_semantic"":""8"",""num_scrambled_causal"":""4"",""num_scrambled_schematic"":""4"",""participantId"":""CE95632B40AE4ABDBD33010653E26936"",""assignmentId"":""a30452d6-0ed2-4a58-9ee4-3a098b6ca351"",""projectId"":""a6b6d205-fa41-4c5b-a7a5-7fc4b51b0cea""}","https://test12345.live/?num_scrambled_semantic=8&num_scrambled_causal=4&num_scrambled_schematic=4&participantId=CE95632B40AE4ABDBD33010653E26936&assignmentId=a30452d6-0ed2-4a58-9ee4-3a098b6ca351&projectId=a6b6d205-fa41-4c5b-a7a5-7fc4b51b0cea","CE95632B40AE4ABDBD33010653E26936-2025-05-27-17-15-10","","null","","images/schematic_sequence/hotel_scheme/hotel_scheme_1.png","null","",""
"","","","","","image-button-response","41","333468","0.0-10.0-1.0-1.5","CE95632B40AE4ABDBD33010653E26936","CE95632B40AE4ABDBD33010653E26936","a30452d6-0ed2-4a58-9ee4-3a098b6ca351","a6b6d205-fa41-4c5b-a7a5-7fc4b51b0cea","{""num_scrambled_semantic"":""8"",""num_scrambled_causal"":""4"",""num_scrambled_schematic"":""4"",""participantId"":""CE95632B40AE4ABDBD33010653E26936"",""assignmentId"":""a30452d6-0ed2-4a58-9ee4-3a098b6ca351"",""projectId"":""a6b6d205-fa41-4c5b-a7a5-7fc4b51b0cea""}","https://test12345.live/?num_scrambled_semantic=8&num_scrambled_causal=4&num_scrambled_schematic=4&participantId=CE95632B40AE4ABDBD33010653E26936&assignmentId=a30452d6-0ed2-4a58-9ee4-3a098b6ca351&projectId=a6b6d205-fa41-4c5b-a7a5-7fc4b51b0cea","CE95632B40AE4ABDBD33010653E26936-2025-05-27-17-15-10","","1538","","images/schematic_sequence/hotel_scheme/hotel_scheme_1.png","1","",""
"","","","","","image-button-response","42","335271","0.0-10.0-1.0-2.5","CE95632B40AE4ABDBD33010653E26936","CE95632B40AE4ABDBD33010653E26936","a30452d6-0ed2-4a58-9ee4-3a098b6ca351","a6b6d205-fa41-4c5b-a7a5-7fc4b51b0cea","{""num_scrambled_semantic"":""8"",""num_scrambled_causal"":""4"",""num_scrambled_schematic"":""4"",""participantId"":""CE95632B40AE4ABDBD33010653E26936"",""assignmentId"":""a30452d6-0ed2-4a58-9ee4-3a098b6ca351"",""projectId"":""a6b6d205-fa41-4c5b-a7a5-7fc4b51b0cea""}","https://test12345.live/?num_scrambled_semantic=8&num_scrambled_causal=4&num_scrambled_schematic=4&participantId=CE95632B40AE4ABDBD33010653E26936&assignmentId=a30452d6-0ed2-4a58-9ee4-3a098b6ca351&projectId=a6b6d205-fa41-4c5b-a7a5-7fc4b51b0cea","CE95632B40AE4ABDBD33010653E26936-2025-05-27-17-15-10","","null","","[]","null","",""
"","","","","","image-button-response","43","339775","0.0-10.0-1.0-0.6","CE95632B40AE4ABDBD33010653E26936","CE95632B40AE4ABDBD33010653E26936","a30452d6-0ed2-4a58-9ee4-3a098b6ca351","a6b6d205-fa41-4c5b-a7a5-7fc4b51b0cea","{""num_scrambled_semantic"":""8"",""num_scrambled_causal"":""4"",""num_scrambled_schematic"":""4"",""participantId"":""CE95632B40AE4ABDBD33010653E26936"",""assignmentId"":""a30452d6-0ed2-4a58-9ee4-3a098b6ca351"",""projectId"":""a6b6d205-fa41-4c5b-a7a5-7fc4b51b0cea""}","https://test12345.live/?num_scrambled_semantic=8&num_scrambled_causal=4&num_scrambled_schematic=4&participantId=CE95632B40AE4ABDBD33010653E26936&assignmentId=a30452d6-0ed2-4a58-9ee4-3a098b6ca351&projectId=a6b6d205-fa41-4c5b-a7a5-7fc4b51b0cea","CE95632B40AE4ABDBD33010653E26936-2025-05-27-17-15-10","","null","","images/schematic_sequence/hotel_scheme/hotel_scheme_ten.png","null","",""
"","","","","","image-button-response","44","341417","0.0-10.0-1.0-1.6","CE95632B40AE4ABDBD33010653E26936","CE95632B40AE4ABDBD33010653E26936","a30452d6-0ed2-4a58-9ee4-3a098b6ca351","a6b6d205-fa41-4c5b-a7a5-7fc4b51b0cea","{""num_scrambled_semantic"":""8"",""num_scrambled_causal"":""4"",""num_scrambled_schematic"":""4"",""participantId"":""CE95632B40AE4ABDBD33010653E26936"",""assignmentId"":""a30452d6-0ed2-4a58-9ee4-3a098b6ca351"",""projectId"":""a6b6d205-fa41-4c5b-a7a5-7fc4b51b0cea""}","https://test12345.live/?num_scrambled_semantic=8&num_scrambled_causal=4&num_scrambled_schematic=4&participantId=CE95632B40AE4ABDBD33010653E26936&assignmentId=a30452d6-0ed2-4a58-9ee4-3a098b6ca351&projectId=a6b6d205-fa41-4c5b-a7a5-7fc4b51b0cea","CE95632B40AE4ABDBD33010653E26936-2025-05-27-17-15-10","","1641","","images/schematic_sequence/hotel_scheme/hotel_scheme_ten.png","0","",""
"","","","","","image-button-response","45","343223","0.0-10.0-1.0-2.6","CE95632B40AE4ABDBD33010653E26936","CE95632B40AE4ABDBD33010653E26936","a30452d6-0ed2-4a58-9ee4-3a098b6ca351","a6b6d205-fa41-4c5b-a7a5-7fc4b51b0cea","{""num_scrambled_semantic"":""8"",""num_scrambled_causal"":""4"",""num_scrambled_schematic"":""4"",""participantId"":""CE95632B40AE4ABDBD33010653E26936"",""assignmentId"":""a30452d6-0ed2-4a58-9ee4-3a098b6ca351"",""projectId"":""a6b6d205-fa41-4c5b-a7a5-7fc4b51b0cea""}","https://test12345.live/?num_scrambled_semantic=8&num_scrambled_causal=4&num_scrambled_schematic=4&participantId=CE95632B40AE4ABDBD33010653E26936&assignmentId=a30452d6-0ed2-4a58-9ee4-3a098b6ca351&projectId=a6b6d205-fa41-4c5b-a7a5-7fc4b51b0cea","CE95632B40AE4ABDBD33010653E26936-2025-05-27-17-15-10","","null","","[]","null","",""
"","","","","","image-button-response","46","347730","0.0-10.0-1.0-0.7","CE95632B40AE4ABDBD33010653E26936","CE95632B40AE4ABDBD33010653E26936","a30452d6-0ed2-4a58-9ee4-3a098b6ca351","a6b6d205-fa41-4c5b-a7a5-7fc4b51b0cea","{""num_scrambled_semantic"":""8"",""num_scrambled_causal"":""4"",""num_scrambled_schematic"":""4"",""participantId"":""CE95632B40AE4ABDBD33010653E26936"",""assignmentId"":""a30452d6-0ed2-4a58-9ee4-3a098b6ca351"",""projectId"":""a6b6d205-fa41-4c5b-a7a5-7fc4b51b0cea""}","https://test12345.live/?num_scrambled_semantic=8&num_scrambled_causal=4&num_scrambled_schematic=4&participantId=CE95632B40AE4ABDBD33010653E26936&assignmentId=a30452d6-0ed2-4a58-9ee4-3a098b6ca351&projectId=a6b6d205-fa41-4c5b-a7a5-7fc4b51b0cea","CE95632B40AE4ABDBD33010653E26936-2025-05-27-17-15-10","","null","","images/schematic_sequence/hotel_scheme/hotel_scheme_2.png","null","",""
"","","","","","image-button-response","47","349200","0.0-10.0-1.0-1.7","CE95632B40AE4ABDBD33010653E26936","CE95632B40AE4ABDBD33010653E26936","a30452d6-0ed2-4a58-9ee4-3a098b6ca351","a6b6d205-fa41-4c5b-a7a5-7fc4b51b0cea","{""num_scrambled_semantic"":""8"",""num_scrambled_causal"":""4"",""num_scrambled_schematic"":""4"",""participantId"":""CE95632B40AE4ABDBD33010653E26936"",""assignmentId"":""a30452d6-0ed2-4a58-9ee4-3a098b6ca351"",""projectId"":""a6b6d205-fa41-4c5b-a7a5-7fc4b51b0cea""}","https://test12345.live/?num_scrambled_semantic=8&num_scrambled_causal=4&num_scrambled_schematic=4&participantId=CE95632B40AE4ABDBD33010653E26936&assignmentId=a30452d6-0ed2-4a58-9ee4-3a098b6ca351&projectId=a6b6d205-fa41-4c5b-a7a5-7fc4b51b0cea","CE95632B40AE4ABDBD33010653E26936-2025-05-27-17-15-10","","1468","","images/schematic_sequence/hotel_scheme/hotel_scheme_2.png","0","",""
"","","","","","image-button-response","48","351004","0.0-10.0-1.0-2.7","CE95632B40AE4ABDBD33010653E26936","CE95632B40AE4ABDBD33010653E26936","a30452d6-0ed2-4a58-9ee4-3a098b6ca351","a6b6d205-fa41-4c5b-a7a5-7fc4b51b0cea","{""num_scrambled_semantic"":""8"",""num_scrambled_causal"":""4"",""num_scrambled_schematic"":""4"",""participantId"":""CE95632B40AE4ABDBD33010653E26936"",""assignmentId"":""a30452d6-0ed2-4a58-9ee4-3a098b6ca351"",""projectId"":""a6b6d205-fa41-4c5b-a7a5-7fc4b51b0cea""}","https://test12345.live/?num_scrambled_semantic=8&num_scrambled_causal=4&num_scrambled_schematic=4&participantId=CE95632B40AE4ABDBD33010653E26936&assignmentId=a30452d6-0ed2-4a58-9ee4-3a098b6ca351&projectId=a6b6d205-fa41-4c5b-a7a5-7fc4b51b0cea","CE95632B40AE4ABDBD33010653E26936-2025-05-27-17-15-10","","null","","[]","null","",""
"","","","","","image-button-response","49","355507","0.0-10.0-1.0-0.8","CE95632B40AE4ABDBD33010653E26936","CE95632B40AE4ABDBD33010653E26936","a30452d6-0ed2-4a58-9ee4-3a098b6ca351","a6b6d205-fa41-4c5b-a7a5-7fc4b51b0cea","{""num_scrambled_semantic"":""8"",""num_scrambled_causal"":""4"",""num_scrambled_schematic"":""4"",""participantId"":""CE95632B40AE4ABDBD33010653E26936"",""assignmentId"":""a30452d6-0ed2-4a58-9ee4-3a098b6ca351"",""projectId"":""a6b6d205-fa41-4c5b-a7a5-7fc4b51b0cea""}","https://test12345.live/?num_scrambled_semantic=8&num_scrambled_causal=4&num_scrambled_schematic=4&participantId=CE95632B40AE4ABDBD33010653E26936&assignmentId=a30452d6-0ed2-4a58-9ee4-3a098b6ca351&projectId=a6b6d205-fa41-4c5b-a7a5-7fc4b51b0cea","CE95632B40AE4ABDBD33010653E26936-2025-05-27-17-15-10","","null","","images/schematic_sequence/hotel_scheme/hotel_scheme_9.png","null","",""
"","","","","","image-button-response","50","356535","0.0-10.0-1.0-1.8","CE95632B40AE4ABDBD33010653E26936","CE95632B40AE4ABDBD33010653E26936","a30452d6-0ed2-4a58-9ee4-3a098b6ca351","a6b6d205-fa41-4c5b-a7a5-7fc4b51b0cea","{""num_scrambled_semantic"":""8"",""num_scrambled_causal"":""4"",""num_scrambled_schematic"":""4"",""participantId"":""CE95632B40AE4ABDBD33010653E26936"",""assignmentId"":""a30452d6-0ed2-4a58-9ee4-3a098b6ca351"",""projectId"":""a6b6d205-fa41-4c5b-a7a5-7fc4b51b0cea""}","https://test12345.live/?num_scrambled_semantic=8&num_scrambled_causal=4&num_scrambled_schematic=4&participantId=CE95632B40AE4ABDBD33010653E26936&assignmentId=a30452d6-0ed2-4a58-9ee4-3a098b6ca351&projectId=a6b6d205-fa41-4c5b-a7a5-7fc4b51b0cea","CE95632B40AE4ABDBD33010653E26936-2025-05-27-17-15-10","","1025","","images/schematic_sequence/hotel_scheme/hotel_scheme_9.png","0","",""
"","","","","","image-button-response","51","358342","0.0-10.0-1.0-2.8","CE95632B40AE4ABDBD33010653E26936","CE95632B40AE4ABDBD33010653E26936","a30452d6-0ed2-4a58-9ee4-3a098b6ca351","a6b6d205-fa41-4c5b-a7a5-7fc4b51b0cea","{""num_scrambled_semantic"":""8"",""num_scrambled_causal"":""4"",""num_scrambled_schematic"":""4"",""participantId"":""CE95632B40AE4ABDBD33010653E26936"",""assignmentId"":""a30452d6-0ed2-4a58-9ee4-3a098b6ca351"",""projectId"":""a6b6d205-fa41-4c5b-a7a5-7fc4b51b0cea""}","https://test12345.live/?num_scrambled_semantic=8&num_scrambled_causal=4&num_scrambled_schematic=4&participantId=CE95632B40AE4ABDBD33010653E26936&assignmentId=a30452d6-0ed2-4a58-9ee4-3a098b6ca351&projectId=a6b6d205-fa41-4c5b-a7a5-7fc4b51b0cea","CE95632B40AE4ABDBD33010653E26936-2025-05-27-17-15-10","","null","","[]","null","",""
"","","","","","image-button-response","52","362849","0.0-10.0-1.0-0.9","CE95632B40AE4ABDBD33010653E26936","CE95632B40AE4ABDBD33010653E26936","a30452d6-0ed2-4a58-9ee4-3a098b6ca351","a6b6d205-fa41-4c5b-a7a5-7fc4b51b0cea","{""num_scrambled_semantic"":""8"",""num_scrambled_causal"":""4"",""num_scrambled_schematic"":""4"",""participantId"":""CE95632B40AE4ABDBD33010653E26936"",""assignmentId"":""a30452d6-0ed2-4a58-9ee4-3a098b6ca351"",""projectId"":""a6b6d205-fa41-4c5b-a7a5-7fc4b51b0cea""}","https://test12345.live/?num_scrambled_semantic=8&num_scrambled_causal=4&num_scrambled_schematic=4&participantId=CE95632B40AE4ABDBD33010653E26936&assignmentId=a30452d6-0ed2-4a58-9ee4-3a098b6ca351&projectId=a6b6d205-fa41-4c5b-a7a5-7fc4b51b0cea","CE95632B40AE4ABDBD33010653E26936-2025-05-27-17-15-10","","null","","images/schematic_sequence/hotel_scheme/hotel_scheme_3.png","null","",""
"","","","","","image-button-response","53","363768","0.0-10.0-1.0-1.9","CE95632B40AE4ABDBD33010653E26936","CE95632B40AE4ABDBD33010653E26936","a30452d6-0ed2-4a58-9ee4-3a098b6ca351","a6b6d205-fa41-4c5b-a7a5-7fc4b51b0cea","{""num_scrambled_semantic"":""8"",""num_scrambled_causal"":""4"",""num_scrambled_schematic"":""4"",""participantId"":""CE95632B40AE4ABDBD33010653E26936"",""assignmentId"":""a30452d6-0ed2-4a58-9ee4-3a098b6ca351"",""projectId"":""a6b6d205-fa41-4c5b-a7a5-7fc4b51b0cea""}","https://test12345.live/?num_scrambled_semantic=8&num_scrambled_causal=4&num_scrambled_schematic=4&participantId=CE95632B40AE4ABDBD33010653E26936&assignmentId=a30452d6-0ed2-4a58-9ee4-3a098b6ca351&projectId=a6b6d205-fa41-4c5b-a7a5-7fc4b51b0cea","CE95632B40AE4ABDBD33010653E26936-2025-05-27-17-15-10","","916","","images/schematic_sequence/hotel_scheme/hotel_scheme_3.png","0","",""
"","","","","","image-button-response","54","365570","0.0-10.0-1.0-2.9","CE95632B40AE4ABDBD33010653E26936","CE95632B40AE4ABDBD33010653E26936","a30452d6-0ed2-4a58-9ee4-3a098b6ca351","a6b6d205-fa41-4c5b-a7a5-7fc4b51b0cea","{""num_scrambled_semantic"":""8"",""num_scrambled_causal"":""4"",""num_scrambled_schematic"":""4"",""participantId"":""CE95632B40AE4ABDBD33010653E26936"",""assignmentId"":""a30452d6-0ed2-4a58-9ee4-3a098b6ca351"",""projectId"":""a6b6d205-fa41-4c5b-a7a5-7fc4b51b0cea""}","https://test12345.live/?num_scrambled_semantic=8&num_scrambled_causal=4&num_scrambled_schematic=4&participantId=CE95632B40AE4ABDBD33010653E26936&assignmentId=a30452d6-0ed2-4a58-9ee4-3a098b6ca351&projectId=a6b6d205-fa41-4c5b-a7a5-7fc4b51b0cea","CE95632B40AE4ABDBD33010653E26936-2025-05-27-17-15-10","","null","","[]","null","",""
"","","","","","html-audio-response","55","406070","0.0-11.0","CE95632B40AE4ABDBD33010653E26936","CE95632B40AE4ABDBD33010653E26936","a30452d6-0ed2-4a58-9ee4-3a098b6ca351","a6b6d205-fa41-4c5b-a7a5-7fc4b51b0cea","{""num_scrambled_semantic"":""8"",""num_scrambled_causal"":""4"",""num_scrambled_schematic"":""4"",""participantId"":""CE95632B40AE4ABDBD33010653E26936"",""assignmentId"":""a30452d6-0ed2-4a58-9ee4-3a098b6ca351"",""projectId"":""a6b6d205-fa41-4c5b-a7a5-7fc4b51b0cea""}","https://test12345.live/?num_scrambled_semantic=8&num_scrambled_causal=4&num_scrambled_schematic=4&participantId=CE95632B40AE4ABDBD33010653E26936&assignmentId=a30452d6-0ed2-4a58-9ee4-3a098b6ca351&projectId=a6b6d205-fa41-4c5b-a7a5-7fc4b51b0cea","CE95632B40AE4ABDBD33010653E26936-2025-05-27-17-15-10","","33789","","[""<span style=\""color: red; font-size: 24px\""> NOW RECORDING</span><p>Please say out loud all the images you saw, in the exact order you saw them. Try to recall as many images as you can, but remember: getting the order right is more important than the number of images you recall.</p>""]","","2","hotel_scheme"
"","","","","","image-button-response","56","412082","0.0-12.0-0.0","CE95632B40AE4ABDBD33010653E26936","CE95632B40AE4ABDBD33010653E26936","a30452d6-0ed2-4a58-9ee4-3a098b6ca351","a6b6d205-fa41-4c5b-a7a5-7fc4b51b0cea","{""num_scrambled_semantic"":""8"",""num_scrambled_causal"":""4"",""num_scrambled_schematic"":""4"",""participantId"":""CE95632B40AE4ABDBD33010653E26936"",""assignmentId"":""a30452d6-0ed2-4a58-9ee4-3a098b6ca351"",""projectId"":""a6b6d205-fa41-4c5b-a7a5-7fc4b51b0cea""}","https://test12345.live/?num_scrambled_semantic=8&num_scrambled_causal=4&num_scrambled_schematic=4&participantId=CE95632B40AE4ABDBD33010653E26936&assignmentId=a30452d6-0ed2-4a58-9ee4-3a098b6ca351&projectId=a6b6d205-fa41-4c5b-a7a5-7fc4b51b0cea","CE95632B40AE4ABDBD33010653E26936-2025-05-27-17-15-10","","null","","images/schematic_sequence/flight_scheme/flight_scheme_0.png","null","",""
"","","","","","image-button-response","57","416589","0.0-12.0-1.0-0.0","CE95632B40AE4ABDBD33010653E26936","CE95632B40AE4ABDBD33010653E26936","a30452d6-0ed2-4a58-9ee4-3a098b6ca351","a6b6d205-fa41-4c5b-a7a5-7fc4b51b0cea","{""num_scrambled_semantic"":""8"",""num_scrambled_causal"":""4"",""num_scrambled_schematic"":""4"",""participantId"":""CE95632B40AE4ABDBD33010653E26936"",""assignmentId"":""a30452d6-0ed2-4a58-9ee4-3a098b6ca351"",""projectId"":""a6b6d205-fa41-4c5b-a7a5-7fc4b51b0cea""}","https://test12345.live/?num_scrambled_semantic=8&num_scrambled_causal=4&num_scrambled_schematic=4&participantId=CE95632B40AE4ABDBD33010653E26936&assignmentId=a30452d6-0ed2-4a58-9ee4-3a098b6ca351&projectId=a6b6d205-fa41-4c5b-a7a5-7fc4b51b0cea","CE95632B40AE4ABDBD33010653E26936-2025-05-27-17-15-10","","null","","images/schematic_sequence/flight_scheme/flight_scheme_1.png","null","",""
"","","","","","image-button-response","58","418682","0.0-12.0-1.0-1.0","CE95632B40AE4ABDBD33010653E26936","CE95632B40AE4ABDBD33010653E26936","a30452d6-0ed2-4a58-9ee4-3a098b6ca351","a6b6d205-fa41-4c5b-a7a5-7fc4b51b0cea","{""num_scrambled_semantic"":""8"",""num_scrambled_causal"":""4"",""num_scrambled_schematic"":""4"",""participantId"":""CE95632B40AE4ABDBD33010653E26936"",""assignmentId"":""a30452d6-0ed2-4a58-9ee4-3a098b6ca351"",""projectId"":""a6b6d205-fa41-4c5b-a7a5-7fc4b51b0cea""}","https://test12345.live/?num_scrambled_semantic=8&num_scrambled_causal=4&num_scrambled_schematic=4&participantId=CE95632B40AE4ABDBD33010653E26936&assignmentId=a30452d6-0ed2-4a58-9ee4-3a098b6ca351&projectId=a6b6d205-fa41-4c5b-a7a5-7fc4b51b0cea","CE95632B40AE4ABDBD33010653E26936-2025-05-27-17-15-10","","2091","","images/schematic_sequence/flight_scheme/flight_scheme_1.png","0","",""
"","","","","","image-button-response","59","420488","0.0-12.0-1.0-2.0","CE95632B40AE4ABDBD33010653E26936","CE95632B40AE4ABDBD33010653E26936","a30452d6-0ed2-4a58-9ee4-3a098b6ca351","a6b6d205-fa41-4c5b-a7a5-7fc4b51b0cea","{""num_scrambled_semantic"":""8"",""num_scrambled_causal"":""4"",""num_scrambled_schematic"":""4"",""participantId"":""CE95632B40AE4ABDBD33010653E26936"",""assignmentId"":""a30452d6-0ed2-4a58-9ee4-3a098b6ca351"",""projectId"":""a6b6d205-fa41-4c5b-a7a5-7fc4b51b0cea""}","https://test12345.live/?num_scrambled_semantic=8&num_scrambled_causal=4&num_scrambled_schematic=4&participantId=CE95632B40AE4ABDBD33010653E26936&assignmentId=a30452d6-0ed2-4a58-9ee4-3a098b6ca351&projectId=a6b6d205-fa41-4c5b-a7a5-7fc4b51b0cea","CE95632B40AE4ABDBD33010653E26936-2025-05-27-17-15-10","","null","","[]","null","",""
"","","","","","image-button-response","60","424995","0.0-12.0-1.0-0.1","CE95632B40AE4ABDBD33010653E26936","CE95632B40AE4ABDBD33010653E26936","a30452d6-0ed2-4a58-9ee4-3a098b6ca351","a6b6d205-fa41-4c5b-a7a5-7fc4b51b0cea","{""num_scrambled_semantic"":""8"",""num_scrambled_causal"":""4"",""num_scrambled_schematic"":""4"",""participantId"":""CE95632B40AE4ABDBD33010653E26936"",""assignmentId"":""a30452d6-0ed2-4a58-9ee4-3a098b6ca351"",""projectId"":""a6b6d205-fa41-4c5b-a7a5-7fc4b51b0cea""}","https://test12345.live/?num_scrambled_semantic=8&num_scrambled_causal=4&num_scrambled_schematic=4&participantId=CE95632B40AE4ABDBD33010653E26936&assignmentId=a30452d6-0ed2-4a58-9ee4-3a098b6ca351&projectId=a6b6d205-fa41-4c5b-a7a5-7fc4b51b0cea","CE95632B40AE4ABDBD33010653E26936-2025-05-27-17-15-10","","null","","images/schematic_sequence/flight_scheme/flight_scheme_2.png","null","",""
"","","","","","image-button-response","61","427067","0.0-12.0-1.0-1.1","CE95632B40AE4ABDBD33010653E26936","CE95632B40AE4ABDBD33010653E26936","a30452d6-0ed2-4a58-9ee4-3a098b6ca351","a6b6d205-fa41-4c5b-a7a5-7fc4b51b0cea","{""num_scrambled_semantic"":""8"",""num_scrambled_causal"":""4"",""num_scrambled_schematic"":""4"",""participantId"":""CE95632B40AE4ABDBD33010653E26936"",""assignmentId"":""a30452d6-0ed2-4a58-9ee4-3a098b6ca351"",""projectId"":""a6b6d205-fa41-4c5b-a7a5-7fc4b51b0cea""}","https://test12345.live/?num_scrambled_semantic=8&num_scrambled_causal=4&num_scrambled_schematic=4&participantId=CE95632B40AE4ABDBD33010653E26936&assignmentId=a30452d6-0ed2-4a58-9ee4-3a098b6ca351&projectId=a6b6d205-fa41-4c5b-a7a5-7fc4b51b0cea","CE95632B40AE4ABDBD33010653E26936-2025-05-27-17-15-10","","2070","","images/schematic_sequence/flight_scheme/flight_scheme_2.png","1","",""
"","","","","","image-button-response","62","428874","0.0-12.0-1.0-2.1","CE95632B40AE4ABDBD33010653E26936","CE95632B40AE4ABDBD33010653E26936","a30452d6-0ed2-4a58-9ee4-3a098b6ca351","a6b6d205-fa41-4c5b-a7a5-7fc4b51b0cea","{""num_scrambled_semantic"":""8"",""num_scrambled_causal"":""4"",""num_scrambled_schematic"":""4"",""participantId"":""CE95632B40AE4ABDBD33010653E26936"",""assignmentId"":""a30452d6-0ed2-4a58-9ee4-3a098b6ca351"",""projectId"":""a6b6d205-fa41-4c5b-a7a5-7fc4b51b0cea""}","https://test12345.live/?num_scrambled_semantic=8&num_scrambled_causal=4&num_scrambled_schematic=4&participantId=CE95632B40AE4ABDBD33010653E26936&assignmentId=a30452d6-0ed2-4a58-9ee4-3a098b6ca351&projectId=a6b6d205-fa41-4c5b-a7a5-7fc4b51b0cea","CE95632B40AE4ABDBD33010653E26936-2025-05-27-17-15-10","","null","","[]","null","",""
"","","","","","image-button-response","63","433376","0.0-12.0-1.0-0.2","CE95632B40AE4ABDBD33010653E26936","CE95632B40AE4ABDBD33010653E26936","a30452d6-0ed2-4a58-9ee4-3a098b6ca351","a6b6d205-fa41-4c5b-a7a5-7fc4b51b0cea","{""num_scrambled_semantic"":""8"",""num_scrambled_causal"":""4"",""num_scrambled_schematic"":""4"",""participantId"":""CE95632B40AE4ABDBD33010653E26936"",""assignmentId"":""a30452d6-0ed2-4a58-9ee4-3a098b6ca351"",""projectId"":""a6b6d205-fa41-4c5b-a7a5-7fc4b51b0cea""}","https://test12345.live/?num_scrambled_semantic=8&num_scrambled_causal=4&num_scrambled_schematic=4&participantId=CE95632B40AE4ABDBD33010653E26936&assignmentId=a30452d6-0ed2-4a58-9ee4-3a098b6ca351&projectId=a6b6d205-fa41-4c5b-a7a5-7fc4b51b0cea","CE95632B40AE4ABDBD33010653E26936-2025-05-27-17-15-10","","null","","images/schematic_sequence/flight_scheme/flight_scheme_3.png","null","",""
"","","","","","image-button-response","64","434350","0.0-12.0-1.0-1.2","CE95632B40AE4ABDBD33010653E26936","CE95632B40AE4ABDBD33010653E26936","a30452d6-0ed2-4a58-9ee4-3a098b6ca351","a6b6d205-fa41-4c5b-a7a5-7fc4b51b0cea","{""num_scrambled_semantic"":""8"",""num_scrambled_causal"":""4"",""num_scrambled_schematic"":""4"",""participantId"":""CE95632B40AE4ABDBD33010653E26936"",""assignmentId"":""a30452d6-0ed2-4a58-9ee4-3a098b6ca351"",""projectId"":""a6b6d205-fa41-4c5b-a7a5-7fc4b51b0cea""}","https://test12345.live/?num_scrambled_semantic=8&num_scrambled_causal=4&num_scrambled_schematic=4&participantId=CE95632B40AE4ABDBD33010653E26936&assignmentId=a30452d6-0ed2-4a58-9ee4-3a098b6ca351&projectId=a6b6d205-fa41-4c5b-a7a5-7fc4b51b0cea","CE95632B40AE4ABDBD33010653E26936-2025-05-27-17-15-10","","972","","images/schematic_sequence/flight_scheme/flight_scheme_3.png","0","",""
"","","","","","image-button-response","65","436152","0.0-12.0-1.0-2.2","CE95632B40AE4ABDBD33010653E26936","CE95632B40AE4ABDBD33010653E26936","a30452d6-0ed2-4a58-9ee4-3a098b6ca351","a6b6d205-fa41-4c5b-a7a5-7fc4b51b0cea","{""num_scrambled_semantic"":""8"",""num_scrambled_causal"":""4"",""num_scrambled_schematic"":""4"",""participantId"":""CE95632B40AE4ABDBD33010653E26936"",""assignmentId"":""a30452d6-0ed2-4a58-9ee4-3a098b6ca351"",""projectId"":""a6b6d205-fa41-4c5b-a7a5-7fc4b51b0cea""}","https://test12345.live/?num_scrambled_semantic=8&num_scrambled_causal=4&num_scrambled_schematic=4&participantId=CE95632B40AE4ABDBD33010653E26936&assignmentId=a30452d6-0ed2-4a58-9ee4-3a098b6ca351&projectId=a6b6d205-fa41-4c5b-a7a5-7fc4b51b0cea","CE95632B40AE4ABDBD33010653E26936-2025-05-27-17-15-10","","null","","[]","null","",""
"","","","","","image-button-response","66","440657","0.0-12.0-1.0-0.3","CE95632B40AE4ABDBD33010653E26936","CE95632B40AE4ABDBD33010653E26936","a30452d6-0ed2-4a58-9ee4-3a098b6ca351","a6b6d205-fa41-4c5b-a7a5-7fc4b51b0cea","{""num_scrambled_semantic"":""8"",""num_scrambled_causal"":""4"",""num_scrambled_schematic"":""4"",""participantId"":""CE95632B40AE4ABDBD33010653E26936"",""assignmentId"":""a30452d6-0ed2-4a58-9ee4-3a098b6ca351"",""projectId"":""a6b6d205-fa41-4c5b-a7a5-7fc4b51b0cea""}","https://test12345.live/?num_scrambled_semantic=8&num_scrambled_causal=4&num_scrambled_schematic=4&participantId=CE95632B40AE4ABDBD33010653E26936&assignmentId=a30452d6-0ed2-4a58-9ee4-3a098b6ca351&projectId=a6b6d205-fa41-4c5b-a7a5-7fc4b51b0cea","CE95632B40AE4ABDBD33010653E26936-2025-05-27-17-15-10","","null","","images/schematic_sequence/flight_scheme/flight_scheme_4.png","null","",""
"","","","","","image-button-response","67","441551","0.0-12.0-1.0-1.3","CE95632B40AE4ABDBD33010653E26936","CE95632B40AE4ABDBD33010653E26936","a30452d6-0ed2-4a58-9ee4-3a098b6ca351","a6b6d205-fa41-4c5b-a7a5-7fc4b51b0cea","{""num_scrambled_semantic"":""8"",""num_scrambled_causal"":""4"",""num_scrambled_schematic"":""4"",""participantId"":""CE95632B40AE4ABDBD33010653E26936"",""assignmentId"":""a30452d6-0ed2-4a58-9ee4-3a098b6ca351"",""projectId"":""a6b6d205-fa41-4c5b-a7a5-7fc4b51b0cea""}","https://test12345.live/?num_scrambled_semantic=8&num_scrambled_causal=4&num_scrambled_schematic=4&participantId=CE95632B40AE4ABDBD33010653E26936&assignmentId=a30452d6-0ed2-4a58-9ee4-3a098b6ca351&projectId=a6b6d205-fa41-4c5b-a7a5-7fc4b51b0cea","CE95632B40AE4ABDBD33010653E26936-2025-05-27-17-15-10","","893","","images/schematic_sequence/flight_scheme/flight_scheme_4.png","0","",""
"","","","","","image-button-response","68","443354","0.0-12.0-1.0-2.3","CE95632B40AE4ABDBD33010653E26936","CE95632B40AE4ABDBD33010653E26936","a30452d6-0ed2-4a58-9ee4-3a098b6ca351","a6b6d205-fa41-4c5b-a7a5-7fc4b51b0cea","{""num_scrambled_semantic"":""8"",""num_scrambled_causal"":""4"",""num_scrambled_schematic"":""4"",""participantId"":""CE95632B40AE4ABDBD33010653E26936"",""assignmentId"":""a30452d6-0ed2-4a58-9ee4-3a098b6ca351"",""projectId"":""a6b6d205-fa41-4c5b-a7a5-7fc4b51b0cea""}","https://test12345.live/?num_scrambled_semantic=8&num_scrambled_causal=4&num_scrambled_schematic=4&participantId=CE95632B40AE4ABDBD33010653E26936&assignmentId=a30452d6-0ed2-4a58-9ee4-3a098b6ca351&projectId=a6b6d205-fa41-4c5b-a7a5-7fc4b51b0cea","CE95632B40AE4ABDBD33010653E26936-2025-05-27-17-15-10","","null","","[]","null","",""
"","","","","","image-button-response","69","447856","0.0-12.0-1.0-0.4","CE95632B40AE4ABDBD33010653E26936","CE95632B40AE4ABDBD33010653E26936","a30452d6-0ed2-4a58-9ee4-3a098b6ca351","a6b6d205-fa41-4c5b-a7a5-7fc4b51b0cea","{""num_scrambled_semantic"":""8"",""num_scrambled_causal"":""4"",""num_scrambled_schematic"":""4"",""participantId"":""CE95632B40AE4ABDBD33010653E26936"",""assignmentId"":""a30452d6-0ed2-4a58-9ee4-3a098b6ca351"",""projectId"":""a6b6d205-fa41-4c5b-a7a5-7fc4b51b0cea""}","https://test12345.live/?num_scrambled_semantic=8&num_scrambled_causal=4&num_scrambled_schematic=4&participantId=CE95632B40AE4ABDBD33010653E26936&assignmentId=a30452d6-0ed2-4a58-9ee4-3a098b6ca351&projectId=a6b6d205-fa41-4c5b-a7a5-7fc4b51b0cea","CE95632B40AE4ABDBD33010653E26936-2025-05-27-17-15-10","","null","","images/schematic_sequence/flight_scheme/flight_scheme_5.png","null","",""
"","","","","","image-button-response","70","448884","0.0-12.0-1.0-1.4","CE95632B40AE4ABDBD33010653E26936","CE95632B40AE4ABDBD33010653E26936","a30452d6-0ed2-4a58-9ee4-3a098b6ca351","a6b6d205-fa41-4c5b-a7a5-7fc4b51b0cea","{""num_scrambled_semantic"":""8"",""num_scrambled_causal"":""4"",""num_scrambled_schematic"":""4"",""participantId"":""CE95632B40AE4ABDBD33010653E26936"",""assignmentId"":""a30452d6-0ed2-4a58-9ee4-3a098b6ca351"",""projectId"":""a6b6d205-fa41-4c5b-a7a5-7fc4b51b0cea""}","https://test12345.live/?num_scrambled_semantic=8&num_scrambled_causal=4&num_scrambled_schematic=4&participantId=CE95632B40AE4ABDBD33010653E26936&assignmentId=a30452d6-0ed2-4a58-9ee4-3a098b6ca351&projectId=a6b6d205-fa41-4c5b-a7a5-7fc4b51b0cea","CE95632B40AE4ABDBD33010653E26936-2025-05-27-17-15-10","","1027","","images/schematic_sequence/flight_scheme/flight_scheme_5.png","0","",""
"","","","","","image-button-response","71","450686","0.0-12.0-1.0-2.4","CE95632B40AE4ABDBD33010653E26936","CE95632B40AE4ABDBD33010653E26936","a30452d6-0ed2-4a58-9ee4-3a098b6ca351","a6b6d205-fa41-4c5b-a7a5-7fc4b51b0cea","{""num_scrambled_semantic"":""8"",""num_scrambled_causal"":""4"",""num_scrambled_schematic"":""4"",""participantId"":""CE95632B40AE4ABDBD33010653E26936"",""assignmentId"":""a30452d6-0ed2-4a58-9ee4-3a098b6ca351"",""projectId"":""a6b6d205-fa41-4c5b-a7a5-7fc4b51b0cea""}","https://test12345.live/?num_scrambled_semantic=8&num_scrambled_causal=4&num_scrambled_schematic=4&participantId=CE95632B40AE4ABDBD33010653E26936&assignmentId=a30452d6-0ed2-4a58-9ee4-3a098b6ca351&projectId=a6b6d205-fa41-4c5b-a7a5-7fc4b51b0cea","CE95632B40AE4ABDBD33010653E26936-2025-05-27-17-15-10","","null","","[]","null","",""
"","","","","","image-button-response","72","455188","0.0-12.0-1.0-0.5","CE95632B40AE4ABDBD33010653E26936","CE95632B40AE4ABDBD33010653E26936","a30452d6-0ed2-4a58-9ee4-3a098b6ca351","a6b6d205-fa41-4c5b-a7a5-7fc4b51b0cea","{""num_scrambled_semantic"":""8"",""num_scrambled_causal"":""4"",""num_scrambled_schematic"":""4"",""participantId"":""CE95632B40AE4ABDBD33010653E26936"",""assignmentId"":""a30452d6-0ed2-4a58-9ee4-3a098b6ca351"",""projectId"":""a6b6d205-fa41-4c5b-a7a5-7fc4b51b0cea""}","https://test12345.live/?num_scrambled_semantic=8&num_scrambled_causal=4&num_scrambled_schematic=4&participantId=CE95632B40AE4ABDBD33010653E26936&assignmentId=a30452d6-0ed2-4a58-9ee4-3a098b6ca351&projectId=a6b6d205-fa41-4c5b-a7a5-7fc4b51b0cea","CE95632B40AE4ABDBD33010653E26936-2025-05-27-17-15-10","","null","","images/schematic_sequence/flight_scheme/flight_scheme_6.png","null","",""
"","","","","","image-button-response","73","456415","0.0-12.0-1.0-1.5","CE95632B40AE4ABDBD33010653E26936","CE95632B40AE4ABDBD33010653E26936","a30452d6-0ed2-4a58-9ee4-3a098b6ca351","a6b6d205-fa41-4c5b-a7a5-7fc4b51b0cea","{""num_scrambled_semantic"":""8"",""num_scrambled_causal"":""4"",""num_scrambled_schematic"":""4"",""participantId"":""CE95632B40AE4ABDBD33010653E26936"",""assignmentId"":""a30452d6-0ed2-4a58-9ee4-3a098b6ca351"",""projectId"":""a6b6d205-fa41-4c5b-a7a5-7fc4b51b0cea""}","https://test12345.live/?num_scrambled_semantic=8&num_scrambled_causal=4&num_scrambled_schematic=4&participantId=CE95632B40AE4ABDBD33010653E26936&assignmentId=a30452d6-0ed2-4a58-9ee4-3a098b6ca351&projectId=a6b6d205-fa41-4c5b-a7a5-7fc4b51b0cea","CE95632B40AE4ABDBD33010653E26936-2025-05-27-17-15-10","","1225","","images/schematic_sequence/flight_scheme/flight_scheme_6.png","1","",""
"","","","","","image-button-response","74","458223","0.0-12.0-1.0-2.5","CE95632B40AE4ABDBD33010653E26936","CE95632B40AE4ABDBD33010653E26936","a30452d6-0ed2-4a58-9ee4-3a098b6ca351","a6b6d205-fa41-4c5b-a7a5-7fc4b51b0cea","{""num_scrambled_semantic"":""8"",""num_scrambled_causal"":""4"",""num_scrambled_schematic"":""4"",""participantId"":""CE95632B40AE4ABDBD33010653E26936"",""assignmentId"":""a30452d6-0ed2-4a58-9ee4-3a098b6ca351"",""projectId"":""a6b6d205-fa41-4c5b-a7a5-7fc4b51b0cea""}","https://test12345.live/?num_scrambled_semantic=8&num_scrambled_causal=4&num_scrambled_schematic=4&participantId=CE95632B40AE4ABDBD33010653E26936&assignmentId=a30452d6-0ed2-4a58-9ee4-3a098b6ca351&projectId=a6b6d205-fa41-4c5b-a7a5-7fc4b51b0cea","CE95632B40AE4ABDBD33010653E26936-2025-05-27-17-15-10","","null","","[]","null","",""
"","","","","","image-button-response","75","462726","0.0-12.0-1.0-0.6","CE95632B40AE4ABDBD33010653E26936","CE95632B40AE4ABDBD33010653E26936","a30452d6-0ed2-4a58-9ee4-3a098b6ca351","a6b6d205-fa41-4c5b-a7a5-7fc4b51b0cea","{""num_scrambled_semantic"":""8"",""num_scrambled_causal"":""4"",""num_scrambled_schematic"":""4"",""participantId"":""CE95632B40AE4ABDBD33010653E26936"",""assignmentId"":""a30452d6-0ed2-4a58-9ee4-3a098b6ca351"",""projectId"":""a6b6d205-fa41-4c5b-a7a5-7fc4b51b0cea""}","https://test12345.live/?num_scrambled_semantic=8&num_scrambled_causal=4&num_scrambled_schematic=4&participantId=CE95632B40AE4ABDBD33010653E26936&assignmentId=a30452d6-0ed2-4a58-9ee4-3a098b6ca351&projectId=a6b6d205-fa41-4c5b-a7a5-7fc4b51b0cea","CE95632B40AE4ABDBD33010653E26936-2025-05-27-17-15-10","","null","","images/schematic_sequence/flight_scheme/flight_scheme_7.png","null","",""
"","","","","","image-button-response","76","466150","0.0-12.0-1.0-1.6","CE95632B40AE4ABDBD33010653E26936","CE95632B40AE4ABDBD33010653E26936","a30452d6-0ed2-4a58-9ee4-3a098b6ca351","a6b6d205-fa41-4c5b-a7a5-7fc4b51b0cea","{""num_scrambled_semantic"":""8"",""num_scrambled_causal"":""4"",""num_scrambled_schematic"":""4"",""participantId"":""CE95632B40AE4ABDBD33010653E26936"",""assignmentId"":""a30452d6-0ed2-4a58-9ee4-3a098b6ca351"",""projectId"":""a6b6d205-fa41-4c5b-a7a5-7fc4b51b0cea""}","https://test12345.live/?num_scrambled_semantic=8&num_scrambled_causal=4&num_scrambled_schematic=4&participantId=CE95632B40AE4ABDBD33010653E26936&assignmentId=a30452d6-0ed2-4a58-9ee4-3a098b6ca351&projectId=a6b6d205-fa41-4c5b-a7a5-7fc4b51b0cea","CE95632B40AE4ABDBD33010653E26936-2025-05-27-17-15-10","","3421","","images/schematic_sequence/flight_scheme/flight_scheme_7.png","1","",""
"","","","","","image-button-response","77","467954","0.0-12.0-1.0-2.6","CE95632B40AE4ABDBD33010653E26936","CE95632B40AE4ABDBD33010653E26936","a30452d6-0ed2-4a58-9ee4-3a098b6ca351","a6b6d205-fa41-4c5b-a7a5-7fc4b51b0cea","{""num_scrambled_semantic"":""8"",""num_scrambled_causal"":""4"",""num_scrambled_schematic"":""4"",""participantId"":""CE95632B40AE4ABDBD33010653E26936"",""assignmentId"":""a30452d6-0ed2-4a58-9ee4-3a098b6ca351"",""projectId"":""a6b6d205-fa41-4c5b-a7a5-7fc4b51b0cea""}","https://test12345.live/?num_scrambled_semantic=8&num_scrambled_causal=4&num_scrambled_schematic=4&participantId=CE95632B40AE4ABDBD33010653E26936&assignmentId=a30452d6-0ed2-4a58-9ee4-3a098b6ca351&projectId=a6b6d205-fa41-4c5b-a7a5-7fc4b51b0cea","CE95632B40AE4ABDBD33010653E26936-2025-05-27-17-15-10","","null","","[]","null","",""
"","","","","","image-button-response","78","472461","0.0-12.0-1.0-0.7","CE95632B40AE4ABDBD33010653E26936","CE95632B40AE4ABDBD33010653E26936","a30452d6-0ed2-4a58-9ee4-3a098b6ca351","a6b6d205-fa41-4c5b-a7a5-7fc4b51b0cea","{""num_scrambled_semantic"":""8"",""num_scrambled_causal"":""4"",""num_scrambled_schematic"":""4"",""participantId"":""CE95632B40AE4ABDBD33010653E26936"",""assignmentId"":""a30452d6-0ed2-4a58-9ee4-3a098b6ca351"",""projectId"":""a6b6d205-fa41-4c5b-a7a5-7fc4b51b0cea""}","https://test12345.live/?num_scrambled_semantic=8&num_scrambled_causal=4&num_scrambled_schematic=4&participantId=CE95632B40AE4ABDBD33010653E26936&assignmentId=a30452d6-0ed2-4a58-9ee4-3a098b6ca351&projectId=a6b6d205-fa41-4c5b-a7a5-7fc4b51b0cea","CE95632B40AE4ABDBD33010653E26936-2025-05-27-17-15-10","","null","","images/schematic_sequence/flight_scheme/flight_scheme_8.png","null","",""
"","","","","","image-button-response","79","473767","0.0-12.0-1.0-1.7","CE95632B40AE4ABDBD33010653E26936","CE95632B40AE4ABDBD33010653E26936","a30452d6-0ed2-4a58-9ee4-3a098b6ca351","a6b6d205-fa41-4c5b-a7a5-7fc4b51b0cea","{""num_scrambled_semantic"":""8"",""num_scrambled_causal"":""4"",""num_scrambled_schematic"":""4"",""participantId"":""CE95632B40AE4ABDBD33010653E26936"",""assignmentId"":""a30452d6-0ed2-4a58-9ee4-3a098b6ca351"",""projectId"":""a6b6d205-fa41-4c5b-a7a5-7fc4b51b0cea""}","https://test12345.live/?num_scrambled_semantic=8&num_scrambled_causal=4&num_scrambled_schematic=4&participantId=CE95632B40AE4ABDBD33010653E26936&assignmentId=a30452d6-0ed2-4a58-9ee4-3a098b6ca351&projectId=a6b6d205-fa41-4c5b-a7a5-7fc4b51b0cea","CE95632B40AE4ABDBD33010653E26936-2025-05-27-17-15-10","","1304","","images/schematic_sequence/flight_scheme/flight_scheme_8.png","1","",""
"","","","","","image-button-response","80","475575","0.0-12.0-1.0-2.7","CE95632B40AE4ABDBD33010653E26936","CE95632B40AE4ABDBD33010653E26936","a30452d6-0ed2-4a58-9ee4-3a098b6ca351","a6b6d205-fa41-4c5b-a7a5-7fc4b51b0cea","{""num_scrambled_semantic"":""8"",""num_scrambled_causal"":""4"",""num_scrambled_schematic"":""4"",""participantId"":""CE95632B40AE4ABDBD33010653E26936"",""assignmentId"":""a30452d6-0ed2-4a58-9ee4-3a098b6ca351"",""projectId"":""a6b6d205-fa41-4c5b-a7a5-7fc4b51b0cea""}","https://test12345.live/?num_scrambled_semantic=8&num_scrambled_causal=4&num_scrambled_schematic=4&participantId=CE95632B40AE4ABDBD33010653E26936&assignmentId=a30452d6-0ed2-4a58-9ee4-3a098b6ca351&projectId=a6b6d205-fa41-4c5b-a7a5-7fc4b51b0cea","CE95632B40AE4ABDBD33010653E26936-2025-05-27-17-15-10","","null","","[]","null","",""
"","","","","","image-button-response","81","480079","0.0-12.0-1.0-0.8","CE95632B40AE4ABDBD33010653E26936","CE95632B40AE4ABDBD33010653E26936","a30452d6-0ed2-4a58-9ee4-3a098b6ca351","a6b6d205-fa41-4c5b-a7a5-7fc4b51b0cea","{""num_scrambled_semantic"":""8"",""num_scrambled_causal"":""4"",""num_scrambled_schematic"":""4"",""participantId"":""CE95632B40AE4ABDBD33010653E26936"",""assignmentId"":""a30452d6-0ed2-4a58-9ee4-3a098b6ca351"",""projectId"":""a6b6d205-fa41-4c5b-a7a5-7fc4b51b0cea""}","https://test12345.live/?num_scrambled_semantic=8&num_scrambled_causal=4&num_scrambled_schematic=4&participantId=CE95632B40AE4ABDBD33010653E26936&assignmentId=a30452d6-0ed2-4a58-9ee4-3a098b6ca351&projectId=a6b6d205-fa41-4c5b-a7a5-7fc4b51b0cea","CE95632B40AE4ABDBD33010653E26936-2025-05-27-17-15-10","","null","","images/schematic_sequence/flight_scheme/flight_scheme_9.png","null","",""
"","","","","","image-button-response","82","480817","0.0-12.0-1.0-1.8","CE95632B40AE4ABDBD33010653E26936","CE95632B40AE4ABDBD33010653E26936","a30452d6-0ed2-4a58-9ee4-3a098b6ca351","a6b6d205-fa41-4c5b-a7a5-7fc4b51b0cea","{""num_scrambled_semantic"":""8"",""num_scrambled_causal"":""4"",""num_scrambled_schematic"":""4"",""participantId"":""CE95632B40AE4ABDBD33010653E26936"",""assignmentId"":""a30452d6-0ed2-4a58-9ee4-3a098b6ca351"",""projectId"":""a6b6d205-fa41-4c5b-a7a5-7fc4b51b0cea""}","https://test12345.live/?num_scrambled_semantic=8&num_scrambled_causal=4&num_scrambled_schematic=4&participantId=CE95632B40AE4ABDBD33010653E26936&assignmentId=a30452d6-0ed2-4a58-9ee4-3a098b6ca351&projectId=a6b6d205-fa41-4c5b-a7a5-7fc4b51b0cea","CE95632B40AE4ABDBD33010653E26936-2025-05-27-17-15-10","","736","","images/schematic_sequence/flight_scheme/flight_scheme_9.png","0","",""
"","","","","","image-button-response","83","482621","0.0-12.0-1.0-2.8","CE95632B40AE4ABDBD33010653E26936","CE95632B40AE4ABDBD33010653E26936","a30452d6-0ed2-4a58-9ee4-3a098b6ca351","a6b6d205-fa41-4c5b-a7a5-7fc4b51b0cea","{""num_scrambled_semantic"":""8"",""num_scrambled_causal"":""4"",""num_scrambled_schematic"":""4"",""participantId"":""CE95632B40AE4ABDBD33010653E26936"",""assignmentId"":""a30452d6-0ed2-4a58-9ee4-3a098b6ca351"",""projectId"":""a6b6d205-fa41-4c5b-a7a5-7fc4b51b0cea""}","https://test12345.live/?num_scrambled_semantic=8&num_scrambled_causal=4&num_scrambled_schematic=4&participantId=CE95632B40AE4ABDBD33010653E26936&assignmentId=a30452d6-0ed2-4a58-9ee4-3a098b6ca351&projectId=a6b6d205-fa41-4c5b-a7a5-7fc4b51b0cea","CE95632B40AE4ABDBD33010653E26936-2025-05-27-17-15-10","","null","","[]","null","",""
"","","","","","image-button-response","84","487128","0.0-12.0-1.0-0.9","CE95632B40AE4ABDBD33010653E26936","CE95632B40AE4ABDBD33010653E26936","a30452d6-0ed2-4a58-9ee4-3a098b6ca351","a6b6d205-fa41-4c5b-a7a5-7fc4b51b0cea","{""num_scrambled_semantic"":""8"",""num_scrambled_causal"":""4"",""num_scrambled_schematic"":""4"",""participantId"":""CE95632B40AE4ABDBD33010653E26936"",""assignmentId"":""a30452d6-0ed2-4a58-9ee4-3a098b6ca351"",""projectId"":""a6b6d205-fa41-4c5b-a7a5-7fc4b51b0cea""}","https://test12345.live/?num_scrambled_semantic=8&num_scrambled_causal=4&num_scrambled_schematic=4&participantId=CE95632B40AE4ABDBD33010653E26936&assignmentId=a30452d6-0ed2-4a58-9ee4-3a098b6ca351&projectId=a6b6d205-fa41-4c5b-a7a5-7fc4b51b0cea","CE95632B40AE4ABDBD33010653E26936-2025-05-27-17-15-10","","null","","images/schematic_sequence/flight_scheme/flight_scheme_ten.png","null","",""
"","","","","","image-button-response","85","487783","0.0-12.0-1.0-1.9","CE95632B40AE4ABDBD33010653E26936","CE95632B40AE4ABDBD33010653E26936","a30452d6-0ed2-4a58-9ee4-3a098b6ca351","a6b6d205-fa41-4c5b-a7a5-7fc4b51b0cea","{""num_scrambled_semantic"":""8"",""num_scrambled_causal"":""4"",""num_scrambled_schematic"":""4"",""participantId"":""CE95632B40AE4ABDBD33010653E26936"",""assignmentId"":""a30452d6-0ed2-4a58-9ee4-3a098b6ca351"",""projectId"":""a6b6d205-fa41-4c5b-a7a5-7fc4b51b0cea""}","https://test12345.live/?num_scrambled_semantic=8&num_scrambled_causal=4&num_scrambled_schematic=4&participantId=CE95632B40AE4ABDBD33010653E26936&assignmentId=a30452d6-0ed2-4a58-9ee4-3a098b6ca351&projectId=a6b6d205-fa41-4c5b-a7a5-7fc4b51b0cea","CE95632B40AE4ABDBD33010653E26936-2025-05-27-17-15-10","","653","","images/schematic_sequence/flight_scheme/flight_scheme_ten.png","0","",""
"","","","","","image-button-response","86","489590","0.0-12.0-1.0-2.9","CE95632B40AE4ABDBD33010653E26936","CE95632B40AE4ABDBD33010653E26936","a30452d6-0ed2-4a58-9ee4-3a098b6ca351","a6b6d205-fa41-4c5b-a7a5-7fc4b51b0cea","{""num_scrambled_semantic"":""8"",""num_scrambled_causal"":""4"",""num_scrambled_schematic"":""4"",""participantId"":""CE95632B40AE4ABDBD33010653E26936"",""assignmentId"":""a30452d6-0ed2-4a58-9ee4-3a098b6ca351"",""projectId"":""a6b6d205-fa41-4c5b-a7a5-7fc4b51b0cea""}","https://test12345.live/?num_scrambled_semantic=8&num_scrambled_causal=4&num_scrambled_schematic=4&participantId=CE95632B40AE4ABDBD33010653E26936&assignmentId=a30452d6-0ed2-4a58-9ee4-3a098b6ca351&projectId=a6b6d205-fa41-4c5b-a7a5-7fc4b51b0cea","CE95632B40AE4ABDBD33010653E26936-2025-05-27-17-15-10","","null","","[]","null","",""
"","","","","","html-audio-response","87","531517","0.0-13.0","CE95632B40AE4ABDBD33010653E26936","CE95632B40AE4ABDBD33010653E26936","a30452d6-0ed2-4a58-9ee4-3a098b6ca351","a6b6d205-fa41-4c5b-a7a5-7fc4b51b0cea","{""num_scrambled_semantic"":""8"",""num_scrambled_causal"":""4"",""num_scrambled_schematic"":""4"",""participantId"":""CE95632B40AE4ABDBD33010653E26936"",""assignmentId"":""a30452d6-0ed2-4a58-9ee4-3a098b6ca351"",""projectId"":""a6b6d205-fa41-4c5b-a7a5-7fc4b51b0cea""}","https://test12345.live/?num_scrambled_semantic=8&num_scrambled_causal=4&num_scrambled_schematic=4&participantId=CE95632B40AE4ABDBD33010653E26936&assignmentId=a30452d6-0ed2-4a58-9ee4-3a098b6ca351&projectId=a6b6d205-fa41-4c5b-a7a5-7fc4b51b0cea","CE95632B40AE4ABDBD33010653E26936-2025-05-27-17-15-10","","33238","","[""<span style=\""color: red; font-size: 24px\""> NOW RECORDING</span><p>Please say out loud all the images you saw, in the exact order you saw them. Try to recall as many images as you can, but remember: getting the order right is more important than the number of images you recall.</p>""]","","1","flight_scheme"
"","","","","","image-button-response","88","537528","0.0-14.0-0.0","CE95632B40AE4ABDBD33010653E26936","CE95632B40AE4ABDBD33010653E26936","a30452d6-0ed2-4a58-9ee4-3a098b6ca351","a6b6d205-fa41-4c5b-a7a5-7fc4b51b0cea","{""num_scrambled_semantic"":""8"",""num_scrambled_causal"":""4"",""num_scrambled_schematic"":""4"",""participantId"":""CE95632B40AE4ABDBD33010653E26936"",""assignmentId"":""a30452d6-0ed2-4a58-9ee4-3a098b6ca351"",""projectId"":""a6b6d205-fa41-4c5b-a7a5-7fc4b51b0cea""}","https://test12345.live/?num_scrambled_semantic=8&num_scrambled_causal=4&num_scrambled_schematic=4&participantId=CE95632B40AE4ABDBD33010653E26936&assignmentId=a30452d6-0ed2-4a58-9ee4-3a098b6ca351&projectId=a6b6d205-fa41-4c5b-a7a5-7fc4b51b0cea","CE95632B40AE4ABDBD33010653E26936-2025-05-27-17-15-10","","null","","images/schematic_sequence/restaurant_scheme/restaurant_scheme_0.png","null","",""
"","","","","","image-button-response","89","542033","0.0-14.0-1.0-0.0","CE95632B40AE4ABDBD33010653E26936","CE95632B40AE4ABDBD33010653E26936","a30452d6-0ed2-4a58-9ee4-3a098b6ca351","a6b6d205-fa41-4c5b-a7a5-7fc4b51b0cea","{""num_scrambled_semantic"":""8"",""num_scrambled_causal"":""4"",""num_scrambled_schematic"":""4"",""participantId"":""CE95632B40AE4ABDBD33010653E26936"",""assignmentId"":""a30452d6-0ed2-4a58-9ee4-3a098b6ca351"",""projectId"":""a6b6d205-fa41-4c5b-a7a5-7fc4b51b0cea""}","https://test12345.live/?num_scrambled_semantic=8&num_scrambled_causal=4&num_scrambled_schematic=4&participantId=CE95632B40AE4ABDBD33010653E26936&assignmentId=a30452d6-0ed2-4a58-9ee4-3a098b6ca351&projectId=a6b6d205-fa41-4c5b-a7a5-7fc4b51b0cea","CE95632B40AE4ABDBD33010653E26936-2025-05-27-17-15-10","","null","","images/schematic_sequence/restaurant_scheme/restaurant_scheme_2.png","null","",""
"","","","","","image-button-response","90","543817","0.0-14.0-1.0-1.0","CE95632B40AE4ABDBD33010653E26936","CE95632B40AE4ABDBD33010653E26936","a30452d6-0ed2-4a58-9ee4-3a098b6ca351","a6b6d205-fa41-4c5b-a7a5-7fc4b51b0cea","{""num_scrambled_semantic"":""8"",""num_scrambled_causal"":""4"",""num_scrambled_schematic"":""4"",""participantId"":""CE95632B40AE4ABDBD33010653E26936"",""assignmentId"":""a30452d6-0ed2-4a58-9ee4-3a098b6ca351"",""projectId"":""a6b6d205-fa41-4c5b-a7a5-7fc4b51b0cea""}","https://test12345.live/?num_scrambled_semantic=8&num_scrambled_causal=4&num_scrambled_schematic=4&participantId=CE95632B40AE4ABDBD33010653E26936&assignmentId=a30452d6-0ed2-4a58-9ee4-3a098b6ca351&projectId=a6b6d205-fa41-4c5b-a7a5-7fc4b51b0cea","CE95632B40AE4ABDBD33010653E26936-2025-05-27-17-15-10","","1781","","images/schematic_sequence/restaurant_scheme/restaurant_scheme_2.png","1","",""
"","","","","","image-button-response","91","545621","0.0-14.0-1.0-2.0","CE95632B40AE4ABDBD33010653E26936","CE95632B40AE4ABDBD33010653E26936","a30452d6-0ed2-4a58-9ee4-3a098b6ca351","a6b6d205-fa41-4c5b-a7a5-7fc4b51b0cea","{""num_scrambled_semantic"":""8"",""num_scrambled_causal"":""4"",""num_scrambled_schematic"":""4"",""participantId"":""CE95632B40AE4ABDBD33010653E26936"",""assignmentId"":""a30452d6-0ed2-4a58-9ee4-3a098b6ca351"",""projectId"":""a6b6d205-fa41-4c5b-a7a5-7fc4b51b0cea""}","https://test12345.live/?num_scrambled_semantic=8&num_scrambled_causal=4&num_scrambled_schematic=4&participantId=CE95632B40AE4ABDBD33010653E26936&assignmentId=a30452d6-0ed2-4a58-9ee4-3a098b6ca351&projectId=a6b6d205-fa41-4c5b-a7a5-7fc4b51b0cea","CE95632B40AE4ABDBD33010653E26936-2025-05-27-17-15-10","","null","","[]","null","",""
"","","","","","image-button-response","92","550128","0.0-14.0-1.0-0.1","CE95632B40AE4ABDBD33010653E26936","CE95632B40AE4ABDBD33010653E26936","a30452d6-0ed2-4a58-9ee4-3a098b6ca351","a6b6d205-fa41-4c5b-a7a5-7fc4b51b0cea","{""num_scrambled_semantic"":""8"",""num_scrambled_causal"":""4"",""num_scrambled_schematic"":""4"",""participantId"":""CE95632B40AE4ABDBD33010653E26936"",""assignmentId"":""a30452d6-0ed2-4a58-9ee4-3a098b6ca351"",""projectId"":""a6b6d205-fa41-4c5b-a7a5-7fc4b51b0cea""}","https://test12345.live/?num_scrambled_semantic=8&num_scrambled_causal=4&num_scrambled_schematic=4&participantId=CE95632B40AE4ABDBD33010653E26936&assignmentId=a30452d6-0ed2-4a58-9ee4-3a098b6ca351&projectId=a6b6d205-fa41-4c5b-a7a5-7fc4b51b0cea","CE95632B40AE4ABDBD33010653E26936-2025-05-27-17-15-10","","null","","images/schematic_sequence/restaurant_scheme/restaurant_scheme_ten.png","null","",""
"","","","","","image-button-response","93","551716","0.0-14.0-1.0-1.1","CE95632B40AE4ABDBD33010653E26936","CE95632B40AE4ABDBD33010653E26936","a30452d6-0ed2-4a58-9ee4-3a098b6ca351","a6b6d205-fa41-4c5b-a7a5-7fc4b51b0cea","{""num_scrambled_semantic"":""8"",""num_scrambled_causal"":""4"",""num_scrambled_schematic"":""4"",""participantId"":""CE95632B40AE4ABDBD33010653E26936"",""assignmentId"":""a30452d6-0ed2-4a58-9ee4-3a098b6ca351"",""projectId"":""a6b6d205-fa41-4c5b-a7a5-7fc4b51b0cea""}","https://test12345.live/?num_scrambled_semantic=8&num_scrambled_causal=4&num_scrambled_schematic=4&participantId=CE95632B40AE4ABDBD33010653E26936&assignmentId=a30452d6-0ed2-4a58-9ee4-3a098b6ca351&projectId=a6b6d205-fa41-4c5b-a7a5-7fc4b51b0cea","CE95632B40AE4ABDBD33010653E26936-2025-05-27-17-15-10","","1586","","images/schematic_sequence/restaurant_scheme/restaurant_scheme_ten.png","0","",""
"","","","","","image-button-response","94","553520","0.0-14.0-1.0-2.1","CE95632B40AE4ABDBD33010653E26936","CE95632B40AE4ABDBD33010653E26936","a30452d6-0ed2-4a58-9ee4-3a098b6ca351","a6b6d205-fa41-4c5b-a7a5-7fc4b51b0cea","{""num_scrambled_semantic"":""8"",""num_scrambled_causal"":""4"",""num_scrambled_schematic"":""4"",""participantId"":""CE95632B40AE4ABDBD33010653E26936"",""assignmentId"":""a30452d6-0ed2-4a58-9ee4-3a098b6ca351"",""projectId"":""a6b6d205-fa41-4c5b-a7a5-7fc4b51b0cea""}","https://test12345.live/?num_scrambled_semantic=8&num_scrambled_causal=4&num_scrambled_schematic=4&participantId=CE95632B40AE4ABDBD33010653E26936&assignmentId=a30452d6-0ed2-4a58-9ee4-3a098b6ca351&projectId=a6b6d205-fa41-4c5b-a7a5-7fc4b51b0cea","CE95632B40AE4ABDBD33010653E26936-2025-05-27-17-15-10","","null","","[]","null","",""
"","","","","","image-button-response","95","558024","0.0-14.0-1.0-0.2","CE95632B40AE4ABDBD33010653E26936","CE95632B40AE4ABDBD33010653E26936","a30452d6-0ed2-4a58-9ee4-3a098b6ca351","a6b6d205-fa41-4c5b-a7a5-7fc4b51b0cea","{""num_scrambled_semantic"":""8"",""num_scrambled_causal"":""4"",""num_scrambled_schematic"":""4"",""participantId"":""CE95632B40AE4ABDBD33010653E26936"",""assignmentId"":""a30452d6-0ed2-4a58-9ee4-3a098b6ca351"",""projectId"":""a6b6d205-fa41-4c5b-a7a5-7fc4b51b0cea""}","https://test12345.live/?num_scrambled_semantic=8&num_scrambled_causal=4&num_scrambled_schematic=4&participantId=CE95632B40AE4ABDBD33010653E26936&assignmentId=a30452d6-0ed2-4a58-9ee4-3a098b6ca351&projectId=a6b6d205-fa41-4c5b-a7a5-7fc4b51b0cea","CE95632B40AE4ABDBD33010653E26936-2025-05-27-17-15-10","","null","","images/schematic_sequence/restaurant_scheme/restaurant_scheme_1.png","null","",""
"","","","","","image-button-response","96","559967","0.0-14.0-1.0-1.2","CE95632B40AE4ABDBD33010653E26936","CE95632B40AE4ABDBD33010653E26936","a30452d6-0ed2-4a58-9ee4-3a098b6ca351","a6b6d205-fa41-4c5b-a7a5-7fc4b51b0cea","{""num_scrambled_semantic"":""8"",""num_scrambled_causal"":""4"",""num_scrambled_schematic"":""4"",""participantId"":""CE95632B40AE4ABDBD33010653E26936"",""assignmentId"":""a30452d6-0ed2-4a58-9ee4-3a098b6ca351"",""projectId"":""a6b6d205-fa41-4c5b-a7a5-7fc4b51b0cea""}","https://test12345.live/?num_scrambled_semantic=8&num_scrambled_causal=4&num_scrambled_schematic=4&participantId=CE95632B40AE4ABDBD33010653E26936&assignmentId=a30452d6-0ed2-4a58-9ee4-3a098b6ca351&projectId=a6b6d205-fa41-4c5b-a7a5-7fc4b51b0cea","CE95632B40AE4ABDBD33010653E26936-2025-05-27-17-15-10","","1940","","images/schematic_sequence/restaurant_scheme/restaurant_scheme_1.png","0","",""
"","","","","","image-button-response","97","561773","0.0-14.0-1.0-2.2","CE95632B40AE4ABDBD33010653E26936","CE95632B40AE4ABDBD33010653E26936","a30452d6-0ed2-4a58-9ee4-3a098b6ca351","a6b6d205-fa41-4c5b-a7a5-7fc4b51b0cea","{""num_scrambled_semantic"":""8"",""num_scrambled_causal"":""4"",""num_scrambled_schematic"":""4"",""participantId"":""CE95632B40AE4ABDBD33010653E26936"",""assignmentId"":""a30452d6-0ed2-4a58-9ee4-3a098b6ca351"",""projectId"":""a6b6d205-fa41-4c5b-a7a5-7fc4b51b0cea""}","https://test12345.live/?num_scrambled_semantic=8&num_scrambled_causal=4&num_scrambled_schematic=4&participantId=CE95632B40AE4ABDBD33010653E26936&assignmentId=a30452d6-0ed2-4a58-9ee4-3a098b6ca351&projectId=a6b6d205-fa41-4c5b-a7a5-7fc4b51b0cea","CE95632B40AE4ABDBD33010653E26936-2025-05-27-17-15-10","","null","","[]","null","",""
"","","","","","image-button-response","98","566276","0.0-14.0-1.0-0.3","CE95632B40AE4ABDBD33010653E26936","CE95632B40AE4ABDBD33010653E26936","a30452d6-0ed2-4a58-9ee4-3a098b6ca351","a6b6d205-fa41-4c5b-a7a5-7fc4b51b0cea","{""num_scrambled_semantic"":""8"",""num_scrambled_causal"":""4"",""num_scrambled_schematic"":""4"",""participantId"":""CE95632B40AE4ABDBD33010653E26936"",""assignmentId"":""a30452d6-0ed2-4a58-9ee4-3a098b6ca351"",""projectId"":""a6b6d205-fa41-4c5b-a7a5-7fc4b51b0cea""}","https://test12345.live/?num_scrambled_semantic=8&num_scrambled_causal=4&num_scrambled_schematic=4&participantId=CE95632B40AE4ABDBD33010653E26936&assignmentId=a30452d6-0ed2-4a58-9ee4-3a098b6ca351&projectId=a6b6d205-fa41-4c5b-a7a5-7fc4b51b0cea","CE95632B40AE4ABDBD33010653E26936-2025-05-27-17-15-10","","null","","images/schematic_sequence/restaurant_scheme/restaurant_scheme_3.png","null","",""
"","","","","","image-button-response","99","566899","0.0-14.0-1.0-1.3","CE95632B40AE4ABDBD33010653E26936","CE95632B40AE4ABDBD33010653E26936","a30452d6-0ed2-4a58-9ee4-3a098b6ca351","a6b6d205-fa41-4c5b-a7a5-7fc4b51b0cea","{""num_scrambled_semantic"":""8"",""num_scrambled_causal"":""4"",""num_scrambled_schematic"":""4"",""participantId"":""CE95632B40AE4ABDBD33010653E26936"",""assignmentId"":""a30452d6-0ed2-4a58-9ee4-3a098b6ca351"",""projectId"":""a6b6d205-fa41-4c5b-a7a5-7fc4b51b0cea""}","https://test12345.live/?num_scrambled_semantic=8&num_scrambled_causal=4&num_scrambled_schematic=4&participantId=CE95632B40AE4ABDBD33010653E26936&assignmentId=a30452d6-0ed2-4a58-9ee4-3a098b6ca351&projectId=a6b6d205-fa41-4c5b-a7a5-7fc4b51b0cea","CE95632B40AE4ABDBD33010653E26936-2025-05-27-17-15-10","","621","","images/schematic_sequence/restaurant_scheme/restaurant_scheme_3.png","1","",""
"","","","","","image-button-response","100","568707","0.0-14.0-1.0-2.3","CE95632B40AE4ABDBD33010653E26936","CE95632B40AE4ABDBD33010653E26936","a30452d6-0ed2-4a58-9ee4-3a098b6ca351","a6b6d205-fa41-4c5b-a7a5-7fc4b51b0cea","{""num_scrambled_semantic"":""8"",""num_scrambled_causal"":""4"",""num_scrambled_schematic"":""4"",""participantId"":""CE95632B40AE4ABDBD33010653E26936"",""assignmentId"":""a30452d6-0ed2-4a58-9ee4-3a098b6ca351"",""projectId"":""a6b6d205-fa41-4c5b-a7a5-7fc4b51b0cea""}","https://test12345.live/?num_scrambled_semantic=8&num_scrambled_causal=4&num_scrambled_schematic=4&participantId=CE95632B40AE4ABDBD33010653E26936&assignmentId=a30452d6-0ed2-4a58-9ee4-3a098b6ca351&projectId=a6b6d205-fa41-4c5b-a7a5-7fc4b51b0cea","CE95632B40AE4ABDBD33010653E26936-2025-05-27-17-15-10","","null","","[]","null","",""
"","","","","","image-button-response","101","573213","0.0-14.0-1.0-0.4","CE95632B40AE4ABDBD33010653E26936","CE95632B40AE4ABDBD33010653E26936","a30452d6-0ed2-4a58-9ee4-3a098b6ca351","a6b6d205-fa41-4c5b-a7a5-7fc4b51b0cea","{""num_scrambled_semantic"":""8"",""num_scrambled_causal"":""4"",""num_scrambled_schematic"":""4"",""participantId"":""CE95632B40AE4ABDBD33010653E26936"",""assignmentId"":""a30452d6-0ed2-4a58-9ee4-3a098b6ca351"",""projectId"":""a6b6d205-fa41-4c5b-a7a5-7fc4b51b0cea""}","https://test12345.live/?num_scrambled_semantic=8&num_scrambled_causal=4&num_scrambled_schematic=4&participantId=CE95632B40AE4ABDBD33010653E26936&assignmentId=a30452d6-0ed2-4a58-9ee4-3a098b6ca351&projectId=a6b6d205-fa41-4c5b-a7a5-7fc4b51b0cea","CE95632B40AE4ABDBD33010653E26936-2025-05-27-17-15-10","","null","","images/schematic_sequence/restaurant_scheme/restaurant_scheme_4.png","null","",""
"","","","","","image-button-response","102","574499","0.0-14.0-1.0-1.4","CE95632B40AE4ABDBD33010653E26936","CE95632B40AE4ABDBD33010653E26936","a30452d6-0ed2-4a58-9ee4-3a098b6ca351","a6b6d205-fa41-4c5b-a7a5-7fc4b51b0cea","{""num_scrambled_semantic"":""8"",""num_scrambled_causal"":""4"",""num_scrambled_schematic"":""4"",""participantId"":""CE95632B40AE4ABDBD33010653E26936"",""assignmentId"":""a30452d6-0ed2-4a58-9ee4-3a098b6ca351"",""projectId"":""a6b6d205-fa41-4c5b-a7a5-7fc4b51b0cea""}","https://test12345.live/?num_scrambled_semantic=8&num_scrambled_causal=4&num_scrambled_schematic=4&participantId=CE95632B40AE4ABDBD33010653E26936&assignmentId=a30452d6-0ed2-4a58-9ee4-3a098b6ca351&projectId=a6b6d205-fa41-4c5b-a7a5-7fc4b51b0cea","CE95632B40AE4ABDBD33010653E26936-2025-05-27-17-15-10","","1284","","images/schematic_sequence/restaurant_scheme/restaurant_scheme_4.png","0","",""
"","","","","","image-button-response","103","576306","0.0-14.0-1.0-2.4","CE95632B40AE4ABDBD33010653E26936","CE95632B40AE4ABDBD33010653E26936","a30452d6-0ed2-4a58-9ee4-3a098b6ca351","a6b6d205-fa41-4c5b-a7a5-7fc4b51b0cea","{""num_scrambled_semantic"":""8"",""num_scrambled_causal"":""4"",""num_scrambled_schematic"":""4"",""participantId"":""CE95632B40AE4ABDBD33010653E26936"",""assignmentId"":""a30452d6-0ed2-4a58-9ee4-3a098b6ca351"",""projectId"":""a6b6d205-fa41-4c5b-a7a5-7fc4b51b0cea""}","https://test12345.live/?num_scrambled_semantic=8&num_scrambled_causal=4&num_scrambled_schematic=4&participantId=CE95632B40AE4ABDBD33010653E26936&assignmentId=a30452d6-0ed2-4a58-9ee4-3a098b6ca351&projectId=a6b6d205-fa41-4c5b-a7a5-7fc4b51b0cea","CE95632B40AE4ABDBD33010653E26936-2025-05-27-17-15-10","","null","","[]","null","",""
"","","","","","image-button-response","104","580810","0.0-14.0-1.0-0.5","CE95632B40AE4ABDBD33010653E26936","CE95632B40AE4ABDBD33010653E26936","a30452d6-0ed2-4a58-9ee4-3a098b6ca351","a6b6d205-fa41-4c5b-a7a5-7fc4b51b0cea","{""num_scrambled_semantic"":""8"",""num_scrambled_causal"":""4"",""num_scrambled_schematic"":""4"",""participantId"":""CE95632B40AE4ABDBD33010653E26936"",""assignmentId"":""a30452d6-0ed2-4a58-9ee4-3a098b6ca351"",""projectId"":""a6b6d205-fa41-4c5b-a7a5-7fc4b51b0cea""}","https://test12345.live/?num_scrambled_semantic=8&num_scrambled_causal=4&num_scrambled_schematic=4&participantId=CE95632B40AE4ABDBD33010653E26936&assignmentId=a30452d6-0ed2-4a58-9ee4-3a098b6ca351&projectId=a6b6d205-fa41-4c5b-a7a5-7fc4b51b0cea","CE95632B40AE4ABDBD33010653E26936-2025-05-27-17-15-10","","null","","images/schematic_sequence/restaurant_scheme/restaurant_scheme_5.png","null","",""
"","","","","","image-button-response","105","582566","0.0-14.0-1.0-1.5","CE95632B40AE4ABDBD33010653E26936","CE95632B40AE4ABDBD33010653E26936","a30452d6-0ed2-4a58-9ee4-3a098b6ca351","a6b6d205-fa41-4c5b-a7a5-7fc4b51b0cea","{""num_scrambled_semantic"":""8"",""num_scrambled_causal"":""4"",""num_scrambled_schematic"":""4"",""participantId"":""CE95632B40AE4ABDBD33010653E26936"",""assignmentId"":""a30452d6-0ed2-4a58-9ee4-3a098b6ca351"",""projectId"":""a6b6d205-fa41-4c5b-a7a5-7fc4b51b0cea""}","https://test12345.live/?num_scrambled_semantic=8&num_scrambled_causal=4&num_scrambled_schematic=4&participantId=CE95632B40AE4ABDBD33010653E26936&assignmentId=a30452d6-0ed2-4a58-9ee4-3a098b6ca351&projectId=a6b6d205-fa41-4c5b-a7a5-7fc4b51b0cea","CE95632B40AE4ABDBD33010653E26936-2025-05-27-17-15-10","","1754","","images/schematic_sequence/restaurant_scheme/restaurant_scheme_5.png","0","",""
"","","","","","image-button-response","106","584368","0.0-14.0-1.0-2.5","CE95632B40AE4ABDBD33010653E26936","CE95632B40AE4ABDBD33010653E26936","a30452d6-0ed2-4a58-9ee4-3a098b6ca351","a6b6d205-fa41-4c5b-a7a5-7fc4b51b0cea","{""num_scrambled_semantic"":""8"",""num_scrambled_causal"":""4"",""num_scrambled_schematic"":""4"",""participantId"":""CE95632B40AE4ABDBD33010653E26936"",""assignmentId"":""a30452d6-0ed2-4a58-9ee4-3a098b6ca351"",""projectId"":""a6b6d205-fa41-4c5b-a7a5-7fc4b51b0cea""}","https://test12345.live/?num_scrambled_semantic=8&num_scrambled_causal=4&num_scrambled_schematic=4&participantId=CE95632B40AE4ABDBD33010653E26936&assignmentId=a30452d6-0ed2-4a58-9ee4-3a098b6ca351&projectId=a6b6d205-fa41-4c5b-a7a5-7fc4b51b0cea","CE95632B40AE4ABDBD33010653E26936-2025-05-27-17-15-10","","null","","[]","null","",""
"","","","","","image-button-response","107","588871","0.0-14.0-1.0-0.6","CE95632B40AE4ABDBD33010653E26936","CE95632B40AE4ABDBD33010653E26936","a30452d6-0ed2-4a58-9ee4-3a098b6ca351","a6b6d205-fa41-4c5b-a7a5-7fc4b51b0cea","{""num_scrambled_semantic"":""8"",""num_scrambled_causal"":""4"",""num_scrambled_schematic"":""4"",""participantId"":""CE95632B40AE4ABDBD33010653E26936"",""assignmentId"":""a30452d6-0ed2-4a58-9ee4-3a098b6ca351"",""projectId"":""a6b6d205-fa41-4c5b-a7a5-7fc4b51b0cea""}","https://test12345.live/?num_scrambled_semantic=8&num_scrambled_causal=4&num_scrambled_schematic=4&participantId=CE95632B40AE4ABDBD33010653E26936&assignmentId=a30452d6-0ed2-4a58-9ee4-3a098b6ca351&projectId=a6b6d205-fa41-4c5b-a7a5-7fc4b51b0cea","CE95632B40AE4ABDBD33010653E26936-2025-05-27-17-15-10","","null","","images/schematic_sequence/restaurant_scheme/restaurant_scheme_6.png","null","",""
"","","","","","image-button-response","108","589749","0.0-14.0-1.0-1.6","CE95632B40AE4ABDBD33010653E26936","CE95632B40AE4ABDBD33010653E26936","a30452d6-0ed2-4a58-9ee4-3a098b6ca351","a6b6d205-fa41-4c5b-a7a5-7fc4b51b0cea","{""num_scrambled_semantic"":""8"",""num_scrambled_causal"":""4"",""num_scrambled_schematic"":""4"",""participantId"":""CE95632B40AE4ABDBD33010653E26936"",""assignmentId"":""a30452d6-0ed2-4a58-9ee4-3a098b6ca351"",""projectId"":""a6b6d205-fa41-4c5b-a7a5-7fc4b51b0cea""}","https://test12345.live/?num_scrambled_semantic=8&num_scrambled_causal=4&num_scrambled_schematic=4&participantId=CE95632B40AE4ABDBD33010653E26936&assignmentId=a30452d6-0ed2-4a58-9ee4-3a098b6ca351&projectId=a6b6d205-fa41-4c5b-a7a5-7fc4b51b0cea","CE95632B40AE4ABDBD33010653E26936-2025-05-27-17-15-10","","877","","images/schematic_sequence/restaurant_scheme/restaurant_scheme_6.png","1","",""
"","","","","","image-button-response","109","591555","0.0-14.0-1.0-2.6","CE95632B40AE4ABDBD33010653E26936","CE95632B40AE4ABDBD33010653E26936","a30452d6-0ed2-4a58-9ee4-3a098b6ca351","a6b6d205-fa41-4c5b-a7a5-7fc4b51b0cea","{""num_scrambled_semantic"":""8"",""num_scrambled_causal"":""4"",""num_scrambled_schematic"":""4"",""participantId"":""CE95632B40AE4ABDBD33010653E26936"",""assignmentId"":""a30452d6-0ed2-4a58-9ee4-3a098b6ca351"",""projectId"":""a6b6d205-fa41-4c5b-a7a5-7fc4b51b0cea""}","https://test12345.live/?num_scrambled_semantic=8&num_scrambled_causal=4&num_scrambled_schematic=4&participantId=CE95632B40AE4ABDBD33010653E26936&assignmentId=a30452d6-0ed2-4a58-9ee4-3a098b6ca351&projectId=a6b6d205-fa41-4c5b-a7a5-7fc4b51b0cea","CE95632B40AE4ABDBD33010653E26936-2025-05-27-17-15-10","","null","","[]","null","",""
"","","","","","image-button-response","110","596058","0.0-14.0-1.0-0.7","CE95632B40AE4ABDBD33010653E26936","CE95632B40AE4ABDBD33010653E26936","a30452d6-0ed2-4a58-9ee4-3a098b6ca351","a6b6d205-fa41-4c5b-a7a5-7fc4b51b0cea","{""num_scrambled_semantic"":""8"",""num_scrambled_causal"":""4"",""num_scrambled_schematic"":""4"",""participantId"":""CE95632B40AE4ABDBD33010653E26936"",""assignmentId"":""a30452d6-0ed2-4a58-9ee4-3a098b6ca351"",""projectId"":""a6b6d205-fa41-4c5b-a7a5-7fc4b51b0cea""}","https://test12345.live/?num_scrambled_semantic=8&num_scrambled_causal=4&num_scrambled_schematic=4&participantId=CE95632B40AE4ABDBD33010653E26936&assignmentId=a30452d6-0ed2-4a58-9ee4-3a098b6ca351&projectId=a6b6d205-fa41-4c5b-a7a5-7fc4b51b0cea","CE95632B40AE4ABDBD33010653E26936-2025-05-27-17-15-10","","null","","images/schematic_sequence/restaurant_scheme/restaurant_scheme_7.png","null","",""
"","","","","","image-button-response","111","596684","0.0-14.0-1.0-1.7","CE95632B40AE4ABDBD33010653E26936","CE95632B40AE4ABDBD33010653E26936","a30452d6-0ed2-4a58-9ee4-3a098b6ca351","a6b6d205-fa41-4c5b-a7a5-7fc4b51b0cea","{""num_scrambled_semantic"":""8"",""num_scrambled_causal"":""4"",""num_scrambled_schematic"":""4"",""participantId"":""CE95632B40AE4ABDBD33010653E26936"",""assignmentId"":""a30452d6-0ed2-4a58-9ee4-3a098b6ca351"",""projectId"":""a6b6d205-fa41-4c5b-a7a5-7fc4b51b0cea""}","https://test12345.live/?num_scrambled_semantic=8&num_scrambled_causal=4&num_scrambled_schematic=4&participantId=CE95632B40AE4ABDBD33010653E26936&assignmentId=a30452d6-0ed2-4a58-9ee4-3a098b6ca351&projectId=a6b6d205-fa41-4c5b-a7a5-7fc4b51b0cea","CE95632B40AE4ABDBD33010653E26936-2025-05-27-17-15-10","","624","","images/schematic_sequence/restaurant_scheme/restaurant_scheme_7.png","1","",""
"","","","","","image-button-response","112","598491","0.0-14.0-1.0-2.7","CE95632B40AE4ABDBD33010653E26936","CE95632B40AE4ABDBD33010653E26936","a30452d6-0ed2-4a58-9ee4-3a098b6ca351","a6b6d205-fa41-4c5b-a7a5-7fc4b51b0cea","{""num_scrambled_semantic"":""8"",""num_scrambled_causal"":""4"",""num_scrambled_schematic"":""4"",""participantId"":""CE95632B40AE4ABDBD33010653E26936"",""assignmentId"":""a30452d6-0ed2-4a58-9ee4-3a098b6ca351"",""projectId"":""a6b6d205-fa41-4c5b-a7a5-7fc4b51b0cea""}","https://test12345.live/?num_scrambled_semantic=8&num_scrambled_causal=4&num_scrambled_schematic=4&participantId=CE95632B40AE4ABDBD33010653E26936&assignmentId=a30452d6-0ed2-4a58-9ee4-3a098b6ca351&projectId=a6b6d205-fa41-4c5b-a7a5-7fc4b51b0cea","CE95632B40AE4ABDBD33010653E26936-2025-05-27-17-15-10","","null","","[]","null","",""
"","","","","","image-button-response","113","602996","0.0-14.0-1.0-0.8","CE95632B40AE4ABDBD33010653E26936","CE95632B40AE4ABDBD33010653E26936","a30452d6-0ed2-4a58-9ee4-3a098b6ca351","a6b6d205-fa41-4c5b-a7a5-7fc4b51b0cea","{""num_scrambled_semantic"":""8"",""num_scrambled_causal"":""4"",""num_scrambled_schematic"":""4"",""participantId"":""CE95632B40AE4ABDBD33010653E26936"",""assignmentId"":""a30452d6-0ed2-4a58-9ee4-3a098b6ca351"",""projectId"":""a6b6d205-fa41-4c5b-a7a5-7fc4b51b0cea""}","https://test12345.live/?num_scrambled_semantic=8&num_scrambled_causal=4&num_scrambled_schematic=4&participantId=CE95632B40AE4ABDBD33010653E26936&assignmentId=a30452d6-0ed2-4a58-9ee4-3a098b6ca351&projectId=a6b6d205-fa41-4c5b-a7a5-7fc4b51b0cea","CE95632B40AE4ABDBD33010653E26936-2025-05-27-17-15-10","","null","","images/schematic_sequence/restaurant_scheme/restaurant_scheme_8.png","null","",""
"","","","","","image-button-response","114","603800","0.0-14.0-1.0-1.8","CE95632B40AE4ABDBD33010653E26936","CE95632B40AE4ABDBD33010653E26936","a30452d6-0ed2-4a58-9ee4-3a098b6ca351","a6b6d205-fa41-4c5b-a7a5-7fc4b51b0cea","{""num_scrambled_semantic"":""8"",""num_scrambled_causal"":""4"",""num_scrambled_schematic"":""4"",""participantId"":""CE95632B40AE4ABDBD33010653E26936"",""assignmentId"":""a30452d6-0ed2-4a58-9ee4-3a098b6ca351"",""projectId"":""a6b6d205-fa41-4c5b-a7a5-7fc4b51b0cea""}","https://test12345.live/?num_scrambled_semantic=8&num_scrambled_causal=4&num_scrambled_schematic=4&participantId=CE95632B40AE4ABDBD33010653E26936&assignmentId=a30452d6-0ed2-4a58-9ee4-3a098b6ca351&projectId=a6b6d205-fa41-4c5b-a7a5-7fc4b51b0cea","CE95632B40AE4ABDBD33010653E26936-2025-05-27-17-15-10","","803","","images/schematic_sequence/restaurant_scheme/restaurant_scheme_8.png","0","",""
