"success","timeout","failed_images","failed_audio","failed_video","trial_type","trial_index","time_elapsed","internal_node_id","subject","subject_id","study_id","session_id","urlvar","current_url","audio_id","view_history","rt","device_id","stimulus","response","estimated_stimulus_onset","seq_name"
"true","false","[]","[]","[]","preload","0","2603","0.0-0.0","CE95632B40AE4ABDBD33010653E26936","CE95632B40AE4ABDBD33010653E26936","7e20b2f7-220e-41e7-9d1e-6277488dd617","a9f3d40c-5730-405c-b25e-1034c4c56f3f","{""num_scrambled_semantic"":""8"",""num_scrambled_causal"":""4"",""num_scrambled_schematic"":""4"",""participantId"":""CE95632B40AE4ABDBD33010653E26936"",""assignmentId"":""7e20b2f7-220e-41e7-9d1e-6277488dd617"",""projectId"":""a9f3d40c-5730-405c-b25e-1034c4c56f3f""}","https://test12345.live/?num_scrambled_semantic=8&num_scrambled_causal=4&num_scrambled_schematic=4&participantId=CE95632B40AE4ABDBD33010653E26936&assignmentId=7e20b2f7-220e-41e7-9d1e-6277488dd617&projectId=a9f3d40c-5730-405c-b25e-1034c4c56f3f","CE95632B40AE4ABDBD33010653E26936-2025-08-07-19-34-55","","","","","","",""
"","","","","","instructions","1","540060","0.0-1.0","CE95632B40AE4ABDBD33010653E26936","CE95632B40AE4ABDBD33010653E26936","7e20b2f7-220e-41e7-9d1e-6277488dd617","a9f3d40c-5730-405c-b25e-1034c4c56f3f","{""num_scrambled_semantic"":""8"",""num_scrambled_causal"":""4"",""num_scrambled_schematic"":""4"",""participantId"":""CE95632B40AE4ABDBD33010653E26936"",""assignmentId"":""7e20b2f7-220e-41e7-9d1e-6277488dd617"",""projectId"":""a9f3d40c-5730-405c-b25e-1034c4c56f3f""}","https://test12345.live/?num_scrambled_semantic=8&num_scrambled_causal=4&num_scrambled_schematic=4&participantId=CE95632B40AE4ABDBD33010653E26936&assignmentId=7e20b2f7-220e-41e7-9d1e-6277488dd617&projectId=a9f3d40c-5730-405c-b25e-1034c4c56f3f","CE95632B40AE4ABDBD33010653E26936-2025-08-07-19-34-55","[{""page_index"":0,""viewing_time"":537481}]","537481","","","","",""
"","","","","","instructions","2","542809","0.0-2.0","CE95632B40AE4ABDBD33010653E26936","CE95632B40AE4ABDBD33010653E26936","7e20b2f7-220e-41e7-9d1e-6277488dd617","a9f3d40c-5730-405c-b25e-1034c4c56f3f","{""num_scrambled_semantic"":""8"",""num_scrambled_causal"":""4"",""num_scrambled_schematic"":""4"",""participantId"":""CE95632B40AE4ABDBD33010653E26936"",""assignmentId"":""7e20b2f7-220e-41e7-9d1e-6277488dd617"",""projectId"":""a9f3d40c-5730-405c-b25e-1034c4c56f3f""}","https://test12345.live/?num_scrambled_semantic=8&num_scrambled_causal=4&num_scrambled_schematic=4&participantId=CE95632B40AE4ABDBD33010653E26936&assignmentId=7e20b2f7-220e-41e7-9d1e-6277488dd617&projectId=a9f3d40c-5730-405c-b25e-1034c4c56f3f","CE95632B40AE4ABDBD33010653E26936-2025-08-07-19-34-55","[{""page_index"":0,""viewing_time"":2748}]","2748","","","","",""
"true","","","","","fullscreen","3","545525","0.0-3.0","CE95632B40AE4ABDBD33010653E26936","CE95632B40AE4ABDBD33010653E26936","7e20b2f7-220e-41e7-9d1e-6277488dd617","a9f3d40c-5730-405c-b25e-1034c4c56f3f","{""num_scrambled_semantic"":""8"",""num_scrambled_causal"":""4"",""num_scrambled_schematic"":""4"",""participantId"":""CE95632B40AE4ABDBD33010653E26936"",""assignmentId"":""7e20b2f7-220e-41e7-9d1e-6277488dd617"",""projectId"":""a9f3d40c-5730-405c-b25e-1034c4c56f3f""}","https://test12345.live/?num_scrambled_semantic=8&num_scrambled_causal=4&num_scrambled_schematic=4&participantId=CE95632B40AE4ABDBD33010653E26936&assignmentId=7e20b2f7-220e-41e7-9d1e-6277488dd617&projectId=a9f3d40c-5730-405c-b25e-1034c4c56f3f","CE95632B40AE4ABDBD33010653E26936-2025-08-07-19-34-55","","1714","","","","",""
"","","","","","initialize-microphone","4","556153","0.0-4.0-0.0","CE95632B40AE4ABDBD33010653E26936","CE95632B40AE4ABDBD33010653E26936","7e20b2f7-220e-41e7-9d1e-6277488dd617","a9f3d40c-5730-405c-b25e-1034c4c56f3f","{""num_scrambled_semantic"":""8"",""num_scrambled_causal"":""4"",""num_scrambled_schematic"":""4"",""participantId"":""CE95632B40AE4ABDBD33010653E26936"",""assignmentId"":""7e20b2f7-220e-41e7-9d1e-6277488dd617"",""projectId"":""a9f3d40c-5730-405c-b25e-1034c4c56f3f""}","https://test12345.live/?num_scrambled_semantic=8&num_scrambled_causal=4&num_scrambled_schematic=4&participantId=CE95632B40AE4ABDBD33010653E26936&assignmentId=7e20b2f7-220e-41e7-9d1e-6277488dd617&projectId=a9f3d40c-5730-405c-b25e-1034c4c56f3f","CE95632B40AE4ABDBD33010653E26936-2025-08-07-19-34-55","","","984a64b56a43fbe8020412b016456a185574ad8d1ea8fc0b32e593b3d2d82c27","","","",""
"","","","","","html-audio-response","5","570828","0.0-4.0-1.0","CE95632B40AE4ABDBD33010653E26936","CE95632B40AE4ABDBD33010653E26936","7e20b2f7-220e-41e7-9d1e-6277488dd617","a9f3d40c-5730-405c-b25e-1034c4c56f3f","{""num_scrambled_semantic"":""8"",""num_scrambled_causal"":""4"",""num_scrambled_schematic"":""4"",""participantId"":""CE95632B40AE4ABDBD33010653E26936"",""assignmentId"":""7e20b2f7-220e-41e7-9d1e-6277488dd617"",""projectId"":""a9f3d40c-5730-405c-b25e-1034c4c56f3f""}","https://test12345.live/?num_scrambled_semantic=8&num_scrambled_causal=4&num_scrambled_schematic=4&participantId=CE95632B40AE4ABDBD33010653E26936&assignmentId=7e20b2f7-220e-41e7-9d1e-6277488dd617&projectId=a9f3d40c-5730-405c-b25e-1034c4c56f3f","CE95632B40AE4ABDBD33010653E26936-2025-08-07-19-34-55","","8514","","<span style=""color: red; font-size: 24px""> NOW RECORDING</span>
        <p>Please test Microphone</p>","","1",""
"","","","","","html-button-response","6","573977","0.0-4.0-2.0","CE95632B40AE4ABDBD33010653E26936","CE95632B40AE4ABDBD33010653E26936","7e20b2f7-220e-41e7-9d1e-6277488dd617","a9f3d40c-5730-405c-b25e-1034c4c56f3f","{""num_scrambled_semantic"":""8"",""num_scrambled_causal"":""4"",""num_scrambled_schematic"":""4"",""participantId"":""CE95632B40AE4ABDBD33010653E26936"",""assignmentId"":""7e20b2f7-220e-41e7-9d1e-6277488dd617"",""projectId"":""a9f3d40c-5730-405c-b25e-1034c4c56f3f""}","https://test12345.live/?num_scrambled_semantic=8&num_scrambled_causal=4&num_scrambled_schematic=4&participantId=CE95632B40AE4ABDBD33010653E26936&assignmentId=7e20b2f7-220e-41e7-9d1e-6277488dd617&projectId=a9f3d40c-5730-405c-b25e-1034c4c56f3f","CE95632B40AE4ABDBD33010653E26936-2025-08-07-19-34-55","","3146","","<p style=""font-size:48px; color:red;"">Is Microphone OK?</p>","1","",""
"","","","","","instructions","7","581325","0.0-5.0","CE95632B40AE4ABDBD33010653E26936","CE95632B40AE4ABDBD33010653E26936","7e20b2f7-220e-41e7-9d1e-6277488dd617","a9f3d40c-5730-405c-b25e-1034c4c56f3f","{""num_scrambled_semantic"":""8"",""num_scrambled_causal"":""4"",""num_scrambled_schematic"":""4"",""participantId"":""CE95632B40AE4ABDBD33010653E26936"",""assignmentId"":""7e20b2f7-220e-41e7-9d1e-6277488dd617"",""projectId"":""a9f3d40c-5730-405c-b25e-1034c4c56f3f""}","https://test12345.live/?num_scrambled_semantic=8&num_scrambled_causal=4&num_scrambled_schematic=4&participantId=CE95632B40AE4ABDBD33010653E26936&assignmentId=7e20b2f7-220e-41e7-9d1e-6277488dd617&projectId=a9f3d40c-5730-405c-b25e-1034c4c56f3f","CE95632B40AE4ABDBD33010653E26936-2025-08-07-19-34-55","[{""page_index"":0,""viewing_time"":2530},{""page_index"":1,""viewing_time"":4816}]","7347","","","","",""
"","","","","","image-button-response","8","587333","0.0-6.0-0.0","CE95632B40AE4ABDBD33010653E26936","CE95632B40AE4ABDBD33010653E26936","7e20b2f7-220e-41e7-9d1e-6277488dd617","a9f3d40c-5730-405c-b25e-1034c4c56f3f","{""num_scrambled_semantic"":""8"",""num_scrambled_causal"":""4"",""num_scrambled_schematic"":""4"",""participantId"":""CE95632B40AE4ABDBD33010653E26936"",""assignmentId"":""7e20b2f7-220e-41e7-9d1e-6277488dd617"",""projectId"":""a9f3d40c-5730-405c-b25e-1034c4c56f3f""}","https://test12345.live/?num_scrambled_semantic=8&num_scrambled_causal=4&num_scrambled_schematic=4&participantId=CE95632B40AE4ABDBD33010653E26936&assignmentId=7e20b2f7-220e-41e7-9d1e-6277488dd617&projectId=a9f3d40c-5730-405c-b25e-1034c4c56f3f","CE95632B40AE4ABDBD33010653E26936-2025-08-07-19-34-55","","null","","images/instructions/movie_0.png","null","",""
"","","","","","image-button-response","9","591834","0.0-6.0-1.0-0.0","CE95632B40AE4ABDBD33010653E26936","CE95632B40AE4ABDBD33010653E26936","7e20b2f7-220e-41e7-9d1e-6277488dd617","a9f3d40c-5730-405c-b25e-1034c4c56f3f","{""num_scrambled_semantic"":""8"",""num_scrambled_causal"":""4"",""num_scrambled_schematic"":""4"",""participantId"":""CE95632B40AE4ABDBD33010653E26936"",""assignmentId"":""7e20b2f7-220e-41e7-9d1e-6277488dd617"",""projectId"":""a9f3d40c-5730-405c-b25e-1034c4c56f3f""}","https://test12345.live/?num_scrambled_semantic=8&num_scrambled_causal=4&num_scrambled_schematic=4&participantId=CE95632B40AE4ABDBD33010653E26936&assignmentId=7e20b2f7-220e-41e7-9d1e-6277488dd617&projectId=a9f3d40c-5730-405c-b25e-1034c4c56f3f","CE95632B40AE4ABDBD33010653E26936-2025-08-07-19-34-55","","null","","images/instructions/movie_1.png","null","",""
"","","","","","image-button-response","10","595309","0.0-6.0-1.0-1.0","CE95632B40AE4ABDBD33010653E26936","CE95632B40AE4ABDBD33010653E26936","7e20b2f7-220e-41e7-9d1e-6277488dd617","a9f3d40c-5730-405c-b25e-1034c4c56f3f","{""num_scrambled_semantic"":""8"",""num_scrambled_causal"":""4"",""num_scrambled_schematic"":""4"",""participantId"":""CE95632B40AE4ABDBD33010653E26936"",""assignmentId"":""7e20b2f7-220e-41e7-9d1e-6277488dd617"",""projectId"":""a9f3d40c-5730-405c-b25e-1034c4c56f3f""}","https://test12345.live/?num_scrambled_semantic=8&num_scrambled_causal=4&num_scrambled_schematic=4&participantId=CE95632B40AE4ABDBD33010653E26936&assignmentId=7e20b2f7-220e-41e7-9d1e-6277488dd617&projectId=a9f3d40c-5730-405c-b25e-1034c4c56f3f","CE95632B40AE4ABDBD33010653E26936-2025-08-07-19-34-55","","3473","","images/instructions/movie_1.png","0","",""
"","","","","","image-button-response","11","597115","0.0-6.0-1.0-2.0","CE95632B40AE4ABDBD33010653E26936","CE95632B40AE4ABDBD33010653E26936","7e20b2f7-220e-41e7-9d1e-6277488dd617","a9f3d40c-5730-405c-b25e-1034c4c56f3f","{""num_scrambled_semantic"":""8"",""num_scrambled_causal"":""4"",""num_scrambled_schematic"":""4"",""participantId"":""CE95632B40AE4ABDBD33010653E26936"",""assignmentId"":""7e20b2f7-220e-41e7-9d1e-6277488dd617"",""projectId"":""a9f3d40c-5730-405c-b25e-1034c4c56f3f""}","https://test12345.live/?num_scrambled_semantic=8&num_scrambled_causal=4&num_scrambled_schematic=4&participantId=CE95632B40AE4ABDBD33010653E26936&assignmentId=7e20b2f7-220e-41e7-9d1e-6277488dd617&projectId=a9f3d40c-5730-405c-b25e-1034c4c56f3f","CE95632B40AE4ABDBD33010653E26936-2025-08-07-19-34-55","","null","","[]","null","",""
"","","","","","image-button-response","12","601623","0.0-6.0-1.0-0.1","CE95632B40AE4ABDBD33010653E26936","CE95632B40AE4ABDBD33010653E26936","7e20b2f7-220e-41e7-9d1e-6277488dd617","a9f3d40c-5730-405c-b25e-1034c4c56f3f","{""num_scrambled_semantic"":""8"",""num_scrambled_causal"":""4"",""num_scrambled_schematic"":""4"",""participantId"":""CE95632B40AE4ABDBD33010653E26936"",""assignmentId"":""7e20b2f7-220e-41e7-9d1e-6277488dd617"",""projectId"":""a9f3d40c-5730-405c-b25e-1034c4c56f3f""}","https://test12345.live/?num_scrambled_semantic=8&num_scrambled_causal=4&num_scrambled_schematic=4&participantId=CE95632B40AE4ABDBD33010653E26936&assignmentId=7e20b2f7-220e-41e7-9d1e-6277488dd617&projectId=a9f3d40c-5730-405c-b25e-1034c4c56f3f","CE95632B40AE4ABDBD33010653E26936-2025-08-07-19-34-55","","null","","images/instructions/movie_2.png","null","",""
"","","","","","image-button-response","13","603659","0.0-6.0-1.0-1.1","CE95632B40AE4ABDBD33010653E26936","CE95632B40AE4ABDBD33010653E26936","7e20b2f7-220e-41e7-9d1e-6277488dd617","a9f3d40c-5730-405c-b25e-1034c4c56f3f","{""num_scrambled_semantic"":""8"",""num_scrambled_causal"":""4"",""num_scrambled_schematic"":""4"",""participantId"":""CE95632B40AE4ABDBD33010653E26936"",""assignmentId"":""7e20b2f7-220e-41e7-9d1e-6277488dd617"",""projectId"":""a9f3d40c-5730-405c-b25e-1034c4c56f3f""}","https://test12345.live/?num_scrambled_semantic=8&num_scrambled_causal=4&num_scrambled_schematic=4&participantId=CE95632B40AE4ABDBD33010653E26936&assignmentId=7e20b2f7-220e-41e7-9d1e-6277488dd617&projectId=a9f3d40c-5730-405c-b25e-1034c4c56f3f","CE95632B40AE4ABDBD33010653E26936-2025-08-07-19-34-55","","2033","","images/instructions/movie_2.png","0","",""
"","","","","","image-button-response","14","605466","0.0-6.0-1.0-2.1","CE95632B40AE4ABDBD33010653E26936","CE95632B40AE4ABDBD33010653E26936","7e20b2f7-220e-41e7-9d1e-6277488dd617","a9f3d40c-5730-405c-b25e-1034c4c56f3f","{""num_scrambled_semantic"":""8"",""num_scrambled_causal"":""4"",""num_scrambled_schematic"":""4"",""participantId"":""CE95632B40AE4ABDBD33010653E26936"",""assignmentId"":""7e20b2f7-220e-41e7-9d1e-6277488dd617"",""projectId"":""a9f3d40c-5730-405c-b25e-1034c4c56f3f""}","https://test12345.live/?num_scrambled_semantic=8&num_scrambled_causal=4&num_scrambled_schematic=4&participantId=CE95632B40AE4ABDBD33010653E26936&assignmentId=7e20b2f7-220e-41e7-9d1e-6277488dd617&projectId=a9f3d40c-5730-405c-b25e-1034c4c56f3f","CE95632B40AE4ABDBD33010653E26936-2025-08-07-19-34-55","","null","","[]","null","",""
"","","","","","image-button-response","15","609973","0.0-6.0-1.0-0.2","CE95632B40AE4ABDBD33010653E26936","CE95632B40AE4ABDBD33010653E26936","7e20b2f7-220e-41e7-9d1e-6277488dd617","a9f3d40c-5730-405c-b25e-1034c4c56f3f","{""num_scrambled_semantic"":""8"",""num_scrambled_causal"":""4"",""num_scrambled_schematic"":""4"",""participantId"":""CE95632B40AE4ABDBD33010653E26936"",""assignmentId"":""7e20b2f7-220e-41e7-9d1e-6277488dd617"",""projectId"":""a9f3d40c-5730-405c-b25e-1034c4c56f3f""}","https://test12345.live/?num_scrambled_semantic=8&num_scrambled_causal=4&num_scrambled_schematic=4&participantId=CE95632B40AE4ABDBD33010653E26936&assignmentId=7e20b2f7-220e-41e7-9d1e-6277488dd617&projectId=a9f3d40c-5730-405c-b25e-1034c4c56f3f","CE95632B40AE4ABDBD33010653E26936-2025-08-07-19-34-55","","null","","images/instructions/movie_3.png","null","",""
"","","","","","image-button-response","16","612342","0.0-6.0-1.0-1.2","CE95632B40AE4ABDBD33010653E26936","CE95632B40AE4ABDBD33010653E26936","7e20b2f7-220e-41e7-9d1e-6277488dd617","a9f3d40c-5730-405c-b25e-1034c4c56f3f","{""num_scrambled_semantic"":""8"",""num_scrambled_causal"":""4"",""num_scrambled_schematic"":""4"",""participantId"":""CE95632B40AE4ABDBD33010653E26936"",""assignmentId"":""7e20b2f7-220e-41e7-9d1e-6277488dd617"",""projectId"":""a9f3d40c-5730-405c-b25e-1034c4c56f3f""}","https://test12345.live/?num_scrambled_semantic=8&num_scrambled_causal=4&num_scrambled_schematic=4&participantId=CE95632B40AE4ABDBD33010653E26936&assignmentId=7e20b2f7-220e-41e7-9d1e-6277488dd617&projectId=a9f3d40c-5730-405c-b25e-1034c4c56f3f","CE95632B40AE4ABDBD33010653E26936-2025-08-07-19-34-55","","2367","","images/instructions/movie_3.png","0","",""
"","","","","","image-button-response","17","614148","0.0-6.0-1.0-2.2","CE95632B40AE4ABDBD33010653E26936","CE95632B40AE4ABDBD33010653E26936","7e20b2f7-220e-41e7-9d1e-6277488dd617","a9f3d40c-5730-405c-b25e-1034c4c56f3f","{""num_scrambled_semantic"":""8"",""num_scrambled_causal"":""4"",""num_scrambled_schematic"":""4"",""participantId"":""CE95632B40AE4ABDBD33010653E26936"",""assignmentId"":""7e20b2f7-220e-41e7-9d1e-6277488dd617"",""projectId"":""a9f3d40c-5730-405c-b25e-1034c4c56f3f""}","https://test12345.live/?num_scrambled_semantic=8&num_scrambled_causal=4&num_scrambled_schematic=4&participantId=CE95632B40AE4ABDBD33010653E26936&assignmentId=7e20b2f7-220e-41e7-9d1e-6277488dd617&projectId=a9f3d40c-5730-405c-b25e-1034c4c56f3f","CE95632B40AE4ABDBD33010653E26936-2025-08-07-19-34-55","","null","","[]","null","",""
"","","","","","image-button-response","18","618653","0.0-6.0-1.0-0.3","CE95632B40AE4ABDBD33010653E26936","CE95632B40AE4ABDBD33010653E26936","7e20b2f7-220e-41e7-9d1e-6277488dd617","a9f3d40c-5730-405c-b25e-1034c4c56f3f","{""num_scrambled_semantic"":""8"",""num_scrambled_causal"":""4"",""num_scrambled_schematic"":""4"",""participantId"":""CE95632B40AE4ABDBD33010653E26936"",""assignmentId"":""7e20b2f7-220e-41e7-9d1e-6277488dd617"",""projectId"":""a9f3d40c-5730-405c-b25e-1034c4c56f3f""}","https://test12345.live/?num_scrambled_semantic=8&num_scrambled_causal=4&num_scrambled_schematic=4&participantId=CE95632B40AE4ABDBD33010653E26936&assignmentId=7e20b2f7-220e-41e7-9d1e-6277488dd617&projectId=a9f3d40c-5730-405c-b25e-1034c4c56f3f","CE95632B40AE4ABDBD33010653E26936-2025-08-07-19-34-55","","null","","images/instructions/movie_4.png","null","",""
"","","","","","image-button-response","19","619652","0.0-6.0-1.0-1.3","CE95632B40AE4ABDBD33010653E26936","CE95632B40AE4ABDBD33010653E26936","7e20b2f7-220e-41e7-9d1e-6277488dd617","a9f3d40c-5730-405c-b25e-1034c4c56f3f","{""num_scrambled_semantic"":""8"",""num_scrambled_causal"":""4"",""num_scrambled_schematic"":""4"",""participantId"":""CE95632B40AE4ABDBD33010653E26936"",""assignmentId"":""7e20b2f7-220e-41e7-9d1e-6277488dd617"",""projectId"":""a9f3d40c-5730-405c-b25e-1034c4c56f3f""}","https://test12345.live/?num_scrambled_semantic=8&num_scrambled_causal=4&num_scrambled_schematic=4&participantId=CE95632B40AE4ABDBD33010653E26936&assignmentId=7e20b2f7-220e-41e7-9d1e-6277488dd617&projectId=a9f3d40c-5730-405c-b25e-1034c4c56f3f","CE95632B40AE4ABDBD33010653E26936-2025-08-07-19-34-55","","998","","images/instructions/movie_4.png","0","",""
"","","","","","image-button-response","20","621454","0.0-6.0-1.0-2.3","CE95632B40AE4ABDBD33010653E26936","CE95632B40AE4ABDBD33010653E26936","7e20b2f7-220e-41e7-9d1e-6277488dd617","a9f3d40c-5730-405c-b25e-1034c4c56f3f","{""num_scrambled_semantic"":""8"",""num_scrambled_causal"":""4"",""num_scrambled_schematic"":""4"",""participantId"":""CE95632B40AE4ABDBD33010653E26936"",""assignmentId"":""7e20b2f7-220e-41e7-9d1e-6277488dd617"",""projectId"":""a9f3d40c-5730-405c-b25e-1034c4c56f3f""}","https://test12345.live/?num_scrambled_semantic=8&num_scrambled_causal=4&num_scrambled_schematic=4&participantId=CE95632B40AE4ABDBD33010653E26936&assignmentId=7e20b2f7-220e-41e7-9d1e-6277488dd617&projectId=a9f3d40c-5730-405c-b25e-1034c4c56f3f","CE95632B40AE4ABDBD33010653E26936-2025-08-07-19-34-55","","null","","[]","null","",""
"","","","","","instructions","21","627815","0.0-7.0","CE95632B40AE4ABDBD33010653E26936","CE95632B40AE4ABDBD33010653E26936","7e20b2f7-220e-41e7-9d1e-6277488dd617","a9f3d40c-5730-405c-b25e-1034c4c56f3f","{""num_scrambled_semantic"":""8"",""num_scrambled_causal"":""4"",""num_scrambled_schematic"":""4"",""participantId"":""CE95632B40AE4ABDBD33010653E26936"",""assignmentId"":""7e20b2f7-220e-41e7-9d1e-6277488dd617"",""projectId"":""a9f3d40c-5730-405c-b25e-1034c4c56f3f""}","https://test12345.live/?num_scrambled_semantic=8&num_scrambled_causal=4&num_scrambled_schematic=4&participantId=CE95632B40AE4ABDBD33010653E26936&assignmentId=7e20b2f7-220e-41e7-9d1e-6277488dd617&projectId=a9f3d40c-5730-405c-b25e-1034c4c56f3f","CE95632B40AE4ABDBD33010653E26936-2025-08-07-19-34-55","[{""page_index"":0,""viewing_time"":5031},{""page_index"":1,""viewing_time"":1331}]","6362","","","","",""
"","","","","","html-audio-response","22","665583","0.0-8.0","CE95632B40AE4ABDBD33010653E26936","CE95632B40AE4ABDBD33010653E26936","7e20b2f7-220e-41e7-9d1e-6277488dd617","a9f3d40c-5730-405c-b25e-1034c4c56f3f","{""num_scrambled_semantic"":""8"",""num_scrambled_causal"":""4"",""num_scrambled_schematic"":""4"",""participantId"":""CE95632B40AE4ABDBD33010653E26936"",""assignmentId"":""7e20b2f7-220e-41e7-9d1e-6277488dd617"",""projectId"":""a9f3d40c-5730-405c-b25e-1034c4c56f3f""}","https://test12345.live/?num_scrambled_semantic=8&num_scrambled_causal=4&num_scrambled_schematic=4&participantId=CE95632B40AE4ABDBD33010653E26936&assignmentId=7e20b2f7-220e-41e7-9d1e-6277488dd617&projectId=a9f3d40c-5730-405c-b25e-1034c4c56f3f","CE95632B40AE4ABDBD33010653E26936-2025-08-07-19-34-55","","8605","","[""<span style=\""color: red; font-size: 24px\""> NOW RECORDING</span><p>Please say out loud all the images you saw, as many as you can remember. The images can be said in any order.</p>""]","","1",""
"","","","","","instructions","23","666664","0.0-9.0","CE95632B40AE4ABDBD33010653E26936","CE95632B40AE4ABDBD33010653E26936","7e20b2f7-220e-41e7-9d1e-6277488dd617","a9f3d40c-5730-405c-b25e-1034c4c56f3f","{""num_scrambled_semantic"":""8"",""num_scrambled_causal"":""4"",""num_scrambled_schematic"":""4"",""participantId"":""CE95632B40AE4ABDBD33010653E26936"",""assignmentId"":""7e20b2f7-220e-41e7-9d1e-6277488dd617"",""projectId"":""a9f3d40c-5730-405c-b25e-1034c4c56f3f""}","https://test12345.live/?num_scrambled_semantic=8&num_scrambled_causal=4&num_scrambled_schematic=4&participantId=CE95632B40AE4ABDBD33010653E26936&assignmentId=7e20b2f7-220e-41e7-9d1e-6277488dd617&projectId=a9f3d40c-5730-405c-b25e-1034c4c56f3f","CE95632B40AE4ABDBD33010653E26936-2025-08-07-19-34-55","[{""page_index"":0,""viewing_time"":1077}]","1077","","","","",""
"","","","","","image-button-response","24","672672","0.0-10.0-0.0","CE95632B40AE4ABDBD33010653E26936","CE95632B40AE4ABDBD33010653E26936","7e20b2f7-220e-41e7-9d1e-6277488dd617","a9f3d40c-5730-405c-b25e-1034c4c56f3f","{""num_scrambled_semantic"":""8"",""num_scrambled_causal"":""4"",""num_scrambled_schematic"":""4"",""participantId"":""CE95632B40AE4ABDBD33010653E26936"",""assignmentId"":""7e20b2f7-220e-41e7-9d1e-6277488dd617"",""projectId"":""a9f3d40c-5730-405c-b25e-1034c4c56f3f""}","https://test12345.live/?num_scrambled_semantic=8&num_scrambled_causal=4&num_scrambled_schematic=4&participantId=CE95632B40AE4ABDBD33010653E26936&assignmentId=7e20b2f7-220e-41e7-9d1e-6277488dd617&projectId=a9f3d40c-5730-405c-b25e-1034c4c56f3f","CE95632B40AE4ABDBD33010653E26936-2025-08-07-19-34-55","","null","","images/causal_sequence/package_causal/package_causal_0.png","null","",""
"","","","","","image-button-response","25","677176","0.0-10.0-1.0-0.0","CE95632B40AE4ABDBD33010653E26936","CE95632B40AE4ABDBD33010653E26936","7e20b2f7-220e-41e7-9d1e-6277488dd617","a9f3d40c-5730-405c-b25e-1034c4c56f3f","{""num_scrambled_semantic"":""8"",""num_scrambled_causal"":""4"",""num_scrambled_schematic"":""4"",""participantId"":""CE95632B40AE4ABDBD33010653E26936"",""assignmentId"":""7e20b2f7-220e-41e7-9d1e-6277488dd617"",""projectId"":""a9f3d40c-5730-405c-b25e-1034c4c56f3f""}","https://test12345.live/?num_scrambled_semantic=8&num_scrambled_causal=4&num_scrambled_schematic=4&participantId=CE95632B40AE4ABDBD33010653E26936&assignmentId=7e20b2f7-220e-41e7-9d1e-6277488dd617&projectId=a9f3d40c-5730-405c-b25e-1034c4c56f3f","CE95632B40AE4ABDBD33010653E26936-2025-08-07-19-34-55","","null","","images/causal_sequence/package_causal/package_causal_1.png","null","",""
"","","","","","image-button-response","26","679761","0.0-10.0-1.0-1.0","CE95632B40AE4ABDBD33010653E26936","CE95632B40AE4ABDBD33010653E26936","7e20b2f7-220e-41e7-9d1e-6277488dd617","a9f3d40c-5730-405c-b25e-1034c4c56f3f","{""num_scrambled_semantic"":""8"",""num_scrambled_causal"":""4"",""num_scrambled_schematic"":""4"",""participantId"":""CE95632B40AE4ABDBD33010653E26936"",""assignmentId"":""7e20b2f7-220e-41e7-9d1e-6277488dd617"",""projectId"":""a9f3d40c-5730-405c-b25e-1034c4c56f3f""}","https://test12345.live/?num_scrambled_semantic=8&num_scrambled_causal=4&num_scrambled_schematic=4&participantId=CE95632B40AE4ABDBD33010653E26936&assignmentId=7e20b2f7-220e-41e7-9d1e-6277488dd617&projectId=a9f3d40c-5730-405c-b25e-1034c4c56f3f","CE95632B40AE4ABDBD33010653E26936-2025-08-07-19-34-55","","2583","","images/causal_sequence/package_causal/package_causal_1.png","0","",""
"","","","","","image-button-response","27","681566","0.0-10.0-1.0-2.0","CE95632B40AE4ABDBD33010653E26936","CE95632B40AE4ABDBD33010653E26936","7e20b2f7-220e-41e7-9d1e-6277488dd617","a9f3d40c-5730-405c-b25e-1034c4c56f3f","{""num_scrambled_semantic"":""8"",""num_scrambled_causal"":""4"",""num_scrambled_schematic"":""4"",""participantId"":""CE95632B40AE4ABDBD33010653E26936"",""assignmentId"":""7e20b2f7-220e-41e7-9d1e-6277488dd617"",""projectId"":""a9f3d40c-5730-405c-b25e-1034c4c56f3f""}","https://test12345.live/?num_scrambled_semantic=8&num_scrambled_causal=4&num_scrambled_schematic=4&participantId=CE95632B40AE4ABDBD33010653E26936&assignmentId=7e20b2f7-220e-41e7-9d1e-6277488dd617&projectId=a9f3d40c-5730-405c-b25e-1034c4c56f3f","CE95632B40AE4ABDBD33010653E26936-2025-08-07-19-34-55","","null","","[]","null","",""
"","","","","","image-button-response","28","686073","0.0-10.0-1.0-0.1","CE95632B40AE4ABDBD33010653E26936","CE95632B40AE4ABDBD33010653E26936","7e20b2f7-220e-41e7-9d1e-6277488dd617","a9f3d40c-5730-405c-b25e-1034c4c56f3f","{""num_scrambled_semantic"":""8"",""num_scrambled_causal"":""4"",""num_scrambled_schematic"":""4"",""participantId"":""CE95632B40AE4ABDBD33010653E26936"",""assignmentId"":""7e20b2f7-220e-41e7-9d1e-6277488dd617"",""projectId"":""a9f3d40c-5730-405c-b25e-1034c4c56f3f""}","https://test12345.live/?num_scrambled_semantic=8&num_scrambled_causal=4&num_scrambled_schematic=4&participantId=CE95632B40AE4ABDBD33010653E26936&assignmentId=7e20b2f7-220e-41e7-9d1e-6277488dd617&projectId=a9f3d40c-5730-405c-b25e-1034c4c56f3f","CE95632B40AE4ABDBD33010653E26936-2025-08-07-19-34-55","","null","","images/causal_sequence/package_causal/package_causal_2.png","null","",""
"","","","","","image-button-response","29","688129","0.0-10.0-1.0-1.1","CE95632B40AE4ABDBD33010653E26936","CE95632B40AE4ABDBD33010653E26936","7e20b2f7-220e-41e7-9d1e-6277488dd617","a9f3d40c-5730-405c-b25e-1034c4c56f3f","{""num_scrambled_semantic"":""8"",""num_scrambled_causal"":""4"",""num_scrambled_schematic"":""4"",""participantId"":""CE95632B40AE4ABDBD33010653E26936"",""assignmentId"":""7e20b2f7-220e-41e7-9d1e-6277488dd617"",""projectId"":""a9f3d40c-5730-405c-b25e-1034c4c56f3f""}","https://test12345.live/?num_scrambled_semantic=8&num_scrambled_causal=4&num_scrambled_schematic=4&participantId=CE95632B40AE4ABDBD33010653E26936&assignmentId=7e20b2f7-220e-41e7-9d1e-6277488dd617&projectId=a9f3d40c-5730-405c-b25e-1034c4c56f3f","CE95632B40AE4ABDBD33010653E26936-2025-08-07-19-34-55","","2055","","images/causal_sequence/package_causal/package_causal_2.png","0","",""
"","","","","","image-button-response","30","689931","0.0-10.0-1.0-2.1","CE95632B40AE4ABDBD33010653E26936","CE95632B40AE4ABDBD33010653E26936","7e20b2f7-220e-41e7-9d1e-6277488dd617","a9f3d40c-5730-405c-b25e-1034c4c56f3f","{""num_scrambled_semantic"":""8"",""num_scrambled_causal"":""4"",""num_scrambled_schematic"":""4"",""participantId"":""CE95632B40AE4ABDBD33010653E26936"",""assignmentId"":""7e20b2f7-220e-41e7-9d1e-6277488dd617"",""projectId"":""a9f3d40c-5730-405c-b25e-1034c4c56f3f""}","https://test12345.live/?num_scrambled_semantic=8&num_scrambled_causal=4&num_scrambled_schematic=4&participantId=CE95632B40AE4ABDBD33010653E26936&assignmentId=7e20b2f7-220e-41e7-9d1e-6277488dd617&projectId=a9f3d40c-5730-405c-b25e-1034c4c56f3f","CE95632B40AE4ABDBD33010653E26936-2025-08-07-19-34-55","","null","","[]","null","",""
"","","","","","image-button-response","31","694433","0.0-10.0-1.0-0.2","CE95632B40AE4ABDBD33010653E26936","CE95632B40AE4ABDBD33010653E26936","7e20b2f7-220e-41e7-9d1e-6277488dd617","a9f3d40c-5730-405c-b25e-1034c4c56f3f","{""num_scrambled_semantic"":""8"",""num_scrambled_causal"":""4"",""num_scrambled_schematic"":""4"",""participantId"":""CE95632B40AE4ABDBD33010653E26936"",""assignmentId"":""7e20b2f7-220e-41e7-9d1e-6277488dd617"",""projectId"":""a9f3d40c-5730-405c-b25e-1034c4c56f3f""}","https://test12345.live/?num_scrambled_semantic=8&num_scrambled_causal=4&num_scrambled_schematic=4&participantId=CE95632B40AE4ABDBD33010653E26936&assignmentId=7e20b2f7-220e-41e7-9d1e-6277488dd617&projectId=a9f3d40c-5730-405c-b25e-1034c4c56f3f","CE95632B40AE4ABDBD33010653E26936-2025-08-07-19-34-55","","null","","images/causal_sequence/package_causal/package_causal_3.png","null","",""
"","","","","","image-button-response","32","695415","0.0-10.0-1.0-1.2","CE95632B40AE4ABDBD33010653E26936","CE95632B40AE4ABDBD33010653E26936","7e20b2f7-220e-41e7-9d1e-6277488dd617","a9f3d40c-5730-405c-b25e-1034c4c56f3f","{""num_scrambled_semantic"":""8"",""num_scrambled_causal"":""4"",""num_scrambled_schematic"":""4"",""participantId"":""CE95632B40AE4ABDBD33010653E26936"",""assignmentId"":""7e20b2f7-220e-41e7-9d1e-6277488dd617"",""projectId"":""a9f3d40c-5730-405c-b25e-1034c4c56f3f""}","https://test12345.live/?num_scrambled_semantic=8&num_scrambled_causal=4&num_scrambled_schematic=4&participantId=CE95632B40AE4ABDBD33010653E26936&assignmentId=7e20b2f7-220e-41e7-9d1e-6277488dd617&projectId=a9f3d40c-5730-405c-b25e-1034c4c56f3f","CE95632B40AE4ABDBD33010653E26936-2025-08-07-19-34-55","","979","","images/causal_sequence/package_causal/package_causal_3.png","0","",""
"","","","","","image-button-response","33","697217","0.0-10.0-1.0-2.2","CE95632B40AE4ABDBD33010653E26936","CE95632B40AE4ABDBD33010653E26936","7e20b2f7-220e-41e7-9d1e-6277488dd617","a9f3d40c-5730-405c-b25e-1034c4c56f3f","{""num_scrambled_semantic"":""8"",""num_scrambled_causal"":""4"",""num_scrambled_schematic"":""4"",""participantId"":""CE95632B40AE4ABDBD33010653E26936"",""assignmentId"":""7e20b2f7-220e-41e7-9d1e-6277488dd617"",""projectId"":""a9f3d40c-5730-405c-b25e-1034c4c56f3f""}","https://test12345.live/?num_scrambled_semantic=8&num_scrambled_causal=4&num_scrambled_schematic=4&participantId=CE95632B40AE4ABDBD33010653E26936&assignmentId=7e20b2f7-220e-41e7-9d1e-6277488dd617&projectId=a9f3d40c-5730-405c-b25e-1034c4c56f3f","CE95632B40AE4ABDBD33010653E26936-2025-08-07-19-34-55","","null","","[]","null","",""
"","","","","","image-button-response","34","701724","0.0-10.0-1.0-0.3","CE95632B40AE4ABDBD33010653E26936","CE95632B40AE4ABDBD33010653E26936","7e20b2f7-220e-41e7-9d1e-6277488dd617","a9f3d40c-5730-405c-b25e-1034c4c56f3f","{""num_scrambled_semantic"":""8"",""num_scrambled_causal"":""4"",""num_scrambled_schematic"":""4"",""participantId"":""CE95632B40AE4ABDBD33010653E26936"",""assignmentId"":""7e20b2f7-220e-41e7-9d1e-6277488dd617"",""projectId"":""a9f3d40c-5730-405c-b25e-1034c4c56f3f""}","https://test12345.live/?num_scrambled_semantic=8&num_scrambled_causal=4&num_scrambled_schematic=4&participantId=CE95632B40AE4ABDBD33010653E26936&assignmentId=7e20b2f7-220e-41e7-9d1e-6277488dd617&projectId=a9f3d40c-5730-405c-b25e-1034c4c56f3f","CE95632B40AE4ABDBD33010653E26936-2025-08-07-19-34-55","","null","","images/causal_sequence/package_causal/package_causal_4.png","null","",""
"","","","","","image-button-response","35","703880","0.0-10.0-1.0-1.3","CE95632B40AE4ABDBD33010653E26936","CE95632B40AE4ABDBD33010653E26936","7e20b2f7-220e-41e7-9d1e-6277488dd617","a9f3d40c-5730-405c-b25e-1034c4c56f3f","{""num_scrambled_semantic"":""8"",""num_scrambled_causal"":""4"",""num_scrambled_schematic"":""4"",""participantId"":""CE95632B40AE4ABDBD33010653E26936"",""assignmentId"":""7e20b2f7-220e-41e7-9d1e-6277488dd617"",""projectId"":""a9f3d40c-5730-405c-b25e-1034c4c56f3f""}","https://test12345.live/?num_scrambled_semantic=8&num_scrambled_causal=4&num_scrambled_schematic=4&participantId=CE95632B40AE4ABDBD33010653E26936&assignmentId=7e20b2f7-220e-41e7-9d1e-6277488dd617&projectId=a9f3d40c-5730-405c-b25e-1034c4c56f3f","CE95632B40AE4ABDBD33010653E26936-2025-08-07-19-34-55","","2154","","images/causal_sequence/package_causal/package_causal_4.png","1","",""
"","","","","","image-button-response","36","705687","0.0-10.0-1.0-2.3","CE95632B40AE4ABDBD33010653E26936","CE95632B40AE4ABDBD33010653E26936","7e20b2f7-220e-41e7-9d1e-6277488dd617","a9f3d40c-5730-405c-b25e-1034c4c56f3f","{""num_scrambled_semantic"":""8"",""num_scrambled_causal"":""4"",""num_scrambled_schematic"":""4"",""participantId"":""CE95632B40AE4ABDBD33010653E26936"",""assignmentId"":""7e20b2f7-220e-41e7-9d1e-6277488dd617"",""projectId"":""a9f3d40c-5730-405c-b25e-1034c4c56f3f""}","https://test12345.live/?num_scrambled_semantic=8&num_scrambled_causal=4&num_scrambled_schematic=4&participantId=CE95632B40AE4ABDBD33010653E26936&assignmentId=7e20b2f7-220e-41e7-9d1e-6277488dd617&projectId=a9f3d40c-5730-405c-b25e-1034c4c56f3f","CE95632B40AE4ABDBD33010653E26936-2025-08-07-19-34-55","","null","","[]","null","",""
"","","","","","image-button-response","37","710191","0.0-10.0-1.0-0.4","CE95632B40AE4ABDBD33010653E26936","CE95632B40AE4ABDBD33010653E26936","7e20b2f7-220e-41e7-9d1e-6277488dd617","a9f3d40c-5730-405c-b25e-1034c4c56f3f","{""num_scrambled_semantic"":""8"",""num_scrambled_causal"":""4"",""num_scrambled_schematic"":""4"",""participantId"":""CE95632B40AE4ABDBD33010653E26936"",""assignmentId"":""7e20b2f7-220e-41e7-9d1e-6277488dd617"",""projectId"":""a9f3d40c-5730-405c-b25e-1034c4c56f3f""}","https://test12345.live/?num_scrambled_semantic=8&num_scrambled_causal=4&num_scrambled_schematic=4&participantId=CE95632B40AE4ABDBD33010653E26936&assignmentId=7e20b2f7-220e-41e7-9d1e-6277488dd617&projectId=a9f3d40c-5730-405c-b25e-1034c4c56f3f","CE95632B40AE4ABDBD33010653E26936-2025-08-07-19-34-55","","null","","images/causal_sequence/package_causal/package_causal_5.png","null","",""
"","","","","","image-button-response","38","711248","0.0-10.0-1.0-1.4","CE95632B40AE4ABDBD33010653E26936","CE95632B40AE4ABDBD33010653E26936","7e20b2f7-220e-41e7-9d1e-6277488dd617","a9f3d40c-5730-405c-b25e-1034c4c56f3f","{""num_scrambled_semantic"":""8"",""num_scrambled_causal"":""4"",""num_scrambled_schematic"":""4"",""participantId"":""CE95632B40AE4ABDBD33010653E26936"",""assignmentId"":""7e20b2f7-220e-41e7-9d1e-6277488dd617"",""projectId"":""a9f3d40c-5730-405c-b25e-1034c4c56f3f""}","https://test12345.live/?num_scrambled_semantic=8&num_scrambled_causal=4&num_scrambled_schematic=4&participantId=CE95632B40AE4ABDBD33010653E26936&assignmentId=7e20b2f7-220e-41e7-9d1e-6277488dd617&projectId=a9f3d40c-5730-405c-b25e-1034c4c56f3f","CE95632B40AE4ABDBD33010653E26936-2025-08-07-19-34-55","","1054","","images/causal_sequence/package_causal/package_causal_5.png","0","",""
"","","","","","image-button-response","39","713055","0.0-10.0-1.0-2.4","CE95632B40AE4ABDBD33010653E26936","CE95632B40AE4ABDBD33010653E26936","7e20b2f7-220e-41e7-9d1e-6277488dd617","a9f3d40c-5730-405c-b25e-1034c4c56f3f","{""num_scrambled_semantic"":""8"",""num_scrambled_causal"":""4"",""num_scrambled_schematic"":""4"",""participantId"":""CE95632B40AE4ABDBD33010653E26936"",""assignmentId"":""7e20b2f7-220e-41e7-9d1e-6277488dd617"",""projectId"":""a9f3d40c-5730-405c-b25e-1034c4c56f3f""}","https://test12345.live/?num_scrambled_semantic=8&num_scrambled_causal=4&num_scrambled_schematic=4&participantId=CE95632B40AE4ABDBD33010653E26936&assignmentId=7e20b2f7-220e-41e7-9d1e-6277488dd617&projectId=a9f3d40c-5730-405c-b25e-1034c4c56f3f","CE95632B40AE4ABDBD33010653E26936-2025-08-07-19-34-55","","null","","[]","null","",""
"","","","","","image-button-response","40","717559","0.0-10.0-1.0-0.5","CE95632B40AE4ABDBD33010653E26936","CE95632B40AE4ABDBD33010653E26936","7e20b2f7-220e-41e7-9d1e-6277488dd617","a9f3d40c-5730-405c-b25e-1034c4c56f3f","{""num_scrambled_semantic"":""8"",""num_scrambled_causal"":""4"",""num_scrambled_schematic"":""4"",""participantId"":""CE95632B40AE4ABDBD33010653E26936"",""assignmentId"":""7e20b2f7-220e-41e7-9d1e-6277488dd617"",""projectId"":""a9f3d40c-5730-405c-b25e-1034c4c56f3f""}","https://test12345.live/?num_scrambled_semantic=8&num_scrambled_causal=4&num_scrambled_schematic=4&participantId=CE95632B40AE4ABDBD33010653E26936&assignmentId=7e20b2f7-220e-41e7-9d1e-6277488dd617&projectId=a9f3d40c-5730-405c-b25e-1034c4c56f3f","CE95632B40AE4ABDBD33010653E26936-2025-08-07-19-34-55","","null","","images/causal_sequence/package_causal/package_causal_6.png","null","",""
"","","","","","image-button-response","41","718580","0.0-10.0-1.0-1.5","CE95632B40AE4ABDBD33010653E26936","CE95632B40AE4ABDBD33010653E26936","7e20b2f7-220e-41e7-9d1e-6277488dd617","a9f3d40c-5730-405c-b25e-1034c4c56f3f","{""num_scrambled_semantic"":""8"",""num_scrambled_causal"":""4"",""num_scrambled_schematic"":""4"",""participantId"":""CE95632B40AE4ABDBD33010653E26936"",""assignmentId"":""7e20b2f7-220e-41e7-9d1e-6277488dd617"",""projectId"":""a9f3d40c-5730-405c-b25e-1034c4c56f3f""}","https://test12345.live/?num_scrambled_semantic=8&num_scrambled_causal=4&num_scrambled_schematic=4&participantId=CE95632B40AE4ABDBD33010653E26936&assignmentId=7e20b2f7-220e-41e7-9d1e-6277488dd617&projectId=a9f3d40c-5730-405c-b25e-1034c4c56f3f","CE95632B40AE4ABDBD33010653E26936-2025-08-07-19-34-55","","1020","","images/causal_sequence/package_causal/package_causal_6.png","0","",""
"","","","","","image-button-response","42","720384","0.0-10.0-1.0-2.5","CE95632B40AE4ABDBD33010653E26936","CE95632B40AE4ABDBD33010653E26936","7e20b2f7-220e-41e7-9d1e-6277488dd617","a9f3d40c-5730-405c-b25e-1034c4c56f3f","{""num_scrambled_semantic"":""8"",""num_scrambled_causal"":""4"",""num_scrambled_schematic"":""4"",""participantId"":""CE95632B40AE4ABDBD33010653E26936"",""assignmentId"":""7e20b2f7-220e-41e7-9d1e-6277488dd617"",""projectId"":""a9f3d40c-5730-405c-b25e-1034c4c56f3f""}","https://test12345.live/?num_scrambled_semantic=8&num_scrambled_causal=4&num_scrambled_schematic=4&participantId=CE95632B40AE4ABDBD33010653E26936&assignmentId=7e20b2f7-220e-41e7-9d1e-6277488dd617&projectId=a9f3d40c-5730-405c-b25e-1034c4c56f3f","CE95632B40AE4ABDBD33010653E26936-2025-08-07-19-34-55","","null","","[]","null","",""
"","","","","","image-button-response","43","724890","0.0-10.0-1.0-0.6","CE95632B40AE4ABDBD33010653E26936","CE95632B40AE4ABDBD33010653E26936","7e20b2f7-220e-41e7-9d1e-6277488dd617","a9f3d40c-5730-405c-b25e-1034c4c56f3f","{""num_scrambled_semantic"":""8"",""num_scrambled_causal"":""4"",""num_scrambled_schematic"":""4"",""participantId"":""CE95632B40AE4ABDBD33010653E26936"",""assignmentId"":""7e20b2f7-220e-41e7-9d1e-6277488dd617"",""projectId"":""a9f3d40c-5730-405c-b25e-1034c4c56f3f""}","https://test12345.live/?num_scrambled_semantic=8&num_scrambled_causal=4&num_scrambled_schematic=4&participantId=CE95632B40AE4ABDBD33010653E26936&assignmentId=7e20b2f7-220e-41e7-9d1e-6277488dd617&projectId=a9f3d40c-5730-405c-b25e-1034c4c56f3f","CE95632B40AE4ABDBD33010653E26936-2025-08-07-19-34-55","","null","","images/causal_sequence/package_causal/package_causal_7.png","null","",""
"","","","","","image-button-response","44","725864","0.0-10.0-1.0-1.6","CE95632B40AE4ABDBD33010653E26936","CE95632B40AE4ABDBD33010653E26936","7e20b2f7-220e-41e7-9d1e-6277488dd617","a9f3d40c-5730-405c-b25e-1034c4c56f3f","{""num_scrambled_semantic"":""8"",""num_scrambled_causal"":""4"",""num_scrambled_schematic"":""4"",""participantId"":""CE95632B40AE4ABDBD33010653E26936"",""assignmentId"":""7e20b2f7-220e-41e7-9d1e-6277488dd617"",""projectId"":""a9f3d40c-5730-405c-b25e-1034c4c56f3f""}","https://test12345.live/?num_scrambled_semantic=8&num_scrambled_causal=4&num_scrambled_schematic=4&participantId=CE95632B40AE4ABDBD33010653E26936&assignmentId=7e20b2f7-220e-41e7-9d1e-6277488dd617&projectId=a9f3d40c-5730-405c-b25e-1034c4c56f3f","CE95632B40AE4ABDBD33010653E26936-2025-08-07-19-34-55","","972","","images/causal_sequence/package_causal/package_causal_7.png","0","",""
"","","","","","image-button-response","45","727669","0.0-10.0-1.0-2.6","CE95632B40AE4ABDBD33010653E26936","CE95632B40AE4ABDBD33010653E26936","7e20b2f7-220e-41e7-9d1e-6277488dd617","a9f3d40c-5730-405c-b25e-1034c4c56f3f","{""num_scrambled_semantic"":""8"",""num_scrambled_causal"":""4"",""num_scrambled_schematic"":""4"",""participantId"":""CE95632B40AE4ABDBD33010653E26936"",""assignmentId"":""7e20b2f7-220e-41e7-9d1e-6277488dd617"",""projectId"":""a9f3d40c-5730-405c-b25e-1034c4c56f3f""}","https://test12345.live/?num_scrambled_semantic=8&num_scrambled_causal=4&num_scrambled_schematic=4&participantId=CE95632B40AE4ABDBD33010653E26936&assignmentId=7e20b2f7-220e-41e7-9d1e-6277488dd617&projectId=a9f3d40c-5730-405c-b25e-1034c4c56f3f","CE95632B40AE4ABDBD33010653E26936-2025-08-07-19-34-55","","null","","[]","null","",""
"","","","","","image-button-response","46","732176","0.0-10.0-1.0-0.7","CE95632B40AE4ABDBD33010653E26936","CE95632B40AE4ABDBD33010653E26936","7e20b2f7-220e-41e7-9d1e-6277488dd617","a9f3d40c-5730-405c-b25e-1034c4c56f3f","{""num_scrambled_semantic"":""8"",""num_scrambled_causal"":""4"",""num_scrambled_schematic"":""4"",""participantId"":""CE95632B40AE4ABDBD33010653E26936"",""assignmentId"":""7e20b2f7-220e-41e7-9d1e-6277488dd617"",""projectId"":""a9f3d40c-5730-405c-b25e-1034c4c56f3f""}","https://test12345.live/?num_scrambled_semantic=8&num_scrambled_causal=4&num_scrambled_schematic=4&participantId=CE95632B40AE4ABDBD33010653E26936&assignmentId=7e20b2f7-220e-41e7-9d1e-6277488dd617&projectId=a9f3d40c-5730-405c-b25e-1034c4c56f3f","CE95632B40AE4ABDBD33010653E26936-2025-08-07-19-34-55","","null","","images/causal_sequence/package_causal/package_causal_8.png","null","",""
"","","","","","image-button-response","47","732979","0.0-10.0-1.0-1.7","CE95632B40AE4ABDBD33010653E26936","CE95632B40AE4ABDBD33010653E26936","7e20b2f7-220e-41e7-9d1e-6277488dd617","a9f3d40c-5730-405c-b25e-1034c4c56f3f","{""num_scrambled_semantic"":""8"",""num_scrambled_causal"":""4"",""num_scrambled_schematic"":""4"",""participantId"":""CE95632B40AE4ABDBD33010653E26936"",""assignmentId"":""7e20b2f7-220e-41e7-9d1e-6277488dd617"",""projectId"":""a9f3d40c-5730-405c-b25e-1034c4c56f3f""}","https://test12345.live/?num_scrambled_semantic=8&num_scrambled_causal=4&num_scrambled_schematic=4&participantId=CE95632B40AE4ABDBD33010653E26936&assignmentId=7e20b2f7-220e-41e7-9d1e-6277488dd617&projectId=a9f3d40c-5730-405c-b25e-1034c4c56f3f","CE95632B40AE4ABDBD33010653E26936-2025-08-07-19-34-55","","801","","images/causal_sequence/package_causal/package_causal_8.png","0","",""
"","","","","","image-button-response","48","734786","0.0-10.0-1.0-2.7","CE95632B40AE4ABDBD33010653E26936","CE95632B40AE4ABDBD33010653E26936","7e20b2f7-220e-41e7-9d1e-6277488dd617","a9f3d40c-5730-405c-b25e-1034c4c56f3f","{""num_scrambled_semantic"":""8"",""num_scrambled_causal"":""4"",""num_scrambled_schematic"":""4"",""participantId"":""CE95632B40AE4ABDBD33010653E26936"",""assignmentId"":""7e20b2f7-220e-41e7-9d1e-6277488dd617"",""projectId"":""a9f3d40c-5730-405c-b25e-1034c4c56f3f""}","https://test12345.live/?num_scrambled_semantic=8&num_scrambled_causal=4&num_scrambled_schematic=4&participantId=CE95632B40AE4ABDBD33010653E26936&assignmentId=7e20b2f7-220e-41e7-9d1e-6277488dd617&projectId=a9f3d40c-5730-405c-b25e-1034c4c56f3f","CE95632B40AE4ABDBD33010653E26936-2025-08-07-19-34-55","","null","","[]","null","",""
"","","","","","image-button-response","49","739293","0.0-10.0-1.0-0.8","CE95632B40AE4ABDBD33010653E26936","CE95632B40AE4ABDBD33010653E26936","7e20b2f7-220e-41e7-9d1e-6277488dd617","a9f3d40c-5730-405c-b25e-1034c4c56f3f","{""num_scrambled_semantic"":""8"",""num_scrambled_causal"":""4"",""num_scrambled_schematic"":""4"",""participantId"":""CE95632B40AE4ABDBD33010653E26936"",""assignmentId"":""7e20b2f7-220e-41e7-9d1e-6277488dd617"",""projectId"":""a9f3d40c-5730-405c-b25e-1034c4c56f3f""}","https://test12345.live/?num_scrambled_semantic=8&num_scrambled_causal=4&num_scrambled_schematic=4&participantId=CE95632B40AE4ABDBD33010653E26936&assignmentId=7e20b2f7-220e-41e7-9d1e-6277488dd617&projectId=a9f3d40c-5730-405c-b25e-1034c4c56f3f","CE95632B40AE4ABDBD33010653E26936-2025-08-07-19-34-55","","null","","images/causal_sequence/package_causal/package_causal_9.png","null","",""
"","","","","","image-button-response","50","739995","0.0-10.0-1.0-1.8","CE95632B40AE4ABDBD33010653E26936","CE95632B40AE4ABDBD33010653E26936","7e20b2f7-220e-41e7-9d1e-6277488dd617","a9f3d40c-5730-405c-b25e-1034c4c56f3f","{""num_scrambled_semantic"":""8"",""num_scrambled_causal"":""4"",""num_scrambled_schematic"":""4"",""participantId"":""CE95632B40AE4ABDBD33010653E26936"",""assignmentId"":""7e20b2f7-220e-41e7-9d1e-6277488dd617"",""projectId"":""a9f3d40c-5730-405c-b25e-1034c4c56f3f""}","https://test12345.live/?num_scrambled_semantic=8&num_scrambled_causal=4&num_scrambled_schematic=4&participantId=CE95632B40AE4ABDBD33010653E26936&assignmentId=7e20b2f7-220e-41e7-9d1e-6277488dd617&projectId=a9f3d40c-5730-405c-b25e-1034c4c56f3f","CE95632B40AE4ABDBD33010653E26936-2025-08-07-19-34-55","","702","","images/causal_sequence/package_causal/package_causal_9.png","0","",""
"","","","","","image-button-response","51","741797","0.0-10.0-1.0-2.8","CE95632B40AE4ABDBD33010653E26936","CE95632B40AE4ABDBD33010653E26936","7e20b2f7-220e-41e7-9d1e-6277488dd617","a9f3d40c-5730-405c-b25e-1034c4c56f3f","{""num_scrambled_semantic"":""8"",""num_scrambled_causal"":""4"",""num_scrambled_schematic"":""4"",""participantId"":""CE95632B40AE4ABDBD33010653E26936"",""assignmentId"":""7e20b2f7-220e-41e7-9d1e-6277488dd617"",""projectId"":""a9f3d40c-5730-405c-b25e-1034c4c56f3f""}","https://test12345.live/?num_scrambled_semantic=8&num_scrambled_causal=4&num_scrambled_schematic=4&participantId=CE95632B40AE4ABDBD33010653E26936&assignmentId=7e20b2f7-220e-41e7-9d1e-6277488dd617&projectId=a9f3d40c-5730-405c-b25e-1034c4c56f3f","CE95632B40AE4ABDBD33010653E26936-2025-08-07-19-34-55","","null","","[]","null","",""
"","","","","","image-button-response","52","746299","0.0-10.0-1.0-0.9","CE95632B40AE4ABDBD33010653E26936","CE95632B40AE4ABDBD33010653E26936","7e20b2f7-220e-41e7-9d1e-6277488dd617","a9f3d40c-5730-405c-b25e-1034c4c56f3f","{""num_scrambled_semantic"":""8"",""num_scrambled_causal"":""4"",""num_scrambled_schematic"":""4"",""participantId"":""CE95632B40AE4ABDBD33010653E26936"",""assignmentId"":""7e20b2f7-220e-41e7-9d1e-6277488dd617"",""projectId"":""a9f3d40c-5730-405c-b25e-1034c4c56f3f""}","https://test12345.live/?num_scrambled_semantic=8&num_scrambled_causal=4&num_scrambled_schematic=4&participantId=CE95632B40AE4ABDBD33010653E26936&assignmentId=7e20b2f7-220e-41e7-9d1e-6277488dd617&projectId=a9f3d40c-5730-405c-b25e-1034c4c56f3f","CE95632B40AE4ABDBD33010653E26936-2025-08-07-19-34-55","","null","","images/causal_sequence/package_causal/package_causal_ten.png","null","",""
"","","","","","image-button-response","53","747047","0.0-10.0-1.0-1.9","CE95632B40AE4ABDBD33010653E26936","CE95632B40AE4ABDBD33010653E26936","7e20b2f7-220e-41e7-9d1e-6277488dd617","a9f3d40c-5730-405c-b25e-1034c4c56f3f","{""num_scrambled_semantic"":""8"",""num_scrambled_causal"":""4"",""num_scrambled_schematic"":""4"",""participantId"":""CE95632B40AE4ABDBD33010653E26936"",""assignmentId"":""7e20b2f7-220e-41e7-9d1e-6277488dd617"",""projectId"":""a9f3d40c-5730-405c-b25e-1034c4c56f3f""}","https://test12345.live/?num_scrambled_semantic=8&num_scrambled_causal=4&num_scrambled_schematic=4&participantId=CE95632B40AE4ABDBD33010653E26936&assignmentId=7e20b2f7-220e-41e7-9d1e-6277488dd617&projectId=a9f3d40c-5730-405c-b25e-1034c4c56f3f","CE95632B40AE4ABDBD33010653E26936-2025-08-07-19-34-55","","747","","images/causal_sequence/package_causal/package_causal_ten.png","0","",""
"","","","","","image-button-response","54","748854","0.0-10.0-1.0-2.9","CE95632B40AE4ABDBD33010653E26936","CE95632B40AE4ABDBD33010653E26936","7e20b2f7-220e-41e7-9d1e-6277488dd617","a9f3d40c-5730-405c-b25e-1034c4c56f3f","{""num_scrambled_semantic"":""8"",""num_scrambled_causal"":""4"",""num_scrambled_schematic"":""4"",""participantId"":""CE95632B40AE4ABDBD33010653E26936"",""assignmentId"":""7e20b2f7-220e-41e7-9d1e-6277488dd617"",""projectId"":""a9f3d40c-5730-405c-b25e-1034c4c56f3f""}","https://test12345.live/?num_scrambled_semantic=8&num_scrambled_causal=4&num_scrambled_schematic=4&participantId=CE95632B40AE4ABDBD33010653E26936&assignmentId=7e20b2f7-220e-41e7-9d1e-6277488dd617&projectId=a9f3d40c-5730-405c-b25e-1034c4c56f3f","CE95632B40AE4ABDBD33010653E26936-2025-08-07-19-34-55","","null","","[]","null","",""
"","","","","","html-audio-response","55","839029","0.0-11.0","CE95632B40AE4ABDBD33010653E26936","CE95632B40AE4ABDBD33010653E26936","7e20b2f7-220e-41e7-9d1e-6277488dd617","a9f3d40c-5730-405c-b25e-1034c4c56f3f","{""num_scrambled_semantic"":""8"",""num_scrambled_causal"":""4"",""num_scrambled_schematic"":""4"",""participantId"":""CE95632B40AE4ABDBD33010653E26936"",""assignmentId"":""7e20b2f7-220e-41e7-9d1e-6277488dd617"",""projectId"":""a9f3d40c-5730-405c-b25e-1034c4c56f3f""}","https://test12345.live/?num_scrambled_semantic=8&num_scrambled_causal=4&num_scrambled_schematic=4&participantId=CE95632B40AE4ABDBD33010653E26936&assignmentId=7e20b2f7-220e-41e7-9d1e-6277488dd617&projectId=a9f3d40c-5730-405c-b25e-1034c4c56f3f","CE95632B40AE4ABDBD33010653E26936-2025-08-07-19-34-55","","44357","","[""<span style=\""color: red; font-size: 24px\""> NOW RECORDING</span><p>Please say out loud all the images you saw, as many as you can remember. The images can be said in any order.</p>""]","","1","package_causal"
"","","","","","image-button-response","56","845040","0.0-12.0-0.0","CE95632B40AE4ABDBD33010653E26936","CE95632B40AE4ABDBD33010653E26936","7e20b2f7-220e-41e7-9d1e-6277488dd617","a9f3d40c-5730-405c-b25e-1034c4c56f3f","{""num_scrambled_semantic"":""8"",""num_scrambled_causal"":""4"",""num_scrambled_schematic"":""4"",""participantId"":""CE95632B40AE4ABDBD33010653E26936"",""assignmentId"":""7e20b2f7-220e-41e7-9d1e-6277488dd617"",""projectId"":""a9f3d40c-5730-405c-b25e-1034c4c56f3f""}","https://test12345.live/?num_scrambled_semantic=8&num_scrambled_causal=4&num_scrambled_schematic=4&participantId=CE95632B40AE4ABDBD33010653E26936&assignmentId=7e20b2f7-220e-41e7-9d1e-6277488dd617&projectId=a9f3d40c-5730-405c-b25e-1034c4c56f3f","CE95632B40AE4ABDBD33010653E26936-2025-08-07-19-34-55","","null","","images/semantic_sequence/physical_activity_semantic/physical_activity_semantic_0.png","null","",""
"","","","","","image-button-response","57","849545","0.0-12.0-1.0-0.0","CE95632B40AE4ABDBD33010653E26936","CE95632B40AE4ABDBD33010653E26936","7e20b2f7-220e-41e7-9d1e-6277488dd617","a9f3d40c-5730-405c-b25e-1034c4c56f3f","{""num_scrambled_semantic"":""8"",""num_scrambled_causal"":""4"",""num_scrambled_schematic"":""4"",""participantId"":""CE95632B40AE4ABDBD33010653E26936"",""assignmentId"":""7e20b2f7-220e-41e7-9d1e-6277488dd617"",""projectId"":""a9f3d40c-5730-405c-b25e-1034c4c56f3f""}","https://test12345.live/?num_scrambled_semantic=8&num_scrambled_causal=4&num_scrambled_schematic=4&participantId=CE95632B40AE4ABDBD33010653E26936&assignmentId=7e20b2f7-220e-41e7-9d1e-6277488dd617&projectId=a9f3d40c-5730-405c-b25e-1034c4c56f3f","CE95632B40AE4ABDBD33010653E26936-2025-08-07-19-34-55","","null","","images/semantic_sequence/physical_activity_semantic/physical_activity_semantic_9.png","null","",""
"","","","","","image-button-response","58","851148","0.0-12.0-1.0-1.0","CE95632B40AE4ABDBD33010653E26936","CE95632B40AE4ABDBD33010653E26936","7e20b2f7-220e-41e7-9d1e-6277488dd617","a9f3d40c-5730-405c-b25e-1034c4c56f3f","{""num_scrambled_semantic"":""8"",""num_scrambled_causal"":""4"",""num_scrambled_schematic"":""4"",""participantId"":""CE95632B40AE4ABDBD33010653E26936"",""assignmentId"":""7e20b2f7-220e-41e7-9d1e-6277488dd617"",""projectId"":""a9f3d40c-5730-405c-b25e-1034c4c56f3f""}","https://test12345.live/?num_scrambled_semantic=8&num_scrambled_causal=4&num_scrambled_schematic=4&participantId=CE95632B40AE4ABDBD33010653E26936&assignmentId=7e20b2f7-220e-41e7-9d1e-6277488dd617&projectId=a9f3d40c-5730-405c-b25e-1034c4c56f3f","CE95632B40AE4ABDBD33010653E26936-2025-08-07-19-34-55","","1601","","images/semantic_sequence/physical_activity_semantic/physical_activity_semantic_9.png","0","",""
"","","","","","image-button-response","59","852950","0.0-12.0-1.0-2.0","CE95632B40AE4ABDBD33010653E26936","CE95632B40AE4ABDBD33010653E26936","7e20b2f7-220e-41e7-9d1e-6277488dd617","a9f3d40c-5730-405c-b25e-1034c4c56f3f","{""num_scrambled_semantic"":""8"",""num_scrambled_causal"":""4"",""num_scrambled_schematic"":""4"",""participantId"":""CE95632B40AE4ABDBD33010653E26936"",""assignmentId"":""7e20b2f7-220e-41e7-9d1e-6277488dd617"",""projectId"":""a9f3d40c-5730-405c-b25e-1034c4c56f3f""}","https://test12345.live/?num_scrambled_semantic=8&num_scrambled_causal=4&num_scrambled_schematic=4&participantId=CE95632B40AE4ABDBD33010653E26936&assignmentId=7e20b2f7-220e-41e7-9d1e-6277488dd617&projectId=a9f3d40c-5730-405c-b25e-1034c4c56f3f","CE95632B40AE4ABDBD33010653E26936-2025-08-07-19-34-55","","null","","[]","null","",""
"","","","","","image-button-response","60","857457","0.0-12.0-1.0-0.1","CE95632B40AE4ABDBD33010653E26936","CE95632B40AE4ABDBD33010653E26936","7e20b2f7-220e-41e7-9d1e-6277488dd617","a9f3d40c-5730-405c-b25e-1034c4c56f3f","{""num_scrambled_semantic"":""8"",""num_scrambled_causal"":""4"",""num_scrambled_schematic"":""4"",""participantId"":""CE95632B40AE4ABDBD33010653E26936"",""assignmentId"":""7e20b2f7-220e-41e7-9d1e-6277488dd617"",""projectId"":""a9f3d40c-5730-405c-b25e-1034c4c56f3f""}","https://test12345.live/?num_scrambled_semantic=8&num_scrambled_causal=4&num_scrambled_schematic=4&participantId=CE95632B40AE4ABDBD33010653E26936&assignmentId=7e20b2f7-220e-41e7-9d1e-6277488dd617&projectId=a9f3d40c-5730-405c-b25e-1034c4c56f3f","CE95632B40AE4ABDBD33010653E26936-2025-08-07-19-34-55","","null","","images/semantic_sequence/physical_activity_semantic/physical_activity_semantic_3.png","null","",""
"","","","","","image-button-response","61","859179","0.0-12.0-1.0-1.1","CE95632B40AE4ABDBD33010653E26936","CE95632B40AE4ABDBD33010653E26936","7e20b2f7-220e-41e7-9d1e-6277488dd617","a9f3d40c-5730-405c-b25e-1034c4c56f3f","{""num_scrambled_semantic"":""8"",""num_scrambled_causal"":""4"",""num_scrambled_schematic"":""4"",""participantId"":""CE95632B40AE4ABDBD33010653E26936"",""assignmentId"":""7e20b2f7-220e-41e7-9d1e-6277488dd617"",""projectId"":""a9f3d40c-5730-405c-b25e-1034c4c56f3f""}","https://test12345.live/?num_scrambled_semantic=8&num_scrambled_causal=4&num_scrambled_schematic=4&participantId=CE95632B40AE4ABDBD33010653E26936&assignmentId=7e20b2f7-220e-41e7-9d1e-6277488dd617&projectId=a9f3d40c-5730-405c-b25e-1034c4c56f3f","CE95632B40AE4ABDBD33010653E26936-2025-08-07-19-34-55","","1719","","images/semantic_sequence/physical_activity_semantic/physical_activity_semantic_3.png","0","",""
"","","","","","image-button-response","62","860986","0.0-12.0-1.0-2.1","CE95632B40AE4ABDBD33010653E26936","CE95632B40AE4ABDBD33010653E26936","7e20b2f7-220e-41e7-9d1e-6277488dd617","a9f3d40c-5730-405c-b25e-1034c4c56f3f","{""num_scrambled_semantic"":""8"",""num_scrambled_causal"":""4"",""num_scrambled_schematic"":""4"",""participantId"":""CE95632B40AE4ABDBD33010653E26936"",""assignmentId"":""7e20b2f7-220e-41e7-9d1e-6277488dd617"",""projectId"":""a9f3d40c-5730-405c-b25e-1034c4c56f3f""}","https://test12345.live/?num_scrambled_semantic=8&num_scrambled_causal=4&num_scrambled_schematic=4&participantId=CE95632B40AE4ABDBD33010653E26936&assignmentId=7e20b2f7-220e-41e7-9d1e-6277488dd617&projectId=a9f3d40c-5730-405c-b25e-1034c4c56f3f","CE95632B40AE4ABDBD33010653E26936-2025-08-07-19-34-55","","null","","[]","null","",""
"","","","","","image-button-response","63","865491","0.0-12.0-1.0-0.2","CE95632B40AE4ABDBD33010653E26936","CE95632B40AE4ABDBD33010653E26936","7e20b2f7-220e-41e7-9d1e-6277488dd617","a9f3d40c-5730-405c-b25e-1034c4c56f3f","{""num_scrambled_semantic"":""8"",""num_scrambled_causal"":""4"",""num_scrambled_schematic"":""4"",""participantId"":""CE95632B40AE4ABDBD33010653E26936"",""assignmentId"":""7e20b2f7-220e-41e7-9d1e-6277488dd617"",""projectId"":""a9f3d40c-5730-405c-b25e-1034c4c56f3f""}","https://test12345.live/?num_scrambled_semantic=8&num_scrambled_causal=4&num_scrambled_schematic=4&participantId=CE95632B40AE4ABDBD33010653E26936&assignmentId=7e20b2f7-220e-41e7-9d1e-6277488dd617&projectId=a9f3d40c-5730-405c-b25e-1034c4c56f3f","CE95632B40AE4ABDBD33010653E26936-2025-08-07-19-34-55","","null","","images/semantic_sequence/physical_activity_semantic/physical_activity_semantic_7.png","null","",""
"","","","","","image-button-response","64","866727","0.0-12.0-1.0-1.2","CE95632B40AE4ABDBD33010653E26936","CE95632B40AE4ABDBD33010653E26936","7e20b2f7-220e-41e7-9d1e-6277488dd617","a9f3d40c-5730-405c-b25e-1034c4c56f3f","{""num_scrambled_semantic"":""8"",""num_scrambled_causal"":""4"",""num_scrambled_schematic"":""4"",""participantId"":""CE95632B40AE4ABDBD33010653E26936"",""assignmentId"":""7e20b2f7-220e-41e7-9d1e-6277488dd617"",""projectId"":""a9f3d40c-5730-405c-b25e-1034c4c56f3f""}","https://test12345.live/?num_scrambled_semantic=8&num_scrambled_causal=4&num_scrambled_schematic=4&participantId=CE95632B40AE4ABDBD33010653E26936&assignmentId=7e20b2f7-220e-41e7-9d1e-6277488dd617&projectId=a9f3d40c-5730-405c-b25e-1034c4c56f3f","CE95632B40AE4ABDBD33010653E26936-2025-08-07-19-34-55","","1234","","images/semantic_sequence/physical_activity_semantic/physical_activity_semantic_7.png","0","",""
"","","","","","image-button-response","65","868534","0.0-12.0-1.0-2.2","CE95632B40AE4ABDBD33010653E26936","CE95632B40AE4ABDBD33010653E26936","7e20b2f7-220e-41e7-9d1e-6277488dd617","a9f3d40c-5730-405c-b25e-1034c4c56f3f","{""num_scrambled_semantic"":""8"",""num_scrambled_causal"":""4"",""num_scrambled_schematic"":""4"",""participantId"":""CE95632B40AE4ABDBD33010653E26936"",""assignmentId"":""7e20b2f7-220e-41e7-9d1e-6277488dd617"",""projectId"":""a9f3d40c-5730-405c-b25e-1034c4c56f3f""}","https://test12345.live/?num_scrambled_semantic=8&num_scrambled_causal=4&num_scrambled_schematic=4&participantId=CE95632B40AE4ABDBD33010653E26936&assignmentId=7e20b2f7-220e-41e7-9d1e-6277488dd617&projectId=a9f3d40c-5730-405c-b25e-1034c4c56f3f","CE95632B40AE4ABDBD33010653E26936-2025-08-07-19-34-55","","null","","[]","null","",""
"","","","","","image-button-response","66","873041","0.0-12.0-1.0-0.3","CE95632B40AE4ABDBD33010653E26936","CE95632B40AE4ABDBD33010653E26936","7e20b2f7-220e-41e7-9d1e-6277488dd617","a9f3d40c-5730-405c-b25e-1034c4c56f3f","{""num_scrambled_semantic"":""8"",""num_scrambled_causal"":""4"",""num_scrambled_schematic"":""4"",""participantId"":""CE95632B40AE4ABDBD33010653E26936"",""assignmentId"":""7e20b2f7-220e-41e7-9d1e-6277488dd617"",""projectId"":""a9f3d40c-5730-405c-b25e-1034c4c56f3f""}","https://test12345.live/?num_scrambled_semantic=8&num_scrambled_causal=4&num_scrambled_schematic=4&participantId=CE95632B40AE4ABDBD33010653E26936&assignmentId=7e20b2f7-220e-41e7-9d1e-6277488dd617&projectId=a9f3d40c-5730-405c-b25e-1034c4c56f3f","CE95632B40AE4ABDBD33010653E26936-2025-08-07-19-34-55","","null","","images/semantic_sequence/physical_activity_semantic/physical_activity_semantic_ten.png","null","",""
"","","","","","image-button-response","67","873779","0.0-12.0-1.0-1.3","CE95632B40AE4ABDBD33010653E26936","CE95632B40AE4ABDBD33010653E26936","7e20b2f7-220e-41e7-9d1e-6277488dd617","a9f3d40c-5730-405c-b25e-1034c4c56f3f","{""num_scrambled_semantic"":""8"",""num_scrambled_causal"":""4"",""num_scrambled_schematic"":""4"",""participantId"":""CE95632B40AE4ABDBD33010653E26936"",""assignmentId"":""7e20b2f7-220e-41e7-9d1e-6277488dd617"",""projectId"":""a9f3d40c-5730-405c-b25e-1034c4c56f3f""}","https://test12345.live/?num_scrambled_semantic=8&num_scrambled_causal=4&num_scrambled_schematic=4&participantId=CE95632B40AE4ABDBD33010653E26936&assignmentId=7e20b2f7-220e-41e7-9d1e-6277488dd617&projectId=a9f3d40c-5730-405c-b25e-1034c4c56f3f","CE95632B40AE4ABDBD33010653E26936-2025-08-07-19-34-55","","736","","images/semantic_sequence/physical_activity_semantic/physical_activity_semantic_ten.png","0","",""
"","","","","","image-button-response","68","875584","0.0-12.0-1.0-2.3","CE95632B40AE4ABDBD33010653E26936","CE95632B40AE4ABDBD33010653E26936","7e20b2f7-220e-41e7-9d1e-6277488dd617","a9f3d40c-5730-405c-b25e-1034c4c56f3f","{""num_scrambled_semantic"":""8"",""num_scrambled_causal"":""4"",""num_scrambled_schematic"":""4"",""participantId"":""CE95632B40AE4ABDBD33010653E26936"",""assignmentId"":""7e20b2f7-220e-41e7-9d1e-6277488dd617"",""projectId"":""a9f3d40c-5730-405c-b25e-1034c4c56f3f""}","https://test12345.live/?num_scrambled_semantic=8&num_scrambled_causal=4&num_scrambled_schematic=4&participantId=CE95632B40AE4ABDBD33010653E26936&assignmentId=7e20b2f7-220e-41e7-9d1e-6277488dd617&projectId=a9f3d40c-5730-405c-b25e-1034c4c56f3f","CE95632B40AE4ABDBD33010653E26936-2025-08-07-19-34-55","","null","","[]","null","",""
"","","","","","image-button-response","69","880091","0.0-12.0-1.0-0.4","CE95632B40AE4ABDBD33010653E26936","CE95632B40AE4ABDBD33010653E26936","7e20b2f7-220e-41e7-9d1e-6277488dd617","a9f3d40c-5730-405c-b25e-1034c4c56f3f","{""num_scrambled_semantic"":""8"",""num_scrambled_causal"":""4"",""num_scrambled_schematic"":""4"",""participantId"":""CE95632B40AE4ABDBD33010653E26936"",""assignmentId"":""7e20b2f7-220e-41e7-9d1e-6277488dd617"",""projectId"":""a9f3d40c-5730-405c-b25e-1034c4c56f3f""}","https://test12345.live/?num_scrambled_semantic=8&num_scrambled_causal=4&num_scrambled_schematic=4&participantId=CE95632B40AE4ABDBD33010653E26936&assignmentId=7e20b2f7-220e-41e7-9d1e-6277488dd617&projectId=a9f3d40c-5730-405c-b25e-1034c4c56f3f","CE95632B40AE4ABDBD33010653E26936-2025-08-07-19-34-55","","null","","images/semantic_sequence/physical_activity_semantic/physical_activity_semantic_5.png","null","",""
"","","","","","image-button-response","70","881147","0.0-12.0-1.0-1.4","CE95632B40AE4ABDBD33010653E26936","CE95632B40AE4ABDBD33010653E26936","7e20b2f7-220e-41e7-9d1e-6277488dd617","a9f3d40c-5730-405c-b25e-1034c4c56f3f","{""num_scrambled_semantic"":""8"",""num_scrambled_causal"":""4"",""num_scrambled_schematic"":""4"",""participantId"":""CE95632B40AE4ABDBD33010653E26936"",""assignmentId"":""7e20b2f7-220e-41e7-9d1e-6277488dd617"",""projectId"":""a9f3d40c-5730-405c-b25e-1034c4c56f3f""}","https://test12345.live/?num_scrambled_semantic=8&num_scrambled_causal=4&num_scrambled_schematic=4&participantId=CE95632B40AE4ABDBD33010653E26936&assignmentId=7e20b2f7-220e-41e7-9d1e-6277488dd617&projectId=a9f3d40c-5730-405c-b25e-1034c4c56f3f","CE95632B40AE4ABDBD33010653E26936-2025-08-07-19-34-55","","1053","","images/semantic_sequence/physical_activity_semantic/physical_activity_semantic_5.png","0","",""
"","","","","","image-button-response","71","882954","0.0-12.0-1.0-2.4","CE95632B40AE4ABDBD33010653E26936","CE95632B40AE4ABDBD33010653E26936","7e20b2f7-220e-41e7-9d1e-6277488dd617","a9f3d40c-5730-405c-b25e-1034c4c56f3f","{""num_scrambled_semantic"":""8"",""num_scrambled_causal"":""4"",""num_scrambled_schematic"":""4"",""participantId"":""CE95632B40AE4ABDBD33010653E26936"",""assignmentId"":""7e20b2f7-220e-41e7-9d1e-6277488dd617"",""projectId"":""a9f3d40c-5730-405c-b25e-1034c4c56f3f""}","https://test12345.live/?num_scrambled_semantic=8&num_scrambled_causal=4&num_scrambled_schematic=4&participantId=CE95632B40AE4ABDBD33010653E26936&assignmentId=7e20b2f7-220e-41e7-9d1e-6277488dd617&projectId=a9f3d40c-5730-405c-b25e-1034c4c56f3f","CE95632B40AE4ABDBD33010653E26936-2025-08-07-19-34-55","","null","","[]","null","",""
"","","","","","image-button-response","72","887460","0.0-12.0-1.0-0.5","CE95632B40AE4ABDBD33010653E26936","CE95632B40AE4ABDBD33010653E26936","7e20b2f7-220e-41e7-9d1e-6277488dd617","a9f3d40c-5730-405c-b25e-1034c4c56f3f","{""num_scrambled_semantic"":""8"",""num_scrambled_causal"":""4"",""num_scrambled_schematic"":""4"",""participantId"":""CE95632B40AE4ABDBD33010653E26936"",""assignmentId"":""7e20b2f7-220e-41e7-9d1e-6277488dd617"",""projectId"":""a9f3d40c-5730-405c-b25e-1034c4c56f3f""}","https://test12345.live/?num_scrambled_semantic=8&num_scrambled_causal=4&num_scrambled_schematic=4&participantId=CE95632B40AE4ABDBD33010653E26936&assignmentId=7e20b2f7-220e-41e7-9d1e-6277488dd617&projectId=a9f3d40c-5730-405c-b25e-1034c4c56f3f","CE95632B40AE4ABDBD33010653E26936-2025-08-07-19-34-55","","null","","images/semantic_sequence/physical_activity_semantic/physical_activity_semantic_6.png","null","",""
"","","","","","image-button-response","73","890480","0.0-12.0-1.0-1.5","CE95632B40AE4ABDBD33010653E26936","CE95632B40AE4ABDBD33010653E26936","7e20b2f7-220e-41e7-9d1e-6277488dd617","a9f3d40c-5730-405c-b25e-1034c4c56f3f","{""num_scrambled_semantic"":""8"",""num_scrambled_causal"":""4"",""num_scrambled_schematic"":""4"",""participantId"":""CE95632B40AE4ABDBD33010653E26936"",""assignmentId"":""7e20b2f7-220e-41e7-9d1e-6277488dd617"",""projectId"":""a9f3d40c-5730-405c-b25e-1034c4c56f3f""}","https://test12345.live/?num_scrambled_semantic=8&num_scrambled_causal=4&num_scrambled_schematic=4&participantId=CE95632B40AE4ABDBD33010653E26936&assignmentId=7e20b2f7-220e-41e7-9d1e-6277488dd617&projectId=a9f3d40c-5730-405c-b25e-1034c4c56f3f","CE95632B40AE4ABDBD33010653E26936-2025-08-07-19-34-55","","3017","","images/semantic_sequence/physical_activity_semantic/physical_activity_semantic_6.png","0","",""
"","","","","","image-button-response","74","892283","0.0-12.0-1.0-2.5","CE95632B40AE4ABDBD33010653E26936","CE95632B40AE4ABDBD33010653E26936","7e20b2f7-220e-41e7-9d1e-6277488dd617","a9f3d40c-5730-405c-b25e-1034c4c56f3f","{""num_scrambled_semantic"":""8"",""num_scrambled_causal"":""4"",""num_scrambled_schematic"":""4"",""participantId"":""CE95632B40AE4ABDBD33010653E26936"",""assignmentId"":""7e20b2f7-220e-41e7-9d1e-6277488dd617"",""projectId"":""a9f3d40c-5730-405c-b25e-1034c4c56f3f""}","https://test12345.live/?num_scrambled_semantic=8&num_scrambled_causal=4&num_scrambled_schematic=4&participantId=CE95632B40AE4ABDBD33010653E26936&assignmentId=7e20b2f7-220e-41e7-9d1e-6277488dd617&projectId=a9f3d40c-5730-405c-b25e-1034c4c56f3f","CE95632B40AE4ABDBD33010653E26936-2025-08-07-19-34-55","","null","","[]","null","",""
"","","","","","image-button-response","75","896790","0.0-12.0-1.0-0.6","CE95632B40AE4ABDBD33010653E26936","CE95632B40AE4ABDBD33010653E26936","7e20b2f7-220e-41e7-9d1e-6277488dd617","a9f3d40c-5730-405c-b25e-1034c4c56f3f","{""num_scrambled_semantic"":""8"",""num_scrambled_causal"":""4"",""num_scrambled_schematic"":""4"",""participantId"":""CE95632B40AE4ABDBD33010653E26936"",""assignmentId"":""7e20b2f7-220e-41e7-9d1e-6277488dd617"",""projectId"":""a9f3d40c-5730-405c-b25e-1034c4c56f3f""}","https://test12345.live/?num_scrambled_semantic=8&num_scrambled_causal=4&num_scrambled_schematic=4&participantId=CE95632B40AE4ABDBD33010653E26936&assignmentId=7e20b2f7-220e-41e7-9d1e-6277488dd617&projectId=a9f3d40c-5730-405c-b25e-1034c4c56f3f","CE95632B40AE4ABDBD33010653E26936-2025-08-07-19-34-55","","null","","images/semantic_sequence/physical_activity_semantic/physical_activity_semantic_4.png","null","",""
"","","","","","image-button-response","76","897733","0.0-12.0-1.0-1.6","CE95632B40AE4ABDBD33010653E26936","CE95632B40AE4ABDBD33010653E26936","7e20b2f7-220e-41e7-9d1e-6277488dd617","a9f3d40c-5730-405c-b25e-1034c4c56f3f","{""num_scrambled_semantic"":""8"",""num_scrambled_causal"":""4"",""num_scrambled_schematic"":""4"",""participantId"":""CE95632B40AE4ABDBD33010653E26936"",""assignmentId"":""7e20b2f7-220e-41e7-9d1e-6277488dd617"",""projectId"":""a9f3d40c-5730-405c-b25e-1034c4c56f3f""}","https://test12345.live/?num_scrambled_semantic=8&num_scrambled_causal=4&num_scrambled_schematic=4&participantId=CE95632B40AE4ABDBD33010653E26936&assignmentId=7e20b2f7-220e-41e7-9d1e-6277488dd617&projectId=a9f3d40c-5730-405c-b25e-1034c4c56f3f","CE95632B40AE4ABDBD33010653E26936-2025-08-07-19-34-55","","941","","images/semantic_sequence/physical_activity_semantic/physical_activity_semantic_4.png","0","",""
"","","","","","image-button-response","77","899538","0.0-12.0-1.0-2.6","CE95632B40AE4ABDBD33010653E26936","CE95632B40AE4ABDBD33010653E26936","7e20b2f7-220e-41e7-9d1e-6277488dd617","a9f3d40c-5730-405c-b25e-1034c4c56f3f","{""num_scrambled_semantic"":""8"",""num_scrambled_causal"":""4"",""num_scrambled_schematic"":""4"",""participantId"":""CE95632B40AE4ABDBD33010653E26936"",""assignmentId"":""7e20b2f7-220e-41e7-9d1e-6277488dd617"",""projectId"":""a9f3d40c-5730-405c-b25e-1034c4c56f3f""}","https://test12345.live/?num_scrambled_semantic=8&num_scrambled_causal=4&num_scrambled_schematic=4&participantId=CE95632B40AE4ABDBD33010653E26936&assignmentId=7e20b2f7-220e-41e7-9d1e-6277488dd617&projectId=a9f3d40c-5730-405c-b25e-1034c4c56f3f","CE95632B40AE4ABDBD33010653E26936-2025-08-07-19-34-55","","null","","[]","null","",""
"","","","","","image-button-response","78","904045","0.0-12.0-1.0-0.7","CE95632B40AE4ABDBD33010653E26936","CE95632B40AE4ABDBD33010653E26936","7e20b2f7-220e-41e7-9d1e-6277488dd617","a9f3d40c-5730-405c-b25e-1034c4c56f3f","{""num_scrambled_semantic"":""8"",""num_scrambled_causal"":""4"",""num_scrambled_schematic"":""4"",""participantId"":""CE95632B40AE4ABDBD33010653E26936"",""assignmentId"":""7e20b2f7-220e-41e7-9d1e-6277488dd617"",""projectId"":""a9f3d40c-5730-405c-b25e-1034c4c56f3f""}","https://test12345.live/?num_scrambled_semantic=8&num_scrambled_causal=4&num_scrambled_schematic=4&participantId=CE95632B40AE4ABDBD33010653E26936&assignmentId=7e20b2f7-220e-41e7-9d1e-6277488dd617&projectId=a9f3d40c-5730-405c-b25e-1034c4c56f3f","CE95632B40AE4ABDBD33010653E26936-2025-08-07-19-34-55","","null","","images/semantic_sequence/physical_activity_semantic/physical_activity_semantic_1.png","null","",""
"","","","","","image-button-response","79","905629","0.0-12.0-1.0-1.7","CE95632B40AE4ABDBD33010653E26936","CE95632B40AE4ABDBD33010653E26936","7e20b2f7-220e-41e7-9d1e-6277488dd617","a9f3d40c-5730-405c-b25e-1034c4c56f3f","{""num_scrambled_semantic"":""8"",""num_scrambled_causal"":""4"",""num_scrambled_schematic"":""4"",""participantId"":""CE95632B40AE4ABDBD33010653E26936"",""assignmentId"":""7e20b2f7-220e-41e7-9d1e-6277488dd617"",""projectId"":""a9f3d40c-5730-405c-b25e-1034c4c56f3f""}","https://test12345.live/?num_scrambled_semantic=8&num_scrambled_causal=4&num_scrambled_schematic=4&participantId=CE95632B40AE4ABDBD33010653E26936&assignmentId=7e20b2f7-220e-41e7-9d1e-6277488dd617&projectId=a9f3d40c-5730-405c-b25e-1034c4c56f3f","CE95632B40AE4ABDBD33010653E26936-2025-08-07-19-34-55","","1582","","images/semantic_sequence/physical_activity_semantic/physical_activity_semantic_1.png","0","",""
"","","","","","image-button-response","80","907430","0.0-12.0-1.0-2.7","CE95632B40AE4ABDBD33010653E26936","CE95632B40AE4ABDBD33010653E26936","7e20b2f7-220e-41e7-9d1e-6277488dd617","a9f3d40c-5730-405c-b25e-1034c4c56f3f","{""num_scrambled_semantic"":""8"",""num_scrambled_causal"":""4"",""num_scrambled_schematic"":""4"",""participantId"":""CE95632B40AE4ABDBD33010653E26936"",""assignmentId"":""7e20b2f7-220e-41e7-9d1e-6277488dd617"",""projectId"":""a9f3d40c-5730-405c-b25e-1034c4c56f3f""}","https://test12345.live/?num_scrambled_semantic=8&num_scrambled_causal=4&num_scrambled_schematic=4&participantId=CE95632B40AE4ABDBD33010653E26936&assignmentId=7e20b2f7-220e-41e7-9d1e-6277488dd617&projectId=a9f3d40c-5730-405c-b25e-1034c4c56f3f","CE95632B40AE4ABDBD33010653E26936-2025-08-07-19-34-55","","null","","[]","null","",""
"","","","","","image-button-response","81","911935","0.0-12.0-1.0-0.8","CE95632B40AE4ABDBD33010653E26936","CE95632B40AE4ABDBD33010653E26936","7e20b2f7-220e-41e7-9d1e-6277488dd617","a9f3d40c-5730-405c-b25e-1034c4c56f3f","{""num_scrambled_semantic"":""8"",""num_scrambled_causal"":""4"",""num_scrambled_schematic"":""4"",""participantId"":""CE95632B40AE4ABDBD33010653E26936"",""assignmentId"":""7e20b2f7-220e-41e7-9d1e-6277488dd617"",""projectId"":""a9f3d40c-5730-405c-b25e-1034c4c56f3f""}","https://test12345.live/?num_scrambled_semantic=8&num_scrambled_causal=4&num_scrambled_schematic=4&participantId=CE95632B40AE4ABDBD33010653E26936&assignmentId=7e20b2f7-220e-41e7-9d1e-6277488dd617&projectId=a9f3d40c-5730-405c-b25e-1034c4c56f3f","CE95632B40AE4ABDBD33010653E26936-2025-08-07-19-34-55","","null","","images/semantic_sequence/physical_activity_semantic/physical_activity_semantic_2.png","null","",""
"","","","","","image-button-response","82","913560","0.0-12.0-1.0-1.8","CE95632B40AE4ABDBD33010653E26936","CE95632B40AE4ABDBD33010653E26936","7e20b2f7-220e-41e7-9d1e-6277488dd617","a9f3d40c-5730-405c-b25e-1034c4c56f3f","{""num_scrambled_semantic"":""8"",""num_scrambled_causal"":""4"",""num_scrambled_schematic"":""4"",""participantId"":""CE95632B40AE4ABDBD33010653E26936"",""assignmentId"":""7e20b2f7-220e-41e7-9d1e-6277488dd617"",""projectId"":""a9f3d40c-5730-405c-b25e-1034c4c56f3f""}","https://test12345.live/?num_scrambled_semantic=8&num_scrambled_causal=4&num_scrambled_schematic=4&participantId=CE95632B40AE4ABDBD33010653E26936&assignmentId=7e20b2f7-220e-41e7-9d1e-6277488dd617&projectId=a9f3d40c-5730-405c-b25e-1034c4c56f3f","CE95632B40AE4ABDBD33010653E26936-2025-08-07-19-34-55","","1622","","images/semantic_sequence/physical_activity_semantic/physical_activity_semantic_2.png","0","",""
"","","","","","image-button-response","83","915363","0.0-12.0-1.0-2.8","CE95632B40AE4ABDBD33010653E26936","CE95632B40AE4ABDBD33010653E26936","7e20b2f7-220e-41e7-9d1e-6277488dd617","a9f3d40c-5730-405c-b25e-1034c4c56f3f","{""num_scrambled_semantic"":""8"",""num_scrambled_causal"":""4"",""num_scrambled_schematic"":""4"",""participantId"":""CE95632B40AE4ABDBD33010653E26936"",""assignmentId"":""7e20b2f7-220e-41e7-9d1e-6277488dd617"",""projectId"":""a9f3d40c-5730-405c-b25e-1034c4c56f3f""}","https://test12345.live/?num_scrambled_semantic=8&num_scrambled_causal=4&num_scrambled_schematic=4&participantId=CE95632B40AE4ABDBD33010653E26936&assignmentId=7e20b2f7-220e-41e7-9d1e-6277488dd617&projectId=a9f3d40c-5730-405c-b25e-1034c4c56f3f","CE95632B40AE4ABDBD33010653E26936-2025-08-07-19-34-55","","null","","[]","null","",""
"","","","","","image-button-response","84","919870","0.0-12.0-1.0-0.9","CE95632B40AE4ABDBD33010653E26936","CE95632B40AE4ABDBD33010653E26936","7e20b2f7-220e-41e7-9d1e-6277488dd617","a9f3d40c-5730-405c-b25e-1034c4c56f3f","{""num_scrambled_semantic"":""8"",""num_scrambled_causal"":""4"",""num_scrambled_schematic"":""4"",""participantId"":""CE95632B40AE4ABDBD33010653E26936"",""assignmentId"":""7e20b2f7-220e-41e7-9d1e-6277488dd617"",""projectId"":""a9f3d40c-5730-405c-b25e-1034c4c56f3f""}","https://test12345.live/?num_scrambled_semantic=8&num_scrambled_causal=4&num_scrambled_schematic=4&participantId=CE95632B40AE4ABDBD33010653E26936&assignmentId=7e20b2f7-220e-41e7-9d1e-6277488dd617&projectId=a9f3d40c-5730-405c-b25e-1034c4c56f3f","CE95632B40AE4ABDBD33010653E26936-2025-08-07-19-34-55","","null","","images/semantic_sequence/physical_activity_semantic/physical_activity_semantic_8.png","null","",""
"","","","","","image-button-response","85","920696","0.0-12.0-1.0-1.9","CE95632B40AE4ABDBD33010653E26936","CE95632B40AE4ABDBD33010653E26936","7e20b2f7-220e-41e7-9d1e-6277488dd617","a9f3d40c-5730-405c-b25e-1034c4c56f3f","{""num_scrambled_semantic"":""8"",""num_scrambled_causal"":""4"",""num_scrambled_schematic"":""4"",""participantId"":""CE95632B40AE4ABDBD33010653E26936"",""assignmentId"":""7e20b2f7-220e-41e7-9d1e-6277488dd617"",""projectId"":""a9f3d40c-5730-405c-b25e-1034c4c56f3f""}","https://test12345.live/?num_scrambled_semantic=8&num_scrambled_causal=4&num_scrambled_schematic=4&participantId=CE95632B40AE4ABDBD33010653E26936&assignmentId=7e20b2f7-220e-41e7-9d1e-6277488dd617&projectId=a9f3d40c-5730-405c-b25e-1034c4c56f3f","CE95632B40AE4ABDBD33010653E26936-2025-08-07-19-34-55","","823","","images/semantic_sequence/physical_activity_semantic/physical_activity_semantic_8.png","0","",""
"","","","","","image-button-response","86","922501","0.0-12.0-1.0-2.9","CE95632B40AE4ABDBD33010653E26936","CE95632B40AE4ABDBD33010653E26936","7e20b2f7-220e-41e7-9d1e-6277488dd617","a9f3d40c-5730-405c-b25e-1034c4c56f3f","{""num_scrambled_semantic"":""8"",""num_scrambled_causal"":""4"",""num_scrambled_schematic"":""4"",""participantId"":""CE95632B40AE4ABDBD33010653E26936"",""assignmentId"":""7e20b2f7-220e-41e7-9d1e-6277488dd617"",""projectId"":""a9f3d40c-5730-405c-b25e-1034c4c56f3f""}","https://test12345.live/?num_scrambled_semantic=8&num_scrambled_causal=4&num_scrambled_schematic=4&participantId=CE95632B40AE4ABDBD33010653E26936&assignmentId=7e20b2f7-220e-41e7-9d1e-6277488dd617&projectId=a9f3d40c-5730-405c-b25e-1034c4c56f3f","CE95632B40AE4ABDBD33010653E26936-2025-08-07-19-34-55","","null","","[]","null","",""
"","","","","","html-audio-response","87","975163","0.0-13.0","CE95632B40AE4ABDBD33010653E26936","CE95632B40AE4ABDBD33010653E26936","7e20b2f7-220e-41e7-9d1e-6277488dd617","a9f3d40c-5730-405c-b25e-1034c4c56f3f","{""num_scrambled_semantic"":""8"",""num_scrambled_causal"":""4"",""num_scrambled_schematic"":""4"",""participantId"":""CE95632B40AE4ABDBD33010653E26936"",""assignmentId"":""7e20b2f7-220e-41e7-9d1e-6277488dd617"",""projectId"":""a9f3d40c-5730-405c-b25e-1034c4c56f3f""}","https://test12345.live/?num_scrambled_semantic=8&num_scrambled_causal=4&num_scrambled_schematic=4&participantId=CE95632B40AE4ABDBD33010653E26936&assignmentId=7e20b2f7-220e-41e7-9d1e-6277488dd617&projectId=a9f3d40c-5730-405c-b25e-1034c4c56f3f","CE95632B40AE4ABDBD33010653E26936-2025-08-07-19-34-55","","23391","","[""<span style=\""color: red; font-size: 24px\""> NOW RECORDING</span><p>Please say out loud all the images you saw, as many as you can remember. The images can be said in any order.</p>""]","","1","physical_activity_semantic"
"","","","","","image-button-response","88","981172","0.0-14.0-0.0","CE95632B40AE4ABDBD33010653E26936","CE95632B40AE4ABDBD33010653E26936","7e20b2f7-220e-41e7-9d1e-6277488dd617","a9f3d40c-5730-405c-b25e-1034c4c56f3f","{""num_scrambled_semantic"":""8"",""num_scrambled_causal"":""4"",""num_scrambled_schematic"":""4"",""participantId"":""CE95632B40AE4ABDBD33010653E26936"",""assignmentId"":""7e20b2f7-220e-41e7-9d1e-6277488dd617"",""projectId"":""a9f3d40c-5730-405c-b25e-1034c4c56f3f""}","https://test12345.live/?num_scrambled_semantic=8&num_scrambled_causal=4&num_scrambled_schematic=4&participantId=CE95632B40AE4ABDBD33010653E26936&assignmentId=7e20b2f7-220e-41e7-9d1e-6277488dd617&projectId=a9f3d40c-5730-405c-b25e-1034c4c56f3f","CE95632B40AE4ABDBD33010653E26936-2025-08-07-19-34-55","","null","","images/semantic_sequence/using_technology_semantic/using_technology_semantic_0.png","null","",""
"","","","","","image-button-response","89","985679","0.0-14.0-1.0-0.0","CE95632B40AE4ABDBD33010653E26936","CE95632B40AE4ABDBD33010653E26936","7e20b2f7-220e-41e7-9d1e-6277488dd617","a9f3d40c-5730-405c-b25e-1034c4c56f3f","{""num_scrambled_semantic"":""8"",""num_scrambled_causal"":""4"",""num_scrambled_schematic"":""4"",""participantId"":""CE95632B40AE4ABDBD33010653E26936"",""assignmentId"":""7e20b2f7-220e-41e7-9d1e-6277488dd617"",""projectId"":""a9f3d40c-5730-405c-b25e-1034c4c56f3f""}","https://test12345.live/?num_scrambled_semantic=8&num_scrambled_causal=4&num_scrambled_schematic=4&participantId=CE95632B40AE4ABDBD33010653E26936&assignmentId=7e20b2f7-220e-41e7-9d1e-6277488dd617&projectId=a9f3d40c-5730-405c-b25e-1034c4c56f3f","CE95632B40AE4ABDBD33010653E26936-2025-08-07-19-34-55","","null","","images/semantic_sequence/using_technology_semantic/using_technology_semantic_5.png","null","",""
"","","","","","image-button-response","90","987677","0.0-14.0-1.0-1.0","CE95632B40AE4ABDBD33010653E26936","CE95632B40AE4ABDBD33010653E26936","7e20b2f7-220e-41e7-9d1e-6277488dd617","a9f3d40c-5730-405c-b25e-1034c4c56f3f","{""num_scrambled_semantic"":""8"",""num_scrambled_causal"":""4"",""num_scrambled_schematic"":""4"",""participantId"":""CE95632B40AE4ABDBD33010653E26936"",""assignmentId"":""7e20b2f7-220e-41e7-9d1e-6277488dd617"",""projectId"":""a9f3d40c-5730-405c-b25e-1034c4c56f3f""}","https://test12345.live/?num_scrambled_semantic=8&num_scrambled_causal=4&num_scrambled_schematic=4&participantId=CE95632B40AE4ABDBD33010653E26936&assignmentId=7e20b2f7-220e-41e7-9d1e-6277488dd617&projectId=a9f3d40c-5730-405c-b25e-1034c4c56f3f","CE95632B40AE4ABDBD33010653E26936-2025-08-07-19-34-55","","1996","","images/semantic_sequence/using_technology_semantic/using_technology_semantic_5.png","0","",""
"","","","","","image-button-response","91","989484","0.0-14.0-1.0-2.0","CE95632B40AE4ABDBD33010653E26936","CE95632B40AE4ABDBD33010653E26936","7e20b2f7-220e-41e7-9d1e-6277488dd617","a9f3d40c-5730-405c-b25e-1034c4c56f3f","{""num_scrambled_semantic"":""8"",""num_scrambled_causal"":""4"",""num_scrambled_schematic"":""4"",""participantId"":""CE95632B40AE4ABDBD33010653E26936"",""assignmentId"":""7e20b2f7-220e-41e7-9d1e-6277488dd617"",""projectId"":""a9f3d40c-5730-405c-b25e-1034c4c56f3f""}","https://test12345.live/?num_scrambled_semantic=8&num_scrambled_causal=4&num_scrambled_schematic=4&participantId=CE95632B40AE4ABDBD33010653E26936&assignmentId=7e20b2f7-220e-41e7-9d1e-6277488dd617&projectId=a9f3d40c-5730-405c-b25e-1034c4c56f3f","CE95632B40AE4ABDBD33010653E26936-2025-08-07-19-34-55","","null","","[]","null","",""
"","","","","","image-button-response","92","993988","0.0-14.0-1.0-0.1","CE95632B40AE4ABDBD33010653E26936","CE95632B40AE4ABDBD33010653E26936","7e20b2f7-220e-41e7-9d1e-6277488dd617","a9f3d40c-5730-405c-b25e-1034c4c56f3f","{""num_scrambled_semantic"":""8"",""num_scrambled_causal"":""4"",""num_scrambled_schematic"":""4"",""participantId"":""CE95632B40AE4ABDBD33010653E26936"",""assignmentId"":""7e20b2f7-220e-41e7-9d1e-6277488dd617"",""projectId"":""a9f3d40c-5730-405c-b25e-1034c4c56f3f""}","https://test12345.live/?num_scrambled_semantic=8&num_scrambled_causal=4&num_scrambled_schematic=4&participantId=CE95632B40AE4ABDBD33010653E26936&assignmentId=7e20b2f7-220e-41e7-9d1e-6277488dd617&projectId=a9f3d40c-5730-405c-b25e-1034c4c56f3f","CE95632B40AE4ABDBD33010653E26936-2025-08-07-19-34-55","","null","","images/semantic_sequence/using_technology_semantic/using_technology_semantic_ten.png","null","",""
"","","","","","image-button-response","93","994661","0.0-14.0-1.0-1.1","CE95632B40AE4ABDBD33010653E26936","CE95632B40AE4ABDBD33010653E26936","7e20b2f7-220e-41e7-9d1e-6277488dd617","a9f3d40c-5730-405c-b25e-1034c4c56f3f","{""num_scrambled_semantic"":""8"",""num_scrambled_causal"":""4"",""num_scrambled_schematic"":""4"",""participantId"":""CE95632B40AE4ABDBD33010653E26936"",""assignmentId"":""7e20b2f7-220e-41e7-9d1e-6277488dd617"",""projectId"":""a9f3d40c-5730-405c-b25e-1034c4c56f3f""}","https://test12345.live/?num_scrambled_semantic=8&num_scrambled_causal=4&num_scrambled_schematic=4&participantId=CE95632B40AE4ABDBD33010653E26936&assignmentId=7e20b2f7-220e-41e7-9d1e-6277488dd617&projectId=a9f3d40c-5730-405c-b25e-1034c4c56f3f","CE95632B40AE4ABDBD33010653E26936-2025-08-07-19-34-55","","671","","images/semantic_sequence/using_technology_semantic/using_technology_semantic_ten.png","0","",""
"","","","","","image-button-response","94","996464","0.0-14.0-1.0-2.1","CE95632B40AE4ABDBD33010653E26936","CE95632B40AE4ABDBD33010653E26936","7e20b2f7-220e-41e7-9d1e-6277488dd617","a9f3d40c-5730-405c-b25e-1034c4c56f3f","{""num_scrambled_semantic"":""8"",""num_scrambled_causal"":""4"",""num_scrambled_schematic"":""4"",""participantId"":""CE95632B40AE4ABDBD33010653E26936"",""assignmentId"":""7e20b2f7-220e-41e7-9d1e-6277488dd617"",""projectId"":""a9f3d40c-5730-405c-b25e-1034c4c56f3f""}","https://test12345.live/?num_scrambled_semantic=8&num_scrambled_causal=4&num_scrambled_schematic=4&participantId=CE95632B40AE4ABDBD33010653E26936&assignmentId=7e20b2f7-220e-41e7-9d1e-6277488dd617&projectId=a9f3d40c-5730-405c-b25e-1034c4c56f3f","CE95632B40AE4ABDBD33010653E26936-2025-08-07-19-34-55","","null","","[]","null","",""
"","","","","","image-button-response","95","1000968","0.0-14.0-1.0-0.2","CE95632B40AE4ABDBD33010653E26936","CE95632B40AE4ABDBD33010653E26936","7e20b2f7-220e-41e7-9d1e-6277488dd617","a9f3d40c-5730-405c-b25e-1034c4c56f3f","{""num_scrambled_semantic"":""8"",""num_scrambled_causal"":""4"",""num_scrambled_schematic"":""4"",""participantId"":""CE95632B40AE4ABDBD33010653E26936"",""assignmentId"":""7e20b2f7-220e-41e7-9d1e-6277488dd617"",""projectId"":""a9f3d40c-5730-405c-b25e-1034c4c56f3f""}","https://test12345.live/?num_scrambled_semantic=8&num_scrambled_causal=4&num_scrambled_schematic=4&participantId=CE95632B40AE4ABDBD33010653E26936&assignmentId=7e20b2f7-220e-41e7-9d1e-6277488dd617&projectId=a9f3d40c-5730-405c-b25e-1034c4c56f3f","CE95632B40AE4ABDBD33010653E26936-2025-08-07-19-34-55","","null","","images/semantic_sequence/using_technology_semantic/using_technology_semantic_3.png","null","",""
"","","","","","image-button-response","96","1002078","0.0-14.0-1.0-1.2","CE95632B40AE4ABDBD33010653E26936","CE95632B40AE4ABDBD33010653E26936","7e20b2f7-220e-41e7-9d1e-6277488dd617","a9f3d40c-5730-405c-b25e-1034c4c56f3f","{""num_scrambled_semantic"":""8"",""num_scrambled_causal"":""4"",""num_scrambled_schematic"":""4"",""participantId"":""CE95632B40AE4ABDBD33010653E26936"",""assignmentId"":""7e20b2f7-220e-41e7-9d1e-6277488dd617"",""projectId"":""a9f3d40c-5730-405c-b25e-1034c4c56f3f""}","https://test12345.live/?num_scrambled_semantic=8&num_scrambled_causal=4&num_scrambled_schematic=4&participantId=CE95632B40AE4ABDBD33010653E26936&assignmentId=7e20b2f7-220e-41e7-9d1e-6277488dd617&projectId=a9f3d40c-5730-405c-b25e-1034c4c56f3f","CE95632B40AE4ABDBD33010653E26936-2025-08-07-19-34-55","","1108","","images/semantic_sequence/using_technology_semantic/using_technology_semantic_3.png","0","",""
"","","","","","image-button-response","97","1003884","0.0-14.0-1.0-2.2","CE95632B40AE4ABDBD33010653E26936","CE95632B40AE4ABDBD33010653E26936","7e20b2f7-220e-41e7-9d1e-6277488dd617","a9f3d40c-5730-405c-b25e-1034c4c56f3f","{""num_scrambled_semantic"":""8"",""num_scrambled_causal"":""4"",""num_scrambled_schematic"":""4"",""participantId"":""CE95632B40AE4ABDBD33010653E26936"",""assignmentId"":""7e20b2f7-220e-41e7-9d1e-6277488dd617"",""projectId"":""a9f3d40c-5730-405c-b25e-1034c4c56f3f""}","https://test12345.live/?num_scrambled_semantic=8&num_scrambled_causal=4&num_scrambled_schematic=4&participantId=CE95632B40AE4ABDBD33010653E26936&assignmentId=7e20b2f7-220e-41e7-9d1e-6277488dd617&projectId=a9f3d40c-5730-405c-b25e-1034c4c56f3f","CE95632B40AE4ABDBD33010653E26936-2025-08-07-19-34-55","","null","","[]","null","",""
"","","","","","image-button-response","98","1008391","0.0-14.0-1.0-0.3","CE95632B40AE4ABDBD33010653E26936","CE95632B40AE4ABDBD33010653E26936","7e20b2f7-220e-41e7-9d1e-6277488dd617","a9f3d40c-5730-405c-b25e-1034c4c56f3f","{""num_scrambled_semantic"":""8"",""num_scrambled_causal"":""4"",""num_scrambled_schematic"":""4"",""participantId"":""CE95632B40AE4ABDBD33010653E26936"",""assignmentId"":""7e20b2f7-220e-41e7-9d1e-6277488dd617"",""projectId"":""a9f3d40c-5730-405c-b25e-1034c4c56f3f""}","https://test12345.live/?num_scrambled_semantic=8&num_scrambled_causal=4&num_scrambled_schematic=4&participantId=CE95632B40AE4ABDBD33010653E26936&assignmentId=7e20b2f7-220e-41e7-9d1e-6277488dd617&projectId=a9f3d40c-5730-405c-b25e-1034c4c56f3f","CE95632B40AE4ABDBD33010653E26936-2025-08-07-19-34-55","","null","","images/semantic_sequence/using_technology_semantic/using_technology_semantic_9.png","null","",""
"","","","","","image-button-response","99","1009313","0.0-14.0-1.0-1.3","CE95632B40AE4ABDBD33010653E26936","CE95632B40AE4ABDBD33010653E26936","7e20b2f7-220e-41e7-9d1e-6277488dd617","a9f3d40c-5730-405c-b25e-1034c4c56f3f","{""num_scrambled_semantic"":""8"",""num_scrambled_causal"":""4"",""num_scrambled_schematic"":""4"",""participantId"":""CE95632B40AE4ABDBD33010653E26936"",""assignmentId"":""7e20b2f7-220e-41e7-9d1e-6277488dd617"",""projectId"":""a9f3d40c-5730-405c-b25e-1034c4c56f3f""}","https://test12345.live/?num_scrambled_semantic=8&num_scrambled_causal=4&num_scrambled_schematic=4&participantId=CE95632B40AE4ABDBD33010653E26936&assignmentId=7e20b2f7-220e-41e7-9d1e-6277488dd617&projectId=a9f3d40c-5730-405c-b25e-1034c4c56f3f","CE95632B40AE4ABDBD33010653E26936-2025-08-07-19-34-55","","919","","images/semantic_sequence/using_technology_semantic/using_technology_semantic_9.png","0","",""
"","","","","","image-button-response","100","1011120","0.0-14.0-1.0-2.3","CE95632B40AE4ABDBD33010653E26936","CE95632B40AE4ABDBD33010653E26936","7e20b2f7-220e-41e7-9d1e-6277488dd617","a9f3d40c-5730-405c-b25e-1034c4c56f3f","{""num_scrambled_semantic"":""8"",""num_scrambled_causal"":""4"",""num_scrambled_schematic"":""4"",""participantId"":""CE95632B40AE4ABDBD33010653E26936"",""assignmentId"":""7e20b2f7-220e-41e7-9d1e-6277488dd617"",""projectId"":""a9f3d40c-5730-405c-b25e-1034c4c56f3f""}","https://test12345.live/?num_scrambled_semantic=8&num_scrambled_causal=4&num_scrambled_schematic=4&participantId=CE95632B40AE4ABDBD33010653E26936&assignmentId=7e20b2f7-220e-41e7-9d1e-6277488dd617&projectId=a9f3d40c-5730-405c-b25e-1034c4c56f3f","CE95632B40AE4ABDBD33010653E26936-2025-08-07-19-34-55","","null","","[]","null","",""
"","","","","","image-button-response","101","1015623","0.0-14.0-1.0-0.4","CE95632B40AE4ABDBD33010653E26936","CE95632B40AE4ABDBD33010653E26936","7e20b2f7-220e-41e7-9d1e-6277488dd617","a9f3d40c-5730-405c-b25e-1034c4c56f3f","{""num_scrambled_semantic"":""8"",""num_scrambled_causal"":""4"",""num_scrambled_schematic"":""4"",""participantId"":""CE95632B40AE4ABDBD33010653E26936"",""assignmentId"":""7e20b2f7-220e-41e7-9d1e-6277488dd617"",""projectId"":""a9f3d40c-5730-405c-b25e-1034c4c56f3f""}","https://test12345.live/?num_scrambled_semantic=8&num_scrambled_causal=4&num_scrambled_schematic=4&participantId=CE95632B40AE4ABDBD33010653E26936&assignmentId=7e20b2f7-220e-41e7-9d1e-6277488dd617&projectId=a9f3d40c-5730-405c-b25e-1034c4c56f3f","CE95632B40AE4ABDBD33010653E26936-2025-08-07-19-34-55","","null","","images/semantic_sequence/using_technology_semantic/using_technology_semantic_1.png","null","",""
"","","","","","image-button-response","102","1016429","0.0-14.0-1.0-1.4","CE95632B40AE4ABDBD33010653E26936","CE95632B40AE4ABDBD33010653E26936","7e20b2f7-220e-41e7-9d1e-6277488dd617","a9f3d40c-5730-405c-b25e-1034c4c56f3f","{""num_scrambled_semantic"":""8"",""num_scrambled_causal"":""4"",""num_scrambled_schematic"":""4"",""participantId"":""CE95632B40AE4ABDBD33010653E26936"",""assignmentId"":""7e20b2f7-220e-41e7-9d1e-6277488dd617"",""projectId"":""a9f3d40c-5730-405c-b25e-1034c4c56f3f""}","https://test12345.live/?num_scrambled_semantic=8&num_scrambled_causal=4&num_scrambled_schematic=4&participantId=CE95632B40AE4ABDBD33010653E26936&assignmentId=7e20b2f7-220e-41e7-9d1e-6277488dd617&projectId=a9f3d40c-5730-405c-b25e-1034c4c56f3f","CE95632B40AE4ABDBD33010653E26936-2025-08-07-19-34-55","","803","","images/semantic_sequence/using_technology_semantic/using_technology_semantic_1.png","0","",""
"","","","","","image-button-response","103","1018233","0.0-14.0-1.0-2.4","CE95632B40AE4ABDBD33010653E26936","CE95632B40AE4ABDBD33010653E26936","7e20b2f7-220e-41e7-9d1e-6277488dd617","a9f3d40c-5730-405c-b25e-1034c4c56f3f","{""num_scrambled_semantic"":""8"",""num_scrambled_causal"":""4"",""num_scrambled_schematic"":""4"",""participantId"":""CE95632B40AE4ABDBD33010653E26936"",""assignmentId"":""7e20b2f7-220e-41e7-9d1e-6277488dd617"",""projectId"":""a9f3d40c-5730-405c-b25e-1034c4c56f3f""}","https://test12345.live/?num_scrambled_semantic=8&num_scrambled_causal=4&num_scrambled_schematic=4&participantId=CE95632B40AE4ABDBD33010653E26936&assignmentId=7e20b2f7-220e-41e7-9d1e-6277488dd617&projectId=a9f3d40c-5730-405c-b25e-1034c4c56f3f","CE95632B40AE4ABDBD33010653E26936-2025-08-07-19-34-55","","null","","[]","null","",""
"","","","","","image-button-response","104","1022740","0.0-14.0-1.0-0.5","CE95632B40AE4ABDBD33010653E26936","CE95632B40AE4ABDBD33010653E26936","7e20b2f7-220e-41e7-9d1e-6277488dd617","a9f3d40c-5730-405c-b25e-1034c4c56f3f","{""num_scrambled_semantic"":""8"",""num_scrambled_causal"":""4"",""num_scrambled_schematic"":""4"",""participantId"":""CE95632B40AE4ABDBD33010653E26936"",""assignmentId"":""7e20b2f7-220e-41e7-9d1e-6277488dd617"",""projectId"":""a9f3d40c-5730-405c-b25e-1034c4c56f3f""}","https://test12345.live/?num_scrambled_semantic=8&num_scrambled_causal=4&num_scrambled_schematic=4&participantId=CE95632B40AE4ABDBD33010653E26936&assignmentId=7e20b2f7-220e-41e7-9d1e-6277488dd617&projectId=a9f3d40c-5730-405c-b25e-1034c4c56f3f","CE95632B40AE4ABDBD33010653E26936-2025-08-07-19-34-55","","null","","images/semantic_sequence/using_technology_semantic/using_technology_semantic_4.png","null","",""
"","","","","","image-button-response","105","1023762","0.0-14.0-1.0-1.5","CE95632B40AE4ABDBD33010653E26936","CE95632B40AE4ABDBD33010653E26936","7e20b2f7-220e-41e7-9d1e-6277488dd617","a9f3d40c-5730-405c-b25e-1034c4c56f3f","{""num_scrambled_semantic"":""8"",""num_scrambled_causal"":""4"",""num_scrambled_schematic"":""4"",""participantId"":""CE95632B40AE4ABDBD33010653E26936"",""assignmentId"":""7e20b2f7-220e-41e7-9d1e-6277488dd617"",""projectId"":""a9f3d40c-5730-405c-b25e-1034c4c56f3f""}","https://test12345.live/?num_scrambled_semantic=8&num_scrambled_causal=4&num_scrambled_schematic=4&participantId=CE95632B40AE4ABDBD33010653E26936&assignmentId=7e20b2f7-220e-41e7-9d1e-6277488dd617&projectId=a9f3d40c-5730-405c-b25e-1034c4c56f3f","CE95632B40AE4ABDBD33010653E26936-2025-08-07-19-34-55","","1019","","images/semantic_sequence/using_technology_semantic/using_technology_semantic_4.png","0","",""
"","","","","","image-button-response","106","1025568","0.0-14.0-1.0-2.5","CE95632B40AE4ABDBD33010653E26936","CE95632B40AE4ABDBD33010653E26936","7e20b2f7-220e-41e7-9d1e-6277488dd617","a9f3d40c-5730-405c-b25e-1034c4c56f3f","{""num_scrambled_semantic"":""8"",""num_scrambled_causal"":""4"",""num_scrambled_schematic"":""4"",""participantId"":""CE95632B40AE4ABDBD33010653E26936"",""assignmentId"":""7e20b2f7-220e-41e7-9d1e-6277488dd617"",""projectId"":""a9f3d40c-5730-405c-b25e-1034c4c56f3f""}","https://test12345.live/?num_scrambled_semantic=8&num_scrambled_causal=4&num_scrambled_schematic=4&participantId=CE95632B40AE4ABDBD33010653E26936&assignmentId=7e20b2f7-220e-41e7-9d1e-6277488dd617&projectId=a9f3d40c-5730-405c-b25e-1034c4c56f3f","CE95632B40AE4ABDBD33010653E26936-2025-08-07-19-34-55","","null","","[]","null","",""
"","","","","","image-button-response","107","1030072","0.0-14.0-1.0-0.6","CE95632B40AE4ABDBD33010653E26936","CE95632B40AE4ABDBD33010653E26936","7e20b2f7-220e-41e7-9d1e-6277488dd617","a9f3d40c-5730-405c-b25e-1034c4c56f3f","{""num_scrambled_semantic"":""8"",""num_scrambled_causal"":""4"",""num_scrambled_schematic"":""4"",""participantId"":""CE95632B40AE4ABDBD33010653E26936"",""assignmentId"":""7e20b2f7-220e-41e7-9d1e-6277488dd617"",""projectId"":""a9f3d40c-5730-405c-b25e-1034c4c56f3f""}","https://test12345.live/?num_scrambled_semantic=8&num_scrambled_causal=4&num_scrambled_schematic=4&participantId=CE95632B40AE4ABDBD33010653E26936&assignmentId=7e20b2f7-220e-41e7-9d1e-6277488dd617&projectId=a9f3d40c-5730-405c-b25e-1034c4c56f3f","CE95632B40AE4ABDBD33010653E26936-2025-08-07-19-34-55","","null","","images/semantic_sequence/using_technology_semantic/using_technology_semantic_7.png","null","",""
"","","","","","image-button-response","108","1032095","0.0-14.0-1.0-1.6","CE95632B40AE4ABDBD33010653E26936","CE95632B40AE4ABDBD33010653E26936","7e20b2f7-220e-41e7-9d1e-6277488dd617","a9f3d40c-5730-405c-b25e-1034c4c56f3f","{""num_scrambled_semantic"":""8"",""num_scrambled_causal"":""4"",""num_scrambled_schematic"":""4"",""participantId"":""CE95632B40AE4ABDBD33010653E26936"",""assignmentId"":""7e20b2f7-220e-41e7-9d1e-6277488dd617"",""projectId"":""a9f3d40c-5730-405c-b25e-1034c4c56f3f""}","https://test12345.live/?num_scrambled_semantic=8&num_scrambled_causal=4&num_scrambled_schematic=4&participantId=CE95632B40AE4ABDBD33010653E26936&assignmentId=7e20b2f7-220e-41e7-9d1e-6277488dd617&projectId=a9f3d40c-5730-405c-b25e-1034c4c56f3f","CE95632B40AE4ABDBD33010653E26936-2025-08-07-19-34-55","","2021","","images/semantic_sequence/using_technology_semantic/using_technology_semantic_7.png","0","",""
"","","","","","image-button-response","109","1033901","0.0-14.0-1.0-2.6","CE95632B40AE4ABDBD33010653E26936","CE95632B40AE4ABDBD33010653E26936","7e20b2f7-220e-41e7-9d1e-6277488dd617","a9f3d40c-5730-405c-b25e-1034c4c56f3f","{""num_scrambled_semantic"":""8"",""num_scrambled_causal"":""4"",""num_scrambled_schematic"":""4"",""participantId"":""CE95632B40AE4ABDBD33010653E26936"",""assignmentId"":""7e20b2f7-220e-41e7-9d1e-6277488dd617"",""projectId"":""a9f3d40c-5730-405c-b25e-1034c4c56f3f""}","https://test12345.live/?num_scrambled_semantic=8&num_scrambled_causal=4&num_scrambled_schematic=4&participantId=CE95632B40AE4ABDBD33010653E26936&assignmentId=7e20b2f7-220e-41e7-9d1e-6277488dd617&projectId=a9f3d40c-5730-405c-b25e-1034c4c56f3f","CE95632B40AE4ABDBD33010653E26936-2025-08-07-19-34-55","","null","","[]","null","",""
"","","","","","image-button-response","110","1038407","0.0-14.0-1.0-0.7","CE95632B40AE4ABDBD33010653E26936","CE95632B40AE4ABDBD33010653E26936","7e20b2f7-220e-41e7-9d1e-6277488dd617","a9f3d40c-5730-405c-b25e-1034c4c56f3f","{""num_scrambled_semantic"":""8"",""num_scrambled_causal"":""4"",""num_scrambled_schematic"":""4"",""participantId"":""CE95632B40AE4ABDBD33010653E26936"",""assignmentId"":""7e20b2f7-220e-41e7-9d1e-6277488dd617"",""projectId"":""a9f3d40c-5730-405c-b25e-1034c4c56f3f""}","https://test12345.live/?num_scrambled_semantic=8&num_scrambled_causal=4&num_scrambled_schematic=4&participantId=CE95632B40AE4ABDBD33010653E26936&assignmentId=7e20b2f7-220e-41e7-9d1e-6277488dd617&projectId=a9f3d40c-5730-405c-b25e-1034c4c56f3f","CE95632B40AE4ABDBD33010653E26936-2025-08-07-19-34-55","","null","","images/semantic_sequence/using_technology_semantic/using_technology_semantic_2.png","null","",""
"","","","","","image-button-response","111","1039379","0.0-14.0-1.0-1.7","CE95632B40AE4ABDBD33010653E26936","CE95632B40AE4ABDBD33010653E26936","7e20b2f7-220e-41e7-9d1e-6277488dd617","a9f3d40c-5730-405c-b25e-1034c4c56f3f","{""num_scrambled_semantic"":""8"",""num_scrambled_causal"":""4"",""num_scrambled_schematic"":""4"",""participantId"":""CE95632B40AE4ABDBD33010653E26936"",""assignmentId"":""7e20b2f7-220e-41e7-9d1e-6277488dd617"",""projectId"":""a9f3d40c-5730-405c-b25e-1034c4c56f3f""}","https://test12345.live/?num_scrambled_semantic=8&num_scrambled_causal=4&num_scrambled_schematic=4&participantId=CE95632B40AE4ABDBD33010653E26936&assignmentId=7e20b2f7-220e-41e7-9d1e-6277488dd617&projectId=a9f3d40c-5730-405c-b25e-1034c4c56f3f","CE95632B40AE4ABDBD33010653E26936-2025-08-07-19-34-55","","969","","images/semantic_sequence/using_technology_semantic/using_technology_semantic_2.png","0","",""
"","","","","","image-button-response","112","1041183","0.0-14.0-1.0-2.7","CE95632B40AE4ABDBD33010653E26936","CE95632B40AE4ABDBD33010653E26936","7e20b2f7-220e-41e7-9d1e-6277488dd617","a9f3d40c-5730-405c-b25e-1034c4c56f3f","{""num_scrambled_semantic"":""8"",""num_scrambled_causal"":""4"",""num_scrambled_schematic"":""4"",""participantId"":""CE95632B40AE4ABDBD33010653E26936"",""assignmentId"":""7e20b2f7-220e-41e7-9d1e-6277488dd617"",""projectId"":""a9f3d40c-5730-405c-b25e-1034c4c56f3f""}","https://test12345.live/?num_scrambled_semantic=8&num_scrambled_causal=4&num_scrambled_schematic=4&participantId=CE95632B40AE4ABDBD33010653E26936&assignmentId=7e20b2f7-220e-41e7-9d1e-6277488dd617&projectId=a9f3d40c-5730-405c-b25e-1034c4c56f3f","CE95632B40AE4ABDBD33010653E26936-2025-08-07-19-34-55","","null","","[]","null","",""
"","","","","","image-button-response","113","1045686","0.0-14.0-1.0-0.8","CE95632B40AE4ABDBD33010653E26936","CE95632B40AE4ABDBD33010653E26936","7e20b2f7-220e-41e7-9d1e-6277488dd617","a9f3d40c-5730-405c-b25e-1034c4c56f3f","{""num_scrambled_semantic"":""8"",""num_scrambled_causal"":""4"",""num_scrambled_schematic"":""4"",""participantId"":""CE95632B40AE4ABDBD33010653E26936"",""assignmentId"":""7e20b2f7-220e-41e7-9d1e-6277488dd617"",""projectId"":""a9f3d40c-5730-405c-b25e-1034c4c56f3f""}","https://test12345.live/?num_scrambled_semantic=8&num_scrambled_causal=4&num_scrambled_schematic=4&participantId=CE95632B40AE4ABDBD33010653E26936&assignmentId=7e20b2f7-220e-41e7-9d1e-6277488dd617&projectId=a9f3d40c-5730-405c-b25e-1034c4c56f3f","CE95632B40AE4ABDBD33010653E26936-2025-08-07-19-34-55","","null","","images/semantic_sequence/using_technology_semantic/using_technology_semantic_6.png","null","",""
