"success","timeout","failed_images","failed_audio","failed_video","trial_type","trial_index","time_elapsed","internal_node_id","subject","subject_id","study_id","session_id","urlvar","current_url","audio_id","view_history","rt","device_id","stimulus","response","estimated_stimulus_onset","seq_name"
"true","false","[]","[]","[]","preload","0","1332","0.0-0.0","CEFD2FE92E6847B2B27FF0175811CE81","CEFD2FE92E6847B2B27FF0175811CE81","3c0e0830-cd8f-4e5d-b38b-c3144ba4eacb","a0a8f18c-a66e-4ba7-a170-23efbdc67501","{""participantId"":""CEFD2FE92E6847B2B27FF0175811CE81"",""assignmentId"":""3c0e0830-cd8f-4e5d-b38b-c3144ba4eacb"",""projectId"":""a0a8f18c-a66e-4ba7-a170-23efbdc67501""}","https://test12345.live/?participantId=CEFD2FE92E6847B2B27FF0175811CE81&assignmentId=3c0e0830-cd8f-4e5d-b38b-c3144ba4eacb&projectId=a0a8f18c-a66e-4ba7-a170-23efbdc67501","CEFD2FE92E6847B2B27FF0175811CE81-2024-11-24-18-34-09","","","","","","",""
"","","","","","instructions","1","61629","0.0-1.0","CEFD2FE92E6847B2B27FF0175811CE81","CEFD2FE92E6847B2B27FF0175811CE81","3c0e0830-cd8f-4e5d-b38b-c3144ba4eacb","a0a8f18c-a66e-4ba7-a170-23efbdc67501","{""participantId"":""CEFD2FE92E6847B2B27FF0175811CE81"",""assignmentId"":""3c0e0830-cd8f-4e5d-b38b-c3144ba4eacb"",""projectId"":""a0a8f18c-a66e-4ba7-a170-23efbdc67501""}","https://test12345.live/?participantId=CEFD2FE92E6847B2B27FF0175811CE81&assignmentId=3c0e0830-cd8f-4e5d-b38b-c3144ba4eacb&projectId=a0a8f18c-a66e-4ba7-a170-23efbdc67501","CEFD2FE92E6847B2B27FF0175811CE81-2024-11-24-18-34-09","[{""page_index"":0,""viewing_time"":60296}]","60296","","","","",""
"","","","","","instructions","2","65931","0.0-2.0","CEFD2FE92E6847B2B27FF0175811CE81","CEFD2FE92E6847B2B27FF0175811CE81","3c0e0830-cd8f-4e5d-b38b-c3144ba4eacb","a0a8f18c-a66e-4ba7-a170-23efbdc67501","{""participantId"":""CEFD2FE92E6847B2B27FF0175811CE81"",""assignmentId"":""3c0e0830-cd8f-4e5d-b38b-c3144ba4eacb"",""projectId"":""a0a8f18c-a66e-4ba7-a170-23efbdc67501""}","https://test12345.live/?participantId=CEFD2FE92E6847B2B27FF0175811CE81&assignmentId=3c0e0830-cd8f-4e5d-b38b-c3144ba4eacb&projectId=a0a8f18c-a66e-4ba7-a170-23efbdc67501","CEFD2FE92E6847B2B27FF0175811CE81-2024-11-24-18-34-09","[{""page_index"":0,""viewing_time"":4301}]","4301","","","","",""
"true","","","","","fullscreen","3","68713","0.0-3.0","CEFD2FE92E6847B2B27FF0175811CE81","CEFD2FE92E6847B2B27FF0175811CE81","3c0e0830-cd8f-4e5d-b38b-c3144ba4eacb","a0a8f18c-a66e-4ba7-a170-23efbdc67501","{""participantId"":""CEFD2FE92E6847B2B27FF0175811CE81"",""assignmentId"":""3c0e0830-cd8f-4e5d-b38b-c3144ba4eacb"",""projectId"":""a0a8f18c-a66e-4ba7-a170-23efbdc67501""}","https://test12345.live/?participantId=CEFD2FE92E6847B2B27FF0175811CE81&assignmentId=3c0e0830-cd8f-4e5d-b38b-c3144ba4eacb&projectId=a0a8f18c-a66e-4ba7-a170-23efbdc67501","CEFD2FE92E6847B2B27FF0175811CE81-2024-11-24-18-34-09","","1780","","","","",""
"","","","","","initialize-microphone","4","77871","0.0-4.0-0.0","CEFD2FE92E6847B2B27FF0175811CE81","CEFD2FE92E6847B2B27FF0175811CE81","3c0e0830-cd8f-4e5d-b38b-c3144ba4eacb","a0a8f18c-a66e-4ba7-a170-23efbdc67501","{""participantId"":""CEFD2FE92E6847B2B27FF0175811CE81"",""assignmentId"":""3c0e0830-cd8f-4e5d-b38b-c3144ba4eacb"",""projectId"":""a0a8f18c-a66e-4ba7-a170-23efbdc67501""}","https://test12345.live/?participantId=CEFD2FE92E6847B2B27FF0175811CE81&assignmentId=3c0e0830-cd8f-4e5d-b38b-c3144ba4eacb&projectId=a0a8f18c-a66e-4ba7-a170-23efbdc67501","CEFD2FE92E6847B2B27FF0175811CE81-2024-11-24-18-34-09","","","7599db86edbe852c182754c9cf3c8f2a72e82f664c04fce70c1fae88eb3ea097","","","",""
"","","","","","html-audio-response","5","93053","0.0-4.0-1.0","CEFD2FE92E6847B2B27FF0175811CE81","CEFD2FE92E6847B2B27FF0175811CE81","3c0e0830-cd8f-4e5d-b38b-c3144ba4eacb","a0a8f18c-a66e-4ba7-a170-23efbdc67501","{""participantId"":""CEFD2FE92E6847B2B27FF0175811CE81"",""assignmentId"":""3c0e0830-cd8f-4e5d-b38b-c3144ba4eacb"",""projectId"":""a0a8f18c-a66e-4ba7-a170-23efbdc67501""}","https://test12345.live/?participantId=CEFD2FE92E6847B2B27FF0175811CE81&assignmentId=3c0e0830-cd8f-4e5d-b38b-c3144ba4eacb&projectId=a0a8f18c-a66e-4ba7-a170-23efbdc67501","CEFD2FE92E6847B2B27FF0175811CE81-2024-11-24-18-34-09","","2181","","<span style=""color: red; font-size: 24px""> NOW RECORDING</span>
        <p>Please test Microphone</p>","","9",""
"","","","","","html-button-response","6","95268","0.0-4.0-2.0","CEFD2FE92E6847B2B27FF0175811CE81","CEFD2FE92E6847B2B27FF0175811CE81","3c0e0830-cd8f-4e5d-b38b-c3144ba4eacb","a0a8f18c-a66e-4ba7-a170-23efbdc67501","{""participantId"":""CEFD2FE92E6847B2B27FF0175811CE81"",""assignmentId"":""3c0e0830-cd8f-4e5d-b38b-c3144ba4eacb"",""projectId"":""a0a8f18c-a66e-4ba7-a170-23efbdc67501""}","https://test12345.live/?participantId=CEFD2FE92E6847B2B27FF0175811CE81&assignmentId=3c0e0830-cd8f-4e5d-b38b-c3144ba4eacb&projectId=a0a8f18c-a66e-4ba7-a170-23efbdc67501","CEFD2FE92E6847B2B27FF0175811CE81-2024-11-24-18-34-09","","2214","","<p style=""font-size:48px; color:red;"">Is Microphone OK?</p>","1","",""
"","","","","","instructions","7","106162","0.0-5.0","CEFD2FE92E6847B2B27FF0175811CE81","CEFD2FE92E6847B2B27FF0175811CE81","3c0e0830-cd8f-4e5d-b38b-c3144ba4eacb","a0a8f18c-a66e-4ba7-a170-23efbdc67501","{""participantId"":""CEFD2FE92E6847B2B27FF0175811CE81"",""assignmentId"":""3c0e0830-cd8f-4e5d-b38b-c3144ba4eacb"",""projectId"":""a0a8f18c-a66e-4ba7-a170-23efbdc67501""}","https://test12345.live/?participantId=CEFD2FE92E6847B2B27FF0175811CE81&assignmentId=3c0e0830-cd8f-4e5d-b38b-c3144ba4eacb&projectId=a0a8f18c-a66e-4ba7-a170-23efbdc67501","CEFD2FE92E6847B2B27FF0175811CE81-2024-11-24-18-34-09","[{""page_index"":0,""viewing_time"":2702},{""page_index"":1,""viewing_time"":8192}]","10894","","","","",""
"","","","","","image-button-response","8","112171","0.0-6.0-0.0","CEFD2FE92E6847B2B27FF0175811CE81","CEFD2FE92E6847B2B27FF0175811CE81","3c0e0830-cd8f-4e5d-b38b-c3144ba4eacb","a0a8f18c-a66e-4ba7-a170-23efbdc67501","{""participantId"":""CEFD2FE92E6847B2B27FF0175811CE81"",""assignmentId"":""3c0e0830-cd8f-4e5d-b38b-c3144ba4eacb"",""projectId"":""a0a8f18c-a66e-4ba7-a170-23efbdc67501""}","https://test12345.live/?participantId=CEFD2FE92E6847B2B27FF0175811CE81&assignmentId=3c0e0830-cd8f-4e5d-b38b-c3144ba4eacb&projectId=a0a8f18c-a66e-4ba7-a170-23efbdc67501","CEFD2FE92E6847B2B27FF0175811CE81-2024-11-24-18-34-09","","null","","images/instructions/movie_0.png","null","",""
"","","","","","image-button-response","9","116675","0.0-6.0-1.0-0.0","CEFD2FE92E6847B2B27FF0175811CE81","CEFD2FE92E6847B2B27FF0175811CE81","3c0e0830-cd8f-4e5d-b38b-c3144ba4eacb","a0a8f18c-a66e-4ba7-a170-23efbdc67501","{""participantId"":""CEFD2FE92E6847B2B27FF0175811CE81"",""assignmentId"":""3c0e0830-cd8f-4e5d-b38b-c3144ba4eacb"",""projectId"":""a0a8f18c-a66e-4ba7-a170-23efbdc67501""}","https://test12345.live/?participantId=CEFD2FE92E6847B2B27FF0175811CE81&assignmentId=3c0e0830-cd8f-4e5d-b38b-c3144ba4eacb&projectId=a0a8f18c-a66e-4ba7-a170-23efbdc67501","CEFD2FE92E6847B2B27FF0175811CE81-2024-11-24-18-34-09","","null","","images/instructions/movie_1.png","null","",""
"","","","","","image-button-response","10","120230","0.0-6.0-1.0-1.0","CEFD2FE92E6847B2B27FF0175811CE81","CEFD2FE92E6847B2B27FF0175811CE81","3c0e0830-cd8f-4e5d-b38b-c3144ba4eacb","a0a8f18c-a66e-4ba7-a170-23efbdc67501","{""participantId"":""CEFD2FE92E6847B2B27FF0175811CE81"",""assignmentId"":""3c0e0830-cd8f-4e5d-b38b-c3144ba4eacb"",""projectId"":""a0a8f18c-a66e-4ba7-a170-23efbdc67501""}","https://test12345.live/?participantId=CEFD2FE92E6847B2B27FF0175811CE81&assignmentId=3c0e0830-cd8f-4e5d-b38b-c3144ba4eacb&projectId=a0a8f18c-a66e-4ba7-a170-23efbdc67501","CEFD2FE92E6847B2B27FF0175811CE81-2024-11-24-18-34-09","","3554","","images/instructions/movie_1.png","0","",""
"","","","","","image-button-response","11","122032","0.0-6.0-1.0-2.0","CEFD2FE92E6847B2B27FF0175811CE81","CEFD2FE92E6847B2B27FF0175811CE81","3c0e0830-cd8f-4e5d-b38b-c3144ba4eacb","a0a8f18c-a66e-4ba7-a170-23efbdc67501","{""participantId"":""CEFD2FE92E6847B2B27FF0175811CE81"",""assignmentId"":""3c0e0830-cd8f-4e5d-b38b-c3144ba4eacb"",""projectId"":""a0a8f18c-a66e-4ba7-a170-23efbdc67501""}","https://test12345.live/?participantId=CEFD2FE92E6847B2B27FF0175811CE81&assignmentId=3c0e0830-cd8f-4e5d-b38b-c3144ba4eacb&projectId=a0a8f18c-a66e-4ba7-a170-23efbdc67501","CEFD2FE92E6847B2B27FF0175811CE81-2024-11-24-18-34-09","","null","","[]","null","",""
"","","","","","image-button-response","12","126535","0.0-6.0-1.0-0.1","CEFD2FE92E6847B2B27FF0175811CE81","CEFD2FE92E6847B2B27FF0175811CE81","3c0e0830-cd8f-4e5d-b38b-c3144ba4eacb","a0a8f18c-a66e-4ba7-a170-23efbdc67501","{""participantId"":""CEFD2FE92E6847B2B27FF0175811CE81"",""assignmentId"":""3c0e0830-cd8f-4e5d-b38b-c3144ba4eacb"",""projectId"":""a0a8f18c-a66e-4ba7-a170-23efbdc67501""}","https://test12345.live/?participantId=CEFD2FE92E6847B2B27FF0175811CE81&assignmentId=3c0e0830-cd8f-4e5d-b38b-c3144ba4eacb&projectId=a0a8f18c-a66e-4ba7-a170-23efbdc67501","CEFD2FE92E6847B2B27FF0175811CE81-2024-11-24-18-34-09","","null","","images/instructions/movie_2.png","null","",""
"","","","","","image-button-response","13","130537","0.0-6.0-1.0-1.1","CEFD2FE92E6847B2B27FF0175811CE81","CEFD2FE92E6847B2B27FF0175811CE81","3c0e0830-cd8f-4e5d-b38b-c3144ba4eacb","a0a8f18c-a66e-4ba7-a170-23efbdc67501","{""participantId"":""CEFD2FE92E6847B2B27FF0175811CE81"",""assignmentId"":""3c0e0830-cd8f-4e5d-b38b-c3144ba4eacb"",""projectId"":""a0a8f18c-a66e-4ba7-a170-23efbdc67501""}","https://test12345.live/?participantId=CEFD2FE92E6847B2B27FF0175811CE81&assignmentId=3c0e0830-cd8f-4e5d-b38b-c3144ba4eacb&projectId=a0a8f18c-a66e-4ba7-a170-23efbdc67501","CEFD2FE92E6847B2B27FF0175811CE81-2024-11-24-18-34-09","","null","","images/instructions/movie_2.png","null","",""
"","","","","","image-button-response","14","132341","0.0-6.0-1.0-2.1","CEFD2FE92E6847B2B27FF0175811CE81","CEFD2FE92E6847B2B27FF0175811CE81","3c0e0830-cd8f-4e5d-b38b-c3144ba4eacb","a0a8f18c-a66e-4ba7-a170-23efbdc67501","{""participantId"":""CEFD2FE92E6847B2B27FF0175811CE81"",""assignmentId"":""3c0e0830-cd8f-4e5d-b38b-c3144ba4eacb"",""projectId"":""a0a8f18c-a66e-4ba7-a170-23efbdc67501""}","https://test12345.live/?participantId=CEFD2FE92E6847B2B27FF0175811CE81&assignmentId=3c0e0830-cd8f-4e5d-b38b-c3144ba4eacb&projectId=a0a8f18c-a66e-4ba7-a170-23efbdc67501","CEFD2FE92E6847B2B27FF0175811CE81-2024-11-24-18-34-09","","null","","[]","null","",""
"","","","","","image-button-response","15","136847","0.0-6.0-1.0-0.2","CEFD2FE92E6847B2B27FF0175811CE81","CEFD2FE92E6847B2B27FF0175811CE81","3c0e0830-cd8f-4e5d-b38b-c3144ba4eacb","a0a8f18c-a66e-4ba7-a170-23efbdc67501","{""participantId"":""CEFD2FE92E6847B2B27FF0175811CE81"",""assignmentId"":""3c0e0830-cd8f-4e5d-b38b-c3144ba4eacb"",""projectId"":""a0a8f18c-a66e-4ba7-a170-23efbdc67501""}","https://test12345.live/?participantId=CEFD2FE92E6847B2B27FF0175811CE81&assignmentId=3c0e0830-cd8f-4e5d-b38b-c3144ba4eacb&projectId=a0a8f18c-a66e-4ba7-a170-23efbdc67501","CEFD2FE92E6847B2B27FF0175811CE81-2024-11-24-18-34-09","","null","","images/instructions/movie_3.png","null","",""
"","","","","","image-button-response","16","138152","0.0-6.0-1.0-1.2","CEFD2FE92E6847B2B27FF0175811CE81","CEFD2FE92E6847B2B27FF0175811CE81","3c0e0830-cd8f-4e5d-b38b-c3144ba4eacb","a0a8f18c-a66e-4ba7-a170-23efbdc67501","{""participantId"":""CEFD2FE92E6847B2B27FF0175811CE81"",""assignmentId"":""3c0e0830-cd8f-4e5d-b38b-c3144ba4eacb"",""projectId"":""a0a8f18c-a66e-4ba7-a170-23efbdc67501""}","https://test12345.live/?participantId=CEFD2FE92E6847B2B27FF0175811CE81&assignmentId=3c0e0830-cd8f-4e5d-b38b-c3144ba4eacb&projectId=a0a8f18c-a66e-4ba7-a170-23efbdc67501","CEFD2FE92E6847B2B27FF0175811CE81-2024-11-24-18-34-09","","1303","","images/instructions/movie_3.png","0","",""
"","","","","","image-button-response","17","139959","0.0-6.0-1.0-2.2","CEFD2FE92E6847B2B27FF0175811CE81","CEFD2FE92E6847B2B27FF0175811CE81","3c0e0830-cd8f-4e5d-b38b-c3144ba4eacb","a0a8f18c-a66e-4ba7-a170-23efbdc67501","{""participantId"":""CEFD2FE92E6847B2B27FF0175811CE81"",""assignmentId"":""3c0e0830-cd8f-4e5d-b38b-c3144ba4eacb"",""projectId"":""a0a8f18c-a66e-4ba7-a170-23efbdc67501""}","https://test12345.live/?participantId=CEFD2FE92E6847B2B27FF0175811CE81&assignmentId=3c0e0830-cd8f-4e5d-b38b-c3144ba4eacb&projectId=a0a8f18c-a66e-4ba7-a170-23efbdc67501","CEFD2FE92E6847B2B27FF0175811CE81-2024-11-24-18-34-09","","null","","[]","null","",""
"","","","","","image-button-response","18","144464","0.0-6.0-1.0-0.3","CEFD2FE92E6847B2B27FF0175811CE81","CEFD2FE92E6847B2B27FF0175811CE81","3c0e0830-cd8f-4e5d-b38b-c3144ba4eacb","a0a8f18c-a66e-4ba7-a170-23efbdc67501","{""participantId"":""CEFD2FE92E6847B2B27FF0175811CE81"",""assignmentId"":""3c0e0830-cd8f-4e5d-b38b-c3144ba4eacb"",""projectId"":""a0a8f18c-a66e-4ba7-a170-23efbdc67501""}","https://test12345.live/?participantId=CEFD2FE92E6847B2B27FF0175811CE81&assignmentId=3c0e0830-cd8f-4e5d-b38b-c3144ba4eacb&projectId=a0a8f18c-a66e-4ba7-a170-23efbdc67501","CEFD2FE92E6847B2B27FF0175811CE81-2024-11-24-18-34-09","","null","","images/instructions/movie_4.png","null","",""
"","","","","","image-button-response","19","145451","0.0-6.0-1.0-1.3","CEFD2FE92E6847B2B27FF0175811CE81","CEFD2FE92E6847B2B27FF0175811CE81","3c0e0830-cd8f-4e5d-b38b-c3144ba4eacb","a0a8f18c-a66e-4ba7-a170-23efbdc67501","{""participantId"":""CEFD2FE92E6847B2B27FF0175811CE81"",""assignmentId"":""3c0e0830-cd8f-4e5d-b38b-c3144ba4eacb"",""projectId"":""a0a8f18c-a66e-4ba7-a170-23efbdc67501""}","https://test12345.live/?participantId=CEFD2FE92E6847B2B27FF0175811CE81&assignmentId=3c0e0830-cd8f-4e5d-b38b-c3144ba4eacb&projectId=a0a8f18c-a66e-4ba7-a170-23efbdc67501","CEFD2FE92E6847B2B27FF0175811CE81-2024-11-24-18-34-09","","985","","images/instructions/movie_4.png","0","",""
"","","","","","image-button-response","20","147256","0.0-6.0-1.0-2.3","CEFD2FE92E6847B2B27FF0175811CE81","CEFD2FE92E6847B2B27FF0175811CE81","3c0e0830-cd8f-4e5d-b38b-c3144ba4eacb","a0a8f18c-a66e-4ba7-a170-23efbdc67501","{""participantId"":""CEFD2FE92E6847B2B27FF0175811CE81"",""assignmentId"":""3c0e0830-cd8f-4e5d-b38b-c3144ba4eacb"",""projectId"":""a0a8f18c-a66e-4ba7-a170-23efbdc67501""}","https://test12345.live/?participantId=CEFD2FE92E6847B2B27FF0175811CE81&assignmentId=3c0e0830-cd8f-4e5d-b38b-c3144ba4eacb&projectId=a0a8f18c-a66e-4ba7-a170-23efbdc67501","CEFD2FE92E6847B2B27FF0175811CE81-2024-11-24-18-34-09","","null","","[]","null","",""
"","","","","","instructions","21","155061","0.0-7.0","CEFD2FE92E6847B2B27FF0175811CE81","CEFD2FE92E6847B2B27FF0175811CE81","3c0e0830-cd8f-4e5d-b38b-c3144ba4eacb","a0a8f18c-a66e-4ba7-a170-23efbdc67501","{""participantId"":""CEFD2FE92E6847B2B27FF0175811CE81"",""assignmentId"":""3c0e0830-cd8f-4e5d-b38b-c3144ba4eacb"",""projectId"":""a0a8f18c-a66e-4ba7-a170-23efbdc67501""}","https://test12345.live/?participantId=CEFD2FE92E6847B2B27FF0175811CE81&assignmentId=3c0e0830-cd8f-4e5d-b38b-c3144ba4eacb&projectId=a0a8f18c-a66e-4ba7-a170-23efbdc67501","CEFD2FE92E6847B2B27FF0175811CE81-2024-11-24-18-34-09","[{""page_index"":0,""viewing_time"":6330},{""page_index"":1,""viewing_time"":1474}]","7804","","","","",""
"","","","","","html-audio-response","22","182907","0.0-8.0","CEFD2FE92E6847B2B27FF0175811CE81","CEFD2FE92E6847B2B27FF0175811CE81","3c0e0830-cd8f-4e5d-b38b-c3144ba4eacb","a0a8f18c-a66e-4ba7-a170-23efbdc67501","{""participantId"":""CEFD2FE92E6847B2B27FF0175811CE81"",""assignmentId"":""3c0e0830-cd8f-4e5d-b38b-c3144ba4eacb"",""projectId"":""a0a8f18c-a66e-4ba7-a170-23efbdc67501""}","https://test12345.live/?participantId=CEFD2FE92E6847B2B27FF0175811CE81&assignmentId=3c0e0830-cd8f-4e5d-b38b-c3144ba4eacb&projectId=a0a8f18c-a66e-4ba7-a170-23efbdc67501","CEFD2FE92E6847B2B27FF0175811CE81-2024-11-24-18-34-09","","12802","","[""<span style=\""color: red; font-size: 24px\""> NOW RECORDING</span><p>Please say out loud all the images you saw, as many as you can remember. The images can be said in any order.</p>""]","","1",""
"","","","","","instructions","23","186081","0.0-9.0","CEFD2FE92E6847B2B27FF0175811CE81","CEFD2FE92E6847B2B27FF0175811CE81","3c0e0830-cd8f-4e5d-b38b-c3144ba4eacb","a0a8f18c-a66e-4ba7-a170-23efbdc67501","{""participantId"":""CEFD2FE92E6847B2B27FF0175811CE81"",""assignmentId"":""3c0e0830-cd8f-4e5d-b38b-c3144ba4eacb"",""projectId"":""a0a8f18c-a66e-4ba7-a170-23efbdc67501""}","https://test12345.live/?participantId=CEFD2FE92E6847B2B27FF0175811CE81&assignmentId=3c0e0830-cd8f-4e5d-b38b-c3144ba4eacb&projectId=a0a8f18c-a66e-4ba7-a170-23efbdc67501","CEFD2FE92E6847B2B27FF0175811CE81-2024-11-24-18-34-09","[{""page_index"":0,""viewing_time"":3167}]","3168","","","","",""
"","","","","","image-button-response","24","192090","0.0-10.0-0.0","CEFD2FE92E6847B2B27FF0175811CE81","CEFD2FE92E6847B2B27FF0175811CE81","3c0e0830-cd8f-4e5d-b38b-c3144ba4eacb","a0a8f18c-a66e-4ba7-a170-23efbdc67501","{""participantId"":""CEFD2FE92E6847B2B27FF0175811CE81"",""assignmentId"":""3c0e0830-cd8f-4e5d-b38b-c3144ba4eacb"",""projectId"":""a0a8f18c-a66e-4ba7-a170-23efbdc67501""}","https://test12345.live/?participantId=CEFD2FE92E6847B2B27FF0175811CE81&assignmentId=3c0e0830-cd8f-4e5d-b38b-c3144ba4eacb&projectId=a0a8f18c-a66e-4ba7-a170-23efbdc67501","CEFD2FE92E6847B2B27FF0175811CE81-2024-11-24-18-34-09","","null","","images/schematic_sequence/restaurant_scheme/restaurant_scheme_0.png","null","",""
"","","","","","image-button-response","25","196597","0.0-10.0-1.0-0.0","CEFD2FE92E6847B2B27FF0175811CE81","CEFD2FE92E6847B2B27FF0175811CE81","3c0e0830-cd8f-4e5d-b38b-c3144ba4eacb","a0a8f18c-a66e-4ba7-a170-23efbdc67501","{""participantId"":""CEFD2FE92E6847B2B27FF0175811CE81"",""assignmentId"":""3c0e0830-cd8f-4e5d-b38b-c3144ba4eacb"",""projectId"":""a0a8f18c-a66e-4ba7-a170-23efbdc67501""}","https://test12345.live/?participantId=CEFD2FE92E6847B2B27FF0175811CE81&assignmentId=3c0e0830-cd8f-4e5d-b38b-c3144ba4eacb&projectId=a0a8f18c-a66e-4ba7-a170-23efbdc67501","CEFD2FE92E6847B2B27FF0175811CE81-2024-11-24-18-34-09","","null","","images/schematic_sequence/restaurant_scheme/restaurant_scheme_1.png","null","",""
"","","","","","image-button-response","26","198798","0.0-10.0-1.0-1.0","CEFD2FE92E6847B2B27FF0175811CE81","CEFD2FE92E6847B2B27FF0175811CE81","3c0e0830-cd8f-4e5d-b38b-c3144ba4eacb","a0a8f18c-a66e-4ba7-a170-23efbdc67501","{""participantId"":""CEFD2FE92E6847B2B27FF0175811CE81"",""assignmentId"":""3c0e0830-cd8f-4e5d-b38b-c3144ba4eacb"",""projectId"":""a0a8f18c-a66e-4ba7-a170-23efbdc67501""}","https://test12345.live/?participantId=CEFD2FE92E6847B2B27FF0175811CE81&assignmentId=3c0e0830-cd8f-4e5d-b38b-c3144ba4eacb&projectId=a0a8f18c-a66e-4ba7-a170-23efbdc67501","CEFD2FE92E6847B2B27FF0175811CE81-2024-11-24-18-34-09","","2199","","images/schematic_sequence/restaurant_scheme/restaurant_scheme_1.png","0","",""
"","","","","","image-button-response","27","200604","0.0-10.0-1.0-2.0","CEFD2FE92E6847B2B27FF0175811CE81","CEFD2FE92E6847B2B27FF0175811CE81","3c0e0830-cd8f-4e5d-b38b-c3144ba4eacb","a0a8f18c-a66e-4ba7-a170-23efbdc67501","{""participantId"":""CEFD2FE92E6847B2B27FF0175811CE81"",""assignmentId"":""3c0e0830-cd8f-4e5d-b38b-c3144ba4eacb"",""projectId"":""a0a8f18c-a66e-4ba7-a170-23efbdc67501""}","https://test12345.live/?participantId=CEFD2FE92E6847B2B27FF0175811CE81&assignmentId=3c0e0830-cd8f-4e5d-b38b-c3144ba4eacb&projectId=a0a8f18c-a66e-4ba7-a170-23efbdc67501","CEFD2FE92E6847B2B27FF0175811CE81-2024-11-24-18-34-09","","null","","[]","null","",""
"","","","","","image-button-response","28","205108","0.0-10.0-1.0-0.1","CEFD2FE92E6847B2B27FF0175811CE81","CEFD2FE92E6847B2B27FF0175811CE81","3c0e0830-cd8f-4e5d-b38b-c3144ba4eacb","a0a8f18c-a66e-4ba7-a170-23efbdc67501","{""participantId"":""CEFD2FE92E6847B2B27FF0175811CE81"",""assignmentId"":""3c0e0830-cd8f-4e5d-b38b-c3144ba4eacb"",""projectId"":""a0a8f18c-a66e-4ba7-a170-23efbdc67501""}","https://test12345.live/?participantId=CEFD2FE92E6847B2B27FF0175811CE81&assignmentId=3c0e0830-cd8f-4e5d-b38b-c3144ba4eacb&projectId=a0a8f18c-a66e-4ba7-a170-23efbdc67501","CEFD2FE92E6847B2B27FF0175811CE81-2024-11-24-18-34-09","","null","","images/schematic_sequence/restaurant_scheme/restaurant_scheme_2.png","null","",""
"","","","","","image-button-response","29","206157","0.0-10.0-1.0-1.1","CEFD2FE92E6847B2B27FF0175811CE81","CEFD2FE92E6847B2B27FF0175811CE81","3c0e0830-cd8f-4e5d-b38b-c3144ba4eacb","a0a8f18c-a66e-4ba7-a170-23efbdc67501","{""participantId"":""CEFD2FE92E6847B2B27FF0175811CE81"",""assignmentId"":""3c0e0830-cd8f-4e5d-b38b-c3144ba4eacb"",""projectId"":""a0a8f18c-a66e-4ba7-a170-23efbdc67501""}","https://test12345.live/?participantId=CEFD2FE92E6847B2B27FF0175811CE81&assignmentId=3c0e0830-cd8f-4e5d-b38b-c3144ba4eacb&projectId=a0a8f18c-a66e-4ba7-a170-23efbdc67501","CEFD2FE92E6847B2B27FF0175811CE81-2024-11-24-18-34-09","","1048","","images/schematic_sequence/restaurant_scheme/restaurant_scheme_2.png","1","",""
"","","","","","image-button-response","30","207963","0.0-10.0-1.0-2.1","CEFD2FE92E6847B2B27FF0175811CE81","CEFD2FE92E6847B2B27FF0175811CE81","3c0e0830-cd8f-4e5d-b38b-c3144ba4eacb","a0a8f18c-a66e-4ba7-a170-23efbdc67501","{""participantId"":""CEFD2FE92E6847B2B27FF0175811CE81"",""assignmentId"":""3c0e0830-cd8f-4e5d-b38b-c3144ba4eacb"",""projectId"":""a0a8f18c-a66e-4ba7-a170-23efbdc67501""}","https://test12345.live/?participantId=CEFD2FE92E6847B2B27FF0175811CE81&assignmentId=3c0e0830-cd8f-4e5d-b38b-c3144ba4eacb&projectId=a0a8f18c-a66e-4ba7-a170-23efbdc67501","CEFD2FE92E6847B2B27FF0175811CE81-2024-11-24-18-34-09","","null","","[]","null","",""
"","","","","","image-button-response","31","212470","0.0-10.0-1.0-0.2","CEFD2FE92E6847B2B27FF0175811CE81","CEFD2FE92E6847B2B27FF0175811CE81","3c0e0830-cd8f-4e5d-b38b-c3144ba4eacb","a0a8f18c-a66e-4ba7-a170-23efbdc67501","{""participantId"":""CEFD2FE92E6847B2B27FF0175811CE81"",""assignmentId"":""3c0e0830-cd8f-4e5d-b38b-c3144ba4eacb"",""projectId"":""a0a8f18c-a66e-4ba7-a170-23efbdc67501""}","https://test12345.live/?participantId=CEFD2FE92E6847B2B27FF0175811CE81&assignmentId=3c0e0830-cd8f-4e5d-b38b-c3144ba4eacb&projectId=a0a8f18c-a66e-4ba7-a170-23efbdc67501","CEFD2FE92E6847B2B27FF0175811CE81-2024-11-24-18-34-09","","null","","images/schematic_sequence/restaurant_scheme/restaurant_scheme_3.png","null","",""
"","","","","","image-button-response","32","213423","0.0-10.0-1.0-1.2","CEFD2FE92E6847B2B27FF0175811CE81","CEFD2FE92E6847B2B27FF0175811CE81","3c0e0830-cd8f-4e5d-b38b-c3144ba4eacb","a0a8f18c-a66e-4ba7-a170-23efbdc67501","{""participantId"":""CEFD2FE92E6847B2B27FF0175811CE81"",""assignmentId"":""3c0e0830-cd8f-4e5d-b38b-c3144ba4eacb"",""projectId"":""a0a8f18c-a66e-4ba7-a170-23efbdc67501""}","https://test12345.live/?participantId=CEFD2FE92E6847B2B27FF0175811CE81&assignmentId=3c0e0830-cd8f-4e5d-b38b-c3144ba4eacb&projectId=a0a8f18c-a66e-4ba7-a170-23efbdc67501","CEFD2FE92E6847B2B27FF0175811CE81-2024-11-24-18-34-09","","951","","images/schematic_sequence/restaurant_scheme/restaurant_scheme_3.png","1","",""
"","","","","","image-button-response","33","215229","0.0-10.0-1.0-2.2","CEFD2FE92E6847B2B27FF0175811CE81","CEFD2FE92E6847B2B27FF0175811CE81","3c0e0830-cd8f-4e5d-b38b-c3144ba4eacb","a0a8f18c-a66e-4ba7-a170-23efbdc67501","{""participantId"":""CEFD2FE92E6847B2B27FF0175811CE81"",""assignmentId"":""3c0e0830-cd8f-4e5d-b38b-c3144ba4eacb"",""projectId"":""a0a8f18c-a66e-4ba7-a170-23efbdc67501""}","https://test12345.live/?participantId=CEFD2FE92E6847B2B27FF0175811CE81&assignmentId=3c0e0830-cd8f-4e5d-b38b-c3144ba4eacb&projectId=a0a8f18c-a66e-4ba7-a170-23efbdc67501","CEFD2FE92E6847B2B27FF0175811CE81-2024-11-24-18-34-09","","null","","[]","null","",""
"","","","","","image-button-response","34","219733","0.0-10.0-1.0-0.3","CEFD2FE92E6847B2B27FF0175811CE81","CEFD2FE92E6847B2B27FF0175811CE81","3c0e0830-cd8f-4e5d-b38b-c3144ba4eacb","a0a8f18c-a66e-4ba7-a170-23efbdc67501","{""participantId"":""CEFD2FE92E6847B2B27FF0175811CE81"",""assignmentId"":""3c0e0830-cd8f-4e5d-b38b-c3144ba4eacb"",""projectId"":""a0a8f18c-a66e-4ba7-a170-23efbdc67501""}","https://test12345.live/?participantId=CEFD2FE92E6847B2B27FF0175811CE81&assignmentId=3c0e0830-cd8f-4e5d-b38b-c3144ba4eacb&projectId=a0a8f18c-a66e-4ba7-a170-23efbdc67501","CEFD2FE92E6847B2B27FF0175811CE81-2024-11-24-18-34-09","","null","","images/schematic_sequence/restaurant_scheme/restaurant_scheme_4.png","null","",""
"","","","","","image-button-response","35","221162","0.0-10.0-1.0-1.3","CEFD2FE92E6847B2B27FF0175811CE81","CEFD2FE92E6847B2B27FF0175811CE81","3c0e0830-cd8f-4e5d-b38b-c3144ba4eacb","a0a8f18c-a66e-4ba7-a170-23efbdc67501","{""participantId"":""CEFD2FE92E6847B2B27FF0175811CE81"",""assignmentId"":""3c0e0830-cd8f-4e5d-b38b-c3144ba4eacb"",""projectId"":""a0a8f18c-a66e-4ba7-a170-23efbdc67501""}","https://test12345.live/?participantId=CEFD2FE92E6847B2B27FF0175811CE81&assignmentId=3c0e0830-cd8f-4e5d-b38b-c3144ba4eacb&projectId=a0a8f18c-a66e-4ba7-a170-23efbdc67501","CEFD2FE92E6847B2B27FF0175811CE81-2024-11-24-18-34-09","","1427","","images/schematic_sequence/restaurant_scheme/restaurant_scheme_4.png","0","",""
"","","","","","image-button-response","36","222968","0.0-10.0-1.0-2.3","CEFD2FE92E6847B2B27FF0175811CE81","CEFD2FE92E6847B2B27FF0175811CE81","3c0e0830-cd8f-4e5d-b38b-c3144ba4eacb","a0a8f18c-a66e-4ba7-a170-23efbdc67501","{""participantId"":""CEFD2FE92E6847B2B27FF0175811CE81"",""assignmentId"":""3c0e0830-cd8f-4e5d-b38b-c3144ba4eacb"",""projectId"":""a0a8f18c-a66e-4ba7-a170-23efbdc67501""}","https://test12345.live/?participantId=CEFD2FE92E6847B2B27FF0175811CE81&assignmentId=3c0e0830-cd8f-4e5d-b38b-c3144ba4eacb&projectId=a0a8f18c-a66e-4ba7-a170-23efbdc67501","CEFD2FE92E6847B2B27FF0175811CE81-2024-11-24-18-34-09","","null","","[]","null","",""
"","","","","","image-button-response","37","227470","0.0-10.0-1.0-0.4","CEFD2FE92E6847B2B27FF0175811CE81","CEFD2FE92E6847B2B27FF0175811CE81","3c0e0830-cd8f-4e5d-b38b-c3144ba4eacb","a0a8f18c-a66e-4ba7-a170-23efbdc67501","{""participantId"":""CEFD2FE92E6847B2B27FF0175811CE81"",""assignmentId"":""3c0e0830-cd8f-4e5d-b38b-c3144ba4eacb"",""projectId"":""a0a8f18c-a66e-4ba7-a170-23efbdc67501""}","https://test12345.live/?participantId=CEFD2FE92E6847B2B27FF0175811CE81&assignmentId=3c0e0830-cd8f-4e5d-b38b-c3144ba4eacb&projectId=a0a8f18c-a66e-4ba7-a170-23efbdc67501","CEFD2FE92E6847B2B27FF0175811CE81-2024-11-24-18-34-09","","null","","images/schematic_sequence/restaurant_scheme/restaurant_scheme_5.png","null","",""
"","","","","","image-button-response","38","228285","0.0-10.0-1.0-1.4","CEFD2FE92E6847B2B27FF0175811CE81","CEFD2FE92E6847B2B27FF0175811CE81","3c0e0830-cd8f-4e5d-b38b-c3144ba4eacb","a0a8f18c-a66e-4ba7-a170-23efbdc67501","{""participantId"":""CEFD2FE92E6847B2B27FF0175811CE81"",""assignmentId"":""3c0e0830-cd8f-4e5d-b38b-c3144ba4eacb"",""projectId"":""a0a8f18c-a66e-4ba7-a170-23efbdc67501""}","https://test12345.live/?participantId=CEFD2FE92E6847B2B27FF0175811CE81&assignmentId=3c0e0830-cd8f-4e5d-b38b-c3144ba4eacb&projectId=a0a8f18c-a66e-4ba7-a170-23efbdc67501","CEFD2FE92E6847B2B27FF0175811CE81-2024-11-24-18-34-09","","813","","images/schematic_sequence/restaurant_scheme/restaurant_scheme_5.png","0","",""
"","","","","","image-button-response","39","230091","0.0-10.0-1.0-2.4","CEFD2FE92E6847B2B27FF0175811CE81","CEFD2FE92E6847B2B27FF0175811CE81","3c0e0830-cd8f-4e5d-b38b-c3144ba4eacb","a0a8f18c-a66e-4ba7-a170-23efbdc67501","{""participantId"":""CEFD2FE92E6847B2B27FF0175811CE81"",""assignmentId"":""3c0e0830-cd8f-4e5d-b38b-c3144ba4eacb"",""projectId"":""a0a8f18c-a66e-4ba7-a170-23efbdc67501""}","https://test12345.live/?participantId=CEFD2FE92E6847B2B27FF0175811CE81&assignmentId=3c0e0830-cd8f-4e5d-b38b-c3144ba4eacb&projectId=a0a8f18c-a66e-4ba7-a170-23efbdc67501","CEFD2FE92E6847B2B27FF0175811CE81-2024-11-24-18-34-09","","null","","[]","null","",""
"","","","","","image-button-response","40","234593","0.0-10.0-1.0-0.5","CEFD2FE92E6847B2B27FF0175811CE81","CEFD2FE92E6847B2B27FF0175811CE81","3c0e0830-cd8f-4e5d-b38b-c3144ba4eacb","a0a8f18c-a66e-4ba7-a170-23efbdc67501","{""participantId"":""CEFD2FE92E6847B2B27FF0175811CE81"",""assignmentId"":""3c0e0830-cd8f-4e5d-b38b-c3144ba4eacb"",""projectId"":""a0a8f18c-a66e-4ba7-a170-23efbdc67501""}","https://test12345.live/?participantId=CEFD2FE92E6847B2B27FF0175811CE81&assignmentId=3c0e0830-cd8f-4e5d-b38b-c3144ba4eacb&projectId=a0a8f18c-a66e-4ba7-a170-23efbdc67501","CEFD2FE92E6847B2B27FF0175811CE81-2024-11-24-18-34-09","","null","","images/schematic_sequence/restaurant_scheme/restaurant_scheme_6.png","null","",""
"","","","","","image-button-response","41","235510","0.0-10.0-1.0-1.5","CEFD2FE92E6847B2B27FF0175811CE81","CEFD2FE92E6847B2B27FF0175811CE81","3c0e0830-cd8f-4e5d-b38b-c3144ba4eacb","a0a8f18c-a66e-4ba7-a170-23efbdc67501","{""participantId"":""CEFD2FE92E6847B2B27FF0175811CE81"",""assignmentId"":""3c0e0830-cd8f-4e5d-b38b-c3144ba4eacb"",""projectId"":""a0a8f18c-a66e-4ba7-a170-23efbdc67501""}","https://test12345.live/?participantId=CEFD2FE92E6847B2B27FF0175811CE81&assignmentId=3c0e0830-cd8f-4e5d-b38b-c3144ba4eacb&projectId=a0a8f18c-a66e-4ba7-a170-23efbdc67501","CEFD2FE92E6847B2B27FF0175811CE81-2024-11-24-18-34-09","","916","","images/schematic_sequence/restaurant_scheme/restaurant_scheme_6.png","1","",""
"","","","","","image-button-response","42","237313","0.0-10.0-1.0-2.5","CEFD2FE92E6847B2B27FF0175811CE81","CEFD2FE92E6847B2B27FF0175811CE81","3c0e0830-cd8f-4e5d-b38b-c3144ba4eacb","a0a8f18c-a66e-4ba7-a170-23efbdc67501","{""participantId"":""CEFD2FE92E6847B2B27FF0175811CE81"",""assignmentId"":""3c0e0830-cd8f-4e5d-b38b-c3144ba4eacb"",""projectId"":""a0a8f18c-a66e-4ba7-a170-23efbdc67501""}","https://test12345.live/?participantId=CEFD2FE92E6847B2B27FF0175811CE81&assignmentId=3c0e0830-cd8f-4e5d-b38b-c3144ba4eacb&projectId=a0a8f18c-a66e-4ba7-a170-23efbdc67501","CEFD2FE92E6847B2B27FF0175811CE81-2024-11-24-18-34-09","","null","","[]","null","",""
"","","","","","image-button-response","43","241815","0.0-10.0-1.0-0.6","CEFD2FE92E6847B2B27FF0175811CE81","CEFD2FE92E6847B2B27FF0175811CE81","3c0e0830-cd8f-4e5d-b38b-c3144ba4eacb","a0a8f18c-a66e-4ba7-a170-23efbdc67501","{""participantId"":""CEFD2FE92E6847B2B27FF0175811CE81"",""assignmentId"":""3c0e0830-cd8f-4e5d-b38b-c3144ba4eacb"",""projectId"":""a0a8f18c-a66e-4ba7-a170-23efbdc67501""}","https://test12345.live/?participantId=CEFD2FE92E6847B2B27FF0175811CE81&assignmentId=3c0e0830-cd8f-4e5d-b38b-c3144ba4eacb&projectId=a0a8f18c-a66e-4ba7-a170-23efbdc67501","CEFD2FE92E6847B2B27FF0175811CE81-2024-11-24-18-34-09","","null","","images/schematic_sequence/restaurant_scheme/restaurant_scheme_7.png","null","",""
"","","","","","image-button-response","44","242629","0.0-10.0-1.0-1.6","CEFD2FE92E6847B2B27FF0175811CE81","CEFD2FE92E6847B2B27FF0175811CE81","3c0e0830-cd8f-4e5d-b38b-c3144ba4eacb","a0a8f18c-a66e-4ba7-a170-23efbdc67501","{""participantId"":""CEFD2FE92E6847B2B27FF0175811CE81"",""assignmentId"":""3c0e0830-cd8f-4e5d-b38b-c3144ba4eacb"",""projectId"":""a0a8f18c-a66e-4ba7-a170-23efbdc67501""}","https://test12345.live/?participantId=CEFD2FE92E6847B2B27FF0175811CE81&assignmentId=3c0e0830-cd8f-4e5d-b38b-c3144ba4eacb&projectId=a0a8f18c-a66e-4ba7-a170-23efbdc67501","CEFD2FE92E6847B2B27FF0175811CE81-2024-11-24-18-34-09","","813","","images/schematic_sequence/restaurant_scheme/restaurant_scheme_7.png","1","",""
"","","","","","image-button-response","45","244432","0.0-10.0-1.0-2.6","CEFD2FE92E6847B2B27FF0175811CE81","CEFD2FE92E6847B2B27FF0175811CE81","3c0e0830-cd8f-4e5d-b38b-c3144ba4eacb","a0a8f18c-a66e-4ba7-a170-23efbdc67501","{""participantId"":""CEFD2FE92E6847B2B27FF0175811CE81"",""assignmentId"":""3c0e0830-cd8f-4e5d-b38b-c3144ba4eacb"",""projectId"":""a0a8f18c-a66e-4ba7-a170-23efbdc67501""}","https://test12345.live/?participantId=CEFD2FE92E6847B2B27FF0175811CE81&assignmentId=3c0e0830-cd8f-4e5d-b38b-c3144ba4eacb&projectId=a0a8f18c-a66e-4ba7-a170-23efbdc67501","CEFD2FE92E6847B2B27FF0175811CE81-2024-11-24-18-34-09","","null","","[]","null","",""
"","","","","","image-button-response","46","248933","0.0-10.0-1.0-0.7","CEFD2FE92E6847B2B27FF0175811CE81","CEFD2FE92E6847B2B27FF0175811CE81","3c0e0830-cd8f-4e5d-b38b-c3144ba4eacb","a0a8f18c-a66e-4ba7-a170-23efbdc67501","{""participantId"":""CEFD2FE92E6847B2B27FF0175811CE81"",""assignmentId"":""3c0e0830-cd8f-4e5d-b38b-c3144ba4eacb"",""projectId"":""a0a8f18c-a66e-4ba7-a170-23efbdc67501""}","https://test12345.live/?participantId=CEFD2FE92E6847B2B27FF0175811CE81&assignmentId=3c0e0830-cd8f-4e5d-b38b-c3144ba4eacb&projectId=a0a8f18c-a66e-4ba7-a170-23efbdc67501","CEFD2FE92E6847B2B27FF0175811CE81-2024-11-24-18-34-09","","null","","images/schematic_sequence/restaurant_scheme/restaurant_scheme_8.png","null","",""
"","","","","","image-button-response","47","249900","0.0-10.0-1.0-1.7","CEFD2FE92E6847B2B27FF0175811CE81","CEFD2FE92E6847B2B27FF0175811CE81","3c0e0830-cd8f-4e5d-b38b-c3144ba4eacb","a0a8f18c-a66e-4ba7-a170-23efbdc67501","{""participantId"":""CEFD2FE92E6847B2B27FF0175811CE81"",""assignmentId"":""3c0e0830-cd8f-4e5d-b38b-c3144ba4eacb"",""projectId"":""a0a8f18c-a66e-4ba7-a170-23efbdc67501""}","https://test12345.live/?participantId=CEFD2FE92E6847B2B27FF0175811CE81&assignmentId=3c0e0830-cd8f-4e5d-b38b-c3144ba4eacb&projectId=a0a8f18c-a66e-4ba7-a170-23efbdc67501","CEFD2FE92E6847B2B27FF0175811CE81-2024-11-24-18-34-09","","965","","images/schematic_sequence/restaurant_scheme/restaurant_scheme_8.png","1","",""
"","","","","","image-button-response","48","251706","0.0-10.0-1.0-2.7","CEFD2FE92E6847B2B27FF0175811CE81","CEFD2FE92E6847B2B27FF0175811CE81","3c0e0830-cd8f-4e5d-b38b-c3144ba4eacb","a0a8f18c-a66e-4ba7-a170-23efbdc67501","{""participantId"":""CEFD2FE92E6847B2B27FF0175811CE81"",""assignmentId"":""3c0e0830-cd8f-4e5d-b38b-c3144ba4eacb"",""projectId"":""a0a8f18c-a66e-4ba7-a170-23efbdc67501""}","https://test12345.live/?participantId=CEFD2FE92E6847B2B27FF0175811CE81&assignmentId=3c0e0830-cd8f-4e5d-b38b-c3144ba4eacb&projectId=a0a8f18c-a66e-4ba7-a170-23efbdc67501","CEFD2FE92E6847B2B27FF0175811CE81-2024-11-24-18-34-09","","null","","[]","null","",""
"","","","","","image-button-response","49","256213","0.0-10.0-1.0-0.8","CEFD2FE92E6847B2B27FF0175811CE81","CEFD2FE92E6847B2B27FF0175811CE81","3c0e0830-cd8f-4e5d-b38b-c3144ba4eacb","a0a8f18c-a66e-4ba7-a170-23efbdc67501","{""participantId"":""CEFD2FE92E6847B2B27FF0175811CE81"",""assignmentId"":""3c0e0830-cd8f-4e5d-b38b-c3144ba4eacb"",""projectId"":""a0a8f18c-a66e-4ba7-a170-23efbdc67501""}","https://test12345.live/?participantId=CEFD2FE92E6847B2B27FF0175811CE81&assignmentId=3c0e0830-cd8f-4e5d-b38b-c3144ba4eacb&projectId=a0a8f18c-a66e-4ba7-a170-23efbdc67501","CEFD2FE92E6847B2B27FF0175811CE81-2024-11-24-18-34-09","","null","","images/schematic_sequence/restaurant_scheme/restaurant_scheme_9.png","null","",""
"","","","","","image-button-response","50","257199","0.0-10.0-1.0-1.8","CEFD2FE92E6847B2B27FF0175811CE81","CEFD2FE92E6847B2B27FF0175811CE81","3c0e0830-cd8f-4e5d-b38b-c3144ba4eacb","a0a8f18c-a66e-4ba7-a170-23efbdc67501","{""participantId"":""CEFD2FE92E6847B2B27FF0175811CE81"",""assignmentId"":""3c0e0830-cd8f-4e5d-b38b-c3144ba4eacb"",""projectId"":""a0a8f18c-a66e-4ba7-a170-23efbdc67501""}","https://test12345.live/?participantId=CEFD2FE92E6847B2B27FF0175811CE81&assignmentId=3c0e0830-cd8f-4e5d-b38b-c3144ba4eacb&projectId=a0a8f18c-a66e-4ba7-a170-23efbdc67501","CEFD2FE92E6847B2B27FF0175811CE81-2024-11-24-18-34-09","","984","","images/schematic_sequence/restaurant_scheme/restaurant_scheme_9.png","0","",""
"","","","","","image-button-response","51","259004","0.0-10.0-1.0-2.8","CEFD2FE92E6847B2B27FF0175811CE81","CEFD2FE92E6847B2B27FF0175811CE81","3c0e0830-cd8f-4e5d-b38b-c3144ba4eacb","a0a8f18c-a66e-4ba7-a170-23efbdc67501","{""participantId"":""CEFD2FE92E6847B2B27FF0175811CE81"",""assignmentId"":""3c0e0830-cd8f-4e5d-b38b-c3144ba4eacb"",""projectId"":""a0a8f18c-a66e-4ba7-a170-23efbdc67501""}","https://test12345.live/?participantId=CEFD2FE92E6847B2B27FF0175811CE81&assignmentId=3c0e0830-cd8f-4e5d-b38b-c3144ba4eacb&projectId=a0a8f18c-a66e-4ba7-a170-23efbdc67501","CEFD2FE92E6847B2B27FF0175811CE81-2024-11-24-18-34-09","","null","","[]","null","",""
"","","","","","image-button-response","52","263509","0.0-10.0-1.0-0.9","CEFD2FE92E6847B2B27FF0175811CE81","CEFD2FE92E6847B2B27FF0175811CE81","3c0e0830-cd8f-4e5d-b38b-c3144ba4eacb","a0a8f18c-a66e-4ba7-a170-23efbdc67501","{""participantId"":""CEFD2FE92E6847B2B27FF0175811CE81"",""assignmentId"":""3c0e0830-cd8f-4e5d-b38b-c3144ba4eacb"",""projectId"":""a0a8f18c-a66e-4ba7-a170-23efbdc67501""}","https://test12345.live/?participantId=CEFD2FE92E6847B2B27FF0175811CE81&assignmentId=3c0e0830-cd8f-4e5d-b38b-c3144ba4eacb&projectId=a0a8f18c-a66e-4ba7-a170-23efbdc67501","CEFD2FE92E6847B2B27FF0175811CE81-2024-11-24-18-34-09","","null","","images/schematic_sequence/restaurant_scheme/restaurant_scheme_ten.png","null","",""
"","","","","","image-button-response","53","265073","0.0-10.0-1.0-1.9","CEFD2FE92E6847B2B27FF0175811CE81","CEFD2FE92E6847B2B27FF0175811CE81","3c0e0830-cd8f-4e5d-b38b-c3144ba4eacb","a0a8f18c-a66e-4ba7-a170-23efbdc67501","{""participantId"":""CEFD2FE92E6847B2B27FF0175811CE81"",""assignmentId"":""3c0e0830-cd8f-4e5d-b38b-c3144ba4eacb"",""projectId"":""a0a8f18c-a66e-4ba7-a170-23efbdc67501""}","https://test12345.live/?participantId=CEFD2FE92E6847B2B27FF0175811CE81&assignmentId=3c0e0830-cd8f-4e5d-b38b-c3144ba4eacb&projectId=a0a8f18c-a66e-4ba7-a170-23efbdc67501","CEFD2FE92E6847B2B27FF0175811CE81-2024-11-24-18-34-09","","1563","","images/schematic_sequence/restaurant_scheme/restaurant_scheme_ten.png","0","",""
"","","","","","image-button-response","54","266876","0.0-10.0-1.0-2.9","CEFD2FE92E6847B2B27FF0175811CE81","CEFD2FE92E6847B2B27FF0175811CE81","3c0e0830-cd8f-4e5d-b38b-c3144ba4eacb","a0a8f18c-a66e-4ba7-a170-23efbdc67501","{""participantId"":""CEFD2FE92E6847B2B27FF0175811CE81"",""assignmentId"":""3c0e0830-cd8f-4e5d-b38b-c3144ba4eacb"",""projectId"":""a0a8f18c-a66e-4ba7-a170-23efbdc67501""}","https://test12345.live/?participantId=CEFD2FE92E6847B2B27FF0175811CE81&assignmentId=3c0e0830-cd8f-4e5d-b38b-c3144ba4eacb&projectId=a0a8f18c-a66e-4ba7-a170-23efbdc67501","CEFD2FE92E6847B2B27FF0175811CE81-2024-11-24-18-34-09","","null","","[]","null","",""
"","","","","","html-audio-response","55","303964","0.0-11.0","CEFD2FE92E6847B2B27FF0175811CE81","CEFD2FE92E6847B2B27FF0175811CE81","3c0e0830-cd8f-4e5d-b38b-c3144ba4eacb","a0a8f18c-a66e-4ba7-a170-23efbdc67501","{""participantId"":""CEFD2FE92E6847B2B27FF0175811CE81"",""assignmentId"":""3c0e0830-cd8f-4e5d-b38b-c3144ba4eacb"",""projectId"":""a0a8f18c-a66e-4ba7-a170-23efbdc67501""}","https://test12345.live/?participantId=CEFD2FE92E6847B2B27FF0175811CE81&assignmentId=3c0e0830-cd8f-4e5d-b38b-c3144ba4eacb&projectId=a0a8f18c-a66e-4ba7-a170-23efbdc67501","CEFD2FE92E6847B2B27FF0175811CE81-2024-11-24-18-34-09","","26732","","[""<span style=\""color: red; font-size: 24px\""> NOW RECORDING</span><p>Please say out loud all the images you saw, as many as you can remember. The images can be said in any order.</p>""]","","7","restaurant_scheme"
"","","","","","image-button-response","56","309974","0.0-12.0-0.0","CEFD2FE92E6847B2B27FF0175811CE81","CEFD2FE92E6847B2B27FF0175811CE81","3c0e0830-cd8f-4e5d-b38b-c3144ba4eacb","a0a8f18c-a66e-4ba7-a170-23efbdc67501","{""participantId"":""CEFD2FE92E6847B2B27FF0175811CE81"",""assignmentId"":""3c0e0830-cd8f-4e5d-b38b-c3144ba4eacb"",""projectId"":""a0a8f18c-a66e-4ba7-a170-23efbdc67501""}","https://test12345.live/?participantId=CEFD2FE92E6847B2B27FF0175811CE81&assignmentId=3c0e0830-cd8f-4e5d-b38b-c3144ba4eacb&projectId=a0a8f18c-a66e-4ba7-a170-23efbdc67501","CEFD2FE92E6847B2B27FF0175811CE81-2024-11-24-18-34-09","","null","","images/schematic_sequence/flight_scheme/flight_scheme_0.png","null","",""
"","","","","","image-button-response","57","314478","0.0-12.0-1.0-0.0","CEFD2FE92E6847B2B27FF0175811CE81","CEFD2FE92E6847B2B27FF0175811CE81","3c0e0830-cd8f-4e5d-b38b-c3144ba4eacb","a0a8f18c-a66e-4ba7-a170-23efbdc67501","{""participantId"":""CEFD2FE92E6847B2B27FF0175811CE81"",""assignmentId"":""3c0e0830-cd8f-4e5d-b38b-c3144ba4eacb"",""projectId"":""a0a8f18c-a66e-4ba7-a170-23efbdc67501""}","https://test12345.live/?participantId=CEFD2FE92E6847B2B27FF0175811CE81&assignmentId=3c0e0830-cd8f-4e5d-b38b-c3144ba4eacb&projectId=a0a8f18c-a66e-4ba7-a170-23efbdc67501","CEFD2FE92E6847B2B27FF0175811CE81-2024-11-24-18-34-09","","null","","images/schematic_sequence/flight_scheme/flight_scheme_2.png","null","",""
"","","","","","image-button-response","58","318481","0.0-12.0-1.0-1.0","CEFD2FE92E6847B2B27FF0175811CE81","CEFD2FE92E6847B2B27FF0175811CE81","3c0e0830-cd8f-4e5d-b38b-c3144ba4eacb","a0a8f18c-a66e-4ba7-a170-23efbdc67501","{""participantId"":""CEFD2FE92E6847B2B27FF0175811CE81"",""assignmentId"":""3c0e0830-cd8f-4e5d-b38b-c3144ba4eacb"",""projectId"":""a0a8f18c-a66e-4ba7-a170-23efbdc67501""}","https://test12345.live/?participantId=CEFD2FE92E6847B2B27FF0175811CE81&assignmentId=3c0e0830-cd8f-4e5d-b38b-c3144ba4eacb&projectId=a0a8f18c-a66e-4ba7-a170-23efbdc67501","CEFD2FE92E6847B2B27FF0175811CE81-2024-11-24-18-34-09","","null","","images/schematic_sequence/flight_scheme/flight_scheme_2.png","null","",""
"","","","","","image-button-response","59","320286","0.0-12.0-1.0-2.0","CEFD2FE92E6847B2B27FF0175811CE81","CEFD2FE92E6847B2B27FF0175811CE81","3c0e0830-cd8f-4e5d-b38b-c3144ba4eacb","a0a8f18c-a66e-4ba7-a170-23efbdc67501","{""participantId"":""CEFD2FE92E6847B2B27FF0175811CE81"",""assignmentId"":""3c0e0830-cd8f-4e5d-b38b-c3144ba4eacb"",""projectId"":""a0a8f18c-a66e-4ba7-a170-23efbdc67501""}","https://test12345.live/?participantId=CEFD2FE92E6847B2B27FF0175811CE81&assignmentId=3c0e0830-cd8f-4e5d-b38b-c3144ba4eacb&projectId=a0a8f18c-a66e-4ba7-a170-23efbdc67501","CEFD2FE92E6847B2B27FF0175811CE81-2024-11-24-18-34-09","","null","","[]","null","",""
"","","","","","image-button-response","60","324790","0.0-12.0-1.0-0.1","CEFD2FE92E6847B2B27FF0175811CE81","CEFD2FE92E6847B2B27FF0175811CE81","3c0e0830-cd8f-4e5d-b38b-c3144ba4eacb","a0a8f18c-a66e-4ba7-a170-23efbdc67501","{""participantId"":""CEFD2FE92E6847B2B27FF0175811CE81"",""assignmentId"":""3c0e0830-cd8f-4e5d-b38b-c3144ba4eacb"",""projectId"":""a0a8f18c-a66e-4ba7-a170-23efbdc67501""}","https://test12345.live/?participantId=CEFD2FE92E6847B2B27FF0175811CE81&assignmentId=3c0e0830-cd8f-4e5d-b38b-c3144ba4eacb&projectId=a0a8f18c-a66e-4ba7-a170-23efbdc67501","CEFD2FE92E6847B2B27FF0175811CE81-2024-11-24-18-34-09","","null","","images/schematic_sequence/flight_scheme/flight_scheme_7.png","null","",""
"","","","","","image-button-response","61","327929","0.0-12.0-1.0-1.1","CEFD2FE92E6847B2B27FF0175811CE81","CEFD2FE92E6847B2B27FF0175811CE81","3c0e0830-cd8f-4e5d-b38b-c3144ba4eacb","a0a8f18c-a66e-4ba7-a170-23efbdc67501","{""participantId"":""CEFD2FE92E6847B2B27FF0175811CE81"",""assignmentId"":""3c0e0830-cd8f-4e5d-b38b-c3144ba4eacb"",""projectId"":""a0a8f18c-a66e-4ba7-a170-23efbdc67501""}","https://test12345.live/?participantId=CEFD2FE92E6847B2B27FF0175811CE81&assignmentId=3c0e0830-cd8f-4e5d-b38b-c3144ba4eacb&projectId=a0a8f18c-a66e-4ba7-a170-23efbdc67501","CEFD2FE92E6847B2B27FF0175811CE81-2024-11-24-18-34-09","","3137","","images/schematic_sequence/flight_scheme/flight_scheme_7.png","1","",""
"","","","","","image-button-response","62","329734","0.0-12.0-1.0-2.1","CEFD2FE92E6847B2B27FF0175811CE81","CEFD2FE92E6847B2B27FF0175811CE81","3c0e0830-cd8f-4e5d-b38b-c3144ba4eacb","a0a8f18c-a66e-4ba7-a170-23efbdc67501","{""participantId"":""CEFD2FE92E6847B2B27FF0175811CE81"",""assignmentId"":""3c0e0830-cd8f-4e5d-b38b-c3144ba4eacb"",""projectId"":""a0a8f18c-a66e-4ba7-a170-23efbdc67501""}","https://test12345.live/?participantId=CEFD2FE92E6847B2B27FF0175811CE81&assignmentId=3c0e0830-cd8f-4e5d-b38b-c3144ba4eacb&projectId=a0a8f18c-a66e-4ba7-a170-23efbdc67501","CEFD2FE92E6847B2B27FF0175811CE81-2024-11-24-18-34-09","","null","","[]","null","",""
"","","","","","image-button-response","63","334240","0.0-12.0-1.0-0.2","CEFD2FE92E6847B2B27FF0175811CE81","CEFD2FE92E6847B2B27FF0175811CE81","3c0e0830-cd8f-4e5d-b38b-c3144ba4eacb","a0a8f18c-a66e-4ba7-a170-23efbdc67501","{""participantId"":""CEFD2FE92E6847B2B27FF0175811CE81"",""assignmentId"":""3c0e0830-cd8f-4e5d-b38b-c3144ba4eacb"",""projectId"":""a0a8f18c-a66e-4ba7-a170-23efbdc67501""}","https://test12345.live/?participantId=CEFD2FE92E6847B2B27FF0175811CE81&assignmentId=3c0e0830-cd8f-4e5d-b38b-c3144ba4eacb&projectId=a0a8f18c-a66e-4ba7-a170-23efbdc67501","CEFD2FE92E6847B2B27FF0175811CE81-2024-11-24-18-34-09","","null","","images/schematic_sequence/flight_scheme/flight_scheme_8.png","null","",""
"","","","","","image-button-response","64","335601","0.0-12.0-1.0-1.2","CEFD2FE92E6847B2B27FF0175811CE81","CEFD2FE92E6847B2B27FF0175811CE81","3c0e0830-cd8f-4e5d-b38b-c3144ba4eacb","a0a8f18c-a66e-4ba7-a170-23efbdc67501","{""participantId"":""CEFD2FE92E6847B2B27FF0175811CE81"",""assignmentId"":""3c0e0830-cd8f-4e5d-b38b-c3144ba4eacb"",""projectId"":""a0a8f18c-a66e-4ba7-a170-23efbdc67501""}","https://test12345.live/?participantId=CEFD2FE92E6847B2B27FF0175811CE81&assignmentId=3c0e0830-cd8f-4e5d-b38b-c3144ba4eacb&projectId=a0a8f18c-a66e-4ba7-a170-23efbdc67501","CEFD2FE92E6847B2B27FF0175811CE81-2024-11-24-18-34-09","","1359","","images/schematic_sequence/flight_scheme/flight_scheme_8.png","1","",""
"","","","","","image-button-response","65","337404","0.0-12.0-1.0-2.2","CEFD2FE92E6847B2B27FF0175811CE81","CEFD2FE92E6847B2B27FF0175811CE81","3c0e0830-cd8f-4e5d-b38b-c3144ba4eacb","a0a8f18c-a66e-4ba7-a170-23efbdc67501","{""participantId"":""CEFD2FE92E6847B2B27FF0175811CE81"",""assignmentId"":""3c0e0830-cd8f-4e5d-b38b-c3144ba4eacb"",""projectId"":""a0a8f18c-a66e-4ba7-a170-23efbdc67501""}","https://test12345.live/?participantId=CEFD2FE92E6847B2B27FF0175811CE81&assignmentId=3c0e0830-cd8f-4e5d-b38b-c3144ba4eacb&projectId=a0a8f18c-a66e-4ba7-a170-23efbdc67501","CEFD2FE92E6847B2B27FF0175811CE81-2024-11-24-18-34-09","","null","","[]","null","",""
"","","","","","image-button-response","66","341909","0.0-12.0-1.0-0.3","CEFD2FE92E6847B2B27FF0175811CE81","CEFD2FE92E6847B2B27FF0175811CE81","3c0e0830-cd8f-4e5d-b38b-c3144ba4eacb","a0a8f18c-a66e-4ba7-a170-23efbdc67501","{""participantId"":""CEFD2FE92E6847B2B27FF0175811CE81"",""assignmentId"":""3c0e0830-cd8f-4e5d-b38b-c3144ba4eacb"",""projectId"":""a0a8f18c-a66e-4ba7-a170-23efbdc67501""}","https://test12345.live/?participantId=CEFD2FE92E6847B2B27FF0175811CE81&assignmentId=3c0e0830-cd8f-4e5d-b38b-c3144ba4eacb&projectId=a0a8f18c-a66e-4ba7-a170-23efbdc67501","CEFD2FE92E6847B2B27FF0175811CE81-2024-11-24-18-34-09","","null","","images/schematic_sequence/flight_scheme/flight_scheme_1.png","null","",""
"","","","","","image-button-response","67","343584","0.0-12.0-1.0-1.3","CEFD2FE92E6847B2B27FF0175811CE81","CEFD2FE92E6847B2B27FF0175811CE81","3c0e0830-cd8f-4e5d-b38b-c3144ba4eacb","a0a8f18c-a66e-4ba7-a170-23efbdc67501","{""participantId"":""CEFD2FE92E6847B2B27FF0175811CE81"",""assignmentId"":""3c0e0830-cd8f-4e5d-b38b-c3144ba4eacb"",""projectId"":""a0a8f18c-a66e-4ba7-a170-23efbdc67501""}","https://test12345.live/?participantId=CEFD2FE92E6847B2B27FF0175811CE81&assignmentId=3c0e0830-cd8f-4e5d-b38b-c3144ba4eacb&projectId=a0a8f18c-a66e-4ba7-a170-23efbdc67501","CEFD2FE92E6847B2B27FF0175811CE81-2024-11-24-18-34-09","","1673","","images/schematic_sequence/flight_scheme/flight_scheme_1.png","1","",""
"","","","","","image-button-response","68","345390","0.0-12.0-1.0-2.3","CEFD2FE92E6847B2B27FF0175811CE81","CEFD2FE92E6847B2B27FF0175811CE81","3c0e0830-cd8f-4e5d-b38b-c3144ba4eacb","a0a8f18c-a66e-4ba7-a170-23efbdc67501","{""participantId"":""CEFD2FE92E6847B2B27FF0175811CE81"",""assignmentId"":""3c0e0830-cd8f-4e5d-b38b-c3144ba4eacb"",""projectId"":""a0a8f18c-a66e-4ba7-a170-23efbdc67501""}","https://test12345.live/?participantId=CEFD2FE92E6847B2B27FF0175811CE81&assignmentId=3c0e0830-cd8f-4e5d-b38b-c3144ba4eacb&projectId=a0a8f18c-a66e-4ba7-a170-23efbdc67501","CEFD2FE92E6847B2B27FF0175811CE81-2024-11-24-18-34-09","","null","","[]","null","",""
"","","","","","image-button-response","69","349893","0.0-12.0-1.0-0.4","CEFD2FE92E6847B2B27FF0175811CE81","CEFD2FE92E6847B2B27FF0175811CE81","3c0e0830-cd8f-4e5d-b38b-c3144ba4eacb","a0a8f18c-a66e-4ba7-a170-23efbdc67501","{""participantId"":""CEFD2FE92E6847B2B27FF0175811CE81"",""assignmentId"":""3c0e0830-cd8f-4e5d-b38b-c3144ba4eacb"",""projectId"":""a0a8f18c-a66e-4ba7-a170-23efbdc67501""}","https://test12345.live/?participantId=CEFD2FE92E6847B2B27FF0175811CE81&assignmentId=3c0e0830-cd8f-4e5d-b38b-c3144ba4eacb&projectId=a0a8f18c-a66e-4ba7-a170-23efbdc67501","CEFD2FE92E6847B2B27FF0175811CE81-2024-11-24-18-34-09","","null","","images/schematic_sequence/flight_scheme/flight_scheme_3.png","null","",""
"","","","","","image-button-response","70","351328","0.0-12.0-1.0-1.4","CEFD2FE92E6847B2B27FF0175811CE81","CEFD2FE92E6847B2B27FF0175811CE81","3c0e0830-cd8f-4e5d-b38b-c3144ba4eacb","a0a8f18c-a66e-4ba7-a170-23efbdc67501","{""participantId"":""CEFD2FE92E6847B2B27FF0175811CE81"",""assignmentId"":""3c0e0830-cd8f-4e5d-b38b-c3144ba4eacb"",""projectId"":""a0a8f18c-a66e-4ba7-a170-23efbdc67501""}","https://test12345.live/?participantId=CEFD2FE92E6847B2B27FF0175811CE81&assignmentId=3c0e0830-cd8f-4e5d-b38b-c3144ba4eacb&projectId=a0a8f18c-a66e-4ba7-a170-23efbdc67501","CEFD2FE92E6847B2B27FF0175811CE81-2024-11-24-18-34-09","","1434","","images/schematic_sequence/flight_scheme/flight_scheme_3.png","0","",""
"","","","","","image-button-response","71","353134","0.0-12.0-1.0-2.4","CEFD2FE92E6847B2B27FF0175811CE81","CEFD2FE92E6847B2B27FF0175811CE81","3c0e0830-cd8f-4e5d-b38b-c3144ba4eacb","a0a8f18c-a66e-4ba7-a170-23efbdc67501","{""participantId"":""CEFD2FE92E6847B2B27FF0175811CE81"",""assignmentId"":""3c0e0830-cd8f-4e5d-b38b-c3144ba4eacb"",""projectId"":""a0a8f18c-a66e-4ba7-a170-23efbdc67501""}","https://test12345.live/?participantId=CEFD2FE92E6847B2B27FF0175811CE81&assignmentId=3c0e0830-cd8f-4e5d-b38b-c3144ba4eacb&projectId=a0a8f18c-a66e-4ba7-a170-23efbdc67501","CEFD2FE92E6847B2B27FF0175811CE81-2024-11-24-18-34-09","","null","","[]","null","",""
"","","","","","image-button-response","72","357641","0.0-12.0-1.0-0.5","CEFD2FE92E6847B2B27FF0175811CE81","CEFD2FE92E6847B2B27FF0175811CE81","3c0e0830-cd8f-4e5d-b38b-c3144ba4eacb","a0a8f18c-a66e-4ba7-a170-23efbdc67501","{""participantId"":""CEFD2FE92E6847B2B27FF0175811CE81"",""assignmentId"":""3c0e0830-cd8f-4e5d-b38b-c3144ba4eacb"",""projectId"":""a0a8f18c-a66e-4ba7-a170-23efbdc67501""}","https://test12345.live/?participantId=CEFD2FE92E6847B2B27FF0175811CE81&assignmentId=3c0e0830-cd8f-4e5d-b38b-c3144ba4eacb&projectId=a0a8f18c-a66e-4ba7-a170-23efbdc67501","CEFD2FE92E6847B2B27FF0175811CE81-2024-11-24-18-34-09","","null","","images/schematic_sequence/flight_scheme/flight_scheme_5.png","null","",""
"","","","","","image-button-response","73","358959","0.0-12.0-1.0-1.5","CEFD2FE92E6847B2B27FF0175811CE81","CEFD2FE92E6847B2B27FF0175811CE81","3c0e0830-cd8f-4e5d-b38b-c3144ba4eacb","a0a8f18c-a66e-4ba7-a170-23efbdc67501","{""participantId"":""CEFD2FE92E6847B2B27FF0175811CE81"",""assignmentId"":""3c0e0830-cd8f-4e5d-b38b-c3144ba4eacb"",""projectId"":""a0a8f18c-a66e-4ba7-a170-23efbdc67501""}","https://test12345.live/?participantId=CEFD2FE92E6847B2B27FF0175811CE81&assignmentId=3c0e0830-cd8f-4e5d-b38b-c3144ba4eacb&projectId=a0a8f18c-a66e-4ba7-a170-23efbdc67501","CEFD2FE92E6847B2B27FF0175811CE81-2024-11-24-18-34-09","","1314","","images/schematic_sequence/flight_scheme/flight_scheme_5.png","0","",""
"","","","","","image-button-response","74","360762","0.0-12.0-1.0-2.5","CEFD2FE92E6847B2B27FF0175811CE81","CEFD2FE92E6847B2B27FF0175811CE81","3c0e0830-cd8f-4e5d-b38b-c3144ba4eacb","a0a8f18c-a66e-4ba7-a170-23efbdc67501","{""participantId"":""CEFD2FE92E6847B2B27FF0175811CE81"",""assignmentId"":""3c0e0830-cd8f-4e5d-b38b-c3144ba4eacb"",""projectId"":""a0a8f18c-a66e-4ba7-a170-23efbdc67501""}","https://test12345.live/?participantId=CEFD2FE92E6847B2B27FF0175811CE81&assignmentId=3c0e0830-cd8f-4e5d-b38b-c3144ba4eacb&projectId=a0a8f18c-a66e-4ba7-a170-23efbdc67501","CEFD2FE92E6847B2B27FF0175811CE81-2024-11-24-18-34-09","","null","","[]","null","",""
"","","","","","image-button-response","75","365269","0.0-12.0-1.0-0.6","CEFD2FE92E6847B2B27FF0175811CE81","CEFD2FE92E6847B2B27FF0175811CE81","3c0e0830-cd8f-4e5d-b38b-c3144ba4eacb","a0a8f18c-a66e-4ba7-a170-23efbdc67501","{""participantId"":""CEFD2FE92E6847B2B27FF0175811CE81"",""assignmentId"":""3c0e0830-cd8f-4e5d-b38b-c3144ba4eacb"",""projectId"":""a0a8f18c-a66e-4ba7-a170-23efbdc67501""}","https://test12345.live/?participantId=CEFD2FE92E6847B2B27FF0175811CE81&assignmentId=3c0e0830-cd8f-4e5d-b38b-c3144ba4eacb&projectId=a0a8f18c-a66e-4ba7-a170-23efbdc67501","CEFD2FE92E6847B2B27FF0175811CE81-2024-11-24-18-34-09","","null","","images/schematic_sequence/flight_scheme/flight_scheme_4.png","null","",""
"","","","","","image-button-response","76","366028","0.0-12.0-1.0-1.6","CEFD2FE92E6847B2B27FF0175811CE81","CEFD2FE92E6847B2B27FF0175811CE81","3c0e0830-cd8f-4e5d-b38b-c3144ba4eacb","a0a8f18c-a66e-4ba7-a170-23efbdc67501","{""participantId"":""CEFD2FE92E6847B2B27FF0175811CE81"",""assignmentId"":""3c0e0830-cd8f-4e5d-b38b-c3144ba4eacb"",""projectId"":""a0a8f18c-a66e-4ba7-a170-23efbdc67501""}","https://test12345.live/?participantId=CEFD2FE92E6847B2B27FF0175811CE81&assignmentId=3c0e0830-cd8f-4e5d-b38b-c3144ba4eacb&projectId=a0a8f18c-a66e-4ba7-a170-23efbdc67501","CEFD2FE92E6847B2B27FF0175811CE81-2024-11-24-18-34-09","","758","","images/schematic_sequence/flight_scheme/flight_scheme_4.png","0","",""
"","","","","","image-button-response","77","367830","0.0-12.0-1.0-2.6","CEFD2FE92E6847B2B27FF0175811CE81","CEFD2FE92E6847B2B27FF0175811CE81","3c0e0830-cd8f-4e5d-b38b-c3144ba4eacb","a0a8f18c-a66e-4ba7-a170-23efbdc67501","{""participantId"":""CEFD2FE92E6847B2B27FF0175811CE81"",""assignmentId"":""3c0e0830-cd8f-4e5d-b38b-c3144ba4eacb"",""projectId"":""a0a8f18c-a66e-4ba7-a170-23efbdc67501""}","https://test12345.live/?participantId=CEFD2FE92E6847B2B27FF0175811CE81&assignmentId=3c0e0830-cd8f-4e5d-b38b-c3144ba4eacb&projectId=a0a8f18c-a66e-4ba7-a170-23efbdc67501","CEFD2FE92E6847B2B27FF0175811CE81-2024-11-24-18-34-09","","null","","[]","null","",""
"","","","","","image-button-response","78","372333","0.0-12.0-1.0-0.7","CEFD2FE92E6847B2B27FF0175811CE81","CEFD2FE92E6847B2B27FF0175811CE81","3c0e0830-cd8f-4e5d-b38b-c3144ba4eacb","a0a8f18c-a66e-4ba7-a170-23efbdc67501","{""participantId"":""CEFD2FE92E6847B2B27FF0175811CE81"",""assignmentId"":""3c0e0830-cd8f-4e5d-b38b-c3144ba4eacb"",""projectId"":""a0a8f18c-a66e-4ba7-a170-23efbdc67501""}","https://test12345.live/?participantId=CEFD2FE92E6847B2B27FF0175811CE81&assignmentId=3c0e0830-cd8f-4e5d-b38b-c3144ba4eacb&projectId=a0a8f18c-a66e-4ba7-a170-23efbdc67501","CEFD2FE92E6847B2B27FF0175811CE81-2024-11-24-18-34-09","","null","","images/schematic_sequence/flight_scheme/flight_scheme_ten.png","null","",""
"","","","","","image-button-response","79","373126","0.0-12.0-1.0-1.7","CEFD2FE92E6847B2B27FF0175811CE81","CEFD2FE92E6847B2B27FF0175811CE81","3c0e0830-cd8f-4e5d-b38b-c3144ba4eacb","a0a8f18c-a66e-4ba7-a170-23efbdc67501","{""participantId"":""CEFD2FE92E6847B2B27FF0175811CE81"",""assignmentId"":""3c0e0830-cd8f-4e5d-b38b-c3144ba4eacb"",""projectId"":""a0a8f18c-a66e-4ba7-a170-23efbdc67501""}","https://test12345.live/?participantId=CEFD2FE92E6847B2B27FF0175811CE81&assignmentId=3c0e0830-cd8f-4e5d-b38b-c3144ba4eacb&projectId=a0a8f18c-a66e-4ba7-a170-23efbdc67501","CEFD2FE92E6847B2B27FF0175811CE81-2024-11-24-18-34-09","","791","","images/schematic_sequence/flight_scheme/flight_scheme_ten.png","0","",""
"","","","","","image-button-response","80","374931","0.0-12.0-1.0-2.7","CEFD2FE92E6847B2B27FF0175811CE81","CEFD2FE92E6847B2B27FF0175811CE81","3c0e0830-cd8f-4e5d-b38b-c3144ba4eacb","a0a8f18c-a66e-4ba7-a170-23efbdc67501","{""participantId"":""CEFD2FE92E6847B2B27FF0175811CE81"",""assignmentId"":""3c0e0830-cd8f-4e5d-b38b-c3144ba4eacb"",""projectId"":""a0a8f18c-a66e-4ba7-a170-23efbdc67501""}","https://test12345.live/?participantId=CEFD2FE92E6847B2B27FF0175811CE81&assignmentId=3c0e0830-cd8f-4e5d-b38b-c3144ba4eacb&projectId=a0a8f18c-a66e-4ba7-a170-23efbdc67501","CEFD2FE92E6847B2B27FF0175811CE81-2024-11-24-18-34-09","","null","","[]","null","",""
"","","","","","image-button-response","81","379435","0.0-12.0-1.0-0.8","CEFD2FE92E6847B2B27FF0175811CE81","CEFD2FE92E6847B2B27FF0175811CE81","3c0e0830-cd8f-4e5d-b38b-c3144ba4eacb","a0a8f18c-a66e-4ba7-a170-23efbdc67501","{""participantId"":""CEFD2FE92E6847B2B27FF0175811CE81"",""assignmentId"":""3c0e0830-cd8f-4e5d-b38b-c3144ba4eacb"",""projectId"":""a0a8f18c-a66e-4ba7-a170-23efbdc67501""}","https://test12345.live/?participantId=CEFD2FE92E6847B2B27FF0175811CE81&assignmentId=3c0e0830-cd8f-4e5d-b38b-c3144ba4eacb&projectId=a0a8f18c-a66e-4ba7-a170-23efbdc67501","CEFD2FE92E6847B2B27FF0175811CE81-2024-11-24-18-34-09","","null","","images/schematic_sequence/flight_scheme/flight_scheme_9.png","null","",""
"","","","","","image-button-response","82","381034","0.0-12.0-1.0-1.8","CEFD2FE92E6847B2B27FF0175811CE81","CEFD2FE92E6847B2B27FF0175811CE81","3c0e0830-cd8f-4e5d-b38b-c3144ba4eacb","a0a8f18c-a66e-4ba7-a170-23efbdc67501","{""participantId"":""CEFD2FE92E6847B2B27FF0175811CE81"",""assignmentId"":""3c0e0830-cd8f-4e5d-b38b-c3144ba4eacb"",""projectId"":""a0a8f18c-a66e-4ba7-a170-23efbdc67501""}","https://test12345.live/?participantId=CEFD2FE92E6847B2B27FF0175811CE81&assignmentId=3c0e0830-cd8f-4e5d-b38b-c3144ba4eacb&projectId=a0a8f18c-a66e-4ba7-a170-23efbdc67501","CEFD2FE92E6847B2B27FF0175811CE81-2024-11-24-18-34-09","","1597","","images/schematic_sequence/flight_scheme/flight_scheme_9.png","0","",""
"","","","","","image-button-response","83","382841","0.0-12.0-1.0-2.8","CEFD2FE92E6847B2B27FF0175811CE81","CEFD2FE92E6847B2B27FF0175811CE81","3c0e0830-cd8f-4e5d-b38b-c3144ba4eacb","a0a8f18c-a66e-4ba7-a170-23efbdc67501","{""participantId"":""CEFD2FE92E6847B2B27FF0175811CE81"",""assignmentId"":""3c0e0830-cd8f-4e5d-b38b-c3144ba4eacb"",""projectId"":""a0a8f18c-a66e-4ba7-a170-23efbdc67501""}","https://test12345.live/?participantId=CEFD2FE92E6847B2B27FF0175811CE81&assignmentId=3c0e0830-cd8f-4e5d-b38b-c3144ba4eacb&projectId=a0a8f18c-a66e-4ba7-a170-23efbdc67501","CEFD2FE92E6847B2B27FF0175811CE81-2024-11-24-18-34-09","","null","","[]","null","",""
"","","","","","image-button-response","84","387344","0.0-12.0-1.0-0.9","CEFD2FE92E6847B2B27FF0175811CE81","CEFD2FE92E6847B2B27FF0175811CE81","3c0e0830-cd8f-4e5d-b38b-c3144ba4eacb","a0a8f18c-a66e-4ba7-a170-23efbdc67501","{""participantId"":""CEFD2FE92E6847B2B27FF0175811CE81"",""assignmentId"":""3c0e0830-cd8f-4e5d-b38b-c3144ba4eacb"",""projectId"":""a0a8f18c-a66e-4ba7-a170-23efbdc67501""}","https://test12345.live/?participantId=CEFD2FE92E6847B2B27FF0175811CE81&assignmentId=3c0e0830-cd8f-4e5d-b38b-c3144ba4eacb&projectId=a0a8f18c-a66e-4ba7-a170-23efbdc67501","CEFD2FE92E6847B2B27FF0175811CE81-2024-11-24-18-34-09","","null","","images/schematic_sequence/flight_scheme/flight_scheme_6.png","null","",""
"","","","","","image-button-response","85","388148","0.0-12.0-1.0-1.9","CEFD2FE92E6847B2B27FF0175811CE81","CEFD2FE92E6847B2B27FF0175811CE81","3c0e0830-cd8f-4e5d-b38b-c3144ba4eacb","a0a8f18c-a66e-4ba7-a170-23efbdc67501","{""participantId"":""CEFD2FE92E6847B2B27FF0175811CE81"",""assignmentId"":""3c0e0830-cd8f-4e5d-b38b-c3144ba4eacb"",""projectId"":""a0a8f18c-a66e-4ba7-a170-23efbdc67501""}","https://test12345.live/?participantId=CEFD2FE92E6847B2B27FF0175811CE81&assignmentId=3c0e0830-cd8f-4e5d-b38b-c3144ba4eacb&projectId=a0a8f18c-a66e-4ba7-a170-23efbdc67501","CEFD2FE92E6847B2B27FF0175811CE81-2024-11-24-18-34-09","","802","","images/schematic_sequence/flight_scheme/flight_scheme_6.png","1","",""
"","","","","","image-button-response","86","389952","0.0-12.0-1.0-2.9","CEFD2FE92E6847B2B27FF0175811CE81","CEFD2FE92E6847B2B27FF0175811CE81","3c0e0830-cd8f-4e5d-b38b-c3144ba4eacb","a0a8f18c-a66e-4ba7-a170-23efbdc67501","{""participantId"":""CEFD2FE92E6847B2B27FF0175811CE81"",""assignmentId"":""3c0e0830-cd8f-4e5d-b38b-c3144ba4eacb"",""projectId"":""a0a8f18c-a66e-4ba7-a170-23efbdc67501""}","https://test12345.live/?participantId=CEFD2FE92E6847B2B27FF0175811CE81&assignmentId=3c0e0830-cd8f-4e5d-b38b-c3144ba4eacb&projectId=a0a8f18c-a66e-4ba7-a170-23efbdc67501","CEFD2FE92E6847B2B27FF0175811CE81-2024-11-24-18-34-09","","null","","[]","null","",""
"","","","","","html-audio-response","87","423354","0.0-13.0","CEFD2FE92E6847B2B27FF0175811CE81","CEFD2FE92E6847B2B27FF0175811CE81","3c0e0830-cd8f-4e5d-b38b-c3144ba4eacb","a0a8f18c-a66e-4ba7-a170-23efbdc67501","{""participantId"":""CEFD2FE92E6847B2B27FF0175811CE81"",""assignmentId"":""3c0e0830-cd8f-4e5d-b38b-c3144ba4eacb"",""projectId"":""a0a8f18c-a66e-4ba7-a170-23efbdc67501""}","https://test12345.live/?participantId=CEFD2FE92E6847B2B27FF0175811CE81&assignmentId=3c0e0830-cd8f-4e5d-b38b-c3144ba4eacb&projectId=a0a8f18c-a66e-4ba7-a170-23efbdc67501","CEFD2FE92E6847B2B27FF0175811CE81-2024-11-24-18-34-09","","26999","","[""<span style=\""color: red; font-size: 24px\""> NOW RECORDING</span><p>Please say out loud all the images you saw, as many as you can remember. The images can be said in any order.</p>""]","","2","flight_scheme"
"","","","","","image-button-response","88","429364","0.0-14.0-0.0","CEFD2FE92E6847B2B27FF0175811CE81","CEFD2FE92E6847B2B27FF0175811CE81","3c0e0830-cd8f-4e5d-b38b-c3144ba4eacb","a0a8f18c-a66e-4ba7-a170-23efbdc67501","{""participantId"":""CEFD2FE92E6847B2B27FF0175811CE81"",""assignmentId"":""3c0e0830-cd8f-4e5d-b38b-c3144ba4eacb"",""projectId"":""a0a8f18c-a66e-4ba7-a170-23efbdc67501""}","https://test12345.live/?participantId=CEFD2FE92E6847B2B27FF0175811CE81&assignmentId=3c0e0830-cd8f-4e5d-b38b-c3144ba4eacb&projectId=a0a8f18c-a66e-4ba7-a170-23efbdc67501","CEFD2FE92E6847B2B27FF0175811CE81-2024-11-24-18-34-09","","null","","images/causal_sequence/dog_causal/dog_causal_0.png","null","",""
"","","","","","image-button-response","89","433871","0.0-14.0-1.0-0.0","CEFD2FE92E6847B2B27FF0175811CE81","CEFD2FE92E6847B2B27FF0175811CE81","3c0e0830-cd8f-4e5d-b38b-c3144ba4eacb","a0a8f18c-a66e-4ba7-a170-23efbdc67501","{""participantId"":""CEFD2FE92E6847B2B27FF0175811CE81"",""assignmentId"":""3c0e0830-cd8f-4e5d-b38b-c3144ba4eacb"",""projectId"":""a0a8f18c-a66e-4ba7-a170-23efbdc67501""}","https://test12345.live/?participantId=CEFD2FE92E6847B2B27FF0175811CE81&assignmentId=3c0e0830-cd8f-4e5d-b38b-c3144ba4eacb&projectId=a0a8f18c-a66e-4ba7-a170-23efbdc67501","CEFD2FE92E6847B2B27FF0175811CE81-2024-11-24-18-34-09","","null","","images/causal_sequence/dog_causal/dog_causal_1.png","null","",""
"","","","","","image-button-response","90","435895","0.0-14.0-1.0-1.0","CEFD2FE92E6847B2B27FF0175811CE81","CEFD2FE92E6847B2B27FF0175811CE81","3c0e0830-cd8f-4e5d-b38b-c3144ba4eacb","a0a8f18c-a66e-4ba7-a170-23efbdc67501","{""participantId"":""CEFD2FE92E6847B2B27FF0175811CE81"",""assignmentId"":""3c0e0830-cd8f-4e5d-b38b-c3144ba4eacb"",""projectId"":""a0a8f18c-a66e-4ba7-a170-23efbdc67501""}","https://test12345.live/?participantId=CEFD2FE92E6847B2B27FF0175811CE81&assignmentId=3c0e0830-cd8f-4e5d-b38b-c3144ba4eacb&projectId=a0a8f18c-a66e-4ba7-a170-23efbdc67501","CEFD2FE92E6847B2B27FF0175811CE81-2024-11-24-18-34-09","","2023","","images/causal_sequence/dog_causal/dog_causal_1.png","0","",""
"","","","","","image-button-response","91","437700","0.0-14.0-1.0-2.0","CEFD2FE92E6847B2B27FF0175811CE81","CEFD2FE92E6847B2B27FF0175811CE81","3c0e0830-cd8f-4e5d-b38b-c3144ba4eacb","a0a8f18c-a66e-4ba7-a170-23efbdc67501","{""participantId"":""CEFD2FE92E6847B2B27FF0175811CE81"",""assignmentId"":""3c0e0830-cd8f-4e5d-b38b-c3144ba4eacb"",""projectId"":""a0a8f18c-a66e-4ba7-a170-23efbdc67501""}","https://test12345.live/?participantId=CEFD2FE92E6847B2B27FF0175811CE81&assignmentId=3c0e0830-cd8f-4e5d-b38b-c3144ba4eacb&projectId=a0a8f18c-a66e-4ba7-a170-23efbdc67501","CEFD2FE92E6847B2B27FF0175811CE81-2024-11-24-18-34-09","","null","","[]","null","",""
"","","","","","image-button-response","92","442204","0.0-14.0-1.0-0.1","CEFD2FE92E6847B2B27FF0175811CE81","CEFD2FE92E6847B2B27FF0175811CE81","3c0e0830-cd8f-4e5d-b38b-c3144ba4eacb","a0a8f18c-a66e-4ba7-a170-23efbdc67501","{""participantId"":""CEFD2FE92E6847B2B27FF0175811CE81"",""assignmentId"":""3c0e0830-cd8f-4e5d-b38b-c3144ba4eacb"",""projectId"":""a0a8f18c-a66e-4ba7-a170-23efbdc67501""}","https://test12345.live/?participantId=CEFD2FE92E6847B2B27FF0175811CE81&assignmentId=3c0e0830-cd8f-4e5d-b38b-c3144ba4eacb&projectId=a0a8f18c-a66e-4ba7-a170-23efbdc67501","CEFD2FE92E6847B2B27FF0175811CE81-2024-11-24-18-34-09","","null","","images/causal_sequence/dog_causal/dog_causal_2.png","null","",""
"","","","","","image-button-response","93","443493","0.0-14.0-1.0-1.1","CEFD2FE92E6847B2B27FF0175811CE81","CEFD2FE92E6847B2B27FF0175811CE81","3c0e0830-cd8f-4e5d-b38b-c3144ba4eacb","a0a8f18c-a66e-4ba7-a170-23efbdc67501","{""participantId"":""CEFD2FE92E6847B2B27FF0175811CE81"",""assignmentId"":""3c0e0830-cd8f-4e5d-b38b-c3144ba4eacb"",""projectId"":""a0a8f18c-a66e-4ba7-a170-23efbdc67501""}","https://test12345.live/?participantId=CEFD2FE92E6847B2B27FF0175811CE81&assignmentId=3c0e0830-cd8f-4e5d-b38b-c3144ba4eacb&projectId=a0a8f18c-a66e-4ba7-a170-23efbdc67501","CEFD2FE92E6847B2B27FF0175811CE81-2024-11-24-18-34-09","","1287","","images/causal_sequence/dog_causal/dog_causal_2.png","0","",""
"","","","","","image-button-response","94","445300","0.0-14.0-1.0-2.1","CEFD2FE92E6847B2B27FF0175811CE81","CEFD2FE92E6847B2B27FF0175811CE81","3c0e0830-cd8f-4e5d-b38b-c3144ba4eacb","a0a8f18c-a66e-4ba7-a170-23efbdc67501","{""participantId"":""CEFD2FE92E6847B2B27FF0175811CE81"",""assignmentId"":""3c0e0830-cd8f-4e5d-b38b-c3144ba4eacb"",""projectId"":""a0a8f18c-a66e-4ba7-a170-23efbdc67501""}","https://test12345.live/?participantId=CEFD2FE92E6847B2B27FF0175811CE81&assignmentId=3c0e0830-cd8f-4e5d-b38b-c3144ba4eacb&projectId=a0a8f18c-a66e-4ba7-a170-23efbdc67501","CEFD2FE92E6847B2B27FF0175811CE81-2024-11-24-18-34-09","","null","","[]","null","",""
"","","","","","image-button-response","95","449806","0.0-14.0-1.0-0.2","CEFD2FE92E6847B2B27FF0175811CE81","CEFD2FE92E6847B2B27FF0175811CE81","3c0e0830-cd8f-4e5d-b38b-c3144ba4eacb","a0a8f18c-a66e-4ba7-a170-23efbdc67501","{""participantId"":""CEFD2FE92E6847B2B27FF0175811CE81"",""assignmentId"":""3c0e0830-cd8f-4e5d-b38b-c3144ba4eacb"",""projectId"":""a0a8f18c-a66e-4ba7-a170-23efbdc67501""}","https://test12345.live/?participantId=CEFD2FE92E6847B2B27FF0175811CE81&assignmentId=3c0e0830-cd8f-4e5d-b38b-c3144ba4eacb&projectId=a0a8f18c-a66e-4ba7-a170-23efbdc67501","CEFD2FE92E6847B2B27FF0175811CE81-2024-11-24-18-34-09","","null","","images/causal_sequence/dog_causal/dog_causal_3.png","null","",""
"","","","","","image-button-response","96","450394","0.0-14.0-1.0-1.2","CEFD2FE92E6847B2B27FF0175811CE81","CEFD2FE92E6847B2B27FF0175811CE81","3c0e0830-cd8f-4e5d-b38b-c3144ba4eacb","a0a8f18c-a66e-4ba7-a170-23efbdc67501","{""participantId"":""CEFD2FE92E6847B2B27FF0175811CE81"",""assignmentId"":""3c0e0830-cd8f-4e5d-b38b-c3144ba4eacb"",""projectId"":""a0a8f18c-a66e-4ba7-a170-23efbdc67501""}","https://test12345.live/?participantId=CEFD2FE92E6847B2B27FF0175811CE81&assignmentId=3c0e0830-cd8f-4e5d-b38b-c3144ba4eacb&projectId=a0a8f18c-a66e-4ba7-a170-23efbdc67501","CEFD2FE92E6847B2B27FF0175811CE81-2024-11-24-18-34-09","","587","","images/causal_sequence/dog_causal/dog_causal_3.png","0","",""
"","","","","","image-button-response","97","452199","0.0-14.0-1.0-2.2","CEFD2FE92E6847B2B27FF0175811CE81","CEFD2FE92E6847B2B27FF0175811CE81","3c0e0830-cd8f-4e5d-b38b-c3144ba4eacb","a0a8f18c-a66e-4ba7-a170-23efbdc67501","{""participantId"":""CEFD2FE92E6847B2B27FF0175811CE81"",""assignmentId"":""3c0e0830-cd8f-4e5d-b38b-c3144ba4eacb"",""projectId"":""a0a8f18c-a66e-4ba7-a170-23efbdc67501""}","https://test12345.live/?participantId=CEFD2FE92E6847B2B27FF0175811CE81&assignmentId=3c0e0830-cd8f-4e5d-b38b-c3144ba4eacb&projectId=a0a8f18c-a66e-4ba7-a170-23efbdc67501","CEFD2FE92E6847B2B27FF0175811CE81-2024-11-24-18-34-09","","null","","[]","null","",""
"","","","","","image-button-response","98","456705","0.0-14.0-1.0-0.3","CEFD2FE92E6847B2B27FF0175811CE81","CEFD2FE92E6847B2B27FF0175811CE81","3c0e0830-cd8f-4e5d-b38b-c3144ba4eacb","a0a8f18c-a66e-4ba7-a170-23efbdc67501","{""participantId"":""CEFD2FE92E6847B2B27FF0175811CE81"",""assignmentId"":""3c0e0830-cd8f-4e5d-b38b-c3144ba4eacb"",""projectId"":""a0a8f18c-a66e-4ba7-a170-23efbdc67501""}","https://test12345.live/?participantId=CEFD2FE92E6847B2B27FF0175811CE81&assignmentId=3c0e0830-cd8f-4e5d-b38b-c3144ba4eacb&projectId=a0a8f18c-a66e-4ba7-a170-23efbdc67501","CEFD2FE92E6847B2B27FF0175811CE81-2024-11-24-18-34-09","","null","","images/causal_sequence/dog_causal/dog_causal_4.png","null","",""
"","","","","","image-button-response","99","458063","0.0-14.0-1.0-1.3","CEFD2FE92E6847B2B27FF0175811CE81","CEFD2FE92E6847B2B27FF0175811CE81","3c0e0830-cd8f-4e5d-b38b-c3144ba4eacb","a0a8f18c-a66e-4ba7-a170-23efbdc67501","{""participantId"":""CEFD2FE92E6847B2B27FF0175811CE81"",""assignmentId"":""3c0e0830-cd8f-4e5d-b38b-c3144ba4eacb"",""projectId"":""a0a8f18c-a66e-4ba7-a170-23efbdc67501""}","https://test12345.live/?participantId=CEFD2FE92E6847B2B27FF0175811CE81&assignmentId=3c0e0830-cd8f-4e5d-b38b-c3144ba4eacb&projectId=a0a8f18c-a66e-4ba7-a170-23efbdc67501","CEFD2FE92E6847B2B27FF0175811CE81-2024-11-24-18-34-09","","1358","","images/causal_sequence/dog_causal/dog_causal_4.png","0","",""
"","","","","","image-button-response","100","459867","0.0-14.0-1.0-2.3","CEFD2FE92E6847B2B27FF0175811CE81","CEFD2FE92E6847B2B27FF0175811CE81","3c0e0830-cd8f-4e5d-b38b-c3144ba4eacb","a0a8f18c-a66e-4ba7-a170-23efbdc67501","{""participantId"":""CEFD2FE92E6847B2B27FF0175811CE81"",""assignmentId"":""3c0e0830-cd8f-4e5d-b38b-c3144ba4eacb"",""projectId"":""a0a8f18c-a66e-4ba7-a170-23efbdc67501""}","https://test12345.live/?participantId=CEFD2FE92E6847B2B27FF0175811CE81&assignmentId=3c0e0830-cd8f-4e5d-b38b-c3144ba4eacb&projectId=a0a8f18c-a66e-4ba7-a170-23efbdc67501","CEFD2FE92E6847B2B27FF0175811CE81-2024-11-24-18-34-09","","null","","[]","null","",""
"","","","","","image-button-response","101","464372","0.0-14.0-1.0-0.4","CEFD2FE92E6847B2B27FF0175811CE81","CEFD2FE92E6847B2B27FF0175811CE81","3c0e0830-cd8f-4e5d-b38b-c3144ba4eacb","a0a8f18c-a66e-4ba7-a170-23efbdc67501","{""participantId"":""CEFD2FE92E6847B2B27FF0175811CE81"",""assignmentId"":""3c0e0830-cd8f-4e5d-b38b-c3144ba4eacb"",""projectId"":""a0a8f18c-a66e-4ba7-a170-23efbdc67501""}","https://test12345.live/?participantId=CEFD2FE92E6847B2B27FF0175811CE81&assignmentId=3c0e0830-cd8f-4e5d-b38b-c3144ba4eacb&projectId=a0a8f18c-a66e-4ba7-a170-23efbdc67501","CEFD2FE92E6847B2B27FF0175811CE81-2024-11-24-18-34-09","","null","","images/causal_sequence/dog_causal/dog_causal_5.png","null","",""
"","","","","","image-button-response","102","465127","0.0-14.0-1.0-1.4","CEFD2FE92E6847B2B27FF0175811CE81","CEFD2FE92E6847B2B27FF0175811CE81","3c0e0830-cd8f-4e5d-b38b-c3144ba4eacb","a0a8f18c-a66e-4ba7-a170-23efbdc67501","{""participantId"":""CEFD2FE92E6847B2B27FF0175811CE81"",""assignmentId"":""3c0e0830-cd8f-4e5d-b38b-c3144ba4eacb"",""projectId"":""a0a8f18c-a66e-4ba7-a170-23efbdc67501""}","https://test12345.live/?participantId=CEFD2FE92E6847B2B27FF0175811CE81&assignmentId=3c0e0830-cd8f-4e5d-b38b-c3144ba4eacb&projectId=a0a8f18c-a66e-4ba7-a170-23efbdc67501","CEFD2FE92E6847B2B27FF0175811CE81-2024-11-24-18-34-09","","754","","images/causal_sequence/dog_causal/dog_causal_5.png","0","",""
"","","","","","image-button-response","103","466932","0.0-14.0-1.0-2.4","CEFD2FE92E6847B2B27FF0175811CE81","CEFD2FE92E6847B2B27FF0175811CE81","3c0e0830-cd8f-4e5d-b38b-c3144ba4eacb","a0a8f18c-a66e-4ba7-a170-23efbdc67501","{""participantId"":""CEFD2FE92E6847B2B27FF0175811CE81"",""assignmentId"":""3c0e0830-cd8f-4e5d-b38b-c3144ba4eacb"",""projectId"":""a0a8f18c-a66e-4ba7-a170-23efbdc67501""}","https://test12345.live/?participantId=CEFD2FE92E6847B2B27FF0175811CE81&assignmentId=3c0e0830-cd8f-4e5d-b38b-c3144ba4eacb&projectId=a0a8f18c-a66e-4ba7-a170-23efbdc67501","CEFD2FE92E6847B2B27FF0175811CE81-2024-11-24-18-34-09","","null","","[]","null","",""
"","","","","","image-button-response","104","471438","0.0-14.0-1.0-0.5","CEFD2FE92E6847B2B27FF0175811CE81","CEFD2FE92E6847B2B27FF0175811CE81","3c0e0830-cd8f-4e5d-b38b-c3144ba4eacb","a0a8f18c-a66e-4ba7-a170-23efbdc67501","{""participantId"":""CEFD2FE92E6847B2B27FF0175811CE81"",""assignmentId"":""3c0e0830-cd8f-4e5d-b38b-c3144ba4eacb"",""projectId"":""a0a8f18c-a66e-4ba7-a170-23efbdc67501""}","https://test12345.live/?participantId=CEFD2FE92E6847B2B27FF0175811CE81&assignmentId=3c0e0830-cd8f-4e5d-b38b-c3144ba4eacb&projectId=a0a8f18c-a66e-4ba7-a170-23efbdc67501","CEFD2FE92E6847B2B27FF0175811CE81-2024-11-24-18-34-09","","null","","images/causal_sequence/dog_causal/dog_causal_6.png","null","",""
"","","","","","image-button-response","105","472053","0.0-14.0-1.0-1.5","CEFD2FE92E6847B2B27FF0175811CE81","CEFD2FE92E6847B2B27FF0175811CE81","3c0e0830-cd8f-4e5d-b38b-c3144ba4eacb","a0a8f18c-a66e-4ba7-a170-23efbdc67501","{""participantId"":""CEFD2FE92E6847B2B27FF0175811CE81"",""assignmentId"":""3c0e0830-cd8f-4e5d-b38b-c3144ba4eacb"",""projectId"":""a0a8f18c-a66e-4ba7-a170-23efbdc67501""}","https://test12345.live/?participantId=CEFD2FE92E6847B2B27FF0175811CE81&assignmentId=3c0e0830-cd8f-4e5d-b38b-c3144ba4eacb&projectId=a0a8f18c-a66e-4ba7-a170-23efbdc67501","CEFD2FE92E6847B2B27FF0175811CE81-2024-11-24-18-34-09","","613","","images/causal_sequence/dog_causal/dog_causal_6.png","0","",""
"","","","","","image-button-response","106","473858","0.0-14.0-1.0-2.5","CEFD2FE92E6847B2B27FF0175811CE81","CEFD2FE92E6847B2B27FF0175811CE81","3c0e0830-cd8f-4e5d-b38b-c3144ba4eacb","a0a8f18c-a66e-4ba7-a170-23efbdc67501","{""participantId"":""CEFD2FE92E6847B2B27FF0175811CE81"",""assignmentId"":""3c0e0830-cd8f-4e5d-b38b-c3144ba4eacb"",""projectId"":""a0a8f18c-a66e-4ba7-a170-23efbdc67501""}","https://test12345.live/?participantId=CEFD2FE92E6847B2B27FF0175811CE81&assignmentId=3c0e0830-cd8f-4e5d-b38b-c3144ba4eacb&projectId=a0a8f18c-a66e-4ba7-a170-23efbdc67501","CEFD2FE92E6847B2B27FF0175811CE81-2024-11-24-18-34-09","","null","","[]","null","",""
"","","","","","image-button-response","107","478365","0.0-14.0-1.0-0.6","CEFD2FE92E6847B2B27FF0175811CE81","CEFD2FE92E6847B2B27FF0175811CE81","3c0e0830-cd8f-4e5d-b38b-c3144ba4eacb","a0a8f18c-a66e-4ba7-a170-23efbdc67501","{""participantId"":""CEFD2FE92E6847B2B27FF0175811CE81"",""assignmentId"":""3c0e0830-cd8f-4e5d-b38b-c3144ba4eacb"",""projectId"":""a0a8f18c-a66e-4ba7-a170-23efbdc67501""}","https://test12345.live/?participantId=CEFD2FE92E6847B2B27FF0175811CE81&assignmentId=3c0e0830-cd8f-4e5d-b38b-c3144ba4eacb&projectId=a0a8f18c-a66e-4ba7-a170-23efbdc67501","CEFD2FE92E6847B2B27FF0175811CE81-2024-11-24-18-34-09","","null","","images/causal_sequence/dog_causal/dog_causal_7.png","null","",""
"","","","","","image-button-response","108","479082","0.0-14.0-1.0-1.6","CEFD2FE92E6847B2B27FF0175811CE81","CEFD2FE92E6847B2B27FF0175811CE81","3c0e0830-cd8f-4e5d-b38b-c3144ba4eacb","a0a8f18c-a66e-4ba7-a170-23efbdc67501","{""participantId"":""CEFD2FE92E6847B2B27FF0175811CE81"",""assignmentId"":""3c0e0830-cd8f-4e5d-b38b-c3144ba4eacb"",""projectId"":""a0a8f18c-a66e-4ba7-a170-23efbdc67501""}","https://test12345.live/?participantId=CEFD2FE92E6847B2B27FF0175811CE81&assignmentId=3c0e0830-cd8f-4e5d-b38b-c3144ba4eacb&projectId=a0a8f18c-a66e-4ba7-a170-23efbdc67501","CEFD2FE92E6847B2B27FF0175811CE81-2024-11-24-18-34-09","","715","","images/causal_sequence/dog_causal/dog_causal_7.png","0","",""
"","","","","","image-button-response","109","480889","0.0-14.0-1.0-2.6","CEFD2FE92E6847B2B27FF0175811CE81","CEFD2FE92E6847B2B27FF0175811CE81","3c0e0830-cd8f-4e5d-b38b-c3144ba4eacb","a0a8f18c-a66e-4ba7-a170-23efbdc67501","{""participantId"":""CEFD2FE92E6847B2B27FF0175811CE81"",""assignmentId"":""3c0e0830-cd8f-4e5d-b38b-c3144ba4eacb"",""projectId"":""a0a8f18c-a66e-4ba7-a170-23efbdc67501""}","https://test12345.live/?participantId=CEFD2FE92E6847B2B27FF0175811CE81&assignmentId=3c0e0830-cd8f-4e5d-b38b-c3144ba4eacb&projectId=a0a8f18c-a66e-4ba7-a170-23efbdc67501","CEFD2FE92E6847B2B27FF0175811CE81-2024-11-24-18-34-09","","null","","[]","null","",""
"","","","","","image-button-response","110","485392","0.0-14.0-1.0-0.7","CEFD2FE92E6847B2B27FF0175811CE81","CEFD2FE92E6847B2B27FF0175811CE81","3c0e0830-cd8f-4e5d-b38b-c3144ba4eacb","a0a8f18c-a66e-4ba7-a170-23efbdc67501","{""participantId"":""CEFD2FE92E6847B2B27FF0175811CE81"",""assignmentId"":""3c0e0830-cd8f-4e5d-b38b-c3144ba4eacb"",""projectId"":""a0a8f18c-a66e-4ba7-a170-23efbdc67501""}","https://test12345.live/?participantId=CEFD2FE92E6847B2B27FF0175811CE81&assignmentId=3c0e0830-cd8f-4e5d-b38b-c3144ba4eacb&projectId=a0a8f18c-a66e-4ba7-a170-23efbdc67501","CEFD2FE92E6847B2B27FF0175811CE81-2024-11-24-18-34-09","","null","","images/causal_sequence/dog_causal/dog_causal_8.png","null","",""
"","","","","","image-button-response","111","485986","0.0-14.0-1.0-1.7","CEFD2FE92E6847B2B27FF0175811CE81","CEFD2FE92E6847B2B27FF0175811CE81","3c0e0830-cd8f-4e5d-b38b-c3144ba4eacb","a0a8f18c-a66e-4ba7-a170-23efbdc67501","{""participantId"":""CEFD2FE92E6847B2B27FF0175811CE81"",""assignmentId"":""3c0e0830-cd8f-4e5d-b38b-c3144ba4eacb"",""projectId"":""a0a8f18c-a66e-4ba7-a170-23efbdc67501""}","https://test12345.live/?participantId=CEFD2FE92E6847B2B27FF0175811CE81&assignmentId=3c0e0830-cd8f-4e5d-b38b-c3144ba4eacb&projectId=a0a8f18c-a66e-4ba7-a170-23efbdc67501","CEFD2FE92E6847B2B27FF0175811CE81-2024-11-24-18-34-09","","594","","images/causal_sequence/dog_causal/dog_causal_8.png","0","",""
"","","","","","image-button-response","112","487790","0.0-14.0-1.0-2.7","CEFD2FE92E6847B2B27FF0175811CE81","CEFD2FE92E6847B2B27FF0175811CE81","3c0e0830-cd8f-4e5d-b38b-c3144ba4eacb","a0a8f18c-a66e-4ba7-a170-23efbdc67501","{""participantId"":""CEFD2FE92E6847B2B27FF0175811CE81"",""assignmentId"":""3c0e0830-cd8f-4e5d-b38b-c3144ba4eacb"",""projectId"":""a0a8f18c-a66e-4ba7-a170-23efbdc67501""}","https://test12345.live/?participantId=CEFD2FE92E6847B2B27FF0175811CE81&assignmentId=3c0e0830-cd8f-4e5d-b38b-c3144ba4eacb&projectId=a0a8f18c-a66e-4ba7-a170-23efbdc67501","CEFD2FE92E6847B2B27FF0175811CE81-2024-11-24-18-34-09","","null","","[]","null","",""
"","","","","","image-button-response","113","492296","0.0-14.0-1.0-0.8","CEFD2FE92E6847B2B27FF0175811CE81","CEFD2FE92E6847B2B27FF0175811CE81","3c0e0830-cd8f-4e5d-b38b-c3144ba4eacb","a0a8f18c-a66e-4ba7-a170-23efbdc67501","{""participantId"":""CEFD2FE92E6847B2B27FF0175811CE81"",""assignmentId"":""3c0e0830-cd8f-4e5d-b38b-c3144ba4eacb"",""projectId"":""a0a8f18c-a66e-4ba7-a170-23efbdc67501""}","https://test12345.live/?participantId=CEFD2FE92E6847B2B27FF0175811CE81&assignmentId=3c0e0830-cd8f-4e5d-b38b-c3144ba4eacb&projectId=a0a8f18c-a66e-4ba7-a170-23efbdc67501","CEFD2FE92E6847B2B27FF0175811CE81-2024-11-24-18-34-09","","null","","images/causal_sequence/dog_causal/dog_causal_9.png","null","",""
"","","","","","image-button-response","114","492801","0.0-14.0-1.0-1.8","CEFD2FE92E6847B2B27FF0175811CE81","CEFD2FE92E6847B2B27FF0175811CE81","3c0e0830-cd8f-4e5d-b38b-c3144ba4eacb","a0a8f18c-a66e-4ba7-a170-23efbdc67501","{""participantId"":""CEFD2FE92E6847B2B27FF0175811CE81"",""assignmentId"":""3c0e0830-cd8f-4e5d-b38b-c3144ba4eacb"",""projectId"":""a0a8f18c-a66e-4ba7-a170-23efbdc67501""}","https://test12345.live/?participantId=CEFD2FE92E6847B2B27FF0175811CE81&assignmentId=3c0e0830-cd8f-4e5d-b38b-c3144ba4eacb&projectId=a0a8f18c-a66e-4ba7-a170-23efbdc67501","CEFD2FE92E6847B2B27FF0175811CE81-2024-11-24-18-34-09","","504","","images/causal_sequence/dog_causal/dog_causal_9.png","0","",""
"","","","","","image-button-response","115","494607","0.0-14.0-1.0-2.8","CEFD2FE92E6847B2B27FF0175811CE81","CEFD2FE92E6847B2B27FF0175811CE81","3c0e0830-cd8f-4e5d-b38b-c3144ba4eacb","a0a8f18c-a66e-4ba7-a170-23efbdc67501","{""participantId"":""CEFD2FE92E6847B2B27FF0175811CE81"",""assignmentId"":""3c0e0830-cd8f-4e5d-b38b-c3144ba4eacb"",""projectId"":""a0a8f18c-a66e-4ba7-a170-23efbdc67501""}","https://test12345.live/?participantId=CEFD2FE92E6847B2B27FF0175811CE81&assignmentId=3c0e0830-cd8f-4e5d-b38b-c3144ba4eacb&projectId=a0a8f18c-a66e-4ba7-a170-23efbdc67501","CEFD2FE92E6847B2B27FF0175811CE81-2024-11-24-18-34-09","","null","","[]","null","",""
"","","","","","image-button-response","116","499113","0.0-14.0-1.0-0.9","CEFD2FE92E6847B2B27FF0175811CE81","CEFD2FE92E6847B2B27FF0175811CE81","3c0e0830-cd8f-4e5d-b38b-c3144ba4eacb","a0a8f18c-a66e-4ba7-a170-23efbdc67501","{""participantId"":""CEFD2FE92E6847B2B27FF0175811CE81"",""assignmentId"":""3c0e0830-cd8f-4e5d-b38b-c3144ba4eacb"",""projectId"":""a0a8f18c-a66e-4ba7-a170-23efbdc67501""}","https://test12345.live/?participantId=CEFD2FE92E6847B2B27FF0175811CE81&assignmentId=3c0e0830-cd8f-4e5d-b38b-c3144ba4eacb&projectId=a0a8f18c-a66e-4ba7-a170-23efbdc67501","CEFD2FE92E6847B2B27FF0175811CE81-2024-11-24-18-34-09","","null","","images/causal_sequence/dog_causal/dog_causal_ten.png","null","",""
"","","","","","image-button-response","117","500423","0.0-14.0-1.0-1.9","CEFD2FE92E6847B2B27FF0175811CE81","CEFD2FE92E6847B2B27FF0175811CE81","3c0e0830-cd8f-4e5d-b38b-c3144ba4eacb","a0a8f18c-a66e-4ba7-a170-23efbdc67501","{""participantId"":""CEFD2FE92E6847B2B27FF0175811CE81"",""assignmentId"":""3c0e0830-cd8f-4e5d-b38b-c3144ba4eacb"",""projectId"":""a0a8f18c-a66e-4ba7-a170-23efbdc67501""}","https://test12345.live/?participantId=CEFD2FE92E6847B2B27FF0175811CE81&assignmentId=3c0e0830-cd8f-4e5d-b38b-c3144ba4eacb&projectId=a0a8f18c-a66e-4ba7-a170-23efbdc67501","CEFD2FE92E6847B2B27FF0175811CE81-2024-11-24-18-34-09","","1309","","images/causal_sequence/dog_causal/dog_causal_ten.png","0","",""
"","","","","","image-button-response","118","502228","0.0-14.0-1.0-2.9","CEFD2FE92E6847B2B27FF0175811CE81","CEFD2FE92E6847B2B27FF0175811CE81","3c0e0830-cd8f-4e5d-b38b-c3144ba4eacb","a0a8f18c-a66e-4ba7-a170-23efbdc67501","{""participantId"":""CEFD2FE92E6847B2B27FF0175811CE81"",""assignmentId"":""3c0e0830-cd8f-4e5d-b38b-c3144ba4eacb"",""projectId"":""a0a8f18c-a66e-4ba7-a170-23efbdc67501""}","https://test12345.live/?participantId=CEFD2FE92E6847B2B27FF0175811CE81&assignmentId=3c0e0830-cd8f-4e5d-b38b-c3144ba4eacb&projectId=a0a8f18c-a66e-4ba7-a170-23efbdc67501","CEFD2FE92E6847B2B27FF0175811CE81-2024-11-24-18-34-09","","null","","[]","null","",""
"","","","","","html-audio-response","119","531293","0.0-15.0","CEFD2FE92E6847B2B27FF0175811CE81","CEFD2FE92E6847B2B27FF0175811CE81","3c0e0830-cd8f-4e5d-b38b-c3144ba4eacb","a0a8f18c-a66e-4ba7-a170-23efbdc67501","{""participantId"":""CEFD2FE92E6847B2B27FF0175811CE81"",""assignmentId"":""3c0e0830-cd8f-4e5d-b38b-c3144ba4eacb"",""projectId"":""a0a8f18c-a66e-4ba7-a170-23efbdc67501""}","https://test12345.live/?participantId=CEFD2FE92E6847B2B27FF0175811CE81&assignmentId=3c0e0830-cd8f-4e5d-b38b-c3144ba4eacb&projectId=a0a8f18c-a66e-4ba7-a170-23efbdc67501","CEFD2FE92E6847B2B27FF0175811CE81-2024-11-24-18-34-09","","27501","","[""<span style=\""color: red; font-size: 24px\""> NOW RECORDING</span><p>Please say out loud all the images you saw, as many as you can remember. The images can be said in any order.</p>""]","","1","dog_causal"
"","","","","","image-button-response","120","537301","0.0-16.0-0.0","CEFD2FE92E6847B2B27FF0175811CE81","CEFD2FE92E6847B2B27FF0175811CE81","3c0e0830-cd8f-4e5d-b38b-c3144ba4eacb","a0a8f18c-a66e-4ba7-a170-23efbdc67501","{""participantId"":""CEFD2FE92E6847B2B27FF0175811CE81"",""assignmentId"":""3c0e0830-cd8f-4e5d-b38b-c3144ba4eacb"",""projectId"":""a0a8f18c-a66e-4ba7-a170-23efbdc67501""}","https://test12345.live/?participantId=CEFD2FE92E6847B2B27FF0175811CE81&assignmentId=3c0e0830-cd8f-4e5d-b38b-c3144ba4eacb&projectId=a0a8f18c-a66e-4ba7-a170-23efbdc67501","CEFD2FE92E6847B2B27FF0175811CE81-2024-11-24-18-34-09","","null","","images/causal_sequence/museum_causal/museum_causal_0.png","null","",""
"","","","","","image-button-response","121","541808","0.0-16.0-1.0-0.0","CEFD2FE92E6847B2B27FF0175811CE81","CEFD2FE92E6847B2B27FF0175811CE81","3c0e0830-cd8f-4e5d-b38b-c3144ba4eacb","a0a8f18c-a66e-4ba7-a170-23efbdc67501","{""participantId"":""CEFD2FE92E6847B2B27FF0175811CE81"",""assignmentId"":""3c0e0830-cd8f-4e5d-b38b-c3144ba4eacb"",""projectId"":""a0a8f18c-a66e-4ba7-a170-23efbdc67501""}","https://test12345.live/?participantId=CEFD2FE92E6847B2B27FF0175811CE81&assignmentId=3c0e0830-cd8f-4e5d-b38b-c3144ba4eacb&projectId=a0a8f18c-a66e-4ba7-a170-23efbdc67501","CEFD2FE92E6847B2B27FF0175811CE81-2024-11-24-18-34-09","","null","","images/causal_sequence/museum_causal/museum_causal_1.png","null","",""
"","","","","","image-button-response","122","543067","0.0-16.0-1.0-1.0","CEFD2FE92E6847B2B27FF0175811CE81","CEFD2FE92E6847B2B27FF0175811CE81","3c0e0830-cd8f-4e5d-b38b-c3144ba4eacb","a0a8f18c-a66e-4ba7-a170-23efbdc67501","{""participantId"":""CEFD2FE92E6847B2B27FF0175811CE81"",""assignmentId"":""3c0e0830-cd8f-4e5d-b38b-c3144ba4eacb"",""projectId"":""a0a8f18c-a66e-4ba7-a170-23efbdc67501""}","https://test12345.live/?participantId=CEFD2FE92E6847B2B27FF0175811CE81&assignmentId=3c0e0830-cd8f-4e5d-b38b-c3144ba4eacb&projectId=a0a8f18c-a66e-4ba7-a170-23efbdc67501","CEFD2FE92E6847B2B27FF0175811CE81-2024-11-24-18-34-09","","1258","","images/causal_sequence/museum_causal/museum_causal_1.png","0","",""
"","","","","","image-button-response","123","544873","0.0-16.0-1.0-2.0","CEFD2FE92E6847B2B27FF0175811CE81","CEFD2FE92E6847B2B27FF0175811CE81","3c0e0830-cd8f-4e5d-b38b-c3144ba4eacb","a0a8f18c-a66e-4ba7-a170-23efbdc67501","{""participantId"":""CEFD2FE92E6847B2B27FF0175811CE81"",""assignmentId"":""3c0e0830-cd8f-4e5d-b38b-c3144ba4eacb"",""projectId"":""a0a8f18c-a66e-4ba7-a170-23efbdc67501""}","https://test12345.live/?participantId=CEFD2FE92E6847B2B27FF0175811CE81&assignmentId=3c0e0830-cd8f-4e5d-b38b-c3144ba4eacb&projectId=a0a8f18c-a66e-4ba7-a170-23efbdc67501","CEFD2FE92E6847B2B27FF0175811CE81-2024-11-24-18-34-09","","null","","[]","null","",""
"","","","","","image-button-response","124","549380","0.0-16.0-1.0-0.1","CEFD2FE92E6847B2B27FF0175811CE81","CEFD2FE92E6847B2B27FF0175811CE81","3c0e0830-cd8f-4e5d-b38b-c3144ba4eacb","a0a8f18c-a66e-4ba7-a170-23efbdc67501","{""participantId"":""CEFD2FE92E6847B2B27FF0175811CE81"",""assignmentId"":""3c0e0830-cd8f-4e5d-b38b-c3144ba4eacb"",""projectId"":""a0a8f18c-a66e-4ba7-a170-23efbdc67501""}","https://test12345.live/?participantId=CEFD2FE92E6847B2B27FF0175811CE81&assignmentId=3c0e0830-cd8f-4e5d-b38b-c3144ba4eacb&projectId=a0a8f18c-a66e-4ba7-a170-23efbdc67501","CEFD2FE92E6847B2B27FF0175811CE81-2024-11-24-18-34-09","","null","","images/causal_sequence/museum_causal/museum_causal_2.png","null","",""
"","","","","","image-button-response","125","551064","0.0-16.0-1.0-1.1","CEFD2FE92E6847B2B27FF0175811CE81","CEFD2FE92E6847B2B27FF0175811CE81","3c0e0830-cd8f-4e5d-b38b-c3144ba4eacb","a0a8f18c-a66e-4ba7-a170-23efbdc67501","{""participantId"":""CEFD2FE92E6847B2B27FF0175811CE81"",""assignmentId"":""3c0e0830-cd8f-4e5d-b38b-c3144ba4eacb"",""projectId"":""a0a8f18c-a66e-4ba7-a170-23efbdc67501""}","https://test12345.live/?participantId=CEFD2FE92E6847B2B27FF0175811CE81&assignmentId=3c0e0830-cd8f-4e5d-b38b-c3144ba4eacb&projectId=a0a8f18c-a66e-4ba7-a170-23efbdc67501","CEFD2FE92E6847B2B27FF0175811CE81-2024-11-24-18-34-09","","1682","","images/causal_sequence/museum_causal/museum_causal_2.png","0","",""
"","","","","","image-button-response","126","552870","0.0-16.0-1.0-2.1","CEFD2FE92E6847B2B27FF0175811CE81","CEFD2FE92E6847B2B27FF0175811CE81","3c0e0830-cd8f-4e5d-b38b-c3144ba4eacb","a0a8f18c-a66e-4ba7-a170-23efbdc67501","{""participantId"":""CEFD2FE92E6847B2B27FF0175811CE81"",""assignmentId"":""3c0e0830-cd8f-4e5d-b38b-c3144ba4eacb"",""projectId"":""a0a8f18c-a66e-4ba7-a170-23efbdc67501""}","https://test12345.live/?participantId=CEFD2FE92E6847B2B27FF0175811CE81&assignmentId=3c0e0830-cd8f-4e5d-b38b-c3144ba4eacb&projectId=a0a8f18c-a66e-4ba7-a170-23efbdc67501","CEFD2FE92E6847B2B27FF0175811CE81-2024-11-24-18-34-09","","null","","[]","null","",""
"","","","","","image-button-response","127","557377","0.0-16.0-1.0-0.2","CEFD2FE92E6847B2B27FF0175811CE81","CEFD2FE92E6847B2B27FF0175811CE81","3c0e0830-cd8f-4e5d-b38b-c3144ba4eacb","a0a8f18c-a66e-4ba7-a170-23efbdc67501","{""participantId"":""CEFD2FE92E6847B2B27FF0175811CE81"",""assignmentId"":""3c0e0830-cd8f-4e5d-b38b-c3144ba4eacb"",""projectId"":""a0a8f18c-a66e-4ba7-a170-23efbdc67501""}","https://test12345.live/?participantId=CEFD2FE92E6847B2B27FF0175811CE81&assignmentId=3c0e0830-cd8f-4e5d-b38b-c3144ba4eacb&projectId=a0a8f18c-a66e-4ba7-a170-23efbdc67501","CEFD2FE92E6847B2B27FF0175811CE81-2024-11-24-18-34-09","","null","","images/causal_sequence/museum_causal/museum_causal_3.png","null","",""
"","","","","","image-button-response","128","558392","0.0-16.0-1.0-1.2","CEFD2FE92E6847B2B27FF0175811CE81","CEFD2FE92E6847B2B27FF0175811CE81","3c0e0830-cd8f-4e5d-b38b-c3144ba4eacb","a0a8f18c-a66e-4ba7-a170-23efbdc67501","{""participantId"":""CEFD2FE92E6847B2B27FF0175811CE81"",""assignmentId"":""3c0e0830-cd8f-4e5d-b38b-c3144ba4eacb"",""projectId"":""a0a8f18c-a66e-4ba7-a170-23efbdc67501""}","https://test12345.live/?participantId=CEFD2FE92E6847B2B27FF0175811CE81&assignmentId=3c0e0830-cd8f-4e5d-b38b-c3144ba4eacb&projectId=a0a8f18c-a66e-4ba7-a170-23efbdc67501","CEFD2FE92E6847B2B27FF0175811CE81-2024-11-24-18-34-09","","1014","","images/causal_sequence/museum_causal/museum_causal_3.png","0","",""
"","","","","","image-button-response","129","560197","0.0-16.0-1.0-2.2","CEFD2FE92E6847B2B27FF0175811CE81","CEFD2FE92E6847B2B27FF0175811CE81","3c0e0830-cd8f-4e5d-b38b-c3144ba4eacb","a0a8f18c-a66e-4ba7-a170-23efbdc67501","{""participantId"":""CEFD2FE92E6847B2B27FF0175811CE81"",""assignmentId"":""3c0e0830-cd8f-4e5d-b38b-c3144ba4eacb"",""projectId"":""a0a8f18c-a66e-4ba7-a170-23efbdc67501""}","https://test12345.live/?participantId=CEFD2FE92E6847B2B27FF0175811CE81&assignmentId=3c0e0830-cd8f-4e5d-b38b-c3144ba4eacb&projectId=a0a8f18c-a66e-4ba7-a170-23efbdc67501","CEFD2FE92E6847B2B27FF0175811CE81-2024-11-24-18-34-09","","null","","[]","null","",""
"","","","","","image-button-response","130","564698","0.0-16.0-1.0-0.3","CEFD2FE92E6847B2B27FF0175811CE81","CEFD2FE92E6847B2B27FF0175811CE81","3c0e0830-cd8f-4e5d-b38b-c3144ba4eacb","a0a8f18c-a66e-4ba7-a170-23efbdc67501","{""participantId"":""CEFD2FE92E6847B2B27FF0175811CE81"",""assignmentId"":""3c0e0830-cd8f-4e5d-b38b-c3144ba4eacb"",""projectId"":""a0a8f18c-a66e-4ba7-a170-23efbdc67501""}","https://test12345.live/?participantId=CEFD2FE92E6847B2B27FF0175811CE81&assignmentId=3c0e0830-cd8f-4e5d-b38b-c3144ba4eacb&projectId=a0a8f18c-a66e-4ba7-a170-23efbdc67501","CEFD2FE92E6847B2B27FF0175811CE81-2024-11-24-18-34-09","","null","","images/causal_sequence/museum_causal/museum_causal_4.png","null","",""
"","","","","","image-button-response","131","565599","0.0-16.0-1.0-1.3","CEFD2FE92E6847B2B27FF0175811CE81","CEFD2FE92E6847B2B27FF0175811CE81","3c0e0830-cd8f-4e5d-b38b-c3144ba4eacb","a0a8f18c-a66e-4ba7-a170-23efbdc67501","{""participantId"":""CEFD2FE92E6847B2B27FF0175811CE81"",""assignmentId"":""3c0e0830-cd8f-4e5d-b38b-c3144ba4eacb"",""projectId"":""a0a8f18c-a66e-4ba7-a170-23efbdc67501""}","https://test12345.live/?participantId=CEFD2FE92E6847B2B27FF0175811CE81&assignmentId=3c0e0830-cd8f-4e5d-b38b-c3144ba4eacb&projectId=a0a8f18c-a66e-4ba7-a170-23efbdc67501","CEFD2FE92E6847B2B27FF0175811CE81-2024-11-24-18-34-09","","899","","images/causal_sequence/museum_causal/museum_causal_4.png","1","",""
"","","","","","image-button-response","132","567403","0.0-16.0-1.0-2.3","CEFD2FE92E6847B2B27FF0175811CE81","CEFD2FE92E6847B2B27FF0175811CE81","3c0e0830-cd8f-4e5d-b38b-c3144ba4eacb","a0a8f18c-a66e-4ba7-a170-23efbdc67501","{""participantId"":""CEFD2FE92E6847B2B27FF0175811CE81"",""assignmentId"":""3c0e0830-cd8f-4e5d-b38b-c3144ba4eacb"",""projectId"":""a0a8f18c-a66e-4ba7-a170-23efbdc67501""}","https://test12345.live/?participantId=CEFD2FE92E6847B2B27FF0175811CE81&assignmentId=3c0e0830-cd8f-4e5d-b38b-c3144ba4eacb&projectId=a0a8f18c-a66e-4ba7-a170-23efbdc67501","CEFD2FE92E6847B2B27FF0175811CE81-2024-11-24-18-34-09","","null","","[]","null","",""
"","","","","","image-button-response","133","571905","0.0-16.0-1.0-0.4","CEFD2FE92E6847B2B27FF0175811CE81","CEFD2FE92E6847B2B27FF0175811CE81","3c0e0830-cd8f-4e5d-b38b-c3144ba4eacb","a0a8f18c-a66e-4ba7-a170-23efbdc67501","{""participantId"":""CEFD2FE92E6847B2B27FF0175811CE81"",""assignmentId"":""3c0e0830-cd8f-4e5d-b38b-c3144ba4eacb"",""projectId"":""a0a8f18c-a66e-4ba7-a170-23efbdc67501""}","https://test12345.live/?participantId=CEFD2FE92E6847B2B27FF0175811CE81&assignmentId=3c0e0830-cd8f-4e5d-b38b-c3144ba4eacb&projectId=a0a8f18c-a66e-4ba7-a170-23efbdc67501","CEFD2FE92E6847B2B27FF0175811CE81-2024-11-24-18-34-09","","null","","images/causal_sequence/museum_causal/museum_causal_5.png","null","",""
"","","","","","image-button-response","134","572750","0.0-16.0-1.0-1.4","CEFD2FE92E6847B2B27FF0175811CE81","CEFD2FE92E6847B2B27FF0175811CE81","3c0e0830-cd8f-4e5d-b38b-c3144ba4eacb","a0a8f18c-a66e-4ba7-a170-23efbdc67501","{""participantId"":""CEFD2FE92E6847B2B27FF0175811CE81"",""assignmentId"":""3c0e0830-cd8f-4e5d-b38b-c3144ba4eacb"",""projectId"":""a0a8f18c-a66e-4ba7-a170-23efbdc67501""}","https://test12345.live/?participantId=CEFD2FE92E6847B2B27FF0175811CE81&assignmentId=3c0e0830-cd8f-4e5d-b38b-c3144ba4eacb&projectId=a0a8f18c-a66e-4ba7-a170-23efbdc67501","CEFD2FE92E6847B2B27FF0175811CE81-2024-11-24-18-34-09","","844","","images/causal_sequence/museum_causal/museum_causal_5.png","0","",""
"","","","","","image-button-response","135","574555","0.0-16.0-1.0-2.4","CEFD2FE92E6847B2B27FF0175811CE81","CEFD2FE92E6847B2B27FF0175811CE81","3c0e0830-cd8f-4e5d-b38b-c3144ba4eacb","a0a8f18c-a66e-4ba7-a170-23efbdc67501","{""participantId"":""CEFD2FE92E6847B2B27FF0175811CE81"",""assignmentId"":""3c0e0830-cd8f-4e5d-b38b-c3144ba4eacb"",""projectId"":""a0a8f18c-a66e-4ba7-a170-23efbdc67501""}","https://test12345.live/?participantId=CEFD2FE92E6847B2B27FF0175811CE81&assignmentId=3c0e0830-cd8f-4e5d-b38b-c3144ba4eacb&projectId=a0a8f18c-a66e-4ba7-a170-23efbdc67501","CEFD2FE92E6847B2B27FF0175811CE81-2024-11-24-18-34-09","","null","","[]","null","",""
"","","","","","image-button-response","136","579061","0.0-16.0-1.0-0.5","CEFD2FE92E6847B2B27FF0175811CE81","CEFD2FE92E6847B2B27FF0175811CE81","3c0e0830-cd8f-4e5d-b38b-c3144ba4eacb","a0a8f18c-a66e-4ba7-a170-23efbdc67501","{""participantId"":""CEFD2FE92E6847B2B27FF0175811CE81"",""assignmentId"":""3c0e0830-cd8f-4e5d-b38b-c3144ba4eacb"",""projectId"":""a0a8f18c-a66e-4ba7-a170-23efbdc67501""}","https://test12345.live/?participantId=CEFD2FE92E6847B2B27FF0175811CE81&assignmentId=3c0e0830-cd8f-4e5d-b38b-c3144ba4eacb&projectId=a0a8f18c-a66e-4ba7-a170-23efbdc67501","CEFD2FE92E6847B2B27FF0175811CE81-2024-11-24-18-34-09","","null","","images/causal_sequence/museum_causal/museum_causal_6.png","null","",""
"","","","","","image-button-response","137","580179","0.0-16.0-1.0-1.5","CEFD2FE92E6847B2B27FF0175811CE81","CEFD2FE92E6847B2B27FF0175811CE81","3c0e0830-cd8f-4e5d-b38b-c3144ba4eacb","a0a8f18c-a66e-4ba7-a170-23efbdc67501","{""participantId"":""CEFD2FE92E6847B2B27FF0175811CE81"",""assignmentId"":""3c0e0830-cd8f-4e5d-b38b-c3144ba4eacb"",""projectId"":""a0a8f18c-a66e-4ba7-a170-23efbdc67501""}","https://test12345.live/?participantId=CEFD2FE92E6847B2B27FF0175811CE81&assignmentId=3c0e0830-cd8f-4e5d-b38b-c3144ba4eacb&projectId=a0a8f18c-a66e-4ba7-a170-23efbdc67501","CEFD2FE92E6847B2B27FF0175811CE81-2024-11-24-18-34-09","","1117","","images/causal_sequence/museum_causal/museum_causal_6.png","0","",""
"","","","","","image-button-response","138","581983","0.0-16.0-1.0-2.5","CEFD2FE92E6847B2B27FF0175811CE81","CEFD2FE92E6847B2B27FF0175811CE81","3c0e0830-cd8f-4e5d-b38b-c3144ba4eacb","a0a8f18c-a66e-4ba7-a170-23efbdc67501","{""participantId"":""CEFD2FE92E6847B2B27FF0175811CE81"",""assignmentId"":""3c0e0830-cd8f-4e5d-b38b-c3144ba4eacb"",""projectId"":""a0a8f18c-a66e-4ba7-a170-23efbdc67501""}","https://test12345.live/?participantId=CEFD2FE92E6847B2B27FF0175811CE81&assignmentId=3c0e0830-cd8f-4e5d-b38b-c3144ba4eacb&projectId=a0a8f18c-a66e-4ba7-a170-23efbdc67501","CEFD2FE92E6847B2B27FF0175811CE81-2024-11-24-18-34-09","","null","","[]","null","",""
"","","","","","image-button-response","139","586487","0.0-16.0-1.0-0.6","CEFD2FE92E6847B2B27FF0175811CE81","CEFD2FE92E6847B2B27FF0175811CE81","3c0e0830-cd8f-4e5d-b38b-c3144ba4eacb","a0a8f18c-a66e-4ba7-a170-23efbdc67501","{""participantId"":""CEFD2FE92E6847B2B27FF0175811CE81"",""assignmentId"":""3c0e0830-cd8f-4e5d-b38b-c3144ba4eacb"",""projectId"":""a0a8f18c-a66e-4ba7-a170-23efbdc67501""}","https://test12345.live/?participantId=CEFD2FE92E6847B2B27FF0175811CE81&assignmentId=3c0e0830-cd8f-4e5d-b38b-c3144ba4eacb&projectId=a0a8f18c-a66e-4ba7-a170-23efbdc67501","CEFD2FE92E6847B2B27FF0175811CE81-2024-11-24-18-34-09","","null","","images/causal_sequence/museum_causal/museum_causal_7.png","null","",""
"","","","","","image-button-response","140","587222","0.0-16.0-1.0-1.6","CEFD2FE92E6847B2B27FF0175811CE81","CEFD2FE92E6847B2B27FF0175811CE81","3c0e0830-cd8f-4e5d-b38b-c3144ba4eacb","a0a8f18c-a66e-4ba7-a170-23efbdc67501","{""participantId"":""CEFD2FE92E6847B2B27FF0175811CE81"",""assignmentId"":""3c0e0830-cd8f-4e5d-b38b-c3144ba4eacb"",""projectId"":""a0a8f18c-a66e-4ba7-a170-23efbdc67501""}","https://test12345.live/?participantId=CEFD2FE92E6847B2B27FF0175811CE81&assignmentId=3c0e0830-cd8f-4e5d-b38b-c3144ba4eacb&projectId=a0a8f18c-a66e-4ba7-a170-23efbdc67501","CEFD2FE92E6847B2B27FF0175811CE81-2024-11-24-18-34-09","","733","","images/causal_sequence/museum_causal/museum_causal_7.png","1","",""
"","","","","","image-button-response","141","589027","0.0-16.0-1.0-2.6","CEFD2FE92E6847B2B27FF0175811CE81","CEFD2FE92E6847B2B27FF0175811CE81","3c0e0830-cd8f-4e5d-b38b-c3144ba4eacb","a0a8f18c-a66e-4ba7-a170-23efbdc67501","{""participantId"":""CEFD2FE92E6847B2B27FF0175811CE81"",""assignmentId"":""3c0e0830-cd8f-4e5d-b38b-c3144ba4eacb"",""projectId"":""a0a8f18c-a66e-4ba7-a170-23efbdc67501""}","https://test12345.live/?participantId=CEFD2FE92E6847B2B27FF0175811CE81&assignmentId=3c0e0830-cd8f-4e5d-b38b-c3144ba4eacb&projectId=a0a8f18c-a66e-4ba7-a170-23efbdc67501","CEFD2FE92E6847B2B27FF0175811CE81-2024-11-24-18-34-09","","null","","[]","null","",""
"","","","","","image-button-response","142","593534","0.0-16.0-1.0-0.7","CEFD2FE92E6847B2B27FF0175811CE81","CEFD2FE92E6847B2B27FF0175811CE81","3c0e0830-cd8f-4e5d-b38b-c3144ba4eacb","a0a8f18c-a66e-4ba7-a170-23efbdc67501","{""participantId"":""CEFD2FE92E6847B2B27FF0175811CE81"",""assignmentId"":""3c0e0830-cd8f-4e5d-b38b-c3144ba4eacb"",""projectId"":""a0a8f18c-a66e-4ba7-a170-23efbdc67501""}","https://test12345.live/?participantId=CEFD2FE92E6847B2B27FF0175811CE81&assignmentId=3c0e0830-cd8f-4e5d-b38b-c3144ba4eacb&projectId=a0a8f18c-a66e-4ba7-a170-23efbdc67501","CEFD2FE92E6847B2B27FF0175811CE81-2024-11-24-18-34-09","","null","","images/causal_sequence/museum_causal/museum_causal_8.png","null","",""
"","","","","","image-button-response","143","594435","0.0-16.0-1.0-1.7","CEFD2FE92E6847B2B27FF0175811CE81","CEFD2FE92E6847B2B27FF0175811CE81","3c0e0830-cd8f-4e5d-b38b-c3144ba4eacb","a0a8f18c-a66e-4ba7-a170-23efbdc67501","{""participantId"":""CEFD2FE92E6847B2B27FF0175811CE81"",""assignmentId"":""3c0e0830-cd8f-4e5d-b38b-c3144ba4eacb"",""projectId"":""a0a8f18c-a66e-4ba7-a170-23efbdc67501""}","https://test12345.live/?participantId=CEFD2FE92E6847B2B27FF0175811CE81&assignmentId=3c0e0830-cd8f-4e5d-b38b-c3144ba4eacb&projectId=a0a8f18c-a66e-4ba7-a170-23efbdc67501","CEFD2FE92E6847B2B27FF0175811CE81-2024-11-24-18-34-09","","899","","images/causal_sequence/museum_causal/museum_causal_8.png","0","",""
