"success","timeout","failed_images","failed_audio","failed_video","trial_type","trial_index","time_elapsed","internal_node_id","subject","subject_id","study_id","session_id","urlvar","current_url","audio_id","view_history","rt","device_id","stimulus","response","estimated_stimulus_onset","seq_name"
"true","false","[]","[]","[]","preload","0","7603","0.0-0.0","CF3FDC171B364B7FBED6300012D923EB","CF3FDC171B364B7FBED6300012D923EB","5fd6ea35-82e1-41ce-8bf3-8041955f3e17","ba640c14-69c5-453e-80b2-29051492c0e0","{""num_scrambled_semantic"":""8"",""num_scrambled_causal"":""4"",""num_scrambled_schematic"":""4"",""participantId"":""CF3FDC171B364B7FBED6300012D923EB"",""assignmentId"":""5fd6ea35-82e1-41ce-8bf3-8041955f3e17"",""projectId"":""ba640c14-69c5-453e-80b2-29051492c0e0""}","https://test12345.live/?num_scrambled_semantic=8&num_scrambled_causal=4&num_scrambled_schematic=4&participantId=CF3FDC171B364B7FBED6300012D923EB&assignmentId=5fd6ea35-82e1-41ce-8bf3-8041955f3e17&projectId=ba640c14-69c5-453e-80b2-29051492c0e0","CF3FDC171B364B7FBED6300012D923EB-2025-05-14-20-58-14","","","","","","",""
"","","","","","instructions","1","52744","0.0-1.0","CF3FDC171B364B7FBED6300012D923EB","CF3FDC171B364B7FBED6300012D923EB","5fd6ea35-82e1-41ce-8bf3-8041955f3e17","ba640c14-69c5-453e-80b2-29051492c0e0","{""num_scrambled_semantic"":""8"",""num_scrambled_causal"":""4"",""num_scrambled_schematic"":""4"",""participantId"":""CF3FDC171B364B7FBED6300012D923EB"",""assignmentId"":""5fd6ea35-82e1-41ce-8bf3-8041955f3e17"",""projectId"":""ba640c14-69c5-453e-80b2-29051492c0e0""}","https://test12345.live/?num_scrambled_semantic=8&num_scrambled_causal=4&num_scrambled_schematic=4&participantId=CF3FDC171B364B7FBED6300012D923EB&assignmentId=5fd6ea35-82e1-41ce-8bf3-8041955f3e17&projectId=ba640c14-69c5-453e-80b2-29051492c0e0","CF3FDC171B364B7FBED6300012D923EB-2025-05-14-20-58-14","[{""page_index"":0,""viewing_time"":45140}]","45140","","","","",""
"","","","","","instructions","2","55288","0.0-2.0","CF3FDC171B364B7FBED6300012D923EB","CF3FDC171B364B7FBED6300012D923EB","5fd6ea35-82e1-41ce-8bf3-8041955f3e17","ba640c14-69c5-453e-80b2-29051492c0e0","{""num_scrambled_semantic"":""8"",""num_scrambled_causal"":""4"",""num_scrambled_schematic"":""4"",""participantId"":""CF3FDC171B364B7FBED6300012D923EB"",""assignmentId"":""5fd6ea35-82e1-41ce-8bf3-8041955f3e17"",""projectId"":""ba640c14-69c5-453e-80b2-29051492c0e0""}","https://test12345.live/?num_scrambled_semantic=8&num_scrambled_causal=4&num_scrambled_schematic=4&participantId=CF3FDC171B364B7FBED6300012D923EB&assignmentId=5fd6ea35-82e1-41ce-8bf3-8041955f3e17&projectId=ba640c14-69c5-453e-80b2-29051492c0e0","CF3FDC171B364B7FBED6300012D923EB-2025-05-14-20-58-14","[{""page_index"":0,""viewing_time"":2543}]","2543","","","","",""
"true","","","","","fullscreen","3","58091","0.0-3.0","CF3FDC171B364B7FBED6300012D923EB","CF3FDC171B364B7FBED6300012D923EB","5fd6ea35-82e1-41ce-8bf3-8041955f3e17","ba640c14-69c5-453e-80b2-29051492c0e0","{""num_scrambled_semantic"":""8"",""num_scrambled_causal"":""4"",""num_scrambled_schematic"":""4"",""participantId"":""CF3FDC171B364B7FBED6300012D923EB"",""assignmentId"":""5fd6ea35-82e1-41ce-8bf3-8041955f3e17"",""projectId"":""ba640c14-69c5-453e-80b2-29051492c0e0""}","https://test12345.live/?num_scrambled_semantic=8&num_scrambled_causal=4&num_scrambled_schematic=4&participantId=CF3FDC171B364B7FBED6300012D923EB&assignmentId=5fd6ea35-82e1-41ce-8bf3-8041955f3e17&projectId=ba640c14-69c5-453e-80b2-29051492c0e0","CF3FDC171B364B7FBED6300012D923EB-2025-05-14-20-58-14","","1794","","","","",""
"","","","","","initialize-microphone","4","65088","0.0-4.0-0.0","CF3FDC171B364B7FBED6300012D923EB","CF3FDC171B364B7FBED6300012D923EB","5fd6ea35-82e1-41ce-8bf3-8041955f3e17","ba640c14-69c5-453e-80b2-29051492c0e0","{""num_scrambled_semantic"":""8"",""num_scrambled_causal"":""4"",""num_scrambled_schematic"":""4"",""participantId"":""CF3FDC171B364B7FBED6300012D923EB"",""assignmentId"":""5fd6ea35-82e1-41ce-8bf3-8041955f3e17"",""projectId"":""ba640c14-69c5-453e-80b2-29051492c0e0""}","https://test12345.live/?num_scrambled_semantic=8&num_scrambled_causal=4&num_scrambled_schematic=4&participantId=CF3FDC171B364B7FBED6300012D923EB&assignmentId=5fd6ea35-82e1-41ce-8bf3-8041955f3e17&projectId=ba640c14-69c5-453e-80b2-29051492c0e0","CF3FDC171B364B7FBED6300012D923EB-2025-05-14-20-58-14","","","5aad9ff5d24b5efb3f245e5bf30d9a5ff0175fba7f8ae4b5e0c91dfd96cfd2e3","","","",""
"","","","","","html-audio-response","5","79745","0.0-4.0-1.0","CF3FDC171B364B7FBED6300012D923EB","CF3FDC171B364B7FBED6300012D923EB","5fd6ea35-82e1-41ce-8bf3-8041955f3e17","ba640c14-69c5-453e-80b2-29051492c0e0","{""num_scrambled_semantic"":""8"",""num_scrambled_causal"":""4"",""num_scrambled_schematic"":""4"",""participantId"":""CF3FDC171B364B7FBED6300012D923EB"",""assignmentId"":""5fd6ea35-82e1-41ce-8bf3-8041955f3e17"",""projectId"":""ba640c14-69c5-453e-80b2-29051492c0e0""}","https://test12345.live/?num_scrambled_semantic=8&num_scrambled_causal=4&num_scrambled_schematic=4&participantId=CF3FDC171B364B7FBED6300012D923EB&assignmentId=5fd6ea35-82e1-41ce-8bf3-8041955f3e17&projectId=ba640c14-69c5-453e-80b2-29051492c0e0","CF3FDC171B364B7FBED6300012D923EB-2025-05-14-20-58-14","","5802","","<span style=""color: red; font-size: 24px""> NOW RECORDING</span>
        <p>Please test Microphone</p>","","16",""
"","","","","","html-button-response","6","81250","0.0-4.0-2.0","CF3FDC171B364B7FBED6300012D923EB","CF3FDC171B364B7FBED6300012D923EB","5fd6ea35-82e1-41ce-8bf3-8041955f3e17","ba640c14-69c5-453e-80b2-29051492c0e0","{""num_scrambled_semantic"":""8"",""num_scrambled_causal"":""4"",""num_scrambled_schematic"":""4"",""participantId"":""CF3FDC171B364B7FBED6300012D923EB"",""assignmentId"":""5fd6ea35-82e1-41ce-8bf3-8041955f3e17"",""projectId"":""ba640c14-69c5-453e-80b2-29051492c0e0""}","https://test12345.live/?num_scrambled_semantic=8&num_scrambled_causal=4&num_scrambled_schematic=4&participantId=CF3FDC171B364B7FBED6300012D923EB&assignmentId=5fd6ea35-82e1-41ce-8bf3-8041955f3e17&projectId=ba640c14-69c5-453e-80b2-29051492c0e0","CF3FDC171B364B7FBED6300012D923EB-2025-05-14-20-58-14","","1504","","<p style=""font-size:48px; color:red;"">Is Microphone OK?</p>","1","",""
"","","","","","instructions","7","92175","0.0-5.0","CF3FDC171B364B7FBED6300012D923EB","CF3FDC171B364B7FBED6300012D923EB","5fd6ea35-82e1-41ce-8bf3-8041955f3e17","ba640c14-69c5-453e-80b2-29051492c0e0","{""num_scrambled_semantic"":""8"",""num_scrambled_causal"":""4"",""num_scrambled_schematic"":""4"",""participantId"":""CF3FDC171B364B7FBED6300012D923EB"",""assignmentId"":""5fd6ea35-82e1-41ce-8bf3-8041955f3e17"",""projectId"":""ba640c14-69c5-453e-80b2-29051492c0e0""}","https://test12345.live/?num_scrambled_semantic=8&num_scrambled_causal=4&num_scrambled_schematic=4&participantId=CF3FDC171B364B7FBED6300012D923EB&assignmentId=5fd6ea35-82e1-41ce-8bf3-8041955f3e17&projectId=ba640c14-69c5-453e-80b2-29051492c0e0","CF3FDC171B364B7FBED6300012D923EB-2025-05-14-20-58-14","[{""page_index"":0,""viewing_time"":3654},{""page_index"":1,""viewing_time"":7269}]","10923","","","","",""
"","","","","","image-button-response","8","98189","0.0-6.0-0.0","CF3FDC171B364B7FBED6300012D923EB","CF3FDC171B364B7FBED6300012D923EB","5fd6ea35-82e1-41ce-8bf3-8041955f3e17","ba640c14-69c5-453e-80b2-29051492c0e0","{""num_scrambled_semantic"":""8"",""num_scrambled_causal"":""4"",""num_scrambled_schematic"":""4"",""participantId"":""CF3FDC171B364B7FBED6300012D923EB"",""assignmentId"":""5fd6ea35-82e1-41ce-8bf3-8041955f3e17"",""projectId"":""ba640c14-69c5-453e-80b2-29051492c0e0""}","https://test12345.live/?num_scrambled_semantic=8&num_scrambled_causal=4&num_scrambled_schematic=4&participantId=CF3FDC171B364B7FBED6300012D923EB&assignmentId=5fd6ea35-82e1-41ce-8bf3-8041955f3e17&projectId=ba640c14-69c5-453e-80b2-29051492c0e0","CF3FDC171B364B7FBED6300012D923EB-2025-05-14-20-58-14","","null","","images/instructions/movie_0.png","null","",""
"","","","","","image-button-response","9","102691","0.0-6.0-1.0-0.0","CF3FDC171B364B7FBED6300012D923EB","CF3FDC171B364B7FBED6300012D923EB","5fd6ea35-82e1-41ce-8bf3-8041955f3e17","ba640c14-69c5-453e-80b2-29051492c0e0","{""num_scrambled_semantic"":""8"",""num_scrambled_causal"":""4"",""num_scrambled_schematic"":""4"",""participantId"":""CF3FDC171B364B7FBED6300012D923EB"",""assignmentId"":""5fd6ea35-82e1-41ce-8bf3-8041955f3e17"",""projectId"":""ba640c14-69c5-453e-80b2-29051492c0e0""}","https://test12345.live/?num_scrambled_semantic=8&num_scrambled_causal=4&num_scrambled_schematic=4&participantId=CF3FDC171B364B7FBED6300012D923EB&assignmentId=5fd6ea35-82e1-41ce-8bf3-8041955f3e17&projectId=ba640c14-69c5-453e-80b2-29051492c0e0","CF3FDC171B364B7FBED6300012D923EB-2025-05-14-20-58-14","","null","","images/instructions/movie_1.png","null","",""
"","","","","","image-button-response","10","105568","0.0-6.0-1.0-1.0","CF3FDC171B364B7FBED6300012D923EB","CF3FDC171B364B7FBED6300012D923EB","5fd6ea35-82e1-41ce-8bf3-8041955f3e17","ba640c14-69c5-453e-80b2-29051492c0e0","{""num_scrambled_semantic"":""8"",""num_scrambled_causal"":""4"",""num_scrambled_schematic"":""4"",""participantId"":""CF3FDC171B364B7FBED6300012D923EB"",""assignmentId"":""5fd6ea35-82e1-41ce-8bf3-8041955f3e17"",""projectId"":""ba640c14-69c5-453e-80b2-29051492c0e0""}","https://test12345.live/?num_scrambled_semantic=8&num_scrambled_causal=4&num_scrambled_schematic=4&participantId=CF3FDC171B364B7FBED6300012D923EB&assignmentId=5fd6ea35-82e1-41ce-8bf3-8041955f3e17&projectId=ba640c14-69c5-453e-80b2-29051492c0e0","CF3FDC171B364B7FBED6300012D923EB-2025-05-14-20-58-14","","2875","","images/instructions/movie_1.png","0","",""
"","","","","","image-button-response","11","107388","0.0-6.0-1.0-2.0","CF3FDC171B364B7FBED6300012D923EB","CF3FDC171B364B7FBED6300012D923EB","5fd6ea35-82e1-41ce-8bf3-8041955f3e17","ba640c14-69c5-453e-80b2-29051492c0e0","{""num_scrambled_semantic"":""8"",""num_scrambled_causal"":""4"",""num_scrambled_schematic"":""4"",""participantId"":""CF3FDC171B364B7FBED6300012D923EB"",""assignmentId"":""5fd6ea35-82e1-41ce-8bf3-8041955f3e17"",""projectId"":""ba640c14-69c5-453e-80b2-29051492c0e0""}","https://test12345.live/?num_scrambled_semantic=8&num_scrambled_causal=4&num_scrambled_schematic=4&participantId=CF3FDC171B364B7FBED6300012D923EB&assignmentId=5fd6ea35-82e1-41ce-8bf3-8041955f3e17&projectId=ba640c14-69c5-453e-80b2-29051492c0e0","CF3FDC171B364B7FBED6300012D923EB-2025-05-14-20-58-14","","null","","[]","null","",""
"","","","","","image-button-response","12","111891","0.0-6.0-1.0-0.1","CF3FDC171B364B7FBED6300012D923EB","CF3FDC171B364B7FBED6300012D923EB","5fd6ea35-82e1-41ce-8bf3-8041955f3e17","ba640c14-69c5-453e-80b2-29051492c0e0","{""num_scrambled_semantic"":""8"",""num_scrambled_causal"":""4"",""num_scrambled_schematic"":""4"",""participantId"":""CF3FDC171B364B7FBED6300012D923EB"",""assignmentId"":""5fd6ea35-82e1-41ce-8bf3-8041955f3e17"",""projectId"":""ba640c14-69c5-453e-80b2-29051492c0e0""}","https://test12345.live/?num_scrambled_semantic=8&num_scrambled_causal=4&num_scrambled_schematic=4&participantId=CF3FDC171B364B7FBED6300012D923EB&assignmentId=5fd6ea35-82e1-41ce-8bf3-8041955f3e17&projectId=ba640c14-69c5-453e-80b2-29051492c0e0","CF3FDC171B364B7FBED6300012D923EB-2025-05-14-20-58-14","","null","","images/instructions/movie_2.png","null","",""
"","","","","","image-button-response","13","115906","0.0-6.0-1.0-1.1","CF3FDC171B364B7FBED6300012D923EB","CF3FDC171B364B7FBED6300012D923EB","5fd6ea35-82e1-41ce-8bf3-8041955f3e17","ba640c14-69c5-453e-80b2-29051492c0e0","{""num_scrambled_semantic"":""8"",""num_scrambled_causal"":""4"",""num_scrambled_schematic"":""4"",""participantId"":""CF3FDC171B364B7FBED6300012D923EB"",""assignmentId"":""5fd6ea35-82e1-41ce-8bf3-8041955f3e17"",""projectId"":""ba640c14-69c5-453e-80b2-29051492c0e0""}","https://test12345.live/?num_scrambled_semantic=8&num_scrambled_causal=4&num_scrambled_schematic=4&participantId=CF3FDC171B364B7FBED6300012D923EB&assignmentId=5fd6ea35-82e1-41ce-8bf3-8041955f3e17&projectId=ba640c14-69c5-453e-80b2-29051492c0e0","CF3FDC171B364B7FBED6300012D923EB-2025-05-14-20-58-14","","null","","images/instructions/movie_2.png","null","",""
"","","","","","image-button-response","14","117722","0.0-6.0-1.0-2.1","CF3FDC171B364B7FBED6300012D923EB","CF3FDC171B364B7FBED6300012D923EB","5fd6ea35-82e1-41ce-8bf3-8041955f3e17","ba640c14-69c5-453e-80b2-29051492c0e0","{""num_scrambled_semantic"":""8"",""num_scrambled_causal"":""4"",""num_scrambled_schematic"":""4"",""participantId"":""CF3FDC171B364B7FBED6300012D923EB"",""assignmentId"":""5fd6ea35-82e1-41ce-8bf3-8041955f3e17"",""projectId"":""ba640c14-69c5-453e-80b2-29051492c0e0""}","https://test12345.live/?num_scrambled_semantic=8&num_scrambled_causal=4&num_scrambled_schematic=4&participantId=CF3FDC171B364B7FBED6300012D923EB&assignmentId=5fd6ea35-82e1-41ce-8bf3-8041955f3e17&projectId=ba640c14-69c5-453e-80b2-29051492c0e0","CF3FDC171B364B7FBED6300012D923EB-2025-05-14-20-58-14","","null","","[]","null","",""
"","","","","","image-button-response","15","122224","0.0-6.0-1.0-0.2","CF3FDC171B364B7FBED6300012D923EB","CF3FDC171B364B7FBED6300012D923EB","5fd6ea35-82e1-41ce-8bf3-8041955f3e17","ba640c14-69c5-453e-80b2-29051492c0e0","{""num_scrambled_semantic"":""8"",""num_scrambled_causal"":""4"",""num_scrambled_schematic"":""4"",""participantId"":""CF3FDC171B364B7FBED6300012D923EB"",""assignmentId"":""5fd6ea35-82e1-41ce-8bf3-8041955f3e17"",""projectId"":""ba640c14-69c5-453e-80b2-29051492c0e0""}","https://test12345.live/?num_scrambled_semantic=8&num_scrambled_causal=4&num_scrambled_schematic=4&participantId=CF3FDC171B364B7FBED6300012D923EB&assignmentId=5fd6ea35-82e1-41ce-8bf3-8041955f3e17&projectId=ba640c14-69c5-453e-80b2-29051492c0e0","CF3FDC171B364B7FBED6300012D923EB-2025-05-14-20-58-14","","null","","images/instructions/movie_3.png","null","",""
"","","","","","image-button-response","16","122905","0.0-6.0-1.0-1.2","CF3FDC171B364B7FBED6300012D923EB","CF3FDC171B364B7FBED6300012D923EB","5fd6ea35-82e1-41ce-8bf3-8041955f3e17","ba640c14-69c5-453e-80b2-29051492c0e0","{""num_scrambled_semantic"":""8"",""num_scrambled_causal"":""4"",""num_scrambled_schematic"":""4"",""participantId"":""CF3FDC171B364B7FBED6300012D923EB"",""assignmentId"":""5fd6ea35-82e1-41ce-8bf3-8041955f3e17"",""projectId"":""ba640c14-69c5-453e-80b2-29051492c0e0""}","https://test12345.live/?num_scrambled_semantic=8&num_scrambled_causal=4&num_scrambled_schematic=4&participantId=CF3FDC171B364B7FBED6300012D923EB&assignmentId=5fd6ea35-82e1-41ce-8bf3-8041955f3e17&projectId=ba640c14-69c5-453e-80b2-29051492c0e0","CF3FDC171B364B7FBED6300012D923EB-2025-05-14-20-58-14","","679","","images/instructions/movie_3.png","0","",""
"","","","","","image-button-response","17","124707","0.0-6.0-1.0-2.2","CF3FDC171B364B7FBED6300012D923EB","CF3FDC171B364B7FBED6300012D923EB","5fd6ea35-82e1-41ce-8bf3-8041955f3e17","ba640c14-69c5-453e-80b2-29051492c0e0","{""num_scrambled_semantic"":""8"",""num_scrambled_causal"":""4"",""num_scrambled_schematic"":""4"",""participantId"":""CF3FDC171B364B7FBED6300012D923EB"",""assignmentId"":""5fd6ea35-82e1-41ce-8bf3-8041955f3e17"",""projectId"":""ba640c14-69c5-453e-80b2-29051492c0e0""}","https://test12345.live/?num_scrambled_semantic=8&num_scrambled_causal=4&num_scrambled_schematic=4&participantId=CF3FDC171B364B7FBED6300012D923EB&assignmentId=5fd6ea35-82e1-41ce-8bf3-8041955f3e17&projectId=ba640c14-69c5-453e-80b2-29051492c0e0","CF3FDC171B364B7FBED6300012D923EB-2025-05-14-20-58-14","","null","","[]","null","",""
"","","","","","image-button-response","18","129221","0.0-6.0-1.0-0.3","CF3FDC171B364B7FBED6300012D923EB","CF3FDC171B364B7FBED6300012D923EB","5fd6ea35-82e1-41ce-8bf3-8041955f3e17","ba640c14-69c5-453e-80b2-29051492c0e0","{""num_scrambled_semantic"":""8"",""num_scrambled_causal"":""4"",""num_scrambled_schematic"":""4"",""participantId"":""CF3FDC171B364B7FBED6300012D923EB"",""assignmentId"":""5fd6ea35-82e1-41ce-8bf3-8041955f3e17"",""projectId"":""ba640c14-69c5-453e-80b2-29051492c0e0""}","https://test12345.live/?num_scrambled_semantic=8&num_scrambled_causal=4&num_scrambled_schematic=4&participantId=CF3FDC171B364B7FBED6300012D923EB&assignmentId=5fd6ea35-82e1-41ce-8bf3-8041955f3e17&projectId=ba640c14-69c5-453e-80b2-29051492c0e0","CF3FDC171B364B7FBED6300012D923EB-2025-05-14-20-58-14","","null","","images/instructions/movie_4.png","null","",""
"","","","","","image-button-response","19","130091","0.0-6.0-1.0-1.3","CF3FDC171B364B7FBED6300012D923EB","CF3FDC171B364B7FBED6300012D923EB","5fd6ea35-82e1-41ce-8bf3-8041955f3e17","ba640c14-69c5-453e-80b2-29051492c0e0","{""num_scrambled_semantic"":""8"",""num_scrambled_causal"":""4"",""num_scrambled_schematic"":""4"",""participantId"":""CF3FDC171B364B7FBED6300012D923EB"",""assignmentId"":""5fd6ea35-82e1-41ce-8bf3-8041955f3e17"",""projectId"":""ba640c14-69c5-453e-80b2-29051492c0e0""}","https://test12345.live/?num_scrambled_semantic=8&num_scrambled_causal=4&num_scrambled_schematic=4&participantId=CF3FDC171B364B7FBED6300012D923EB&assignmentId=5fd6ea35-82e1-41ce-8bf3-8041955f3e17&projectId=ba640c14-69c5-453e-80b2-29051492c0e0","CF3FDC171B364B7FBED6300012D923EB-2025-05-14-20-58-14","","869","","images/instructions/movie_4.png","0","",""
"","","","","","image-button-response","20","131904","0.0-6.0-1.0-2.3","CF3FDC171B364B7FBED6300012D923EB","CF3FDC171B364B7FBED6300012D923EB","5fd6ea35-82e1-41ce-8bf3-8041955f3e17","ba640c14-69c5-453e-80b2-29051492c0e0","{""num_scrambled_semantic"":""8"",""num_scrambled_causal"":""4"",""num_scrambled_schematic"":""4"",""participantId"":""CF3FDC171B364B7FBED6300012D923EB"",""assignmentId"":""5fd6ea35-82e1-41ce-8bf3-8041955f3e17"",""projectId"":""ba640c14-69c5-453e-80b2-29051492c0e0""}","https://test12345.live/?num_scrambled_semantic=8&num_scrambled_causal=4&num_scrambled_schematic=4&participantId=CF3FDC171B364B7FBED6300012D923EB&assignmentId=5fd6ea35-82e1-41ce-8bf3-8041955f3e17&projectId=ba640c14-69c5-453e-80b2-29051492c0e0","CF3FDC171B364B7FBED6300012D923EB-2025-05-14-20-58-14","","null","","[]","null","",""
"","","","","","instructions","21","141953","0.0-7.0","CF3FDC171B364B7FBED6300012D923EB","CF3FDC171B364B7FBED6300012D923EB","5fd6ea35-82e1-41ce-8bf3-8041955f3e17","ba640c14-69c5-453e-80b2-29051492c0e0","{""num_scrambled_semantic"":""8"",""num_scrambled_causal"":""4"",""num_scrambled_schematic"":""4"",""participantId"":""CF3FDC171B364B7FBED6300012D923EB"",""assignmentId"":""5fd6ea35-82e1-41ce-8bf3-8041955f3e17"",""projectId"":""ba640c14-69c5-453e-80b2-29051492c0e0""}","https://test12345.live/?num_scrambled_semantic=8&num_scrambled_causal=4&num_scrambled_schematic=4&participantId=CF3FDC171B364B7FBED6300012D923EB&assignmentId=5fd6ea35-82e1-41ce-8bf3-8041955f3e17&projectId=ba640c14-69c5-453e-80b2-29051492c0e0","CF3FDC171B364B7FBED6300012D923EB-2025-05-14-20-58-14","[{""page_index"":0,""viewing_time"":8941},{""page_index"":1,""viewing_time"":1107}]","10049","","","","",""
"","","","","","html-audio-response","22","172121","0.0-8.0","CF3FDC171B364B7FBED6300012D923EB","CF3FDC171B364B7FBED6300012D923EB","5fd6ea35-82e1-41ce-8bf3-8041955f3e17","ba640c14-69c5-453e-80b2-29051492c0e0","{""num_scrambled_semantic"":""8"",""num_scrambled_causal"":""4"",""num_scrambled_schematic"":""4"",""participantId"":""CF3FDC171B364B7FBED6300012D923EB"",""assignmentId"":""5fd6ea35-82e1-41ce-8bf3-8041955f3e17"",""projectId"":""ba640c14-69c5-453e-80b2-29051492c0e0""}","https://test12345.live/?num_scrambled_semantic=8&num_scrambled_causal=4&num_scrambled_schematic=4&participantId=CF3FDC171B364B7FBED6300012D923EB&assignmentId=5fd6ea35-82e1-41ce-8bf3-8041955f3e17&projectId=ba640c14-69c5-453e-80b2-29051492c0e0","CF3FDC171B364B7FBED6300012D923EB-2025-05-14-20-58-14","","18794","","[""<span style=\""color: red; font-size: 24px\""> NOW RECORDING</span><p>Please say out loud all the images you saw, as many as you can remember. The images can be said in any order.</p>""]","","12",""
"","","","","","instructions","23","173312","0.0-9.0","CF3FDC171B364B7FBED6300012D923EB","CF3FDC171B364B7FBED6300012D923EB","5fd6ea35-82e1-41ce-8bf3-8041955f3e17","ba640c14-69c5-453e-80b2-29051492c0e0","{""num_scrambled_semantic"":""8"",""num_scrambled_causal"":""4"",""num_scrambled_schematic"":""4"",""participantId"":""CF3FDC171B364B7FBED6300012D923EB"",""assignmentId"":""5fd6ea35-82e1-41ce-8bf3-8041955f3e17"",""projectId"":""ba640c14-69c5-453e-80b2-29051492c0e0""}","https://test12345.live/?num_scrambled_semantic=8&num_scrambled_causal=4&num_scrambled_schematic=4&participantId=CF3FDC171B364B7FBED6300012D923EB&assignmentId=5fd6ea35-82e1-41ce-8bf3-8041955f3e17&projectId=ba640c14-69c5-453e-80b2-29051492c0e0","CF3FDC171B364B7FBED6300012D923EB-2025-05-14-20-58-14","[{""page_index"":0,""viewing_time"":1187}]","1187","","","","",""
"","","","","","image-button-response","24","179318","0.0-10.0-0.0","CF3FDC171B364B7FBED6300012D923EB","CF3FDC171B364B7FBED6300012D923EB","5fd6ea35-82e1-41ce-8bf3-8041955f3e17","ba640c14-69c5-453e-80b2-29051492c0e0","{""num_scrambled_semantic"":""8"",""num_scrambled_causal"":""4"",""num_scrambled_schematic"":""4"",""participantId"":""CF3FDC171B364B7FBED6300012D923EB"",""assignmentId"":""5fd6ea35-82e1-41ce-8bf3-8041955f3e17"",""projectId"":""ba640c14-69c5-453e-80b2-29051492c0e0""}","https://test12345.live/?num_scrambled_semantic=8&num_scrambled_causal=4&num_scrambled_schematic=4&participantId=CF3FDC171B364B7FBED6300012D923EB&assignmentId=5fd6ea35-82e1-41ce-8bf3-8041955f3e17&projectId=ba640c14-69c5-453e-80b2-29051492c0e0","CF3FDC171B364B7FBED6300012D923EB-2025-05-14-20-58-14","","null","","images/semantic_sequence/visiting_cities_semantic/visiting_cities_semantic_0.png","null","",""
"","","","","","image-button-response","25","183822","0.0-10.0-1.0-0.0","CF3FDC171B364B7FBED6300012D923EB","CF3FDC171B364B7FBED6300012D923EB","5fd6ea35-82e1-41ce-8bf3-8041955f3e17","ba640c14-69c5-453e-80b2-29051492c0e0","{""num_scrambled_semantic"":""8"",""num_scrambled_causal"":""4"",""num_scrambled_schematic"":""4"",""participantId"":""CF3FDC171B364B7FBED6300012D923EB"",""assignmentId"":""5fd6ea35-82e1-41ce-8bf3-8041955f3e17"",""projectId"":""ba640c14-69c5-453e-80b2-29051492c0e0""}","https://test12345.live/?num_scrambled_semantic=8&num_scrambled_causal=4&num_scrambled_schematic=4&participantId=CF3FDC171B364B7FBED6300012D923EB&assignmentId=5fd6ea35-82e1-41ce-8bf3-8041955f3e17&projectId=ba640c14-69c5-453e-80b2-29051492c0e0","CF3FDC171B364B7FBED6300012D923EB-2025-05-14-20-58-14","","null","","images/semantic_sequence/visiting_cities_semantic/visiting_cities_semantic_3.png","null","",""
"","","","","","image-button-response","26","186286","0.0-10.0-1.0-1.0","CF3FDC171B364B7FBED6300012D923EB","CF3FDC171B364B7FBED6300012D923EB","5fd6ea35-82e1-41ce-8bf3-8041955f3e17","ba640c14-69c5-453e-80b2-29051492c0e0","{""num_scrambled_semantic"":""8"",""num_scrambled_causal"":""4"",""num_scrambled_schematic"":""4"",""participantId"":""CF3FDC171B364B7FBED6300012D923EB"",""assignmentId"":""5fd6ea35-82e1-41ce-8bf3-8041955f3e17"",""projectId"":""ba640c14-69c5-453e-80b2-29051492c0e0""}","https://test12345.live/?num_scrambled_semantic=8&num_scrambled_causal=4&num_scrambled_schematic=4&participantId=CF3FDC171B364B7FBED6300012D923EB&assignmentId=5fd6ea35-82e1-41ce-8bf3-8041955f3e17&projectId=ba640c14-69c5-453e-80b2-29051492c0e0","CF3FDC171B364B7FBED6300012D923EB-2025-05-14-20-58-14","","2463","","images/semantic_sequence/visiting_cities_semantic/visiting_cities_semantic_3.png","1","",""
"","","","","","image-button-response","27","188087","0.0-10.0-1.0-2.0","CF3FDC171B364B7FBED6300012D923EB","CF3FDC171B364B7FBED6300012D923EB","5fd6ea35-82e1-41ce-8bf3-8041955f3e17","ba640c14-69c5-453e-80b2-29051492c0e0","{""num_scrambled_semantic"":""8"",""num_scrambled_causal"":""4"",""num_scrambled_schematic"":""4"",""participantId"":""CF3FDC171B364B7FBED6300012D923EB"",""assignmentId"":""5fd6ea35-82e1-41ce-8bf3-8041955f3e17"",""projectId"":""ba640c14-69c5-453e-80b2-29051492c0e0""}","https://test12345.live/?num_scrambled_semantic=8&num_scrambled_causal=4&num_scrambled_schematic=4&participantId=CF3FDC171B364B7FBED6300012D923EB&assignmentId=5fd6ea35-82e1-41ce-8bf3-8041955f3e17&projectId=ba640c14-69c5-453e-80b2-29051492c0e0","CF3FDC171B364B7FBED6300012D923EB-2025-05-14-20-58-14","","null","","[]","null","",""
"","","","","","image-button-response","28","192590","0.0-10.0-1.0-0.1","CF3FDC171B364B7FBED6300012D923EB","CF3FDC171B364B7FBED6300012D923EB","5fd6ea35-82e1-41ce-8bf3-8041955f3e17","ba640c14-69c5-453e-80b2-29051492c0e0","{""num_scrambled_semantic"":""8"",""num_scrambled_causal"":""4"",""num_scrambled_schematic"":""4"",""participantId"":""CF3FDC171B364B7FBED6300012D923EB"",""assignmentId"":""5fd6ea35-82e1-41ce-8bf3-8041955f3e17"",""projectId"":""ba640c14-69c5-453e-80b2-29051492c0e0""}","https://test12345.live/?num_scrambled_semantic=8&num_scrambled_causal=4&num_scrambled_schematic=4&participantId=CF3FDC171B364B7FBED6300012D923EB&assignmentId=5fd6ea35-82e1-41ce-8bf3-8041955f3e17&projectId=ba640c14-69c5-453e-80b2-29051492c0e0","CF3FDC171B364B7FBED6300012D923EB-2025-05-14-20-58-14","","null","","images/semantic_sequence/visiting_cities_semantic/visiting_cities_semantic_1.png","null","",""
"","","","","","image-button-response","29","194629","0.0-10.0-1.0-1.1","CF3FDC171B364B7FBED6300012D923EB","CF3FDC171B364B7FBED6300012D923EB","5fd6ea35-82e1-41ce-8bf3-8041955f3e17","ba640c14-69c5-453e-80b2-29051492c0e0","{""num_scrambled_semantic"":""8"",""num_scrambled_causal"":""4"",""num_scrambled_schematic"":""4"",""participantId"":""CF3FDC171B364B7FBED6300012D923EB"",""assignmentId"":""5fd6ea35-82e1-41ce-8bf3-8041955f3e17"",""projectId"":""ba640c14-69c5-453e-80b2-29051492c0e0""}","https://test12345.live/?num_scrambled_semantic=8&num_scrambled_causal=4&num_scrambled_schematic=4&participantId=CF3FDC171B364B7FBED6300012D923EB&assignmentId=5fd6ea35-82e1-41ce-8bf3-8041955f3e17&projectId=ba640c14-69c5-453e-80b2-29051492c0e0","CF3FDC171B364B7FBED6300012D923EB-2025-05-14-20-58-14","","2038","","images/semantic_sequence/visiting_cities_semantic/visiting_cities_semantic_1.png","0","",""
"","","","","","image-button-response","30","196431","0.0-10.0-1.0-2.1","CF3FDC171B364B7FBED6300012D923EB","CF3FDC171B364B7FBED6300012D923EB","5fd6ea35-82e1-41ce-8bf3-8041955f3e17","ba640c14-69c5-453e-80b2-29051492c0e0","{""num_scrambled_semantic"":""8"",""num_scrambled_causal"":""4"",""num_scrambled_schematic"":""4"",""participantId"":""CF3FDC171B364B7FBED6300012D923EB"",""assignmentId"":""5fd6ea35-82e1-41ce-8bf3-8041955f3e17"",""projectId"":""ba640c14-69c5-453e-80b2-29051492c0e0""}","https://test12345.live/?num_scrambled_semantic=8&num_scrambled_causal=4&num_scrambled_schematic=4&participantId=CF3FDC171B364B7FBED6300012D923EB&assignmentId=5fd6ea35-82e1-41ce-8bf3-8041955f3e17&projectId=ba640c14-69c5-453e-80b2-29051492c0e0","CF3FDC171B364B7FBED6300012D923EB-2025-05-14-20-58-14","","null","","[]","null","",""
"","","","","","image-button-response","31","200934","0.0-10.0-1.0-0.2","CF3FDC171B364B7FBED6300012D923EB","CF3FDC171B364B7FBED6300012D923EB","5fd6ea35-82e1-41ce-8bf3-8041955f3e17","ba640c14-69c5-453e-80b2-29051492c0e0","{""num_scrambled_semantic"":""8"",""num_scrambled_causal"":""4"",""num_scrambled_schematic"":""4"",""participantId"":""CF3FDC171B364B7FBED6300012D923EB"",""assignmentId"":""5fd6ea35-82e1-41ce-8bf3-8041955f3e17"",""projectId"":""ba640c14-69c5-453e-80b2-29051492c0e0""}","https://test12345.live/?num_scrambled_semantic=8&num_scrambled_causal=4&num_scrambled_schematic=4&participantId=CF3FDC171B364B7FBED6300012D923EB&assignmentId=5fd6ea35-82e1-41ce-8bf3-8041955f3e17&projectId=ba640c14-69c5-453e-80b2-29051492c0e0","CF3FDC171B364B7FBED6300012D923EB-2025-05-14-20-58-14","","null","","images/semantic_sequence/visiting_cities_semantic/visiting_cities_semantic_ten.png","null","",""
"","","","","","image-button-response","32","202563","0.0-10.0-1.0-1.2","CF3FDC171B364B7FBED6300012D923EB","CF3FDC171B364B7FBED6300012D923EB","5fd6ea35-82e1-41ce-8bf3-8041955f3e17","ba640c14-69c5-453e-80b2-29051492c0e0","{""num_scrambled_semantic"":""8"",""num_scrambled_causal"":""4"",""num_scrambled_schematic"":""4"",""participantId"":""CF3FDC171B364B7FBED6300012D923EB"",""assignmentId"":""5fd6ea35-82e1-41ce-8bf3-8041955f3e17"",""projectId"":""ba640c14-69c5-453e-80b2-29051492c0e0""}","https://test12345.live/?num_scrambled_semantic=8&num_scrambled_causal=4&num_scrambled_schematic=4&participantId=CF3FDC171B364B7FBED6300012D923EB&assignmentId=5fd6ea35-82e1-41ce-8bf3-8041955f3e17&projectId=ba640c14-69c5-453e-80b2-29051492c0e0","CF3FDC171B364B7FBED6300012D923EB-2025-05-14-20-58-14","","1627","","images/semantic_sequence/visiting_cities_semantic/visiting_cities_semantic_ten.png","1","",""
"","","","","","image-button-response","33","204369","0.0-10.0-1.0-2.2","CF3FDC171B364B7FBED6300012D923EB","CF3FDC171B364B7FBED6300012D923EB","5fd6ea35-82e1-41ce-8bf3-8041955f3e17","ba640c14-69c5-453e-80b2-29051492c0e0","{""num_scrambled_semantic"":""8"",""num_scrambled_causal"":""4"",""num_scrambled_schematic"":""4"",""participantId"":""CF3FDC171B364B7FBED6300012D923EB"",""assignmentId"":""5fd6ea35-82e1-41ce-8bf3-8041955f3e17"",""projectId"":""ba640c14-69c5-453e-80b2-29051492c0e0""}","https://test12345.live/?num_scrambled_semantic=8&num_scrambled_causal=4&num_scrambled_schematic=4&participantId=CF3FDC171B364B7FBED6300012D923EB&assignmentId=5fd6ea35-82e1-41ce-8bf3-8041955f3e17&projectId=ba640c14-69c5-453e-80b2-29051492c0e0","CF3FDC171B364B7FBED6300012D923EB-2025-05-14-20-58-14","","null","","[]","null","",""
"","","","","","image-button-response","34","208885","0.0-10.0-1.0-0.3","CF3FDC171B364B7FBED6300012D923EB","CF3FDC171B364B7FBED6300012D923EB","5fd6ea35-82e1-41ce-8bf3-8041955f3e17","ba640c14-69c5-453e-80b2-29051492c0e0","{""num_scrambled_semantic"":""8"",""num_scrambled_causal"":""4"",""num_scrambled_schematic"":""4"",""participantId"":""CF3FDC171B364B7FBED6300012D923EB"",""assignmentId"":""5fd6ea35-82e1-41ce-8bf3-8041955f3e17"",""projectId"":""ba640c14-69c5-453e-80b2-29051492c0e0""}","https://test12345.live/?num_scrambled_semantic=8&num_scrambled_causal=4&num_scrambled_schematic=4&participantId=CF3FDC171B364B7FBED6300012D923EB&assignmentId=5fd6ea35-82e1-41ce-8bf3-8041955f3e17&projectId=ba640c14-69c5-453e-80b2-29051492c0e0","CF3FDC171B364B7FBED6300012D923EB-2025-05-14-20-58-14","","null","","images/semantic_sequence/visiting_cities_semantic/visiting_cities_semantic_5.png","null","",""
"","","","","","image-button-response","35","211604","0.0-10.0-1.0-1.3","CF3FDC171B364B7FBED6300012D923EB","CF3FDC171B364B7FBED6300012D923EB","5fd6ea35-82e1-41ce-8bf3-8041955f3e17","ba640c14-69c5-453e-80b2-29051492c0e0","{""num_scrambled_semantic"":""8"",""num_scrambled_causal"":""4"",""num_scrambled_schematic"":""4"",""participantId"":""CF3FDC171B364B7FBED6300012D923EB"",""assignmentId"":""5fd6ea35-82e1-41ce-8bf3-8041955f3e17"",""projectId"":""ba640c14-69c5-453e-80b2-29051492c0e0""}","https://test12345.live/?num_scrambled_semantic=8&num_scrambled_causal=4&num_scrambled_schematic=4&participantId=CF3FDC171B364B7FBED6300012D923EB&assignmentId=5fd6ea35-82e1-41ce-8bf3-8041955f3e17&projectId=ba640c14-69c5-453e-80b2-29051492c0e0","CF3FDC171B364B7FBED6300012D923EB-2025-05-14-20-58-14","","2718","","images/semantic_sequence/visiting_cities_semantic/visiting_cities_semantic_5.png","1","",""
"","","","","","image-button-response","36","213419","0.0-10.0-1.0-2.3","CF3FDC171B364B7FBED6300012D923EB","CF3FDC171B364B7FBED6300012D923EB","5fd6ea35-82e1-41ce-8bf3-8041955f3e17","ba640c14-69c5-453e-80b2-29051492c0e0","{""num_scrambled_semantic"":""8"",""num_scrambled_causal"":""4"",""num_scrambled_schematic"":""4"",""participantId"":""CF3FDC171B364B7FBED6300012D923EB"",""assignmentId"":""5fd6ea35-82e1-41ce-8bf3-8041955f3e17"",""projectId"":""ba640c14-69c5-453e-80b2-29051492c0e0""}","https://test12345.live/?num_scrambled_semantic=8&num_scrambled_causal=4&num_scrambled_schematic=4&participantId=CF3FDC171B364B7FBED6300012D923EB&assignmentId=5fd6ea35-82e1-41ce-8bf3-8041955f3e17&projectId=ba640c14-69c5-453e-80b2-29051492c0e0","CF3FDC171B364B7FBED6300012D923EB-2025-05-14-20-58-14","","null","","[]","null","",""
"","","","","","image-button-response","37","217936","0.0-10.0-1.0-0.4","CF3FDC171B364B7FBED6300012D923EB","CF3FDC171B364B7FBED6300012D923EB","5fd6ea35-82e1-41ce-8bf3-8041955f3e17","ba640c14-69c5-453e-80b2-29051492c0e0","{""num_scrambled_semantic"":""8"",""num_scrambled_causal"":""4"",""num_scrambled_schematic"":""4"",""participantId"":""CF3FDC171B364B7FBED6300012D923EB"",""assignmentId"":""5fd6ea35-82e1-41ce-8bf3-8041955f3e17"",""projectId"":""ba640c14-69c5-453e-80b2-29051492c0e0""}","https://test12345.live/?num_scrambled_semantic=8&num_scrambled_causal=4&num_scrambled_schematic=4&participantId=CF3FDC171B364B7FBED6300012D923EB&assignmentId=5fd6ea35-82e1-41ce-8bf3-8041955f3e17&projectId=ba640c14-69c5-453e-80b2-29051492c0e0","CF3FDC171B364B7FBED6300012D923EB-2025-05-14-20-58-14","","null","","images/semantic_sequence/visiting_cities_semantic/visiting_cities_semantic_4.png","null","",""
"","","","","","image-button-response","38","220581","0.0-10.0-1.0-1.4","CF3FDC171B364B7FBED6300012D923EB","CF3FDC171B364B7FBED6300012D923EB","5fd6ea35-82e1-41ce-8bf3-8041955f3e17","ba640c14-69c5-453e-80b2-29051492c0e0","{""num_scrambled_semantic"":""8"",""num_scrambled_causal"":""4"",""num_scrambled_schematic"":""4"",""participantId"":""CF3FDC171B364B7FBED6300012D923EB"",""assignmentId"":""5fd6ea35-82e1-41ce-8bf3-8041955f3e17"",""projectId"":""ba640c14-69c5-453e-80b2-29051492c0e0""}","https://test12345.live/?num_scrambled_semantic=8&num_scrambled_causal=4&num_scrambled_schematic=4&participantId=CF3FDC171B364B7FBED6300012D923EB&assignmentId=5fd6ea35-82e1-41ce-8bf3-8041955f3e17&projectId=ba640c14-69c5-453e-80b2-29051492c0e0","CF3FDC171B364B7FBED6300012D923EB-2025-05-14-20-58-14","","2644","","images/semantic_sequence/visiting_cities_semantic/visiting_cities_semantic_4.png","1","",""
"","","","","","image-button-response","39","222384","0.0-10.0-1.0-2.4","CF3FDC171B364B7FBED6300012D923EB","CF3FDC171B364B7FBED6300012D923EB","5fd6ea35-82e1-41ce-8bf3-8041955f3e17","ba640c14-69c5-453e-80b2-29051492c0e0","{""num_scrambled_semantic"":""8"",""num_scrambled_causal"":""4"",""num_scrambled_schematic"":""4"",""participantId"":""CF3FDC171B364B7FBED6300012D923EB"",""assignmentId"":""5fd6ea35-82e1-41ce-8bf3-8041955f3e17"",""projectId"":""ba640c14-69c5-453e-80b2-29051492c0e0""}","https://test12345.live/?num_scrambled_semantic=8&num_scrambled_causal=4&num_scrambled_schematic=4&participantId=CF3FDC171B364B7FBED6300012D923EB&assignmentId=5fd6ea35-82e1-41ce-8bf3-8041955f3e17&projectId=ba640c14-69c5-453e-80b2-29051492c0e0","CF3FDC171B364B7FBED6300012D923EB-2025-05-14-20-58-14","","null","","[]","null","",""
"","","","","","image-button-response","40","226886","0.0-10.0-1.0-0.5","CF3FDC171B364B7FBED6300012D923EB","CF3FDC171B364B7FBED6300012D923EB","5fd6ea35-82e1-41ce-8bf3-8041955f3e17","ba640c14-69c5-453e-80b2-29051492c0e0","{""num_scrambled_semantic"":""8"",""num_scrambled_causal"":""4"",""num_scrambled_schematic"":""4"",""participantId"":""CF3FDC171B364B7FBED6300012D923EB"",""assignmentId"":""5fd6ea35-82e1-41ce-8bf3-8041955f3e17"",""projectId"":""ba640c14-69c5-453e-80b2-29051492c0e0""}","https://test12345.live/?num_scrambled_semantic=8&num_scrambled_causal=4&num_scrambled_schematic=4&participantId=CF3FDC171B364B7FBED6300012D923EB&assignmentId=5fd6ea35-82e1-41ce-8bf3-8041955f3e17&projectId=ba640c14-69c5-453e-80b2-29051492c0e0","CF3FDC171B364B7FBED6300012D923EB-2025-05-14-20-58-14","","null","","images/semantic_sequence/visiting_cities_semantic/visiting_cities_semantic_9.png","null","",""
"","","","","","image-button-response","41","228549","0.0-10.0-1.0-1.5","CF3FDC171B364B7FBED6300012D923EB","CF3FDC171B364B7FBED6300012D923EB","5fd6ea35-82e1-41ce-8bf3-8041955f3e17","ba640c14-69c5-453e-80b2-29051492c0e0","{""num_scrambled_semantic"":""8"",""num_scrambled_causal"":""4"",""num_scrambled_schematic"":""4"",""participantId"":""CF3FDC171B364B7FBED6300012D923EB"",""assignmentId"":""5fd6ea35-82e1-41ce-8bf3-8041955f3e17"",""projectId"":""ba640c14-69c5-453e-80b2-29051492c0e0""}","https://test12345.live/?num_scrambled_semantic=8&num_scrambled_causal=4&num_scrambled_schematic=4&participantId=CF3FDC171B364B7FBED6300012D923EB&assignmentId=5fd6ea35-82e1-41ce-8bf3-8041955f3e17&projectId=ba640c14-69c5-453e-80b2-29051492c0e0","CF3FDC171B364B7FBED6300012D923EB-2025-05-14-20-58-14","","1661","","images/semantic_sequence/visiting_cities_semantic/visiting_cities_semantic_9.png","1","",""
"","","","","","image-button-response","42","230351","0.0-10.0-1.0-2.5","CF3FDC171B364B7FBED6300012D923EB","CF3FDC171B364B7FBED6300012D923EB","5fd6ea35-82e1-41ce-8bf3-8041955f3e17","ba640c14-69c5-453e-80b2-29051492c0e0","{""num_scrambled_semantic"":""8"",""num_scrambled_causal"":""4"",""num_scrambled_schematic"":""4"",""participantId"":""CF3FDC171B364B7FBED6300012D923EB"",""assignmentId"":""5fd6ea35-82e1-41ce-8bf3-8041955f3e17"",""projectId"":""ba640c14-69c5-453e-80b2-29051492c0e0""}","https://test12345.live/?num_scrambled_semantic=8&num_scrambled_causal=4&num_scrambled_schematic=4&participantId=CF3FDC171B364B7FBED6300012D923EB&assignmentId=5fd6ea35-82e1-41ce-8bf3-8041955f3e17&projectId=ba640c14-69c5-453e-80b2-29051492c0e0","CF3FDC171B364B7FBED6300012D923EB-2025-05-14-20-58-14","","null","","[]","null","",""
"","","","","","image-button-response","43","234853","0.0-10.0-1.0-0.6","CF3FDC171B364B7FBED6300012D923EB","CF3FDC171B364B7FBED6300012D923EB","5fd6ea35-82e1-41ce-8bf3-8041955f3e17","ba640c14-69c5-453e-80b2-29051492c0e0","{""num_scrambled_semantic"":""8"",""num_scrambled_causal"":""4"",""num_scrambled_schematic"":""4"",""participantId"":""CF3FDC171B364B7FBED6300012D923EB"",""assignmentId"":""5fd6ea35-82e1-41ce-8bf3-8041955f3e17"",""projectId"":""ba640c14-69c5-453e-80b2-29051492c0e0""}","https://test12345.live/?num_scrambled_semantic=8&num_scrambled_causal=4&num_scrambled_schematic=4&participantId=CF3FDC171B364B7FBED6300012D923EB&assignmentId=5fd6ea35-82e1-41ce-8bf3-8041955f3e17&projectId=ba640c14-69c5-453e-80b2-29051492c0e0","CF3FDC171B364B7FBED6300012D923EB-2025-05-14-20-58-14","","null","","images/semantic_sequence/visiting_cities_semantic/visiting_cities_semantic_6.png","null","",""
"","","","","","image-button-response","44","237513","0.0-10.0-1.0-1.6","CF3FDC171B364B7FBED6300012D923EB","CF3FDC171B364B7FBED6300012D923EB","5fd6ea35-82e1-41ce-8bf3-8041955f3e17","ba640c14-69c5-453e-80b2-29051492c0e0","{""num_scrambled_semantic"":""8"",""num_scrambled_causal"":""4"",""num_scrambled_schematic"":""4"",""participantId"":""CF3FDC171B364B7FBED6300012D923EB"",""assignmentId"":""5fd6ea35-82e1-41ce-8bf3-8041955f3e17"",""projectId"":""ba640c14-69c5-453e-80b2-29051492c0e0""}","https://test12345.live/?num_scrambled_semantic=8&num_scrambled_causal=4&num_scrambled_schematic=4&participantId=CF3FDC171B364B7FBED6300012D923EB&assignmentId=5fd6ea35-82e1-41ce-8bf3-8041955f3e17&projectId=ba640c14-69c5-453e-80b2-29051492c0e0","CF3FDC171B364B7FBED6300012D923EB-2025-05-14-20-58-14","","2658","","images/semantic_sequence/visiting_cities_semantic/visiting_cities_semantic_6.png","1","",""
"","","","","","image-button-response","45","239316","0.0-10.0-1.0-2.6","CF3FDC171B364B7FBED6300012D923EB","CF3FDC171B364B7FBED6300012D923EB","5fd6ea35-82e1-41ce-8bf3-8041955f3e17","ba640c14-69c5-453e-80b2-29051492c0e0","{""num_scrambled_semantic"":""8"",""num_scrambled_causal"":""4"",""num_scrambled_schematic"":""4"",""participantId"":""CF3FDC171B364B7FBED6300012D923EB"",""assignmentId"":""5fd6ea35-82e1-41ce-8bf3-8041955f3e17"",""projectId"":""ba640c14-69c5-453e-80b2-29051492c0e0""}","https://test12345.live/?num_scrambled_semantic=8&num_scrambled_causal=4&num_scrambled_schematic=4&participantId=CF3FDC171B364B7FBED6300012D923EB&assignmentId=5fd6ea35-82e1-41ce-8bf3-8041955f3e17&projectId=ba640c14-69c5-453e-80b2-29051492c0e0","CF3FDC171B364B7FBED6300012D923EB-2025-05-14-20-58-14","","null","","[]","null","",""
"","","","","","image-button-response","46","243819","0.0-10.0-1.0-0.7","CF3FDC171B364B7FBED6300012D923EB","CF3FDC171B364B7FBED6300012D923EB","5fd6ea35-82e1-41ce-8bf3-8041955f3e17","ba640c14-69c5-453e-80b2-29051492c0e0","{""num_scrambled_semantic"":""8"",""num_scrambled_causal"":""4"",""num_scrambled_schematic"":""4"",""participantId"":""CF3FDC171B364B7FBED6300012D923EB"",""assignmentId"":""5fd6ea35-82e1-41ce-8bf3-8041955f3e17"",""projectId"":""ba640c14-69c5-453e-80b2-29051492c0e0""}","https://test12345.live/?num_scrambled_semantic=8&num_scrambled_causal=4&num_scrambled_schematic=4&participantId=CF3FDC171B364B7FBED6300012D923EB&assignmentId=5fd6ea35-82e1-41ce-8bf3-8041955f3e17&projectId=ba640c14-69c5-453e-80b2-29051492c0e0","CF3FDC171B364B7FBED6300012D923EB-2025-05-14-20-58-14","","null","","images/semantic_sequence/visiting_cities_semantic/visiting_cities_semantic_7.png","null","",""
"","","","","","image-button-response","47","245839","0.0-10.0-1.0-1.7","CF3FDC171B364B7FBED6300012D923EB","CF3FDC171B364B7FBED6300012D923EB","5fd6ea35-82e1-41ce-8bf3-8041955f3e17","ba640c14-69c5-453e-80b2-29051492c0e0","{""num_scrambled_semantic"":""8"",""num_scrambled_causal"":""4"",""num_scrambled_schematic"":""4"",""participantId"":""CF3FDC171B364B7FBED6300012D923EB"",""assignmentId"":""5fd6ea35-82e1-41ce-8bf3-8041955f3e17"",""projectId"":""ba640c14-69c5-453e-80b2-29051492c0e0""}","https://test12345.live/?num_scrambled_semantic=8&num_scrambled_causal=4&num_scrambled_schematic=4&participantId=CF3FDC171B364B7FBED6300012D923EB&assignmentId=5fd6ea35-82e1-41ce-8bf3-8041955f3e17&projectId=ba640c14-69c5-453e-80b2-29051492c0e0","CF3FDC171B364B7FBED6300012D923EB-2025-05-14-20-58-14","","2019","","images/semantic_sequence/visiting_cities_semantic/visiting_cities_semantic_7.png","1","",""
"","","","","","image-button-response","48","247651","0.0-10.0-1.0-2.7","CF3FDC171B364B7FBED6300012D923EB","CF3FDC171B364B7FBED6300012D923EB","5fd6ea35-82e1-41ce-8bf3-8041955f3e17","ba640c14-69c5-453e-80b2-29051492c0e0","{""num_scrambled_semantic"":""8"",""num_scrambled_causal"":""4"",""num_scrambled_schematic"":""4"",""participantId"":""CF3FDC171B364B7FBED6300012D923EB"",""assignmentId"":""5fd6ea35-82e1-41ce-8bf3-8041955f3e17"",""projectId"":""ba640c14-69c5-453e-80b2-29051492c0e0""}","https://test12345.live/?num_scrambled_semantic=8&num_scrambled_causal=4&num_scrambled_schematic=4&participantId=CF3FDC171B364B7FBED6300012D923EB&assignmentId=5fd6ea35-82e1-41ce-8bf3-8041955f3e17&projectId=ba640c14-69c5-453e-80b2-29051492c0e0","CF3FDC171B364B7FBED6300012D923EB-2025-05-14-20-58-14","","null","","[]","null","",""
"","","","","","image-button-response","49","252165","0.0-10.0-1.0-0.8","CF3FDC171B364B7FBED6300012D923EB","CF3FDC171B364B7FBED6300012D923EB","5fd6ea35-82e1-41ce-8bf3-8041955f3e17","ba640c14-69c5-453e-80b2-29051492c0e0","{""num_scrambled_semantic"":""8"",""num_scrambled_causal"":""4"",""num_scrambled_schematic"":""4"",""participantId"":""CF3FDC171B364B7FBED6300012D923EB"",""assignmentId"":""5fd6ea35-82e1-41ce-8bf3-8041955f3e17"",""projectId"":""ba640c14-69c5-453e-80b2-29051492c0e0""}","https://test12345.live/?num_scrambled_semantic=8&num_scrambled_causal=4&num_scrambled_schematic=4&participantId=CF3FDC171B364B7FBED6300012D923EB&assignmentId=5fd6ea35-82e1-41ce-8bf3-8041955f3e17&projectId=ba640c14-69c5-453e-80b2-29051492c0e0","CF3FDC171B364B7FBED6300012D923EB-2025-05-14-20-58-14","","null","","images/semantic_sequence/visiting_cities_semantic/visiting_cities_semantic_8.png","null","",""
"","","","","","image-button-response","50","254728","0.0-10.0-1.0-1.8","CF3FDC171B364B7FBED6300012D923EB","CF3FDC171B364B7FBED6300012D923EB","5fd6ea35-82e1-41ce-8bf3-8041955f3e17","ba640c14-69c5-453e-80b2-29051492c0e0","{""num_scrambled_semantic"":""8"",""num_scrambled_causal"":""4"",""num_scrambled_schematic"":""4"",""participantId"":""CF3FDC171B364B7FBED6300012D923EB"",""assignmentId"":""5fd6ea35-82e1-41ce-8bf3-8041955f3e17"",""projectId"":""ba640c14-69c5-453e-80b2-29051492c0e0""}","https://test12345.live/?num_scrambled_semantic=8&num_scrambled_causal=4&num_scrambled_schematic=4&participantId=CF3FDC171B364B7FBED6300012D923EB&assignmentId=5fd6ea35-82e1-41ce-8bf3-8041955f3e17&projectId=ba640c14-69c5-453e-80b2-29051492c0e0","CF3FDC171B364B7FBED6300012D923EB-2025-05-14-20-58-14","","2562","","images/semantic_sequence/visiting_cities_semantic/visiting_cities_semantic_8.png","1","",""
"","","","","","image-button-response","51","256531","0.0-10.0-1.0-2.8","CF3FDC171B364B7FBED6300012D923EB","CF3FDC171B364B7FBED6300012D923EB","5fd6ea35-82e1-41ce-8bf3-8041955f3e17","ba640c14-69c5-453e-80b2-29051492c0e0","{""num_scrambled_semantic"":""8"",""num_scrambled_causal"":""4"",""num_scrambled_schematic"":""4"",""participantId"":""CF3FDC171B364B7FBED6300012D923EB"",""assignmentId"":""5fd6ea35-82e1-41ce-8bf3-8041955f3e17"",""projectId"":""ba640c14-69c5-453e-80b2-29051492c0e0""}","https://test12345.live/?num_scrambled_semantic=8&num_scrambled_causal=4&num_scrambled_schematic=4&participantId=CF3FDC171B364B7FBED6300012D923EB&assignmentId=5fd6ea35-82e1-41ce-8bf3-8041955f3e17&projectId=ba640c14-69c5-453e-80b2-29051492c0e0","CF3FDC171B364B7FBED6300012D923EB-2025-05-14-20-58-14","","null","","[]","null","",""
"","","","","","image-button-response","52","261033","0.0-10.0-1.0-0.9","CF3FDC171B364B7FBED6300012D923EB","CF3FDC171B364B7FBED6300012D923EB","5fd6ea35-82e1-41ce-8bf3-8041955f3e17","ba640c14-69c5-453e-80b2-29051492c0e0","{""num_scrambled_semantic"":""8"",""num_scrambled_causal"":""4"",""num_scrambled_schematic"":""4"",""participantId"":""CF3FDC171B364B7FBED6300012D923EB"",""assignmentId"":""5fd6ea35-82e1-41ce-8bf3-8041955f3e17"",""projectId"":""ba640c14-69c5-453e-80b2-29051492c0e0""}","https://test12345.live/?num_scrambled_semantic=8&num_scrambled_causal=4&num_scrambled_schematic=4&participantId=CF3FDC171B364B7FBED6300012D923EB&assignmentId=5fd6ea35-82e1-41ce-8bf3-8041955f3e17&projectId=ba640c14-69c5-453e-80b2-29051492c0e0","CF3FDC171B364B7FBED6300012D923EB-2025-05-14-20-58-14","","null","","images/semantic_sequence/visiting_cities_semantic/visiting_cities_semantic_2.png","null","",""
"","","","","","image-button-response","53","263855","0.0-10.0-1.0-1.9","CF3FDC171B364B7FBED6300012D923EB","CF3FDC171B364B7FBED6300012D923EB","5fd6ea35-82e1-41ce-8bf3-8041955f3e17","ba640c14-69c5-453e-80b2-29051492c0e0","{""num_scrambled_semantic"":""8"",""num_scrambled_causal"":""4"",""num_scrambled_schematic"":""4"",""participantId"":""CF3FDC171B364B7FBED6300012D923EB"",""assignmentId"":""5fd6ea35-82e1-41ce-8bf3-8041955f3e17"",""projectId"":""ba640c14-69c5-453e-80b2-29051492c0e0""}","https://test12345.live/?num_scrambled_semantic=8&num_scrambled_causal=4&num_scrambled_schematic=4&participantId=CF3FDC171B364B7FBED6300012D923EB&assignmentId=5fd6ea35-82e1-41ce-8bf3-8041955f3e17&projectId=ba640c14-69c5-453e-80b2-29051492c0e0","CF3FDC171B364B7FBED6300012D923EB-2025-05-14-20-58-14","","2821","","images/semantic_sequence/visiting_cities_semantic/visiting_cities_semantic_2.png","1","",""
"","","","","","image-button-response","54","265657","0.0-10.0-1.0-2.9","CF3FDC171B364B7FBED6300012D923EB","CF3FDC171B364B7FBED6300012D923EB","5fd6ea35-82e1-41ce-8bf3-8041955f3e17","ba640c14-69c5-453e-80b2-29051492c0e0","{""num_scrambled_semantic"":""8"",""num_scrambled_causal"":""4"",""num_scrambled_schematic"":""4"",""participantId"":""CF3FDC171B364B7FBED6300012D923EB"",""assignmentId"":""5fd6ea35-82e1-41ce-8bf3-8041955f3e17"",""projectId"":""ba640c14-69c5-453e-80b2-29051492c0e0""}","https://test12345.live/?num_scrambled_semantic=8&num_scrambled_causal=4&num_scrambled_schematic=4&participantId=CF3FDC171B364B7FBED6300012D923EB&assignmentId=5fd6ea35-82e1-41ce-8bf3-8041955f3e17&projectId=ba640c14-69c5-453e-80b2-29051492c0e0","CF3FDC171B364B7FBED6300012D923EB-2025-05-14-20-58-14","","null","","[]","null","",""
"","","","","","html-audio-response","55","297286","0.0-11.0","CF3FDC171B364B7FBED6300012D923EB","CF3FDC171B364B7FBED6300012D923EB","5fd6ea35-82e1-41ce-8bf3-8041955f3e17","ba640c14-69c5-453e-80b2-29051492c0e0","{""num_scrambled_semantic"":""8"",""num_scrambled_causal"":""4"",""num_scrambled_schematic"":""4"",""participantId"":""CF3FDC171B364B7FBED6300012D923EB"",""assignmentId"":""5fd6ea35-82e1-41ce-8bf3-8041955f3e17"",""projectId"":""ba640c14-69c5-453e-80b2-29051492c0e0""}","https://test12345.live/?num_scrambled_semantic=8&num_scrambled_causal=4&num_scrambled_schematic=4&participantId=CF3FDC171B364B7FBED6300012D923EB&assignmentId=5fd6ea35-82e1-41ce-8bf3-8041955f3e17&projectId=ba640c14-69c5-453e-80b2-29051492c0e0","CF3FDC171B364B7FBED6300012D923EB-2025-05-14-20-58-14","","30580","","[""<span style=\""color: red; font-size: 24px\""> NOW RECORDING</span><p>Please say out loud all the images you saw, as many as you can remember. The images can be said in any order.</p>""]","","7","visiting_cities_semantic"
"","","","","","image-button-response","56","303296","0.0-12.0-0.0","CF3FDC171B364B7FBED6300012D923EB","CF3FDC171B364B7FBED6300012D923EB","5fd6ea35-82e1-41ce-8bf3-8041955f3e17","ba640c14-69c5-453e-80b2-29051492c0e0","{""num_scrambled_semantic"":""8"",""num_scrambled_causal"":""4"",""num_scrambled_schematic"":""4"",""participantId"":""CF3FDC171B364B7FBED6300012D923EB"",""assignmentId"":""5fd6ea35-82e1-41ce-8bf3-8041955f3e17"",""projectId"":""ba640c14-69c5-453e-80b2-29051492c0e0""}","https://test12345.live/?num_scrambled_semantic=8&num_scrambled_causal=4&num_scrambled_schematic=4&participantId=CF3FDC171B364B7FBED6300012D923EB&assignmentId=5fd6ea35-82e1-41ce-8bf3-8041955f3e17&projectId=ba640c14-69c5-453e-80b2-29051492c0e0","CF3FDC171B364B7FBED6300012D923EB-2025-05-14-20-58-14","","null","","images/causal_sequence/the_performance_causal/the_performance_causal_0.png","null","",""
"","","","","","image-button-response","57","307798","0.0-12.0-1.0-0.0","CF3FDC171B364B7FBED6300012D923EB","CF3FDC171B364B7FBED6300012D923EB","5fd6ea35-82e1-41ce-8bf3-8041955f3e17","ba640c14-69c5-453e-80b2-29051492c0e0","{""num_scrambled_semantic"":""8"",""num_scrambled_causal"":""4"",""num_scrambled_schematic"":""4"",""participantId"":""CF3FDC171B364B7FBED6300012D923EB"",""assignmentId"":""5fd6ea35-82e1-41ce-8bf3-8041955f3e17"",""projectId"":""ba640c14-69c5-453e-80b2-29051492c0e0""}","https://test12345.live/?num_scrambled_semantic=8&num_scrambled_causal=4&num_scrambled_schematic=4&participantId=CF3FDC171B364B7FBED6300012D923EB&assignmentId=5fd6ea35-82e1-41ce-8bf3-8041955f3e17&projectId=ba640c14-69c5-453e-80b2-29051492c0e0","CF3FDC171B364B7FBED6300012D923EB-2025-05-14-20-58-14","","null","","images/causal_sequence/the_performance_causal/the_performance_causal_7.png","null","",""
"","","","","","image-button-response","58","309419","0.0-12.0-1.0-1.0","CF3FDC171B364B7FBED6300012D923EB","CF3FDC171B364B7FBED6300012D923EB","5fd6ea35-82e1-41ce-8bf3-8041955f3e17","ba640c14-69c5-453e-80b2-29051492c0e0","{""num_scrambled_semantic"":""8"",""num_scrambled_causal"":""4"",""num_scrambled_schematic"":""4"",""participantId"":""CF3FDC171B364B7FBED6300012D923EB"",""assignmentId"":""5fd6ea35-82e1-41ce-8bf3-8041955f3e17"",""projectId"":""ba640c14-69c5-453e-80b2-29051492c0e0""}","https://test12345.live/?num_scrambled_semantic=8&num_scrambled_causal=4&num_scrambled_schematic=4&participantId=CF3FDC171B364B7FBED6300012D923EB&assignmentId=5fd6ea35-82e1-41ce-8bf3-8041955f3e17&projectId=ba640c14-69c5-453e-80b2-29051492c0e0","CF3FDC171B364B7FBED6300012D923EB-2025-05-14-20-58-14","","1619","","images/causal_sequence/the_performance_causal/the_performance_causal_7.png","0","",""
"","","","","","image-button-response","59","311232","0.0-12.0-1.0-2.0","CF3FDC171B364B7FBED6300012D923EB","CF3FDC171B364B7FBED6300012D923EB","5fd6ea35-82e1-41ce-8bf3-8041955f3e17","ba640c14-69c5-453e-80b2-29051492c0e0","{""num_scrambled_semantic"":""8"",""num_scrambled_causal"":""4"",""num_scrambled_schematic"":""4"",""participantId"":""CF3FDC171B364B7FBED6300012D923EB"",""assignmentId"":""5fd6ea35-82e1-41ce-8bf3-8041955f3e17"",""projectId"":""ba640c14-69c5-453e-80b2-29051492c0e0""}","https://test12345.live/?num_scrambled_semantic=8&num_scrambled_causal=4&num_scrambled_schematic=4&participantId=CF3FDC171B364B7FBED6300012D923EB&assignmentId=5fd6ea35-82e1-41ce-8bf3-8041955f3e17&projectId=ba640c14-69c5-453e-80b2-29051492c0e0","CF3FDC171B364B7FBED6300012D923EB-2025-05-14-20-58-14","","null","","[]","null","",""
"","","","","","image-button-response","60","315747","0.0-12.0-1.0-0.1","CF3FDC171B364B7FBED6300012D923EB","CF3FDC171B364B7FBED6300012D923EB","5fd6ea35-82e1-41ce-8bf3-8041955f3e17","ba640c14-69c5-453e-80b2-29051492c0e0","{""num_scrambled_semantic"":""8"",""num_scrambled_causal"":""4"",""num_scrambled_schematic"":""4"",""participantId"":""CF3FDC171B364B7FBED6300012D923EB"",""assignmentId"":""5fd6ea35-82e1-41ce-8bf3-8041955f3e17"",""projectId"":""ba640c14-69c5-453e-80b2-29051492c0e0""}","https://test12345.live/?num_scrambled_semantic=8&num_scrambled_causal=4&num_scrambled_schematic=4&participantId=CF3FDC171B364B7FBED6300012D923EB&assignmentId=5fd6ea35-82e1-41ce-8bf3-8041955f3e17&projectId=ba640c14-69c5-453e-80b2-29051492c0e0","CF3FDC171B364B7FBED6300012D923EB-2025-05-14-20-58-14","","null","","images/causal_sequence/the_performance_causal/the_performance_causal_1.png","null","",""
"","","","","","image-button-response","61","318512","0.0-12.0-1.0-1.1","CF3FDC171B364B7FBED6300012D923EB","CF3FDC171B364B7FBED6300012D923EB","5fd6ea35-82e1-41ce-8bf3-8041955f3e17","ba640c14-69c5-453e-80b2-29051492c0e0","{""num_scrambled_semantic"":""8"",""num_scrambled_causal"":""4"",""num_scrambled_schematic"":""4"",""participantId"":""CF3FDC171B364B7FBED6300012D923EB"",""assignmentId"":""5fd6ea35-82e1-41ce-8bf3-8041955f3e17"",""projectId"":""ba640c14-69c5-453e-80b2-29051492c0e0""}","https://test12345.live/?num_scrambled_semantic=8&num_scrambled_causal=4&num_scrambled_schematic=4&participantId=CF3FDC171B364B7FBED6300012D923EB&assignmentId=5fd6ea35-82e1-41ce-8bf3-8041955f3e17&projectId=ba640c14-69c5-453e-80b2-29051492c0e0","CF3FDC171B364B7FBED6300012D923EB-2025-05-14-20-58-14","","2764","","images/causal_sequence/the_performance_causal/the_performance_causal_1.png","0","",""
"","","","","","image-button-response","62","320316","0.0-12.0-1.0-2.1","CF3FDC171B364B7FBED6300012D923EB","CF3FDC171B364B7FBED6300012D923EB","5fd6ea35-82e1-41ce-8bf3-8041955f3e17","ba640c14-69c5-453e-80b2-29051492c0e0","{""num_scrambled_semantic"":""8"",""num_scrambled_causal"":""4"",""num_scrambled_schematic"":""4"",""participantId"":""CF3FDC171B364B7FBED6300012D923EB"",""assignmentId"":""5fd6ea35-82e1-41ce-8bf3-8041955f3e17"",""projectId"":""ba640c14-69c5-453e-80b2-29051492c0e0""}","https://test12345.live/?num_scrambled_semantic=8&num_scrambled_causal=4&num_scrambled_schematic=4&participantId=CF3FDC171B364B7FBED6300012D923EB&assignmentId=5fd6ea35-82e1-41ce-8bf3-8041955f3e17&projectId=ba640c14-69c5-453e-80b2-29051492c0e0","CF3FDC171B364B7FBED6300012D923EB-2025-05-14-20-58-14","","null","","[]","null","",""
"","","","","","image-button-response","63","324828","0.0-12.0-1.0-0.2","CF3FDC171B364B7FBED6300012D923EB","CF3FDC171B364B7FBED6300012D923EB","5fd6ea35-82e1-41ce-8bf3-8041955f3e17","ba640c14-69c5-453e-80b2-29051492c0e0","{""num_scrambled_semantic"":""8"",""num_scrambled_causal"":""4"",""num_scrambled_schematic"":""4"",""participantId"":""CF3FDC171B364B7FBED6300012D923EB"",""assignmentId"":""5fd6ea35-82e1-41ce-8bf3-8041955f3e17"",""projectId"":""ba640c14-69c5-453e-80b2-29051492c0e0""}","https://test12345.live/?num_scrambled_semantic=8&num_scrambled_causal=4&num_scrambled_schematic=4&participantId=CF3FDC171B364B7FBED6300012D923EB&assignmentId=5fd6ea35-82e1-41ce-8bf3-8041955f3e17&projectId=ba640c14-69c5-453e-80b2-29051492c0e0","CF3FDC171B364B7FBED6300012D923EB-2025-05-14-20-58-14","","null","","images/causal_sequence/the_performance_causal/the_performance_causal_3.png","null","",""
"","","","","","image-button-response","64","327113","0.0-12.0-1.0-1.2","CF3FDC171B364B7FBED6300012D923EB","CF3FDC171B364B7FBED6300012D923EB","5fd6ea35-82e1-41ce-8bf3-8041955f3e17","ba640c14-69c5-453e-80b2-29051492c0e0","{""num_scrambled_semantic"":""8"",""num_scrambled_causal"":""4"",""num_scrambled_schematic"":""4"",""participantId"":""CF3FDC171B364B7FBED6300012D923EB"",""assignmentId"":""5fd6ea35-82e1-41ce-8bf3-8041955f3e17"",""projectId"":""ba640c14-69c5-453e-80b2-29051492c0e0""}","https://test12345.live/?num_scrambled_semantic=8&num_scrambled_causal=4&num_scrambled_schematic=4&participantId=CF3FDC171B364B7FBED6300012D923EB&assignmentId=5fd6ea35-82e1-41ce-8bf3-8041955f3e17&projectId=ba640c14-69c5-453e-80b2-29051492c0e0","CF3FDC171B364B7FBED6300012D923EB-2025-05-14-20-58-14","","2284","","images/causal_sequence/the_performance_causal/the_performance_causal_3.png","0","",""
"","","","","","image-button-response","65","328916","0.0-12.0-1.0-2.2","CF3FDC171B364B7FBED6300012D923EB","CF3FDC171B364B7FBED6300012D923EB","5fd6ea35-82e1-41ce-8bf3-8041955f3e17","ba640c14-69c5-453e-80b2-29051492c0e0","{""num_scrambled_semantic"":""8"",""num_scrambled_causal"":""4"",""num_scrambled_schematic"":""4"",""participantId"":""CF3FDC171B364B7FBED6300012D923EB"",""assignmentId"":""5fd6ea35-82e1-41ce-8bf3-8041955f3e17"",""projectId"":""ba640c14-69c5-453e-80b2-29051492c0e0""}","https://test12345.live/?num_scrambled_semantic=8&num_scrambled_causal=4&num_scrambled_schematic=4&participantId=CF3FDC171B364B7FBED6300012D923EB&assignmentId=5fd6ea35-82e1-41ce-8bf3-8041955f3e17&projectId=ba640c14-69c5-453e-80b2-29051492c0e0","CF3FDC171B364B7FBED6300012D923EB-2025-05-14-20-58-14","","null","","[]","null","",""
"","","","","","image-button-response","66","333431","0.0-12.0-1.0-0.3","CF3FDC171B364B7FBED6300012D923EB","CF3FDC171B364B7FBED6300012D923EB","5fd6ea35-82e1-41ce-8bf3-8041955f3e17","ba640c14-69c5-453e-80b2-29051492c0e0","{""num_scrambled_semantic"":""8"",""num_scrambled_causal"":""4"",""num_scrambled_schematic"":""4"",""participantId"":""CF3FDC171B364B7FBED6300012D923EB"",""assignmentId"":""5fd6ea35-82e1-41ce-8bf3-8041955f3e17"",""projectId"":""ba640c14-69c5-453e-80b2-29051492c0e0""}","https://test12345.live/?num_scrambled_semantic=8&num_scrambled_causal=4&num_scrambled_schematic=4&participantId=CF3FDC171B364B7FBED6300012D923EB&assignmentId=5fd6ea35-82e1-41ce-8bf3-8041955f3e17&projectId=ba640c14-69c5-453e-80b2-29051492c0e0","CF3FDC171B364B7FBED6300012D923EB-2025-05-14-20-58-14","","null","","images/causal_sequence/the_performance_causal/the_performance_causal_8.png","null","",""
"","","","","","image-button-response","67","335223","0.0-12.0-1.0-1.3","CF3FDC171B364B7FBED6300012D923EB","CF3FDC171B364B7FBED6300012D923EB","5fd6ea35-82e1-41ce-8bf3-8041955f3e17","ba640c14-69c5-453e-80b2-29051492c0e0","{""num_scrambled_semantic"":""8"",""num_scrambled_causal"":""4"",""num_scrambled_schematic"":""4"",""participantId"":""CF3FDC171B364B7FBED6300012D923EB"",""assignmentId"":""5fd6ea35-82e1-41ce-8bf3-8041955f3e17"",""projectId"":""ba640c14-69c5-453e-80b2-29051492c0e0""}","https://test12345.live/?num_scrambled_semantic=8&num_scrambled_causal=4&num_scrambled_schematic=4&participantId=CF3FDC171B364B7FBED6300012D923EB&assignmentId=5fd6ea35-82e1-41ce-8bf3-8041955f3e17&projectId=ba640c14-69c5-453e-80b2-29051492c0e0","CF3FDC171B364B7FBED6300012D923EB-2025-05-14-20-58-14","","1791","","images/causal_sequence/the_performance_causal/the_performance_causal_8.png","0","",""
"","","","","","image-button-response","68","337031","0.0-12.0-1.0-2.3","CF3FDC171B364B7FBED6300012D923EB","CF3FDC171B364B7FBED6300012D923EB","5fd6ea35-82e1-41ce-8bf3-8041955f3e17","ba640c14-69c5-453e-80b2-29051492c0e0","{""num_scrambled_semantic"":""8"",""num_scrambled_causal"":""4"",""num_scrambled_schematic"":""4"",""participantId"":""CF3FDC171B364B7FBED6300012D923EB"",""assignmentId"":""5fd6ea35-82e1-41ce-8bf3-8041955f3e17"",""projectId"":""ba640c14-69c5-453e-80b2-29051492c0e0""}","https://test12345.live/?num_scrambled_semantic=8&num_scrambled_causal=4&num_scrambled_schematic=4&participantId=CF3FDC171B364B7FBED6300012D923EB&assignmentId=5fd6ea35-82e1-41ce-8bf3-8041955f3e17&projectId=ba640c14-69c5-453e-80b2-29051492c0e0","CF3FDC171B364B7FBED6300012D923EB-2025-05-14-20-58-14","","null","","[]","null","",""
"","","","","","image-button-response","69","341532","0.0-12.0-1.0-0.4","CF3FDC171B364B7FBED6300012D923EB","CF3FDC171B364B7FBED6300012D923EB","5fd6ea35-82e1-41ce-8bf3-8041955f3e17","ba640c14-69c5-453e-80b2-29051492c0e0","{""num_scrambled_semantic"":""8"",""num_scrambled_causal"":""4"",""num_scrambled_schematic"":""4"",""participantId"":""CF3FDC171B364B7FBED6300012D923EB"",""assignmentId"":""5fd6ea35-82e1-41ce-8bf3-8041955f3e17"",""projectId"":""ba640c14-69c5-453e-80b2-29051492c0e0""}","https://test12345.live/?num_scrambled_semantic=8&num_scrambled_causal=4&num_scrambled_schematic=4&participantId=CF3FDC171B364B7FBED6300012D923EB&assignmentId=5fd6ea35-82e1-41ce-8bf3-8041955f3e17&projectId=ba640c14-69c5-453e-80b2-29051492c0e0","CF3FDC171B364B7FBED6300012D923EB-2025-05-14-20-58-14","","null","","images/causal_sequence/the_performance_causal/the_performance_causal_2.png","null","",""
"","","","","","image-button-response","70","343626","0.0-12.0-1.0-1.4","CF3FDC171B364B7FBED6300012D923EB","CF3FDC171B364B7FBED6300012D923EB","5fd6ea35-82e1-41ce-8bf3-8041955f3e17","ba640c14-69c5-453e-80b2-29051492c0e0","{""num_scrambled_semantic"":""8"",""num_scrambled_causal"":""4"",""num_scrambled_schematic"":""4"",""participantId"":""CF3FDC171B364B7FBED6300012D923EB"",""assignmentId"":""5fd6ea35-82e1-41ce-8bf3-8041955f3e17"",""projectId"":""ba640c14-69c5-453e-80b2-29051492c0e0""}","https://test12345.live/?num_scrambled_semantic=8&num_scrambled_causal=4&num_scrambled_schematic=4&participantId=CF3FDC171B364B7FBED6300012D923EB&assignmentId=5fd6ea35-82e1-41ce-8bf3-8041955f3e17&projectId=ba640c14-69c5-453e-80b2-29051492c0e0","CF3FDC171B364B7FBED6300012D923EB-2025-05-14-20-58-14","","2093","","images/causal_sequence/the_performance_causal/the_performance_causal_2.png","0","",""
"","","","","","image-button-response","71","345431","0.0-12.0-1.0-2.4","CF3FDC171B364B7FBED6300012D923EB","CF3FDC171B364B7FBED6300012D923EB","5fd6ea35-82e1-41ce-8bf3-8041955f3e17","ba640c14-69c5-453e-80b2-29051492c0e0","{""num_scrambled_semantic"":""8"",""num_scrambled_causal"":""4"",""num_scrambled_schematic"":""4"",""participantId"":""CF3FDC171B364B7FBED6300012D923EB"",""assignmentId"":""5fd6ea35-82e1-41ce-8bf3-8041955f3e17"",""projectId"":""ba640c14-69c5-453e-80b2-29051492c0e0""}","https://test12345.live/?num_scrambled_semantic=8&num_scrambled_causal=4&num_scrambled_schematic=4&participantId=CF3FDC171B364B7FBED6300012D923EB&assignmentId=5fd6ea35-82e1-41ce-8bf3-8041955f3e17&projectId=ba640c14-69c5-453e-80b2-29051492c0e0","CF3FDC171B364B7FBED6300012D923EB-2025-05-14-20-58-14","","null","","[]","null","",""
"","","","","","image-button-response","72","349947","0.0-12.0-1.0-0.5","CF3FDC171B364B7FBED6300012D923EB","CF3FDC171B364B7FBED6300012D923EB","5fd6ea35-82e1-41ce-8bf3-8041955f3e17","ba640c14-69c5-453e-80b2-29051492c0e0","{""num_scrambled_semantic"":""8"",""num_scrambled_causal"":""4"",""num_scrambled_schematic"":""4"",""participantId"":""CF3FDC171B364B7FBED6300012D923EB"",""assignmentId"":""5fd6ea35-82e1-41ce-8bf3-8041955f3e17"",""projectId"":""ba640c14-69c5-453e-80b2-29051492c0e0""}","https://test12345.live/?num_scrambled_semantic=8&num_scrambled_causal=4&num_scrambled_schematic=4&participantId=CF3FDC171B364B7FBED6300012D923EB&assignmentId=5fd6ea35-82e1-41ce-8bf3-8041955f3e17&projectId=ba640c14-69c5-453e-80b2-29051492c0e0","CF3FDC171B364B7FBED6300012D923EB-2025-05-14-20-58-14","","null","","images/causal_sequence/the_performance_causal/the_performance_causal_ten.png","null","",""
"","","","","","image-button-response","73","353158","0.0-12.0-1.0-1.5","CF3FDC171B364B7FBED6300012D923EB","CF3FDC171B364B7FBED6300012D923EB","5fd6ea35-82e1-41ce-8bf3-8041955f3e17","ba640c14-69c5-453e-80b2-29051492c0e0","{""num_scrambled_semantic"":""8"",""num_scrambled_causal"":""4"",""num_scrambled_schematic"":""4"",""participantId"":""CF3FDC171B364B7FBED6300012D923EB"",""assignmentId"":""5fd6ea35-82e1-41ce-8bf3-8041955f3e17"",""projectId"":""ba640c14-69c5-453e-80b2-29051492c0e0""}","https://test12345.live/?num_scrambled_semantic=8&num_scrambled_causal=4&num_scrambled_schematic=4&participantId=CF3FDC171B364B7FBED6300012D923EB&assignmentId=5fd6ea35-82e1-41ce-8bf3-8041955f3e17&projectId=ba640c14-69c5-453e-80b2-29051492c0e0","CF3FDC171B364B7FBED6300012D923EB-2025-05-14-20-58-14","","3209","","images/causal_sequence/the_performance_causal/the_performance_causal_ten.png","0","",""
"","","","","","image-button-response","74","354959","0.0-12.0-1.0-2.5","CF3FDC171B364B7FBED6300012D923EB","CF3FDC171B364B7FBED6300012D923EB","5fd6ea35-82e1-41ce-8bf3-8041955f3e17","ba640c14-69c5-453e-80b2-29051492c0e0","{""num_scrambled_semantic"":""8"",""num_scrambled_causal"":""4"",""num_scrambled_schematic"":""4"",""participantId"":""CF3FDC171B364B7FBED6300012D923EB"",""assignmentId"":""5fd6ea35-82e1-41ce-8bf3-8041955f3e17"",""projectId"":""ba640c14-69c5-453e-80b2-29051492c0e0""}","https://test12345.live/?num_scrambled_semantic=8&num_scrambled_causal=4&num_scrambled_schematic=4&participantId=CF3FDC171B364B7FBED6300012D923EB&assignmentId=5fd6ea35-82e1-41ce-8bf3-8041955f3e17&projectId=ba640c14-69c5-453e-80b2-29051492c0e0","CF3FDC171B364B7FBED6300012D923EB-2025-05-14-20-58-14","","null","","[]","null","",""
"","","","","","image-button-response","75","359462","0.0-12.0-1.0-0.6","CF3FDC171B364B7FBED6300012D923EB","CF3FDC171B364B7FBED6300012D923EB","5fd6ea35-82e1-41ce-8bf3-8041955f3e17","ba640c14-69c5-453e-80b2-29051492c0e0","{""num_scrambled_semantic"":""8"",""num_scrambled_causal"":""4"",""num_scrambled_schematic"":""4"",""participantId"":""CF3FDC171B364B7FBED6300012D923EB"",""assignmentId"":""5fd6ea35-82e1-41ce-8bf3-8041955f3e17"",""projectId"":""ba640c14-69c5-453e-80b2-29051492c0e0""}","https://test12345.live/?num_scrambled_semantic=8&num_scrambled_causal=4&num_scrambled_schematic=4&participantId=CF3FDC171B364B7FBED6300012D923EB&assignmentId=5fd6ea35-82e1-41ce-8bf3-8041955f3e17&projectId=ba640c14-69c5-453e-80b2-29051492c0e0","CF3FDC171B364B7FBED6300012D923EB-2025-05-14-20-58-14","","null","","images/causal_sequence/the_performance_causal/the_performance_causal_9.png","null","",""
"","","","","","image-button-response","76","360702","0.0-12.0-1.0-1.6","CF3FDC171B364B7FBED6300012D923EB","CF3FDC171B364B7FBED6300012D923EB","5fd6ea35-82e1-41ce-8bf3-8041955f3e17","ba640c14-69c5-453e-80b2-29051492c0e0","{""num_scrambled_semantic"":""8"",""num_scrambled_causal"":""4"",""num_scrambled_schematic"":""4"",""participantId"":""CF3FDC171B364B7FBED6300012D923EB"",""assignmentId"":""5fd6ea35-82e1-41ce-8bf3-8041955f3e17"",""projectId"":""ba640c14-69c5-453e-80b2-29051492c0e0""}","https://test12345.live/?num_scrambled_semantic=8&num_scrambled_causal=4&num_scrambled_schematic=4&participantId=CF3FDC171B364B7FBED6300012D923EB&assignmentId=5fd6ea35-82e1-41ce-8bf3-8041955f3e17&projectId=ba640c14-69c5-453e-80b2-29051492c0e0","CF3FDC171B364B7FBED6300012D923EB-2025-05-14-20-58-14","","1239","","images/causal_sequence/the_performance_causal/the_performance_causal_9.png","0","",""
"","","","","","image-button-response","77","362511","0.0-12.0-1.0-2.6","CF3FDC171B364B7FBED6300012D923EB","CF3FDC171B364B7FBED6300012D923EB","5fd6ea35-82e1-41ce-8bf3-8041955f3e17","ba640c14-69c5-453e-80b2-29051492c0e0","{""num_scrambled_semantic"":""8"",""num_scrambled_causal"":""4"",""num_scrambled_schematic"":""4"",""participantId"":""CF3FDC171B364B7FBED6300012D923EB"",""assignmentId"":""5fd6ea35-82e1-41ce-8bf3-8041955f3e17"",""projectId"":""ba640c14-69c5-453e-80b2-29051492c0e0""}","https://test12345.live/?num_scrambled_semantic=8&num_scrambled_causal=4&num_scrambled_schematic=4&participantId=CF3FDC171B364B7FBED6300012D923EB&assignmentId=5fd6ea35-82e1-41ce-8bf3-8041955f3e17&projectId=ba640c14-69c5-453e-80b2-29051492c0e0","CF3FDC171B364B7FBED6300012D923EB-2025-05-14-20-58-14","","null","","[]","null","",""
"","","","","","image-button-response","78","367014","0.0-12.0-1.0-0.7","CF3FDC171B364B7FBED6300012D923EB","CF3FDC171B364B7FBED6300012D923EB","5fd6ea35-82e1-41ce-8bf3-8041955f3e17","ba640c14-69c5-453e-80b2-29051492c0e0","{""num_scrambled_semantic"":""8"",""num_scrambled_causal"":""4"",""num_scrambled_schematic"":""4"",""participantId"":""CF3FDC171B364B7FBED6300012D923EB"",""assignmentId"":""5fd6ea35-82e1-41ce-8bf3-8041955f3e17"",""projectId"":""ba640c14-69c5-453e-80b2-29051492c0e0""}","https://test12345.live/?num_scrambled_semantic=8&num_scrambled_causal=4&num_scrambled_schematic=4&participantId=CF3FDC171B364B7FBED6300012D923EB&assignmentId=5fd6ea35-82e1-41ce-8bf3-8041955f3e17&projectId=ba640c14-69c5-453e-80b2-29051492c0e0","CF3FDC171B364B7FBED6300012D923EB-2025-05-14-20-58-14","","null","","images/causal_sequence/the_performance_causal/the_performance_causal_4.png","null","",""
"","","","","","image-button-response","79","369184","0.0-12.0-1.0-1.7","CF3FDC171B364B7FBED6300012D923EB","CF3FDC171B364B7FBED6300012D923EB","5fd6ea35-82e1-41ce-8bf3-8041955f3e17","ba640c14-69c5-453e-80b2-29051492c0e0","{""num_scrambled_semantic"":""8"",""num_scrambled_causal"":""4"",""num_scrambled_schematic"":""4"",""participantId"":""CF3FDC171B364B7FBED6300012D923EB"",""assignmentId"":""5fd6ea35-82e1-41ce-8bf3-8041955f3e17"",""projectId"":""ba640c14-69c5-453e-80b2-29051492c0e0""}","https://test12345.live/?num_scrambled_semantic=8&num_scrambled_causal=4&num_scrambled_schematic=4&participantId=CF3FDC171B364B7FBED6300012D923EB&assignmentId=5fd6ea35-82e1-41ce-8bf3-8041955f3e17&projectId=ba640c14-69c5-453e-80b2-29051492c0e0","CF3FDC171B364B7FBED6300012D923EB-2025-05-14-20-58-14","","2168","","images/causal_sequence/the_performance_causal/the_performance_causal_4.png","0","",""
"","","","","","image-button-response","80","370985","0.0-12.0-1.0-2.7","CF3FDC171B364B7FBED6300012D923EB","CF3FDC171B364B7FBED6300012D923EB","5fd6ea35-82e1-41ce-8bf3-8041955f3e17","ba640c14-69c5-453e-80b2-29051492c0e0","{""num_scrambled_semantic"":""8"",""num_scrambled_causal"":""4"",""num_scrambled_schematic"":""4"",""participantId"":""CF3FDC171B364B7FBED6300012D923EB"",""assignmentId"":""5fd6ea35-82e1-41ce-8bf3-8041955f3e17"",""projectId"":""ba640c14-69c5-453e-80b2-29051492c0e0""}","https://test12345.live/?num_scrambled_semantic=8&num_scrambled_causal=4&num_scrambled_schematic=4&participantId=CF3FDC171B364B7FBED6300012D923EB&assignmentId=5fd6ea35-82e1-41ce-8bf3-8041955f3e17&projectId=ba640c14-69c5-453e-80b2-29051492c0e0","CF3FDC171B364B7FBED6300012D923EB-2025-05-14-20-58-14","","null","","[]","null","",""
"","","","","","image-button-response","81","375496","0.0-12.0-1.0-0.8","CF3FDC171B364B7FBED6300012D923EB","CF3FDC171B364B7FBED6300012D923EB","5fd6ea35-82e1-41ce-8bf3-8041955f3e17","ba640c14-69c5-453e-80b2-29051492c0e0","{""num_scrambled_semantic"":""8"",""num_scrambled_causal"":""4"",""num_scrambled_schematic"":""4"",""participantId"":""CF3FDC171B364B7FBED6300012D923EB"",""assignmentId"":""5fd6ea35-82e1-41ce-8bf3-8041955f3e17"",""projectId"":""ba640c14-69c5-453e-80b2-29051492c0e0""}","https://test12345.live/?num_scrambled_semantic=8&num_scrambled_causal=4&num_scrambled_schematic=4&participantId=CF3FDC171B364B7FBED6300012D923EB&assignmentId=5fd6ea35-82e1-41ce-8bf3-8041955f3e17&projectId=ba640c14-69c5-453e-80b2-29051492c0e0","CF3FDC171B364B7FBED6300012D923EB-2025-05-14-20-58-14","","null","","images/causal_sequence/the_performance_causal/the_performance_causal_5.png","null","",""
"","","","","","image-button-response","82","375991","0.0-12.0-1.0-1.8","CF3FDC171B364B7FBED6300012D923EB","CF3FDC171B364B7FBED6300012D923EB","5fd6ea35-82e1-41ce-8bf3-8041955f3e17","ba640c14-69c5-453e-80b2-29051492c0e0","{""num_scrambled_semantic"":""8"",""num_scrambled_causal"":""4"",""num_scrambled_schematic"":""4"",""participantId"":""CF3FDC171B364B7FBED6300012D923EB"",""assignmentId"":""5fd6ea35-82e1-41ce-8bf3-8041955f3e17"",""projectId"":""ba640c14-69c5-453e-80b2-29051492c0e0""}","https://test12345.live/?num_scrambled_semantic=8&num_scrambled_causal=4&num_scrambled_schematic=4&participantId=CF3FDC171B364B7FBED6300012D923EB&assignmentId=5fd6ea35-82e1-41ce-8bf3-8041955f3e17&projectId=ba640c14-69c5-453e-80b2-29051492c0e0","CF3FDC171B364B7FBED6300012D923EB-2025-05-14-20-58-14","","494","","images/causal_sequence/the_performance_causal/the_performance_causal_5.png","0","",""
"","","","","","image-button-response","83","377792","0.0-12.0-1.0-2.8","CF3FDC171B364B7FBED6300012D923EB","CF3FDC171B364B7FBED6300012D923EB","5fd6ea35-82e1-41ce-8bf3-8041955f3e17","ba640c14-69c5-453e-80b2-29051492c0e0","{""num_scrambled_semantic"":""8"",""num_scrambled_causal"":""4"",""num_scrambled_schematic"":""4"",""participantId"":""CF3FDC171B364B7FBED6300012D923EB"",""assignmentId"":""5fd6ea35-82e1-41ce-8bf3-8041955f3e17"",""projectId"":""ba640c14-69c5-453e-80b2-29051492c0e0""}","https://test12345.live/?num_scrambled_semantic=8&num_scrambled_causal=4&num_scrambled_schematic=4&participantId=CF3FDC171B364B7FBED6300012D923EB&assignmentId=5fd6ea35-82e1-41ce-8bf3-8041955f3e17&projectId=ba640c14-69c5-453e-80b2-29051492c0e0","CF3FDC171B364B7FBED6300012D923EB-2025-05-14-20-58-14","","null","","[]","null","",""
"","","","","","image-button-response","84","382298","0.0-12.0-1.0-0.9","CF3FDC171B364B7FBED6300012D923EB","CF3FDC171B364B7FBED6300012D923EB","5fd6ea35-82e1-41ce-8bf3-8041955f3e17","ba640c14-69c5-453e-80b2-29051492c0e0","{""num_scrambled_semantic"":""8"",""num_scrambled_causal"":""4"",""num_scrambled_schematic"":""4"",""participantId"":""CF3FDC171B364B7FBED6300012D923EB"",""assignmentId"":""5fd6ea35-82e1-41ce-8bf3-8041955f3e17"",""projectId"":""ba640c14-69c5-453e-80b2-29051492c0e0""}","https://test12345.live/?num_scrambled_semantic=8&num_scrambled_causal=4&num_scrambled_schematic=4&participantId=CF3FDC171B364B7FBED6300012D923EB&assignmentId=5fd6ea35-82e1-41ce-8bf3-8041955f3e17&projectId=ba640c14-69c5-453e-80b2-29051492c0e0","CF3FDC171B364B7FBED6300012D923EB-2025-05-14-20-58-14","","null","","images/causal_sequence/the_performance_causal/the_performance_causal_6.png","null","",""
"","","","","","image-button-response","85","383514","0.0-12.0-1.0-1.9","CF3FDC171B364B7FBED6300012D923EB","CF3FDC171B364B7FBED6300012D923EB","5fd6ea35-82e1-41ce-8bf3-8041955f3e17","ba640c14-69c5-453e-80b2-29051492c0e0","{""num_scrambled_semantic"":""8"",""num_scrambled_causal"":""4"",""num_scrambled_schematic"":""4"",""participantId"":""CF3FDC171B364B7FBED6300012D923EB"",""assignmentId"":""5fd6ea35-82e1-41ce-8bf3-8041955f3e17"",""projectId"":""ba640c14-69c5-453e-80b2-29051492c0e0""}","https://test12345.live/?num_scrambled_semantic=8&num_scrambled_causal=4&num_scrambled_schematic=4&participantId=CF3FDC171B364B7FBED6300012D923EB&assignmentId=5fd6ea35-82e1-41ce-8bf3-8041955f3e17&projectId=ba640c14-69c5-453e-80b2-29051492c0e0","CF3FDC171B364B7FBED6300012D923EB-2025-05-14-20-58-14","","1214","","images/causal_sequence/the_performance_causal/the_performance_causal_6.png","0","",""
"","","","","","image-button-response","86","385315","0.0-12.0-1.0-2.9","CF3FDC171B364B7FBED6300012D923EB","CF3FDC171B364B7FBED6300012D923EB","5fd6ea35-82e1-41ce-8bf3-8041955f3e17","ba640c14-69c5-453e-80b2-29051492c0e0","{""num_scrambled_semantic"":""8"",""num_scrambled_causal"":""4"",""num_scrambled_schematic"":""4"",""participantId"":""CF3FDC171B364B7FBED6300012D923EB"",""assignmentId"":""5fd6ea35-82e1-41ce-8bf3-8041955f3e17"",""projectId"":""ba640c14-69c5-453e-80b2-29051492c0e0""}","https://test12345.live/?num_scrambled_semantic=8&num_scrambled_causal=4&num_scrambled_schematic=4&participantId=CF3FDC171B364B7FBED6300012D923EB&assignmentId=5fd6ea35-82e1-41ce-8bf3-8041955f3e17&projectId=ba640c14-69c5-453e-80b2-29051492c0e0","CF3FDC171B364B7FBED6300012D923EB-2025-05-14-20-58-14","","null","","[]","null","",""
"","","","","","html-audio-response","87","432659","0.0-13.0","CF3FDC171B364B7FBED6300012D923EB","CF3FDC171B364B7FBED6300012D923EB","5fd6ea35-82e1-41ce-8bf3-8041955f3e17","ba640c14-69c5-453e-80b2-29051492c0e0","{""num_scrambled_semantic"":""8"",""num_scrambled_causal"":""4"",""num_scrambled_schematic"":""4"",""participantId"":""CF3FDC171B364B7FBED6300012D923EB"",""assignmentId"":""5fd6ea35-82e1-41ce-8bf3-8041955f3e17"",""projectId"":""ba640c14-69c5-453e-80b2-29051492c0e0""}","https://test12345.live/?num_scrambled_semantic=8&num_scrambled_causal=4&num_scrambled_schematic=4&participantId=CF3FDC171B364B7FBED6300012D923EB&assignmentId=5fd6ea35-82e1-41ce-8bf3-8041955f3e17&projectId=ba640c14-69c5-453e-80b2-29051492c0e0","CF3FDC171B364B7FBED6300012D923EB-2025-05-14-20-58-14","","46133","","[""<span style=\""color: red; font-size: 24px\""> NOW RECORDING</span><p>Please say out loud all the images you saw, as many as you can remember. The images can be said in any order.</p>""]","","10","the_performance_causal"
"","","","","","image-button-response","88","438666","0.0-14.0-0.0","CF3FDC171B364B7FBED6300012D923EB","CF3FDC171B364B7FBED6300012D923EB","5fd6ea35-82e1-41ce-8bf3-8041955f3e17","ba640c14-69c5-453e-80b2-29051492c0e0","{""num_scrambled_semantic"":""8"",""num_scrambled_causal"":""4"",""num_scrambled_schematic"":""4"",""participantId"":""CF3FDC171B364B7FBED6300012D923EB"",""assignmentId"":""5fd6ea35-82e1-41ce-8bf3-8041955f3e17"",""projectId"":""ba640c14-69c5-453e-80b2-29051492c0e0""}","https://test12345.live/?num_scrambled_semantic=8&num_scrambled_causal=4&num_scrambled_schematic=4&participantId=CF3FDC171B364B7FBED6300012D923EB&assignmentId=5fd6ea35-82e1-41ce-8bf3-8041955f3e17&projectId=ba640c14-69c5-453e-80b2-29051492c0e0","CF3FDC171B364B7FBED6300012D923EB-2025-05-14-20-58-14","","null","","images/semantic_sequence/cat_care_semantic/cat_care_semantic_0.png","null","",""
"","","","","","image-button-response","89","443176","0.0-14.0-1.0-0.0","CF3FDC171B364B7FBED6300012D923EB","CF3FDC171B364B7FBED6300012D923EB","5fd6ea35-82e1-41ce-8bf3-8041955f3e17","ba640c14-69c5-453e-80b2-29051492c0e0","{""num_scrambled_semantic"":""8"",""num_scrambled_causal"":""4"",""num_scrambled_schematic"":""4"",""participantId"":""CF3FDC171B364B7FBED6300012D923EB"",""assignmentId"":""5fd6ea35-82e1-41ce-8bf3-8041955f3e17"",""projectId"":""ba640c14-69c5-453e-80b2-29051492c0e0""}","https://test12345.live/?num_scrambled_semantic=8&num_scrambled_causal=4&num_scrambled_schematic=4&participantId=CF3FDC171B364B7FBED6300012D923EB&assignmentId=5fd6ea35-82e1-41ce-8bf3-8041955f3e17&projectId=ba640c14-69c5-453e-80b2-29051492c0e0","CF3FDC171B364B7FBED6300012D923EB-2025-05-14-20-58-14","","null","","images/semantic_sequence/cat_care_semantic/cat_care_semantic_2.png","null","",""
"","","","","","image-button-response","90","444779","0.0-14.0-1.0-1.0","CF3FDC171B364B7FBED6300012D923EB","CF3FDC171B364B7FBED6300012D923EB","5fd6ea35-82e1-41ce-8bf3-8041955f3e17","ba640c14-69c5-453e-80b2-29051492c0e0","{""num_scrambled_semantic"":""8"",""num_scrambled_causal"":""4"",""num_scrambled_schematic"":""4"",""participantId"":""CF3FDC171B364B7FBED6300012D923EB"",""assignmentId"":""5fd6ea35-82e1-41ce-8bf3-8041955f3e17"",""projectId"":""ba640c14-69c5-453e-80b2-29051492c0e0""}","https://test12345.live/?num_scrambled_semantic=8&num_scrambled_causal=4&num_scrambled_schematic=4&participantId=CF3FDC171B364B7FBED6300012D923EB&assignmentId=5fd6ea35-82e1-41ce-8bf3-8041955f3e17&projectId=ba640c14-69c5-453e-80b2-29051492c0e0","CF3FDC171B364B7FBED6300012D923EB-2025-05-14-20-58-14","","1602","","images/semantic_sequence/cat_care_semantic/cat_care_semantic_2.png","0","",""
"","","","","","image-button-response","91","446581","0.0-14.0-1.0-2.0","CF3FDC171B364B7FBED6300012D923EB","CF3FDC171B364B7FBED6300012D923EB","5fd6ea35-82e1-41ce-8bf3-8041955f3e17","ba640c14-69c5-453e-80b2-29051492c0e0","{""num_scrambled_semantic"":""8"",""num_scrambled_causal"":""4"",""num_scrambled_schematic"":""4"",""participantId"":""CF3FDC171B364B7FBED6300012D923EB"",""assignmentId"":""5fd6ea35-82e1-41ce-8bf3-8041955f3e17"",""projectId"":""ba640c14-69c5-453e-80b2-29051492c0e0""}","https://test12345.live/?num_scrambled_semantic=8&num_scrambled_causal=4&num_scrambled_schematic=4&participantId=CF3FDC171B364B7FBED6300012D923EB&assignmentId=5fd6ea35-82e1-41ce-8bf3-8041955f3e17&projectId=ba640c14-69c5-453e-80b2-29051492c0e0","CF3FDC171B364B7FBED6300012D923EB-2025-05-14-20-58-14","","null","","[]","null","",""
"","","","","","image-button-response","92","451091","0.0-14.0-1.0-0.1","CF3FDC171B364B7FBED6300012D923EB","CF3FDC171B364B7FBED6300012D923EB","5fd6ea35-82e1-41ce-8bf3-8041955f3e17","ba640c14-69c5-453e-80b2-29051492c0e0","{""num_scrambled_semantic"":""8"",""num_scrambled_causal"":""4"",""num_scrambled_schematic"":""4"",""participantId"":""CF3FDC171B364B7FBED6300012D923EB"",""assignmentId"":""5fd6ea35-82e1-41ce-8bf3-8041955f3e17"",""projectId"":""ba640c14-69c5-453e-80b2-29051492c0e0""}","https://test12345.live/?num_scrambled_semantic=8&num_scrambled_causal=4&num_scrambled_schematic=4&participantId=CF3FDC171B364B7FBED6300012D923EB&assignmentId=5fd6ea35-82e1-41ce-8bf3-8041955f3e17&projectId=ba640c14-69c5-453e-80b2-29051492c0e0","CF3FDC171B364B7FBED6300012D923EB-2025-05-14-20-58-14","","null","","images/semantic_sequence/cat_care_semantic/cat_care_semantic_8.png","null","",""
"","","","","","image-button-response","93","453632","0.0-14.0-1.0-1.1","CF3FDC171B364B7FBED6300012D923EB","CF3FDC171B364B7FBED6300012D923EB","5fd6ea35-82e1-41ce-8bf3-8041955f3e17","ba640c14-69c5-453e-80b2-29051492c0e0","{""num_scrambled_semantic"":""8"",""num_scrambled_causal"":""4"",""num_scrambled_schematic"":""4"",""participantId"":""CF3FDC171B364B7FBED6300012D923EB"",""assignmentId"":""5fd6ea35-82e1-41ce-8bf3-8041955f3e17"",""projectId"":""ba640c14-69c5-453e-80b2-29051492c0e0""}","https://test12345.live/?num_scrambled_semantic=8&num_scrambled_causal=4&num_scrambled_schematic=4&participantId=CF3FDC171B364B7FBED6300012D923EB&assignmentId=5fd6ea35-82e1-41ce-8bf3-8041955f3e17&projectId=ba640c14-69c5-453e-80b2-29051492c0e0","CF3FDC171B364B7FBED6300012D923EB-2025-05-14-20-58-14","","2539","","images/semantic_sequence/cat_care_semantic/cat_care_semantic_8.png","0","",""
"","","","","","image-button-response","94","455433","0.0-14.0-1.0-2.1","CF3FDC171B364B7FBED6300012D923EB","CF3FDC171B364B7FBED6300012D923EB","5fd6ea35-82e1-41ce-8bf3-8041955f3e17","ba640c14-69c5-453e-80b2-29051492c0e0","{""num_scrambled_semantic"":""8"",""num_scrambled_causal"":""4"",""num_scrambled_schematic"":""4"",""participantId"":""CF3FDC171B364B7FBED6300012D923EB"",""assignmentId"":""5fd6ea35-82e1-41ce-8bf3-8041955f3e17"",""projectId"":""ba640c14-69c5-453e-80b2-29051492c0e0""}","https://test12345.live/?num_scrambled_semantic=8&num_scrambled_causal=4&num_scrambled_schematic=4&participantId=CF3FDC171B364B7FBED6300012D923EB&assignmentId=5fd6ea35-82e1-41ce-8bf3-8041955f3e17&projectId=ba640c14-69c5-453e-80b2-29051492c0e0","CF3FDC171B364B7FBED6300012D923EB-2025-05-14-20-58-14","","null","","[]","null","",""
"","","","","","image-button-response","95","459942","0.0-14.0-1.0-0.2","CF3FDC171B364B7FBED6300012D923EB","CF3FDC171B364B7FBED6300012D923EB","5fd6ea35-82e1-41ce-8bf3-8041955f3e17","ba640c14-69c5-453e-80b2-29051492c0e0","{""num_scrambled_semantic"":""8"",""num_scrambled_causal"":""4"",""num_scrambled_schematic"":""4"",""participantId"":""CF3FDC171B364B7FBED6300012D923EB"",""assignmentId"":""5fd6ea35-82e1-41ce-8bf3-8041955f3e17"",""projectId"":""ba640c14-69c5-453e-80b2-29051492c0e0""}","https://test12345.live/?num_scrambled_semantic=8&num_scrambled_causal=4&num_scrambled_schematic=4&participantId=CF3FDC171B364B7FBED6300012D923EB&assignmentId=5fd6ea35-82e1-41ce-8bf3-8041955f3e17&projectId=ba640c14-69c5-453e-80b2-29051492c0e0","CF3FDC171B364B7FBED6300012D923EB-2025-05-14-20-58-14","","null","","images/semantic_sequence/cat_care_semantic/cat_care_semantic_9.png","null","",""
"","","","","","image-button-response","96","462556","0.0-14.0-1.0-1.2","CF3FDC171B364B7FBED6300012D923EB","CF3FDC171B364B7FBED6300012D923EB","5fd6ea35-82e1-41ce-8bf3-8041955f3e17","ba640c14-69c5-453e-80b2-29051492c0e0","{""num_scrambled_semantic"":""8"",""num_scrambled_causal"":""4"",""num_scrambled_schematic"":""4"",""participantId"":""CF3FDC171B364B7FBED6300012D923EB"",""assignmentId"":""5fd6ea35-82e1-41ce-8bf3-8041955f3e17"",""projectId"":""ba640c14-69c5-453e-80b2-29051492c0e0""}","https://test12345.live/?num_scrambled_semantic=8&num_scrambled_causal=4&num_scrambled_schematic=4&participantId=CF3FDC171B364B7FBED6300012D923EB&assignmentId=5fd6ea35-82e1-41ce-8bf3-8041955f3e17&projectId=ba640c14-69c5-453e-80b2-29051492c0e0","CF3FDC171B364B7FBED6300012D923EB-2025-05-14-20-58-14","","2612","","images/semantic_sequence/cat_care_semantic/cat_care_semantic_9.png","0","",""
"","","","","","image-button-response","97","464358","0.0-14.0-1.0-2.2","CF3FDC171B364B7FBED6300012D923EB","CF3FDC171B364B7FBED6300012D923EB","5fd6ea35-82e1-41ce-8bf3-8041955f3e17","ba640c14-69c5-453e-80b2-29051492c0e0","{""num_scrambled_semantic"":""8"",""num_scrambled_causal"":""4"",""num_scrambled_schematic"":""4"",""participantId"":""CF3FDC171B364B7FBED6300012D923EB"",""assignmentId"":""5fd6ea35-82e1-41ce-8bf3-8041955f3e17"",""projectId"":""ba640c14-69c5-453e-80b2-29051492c0e0""}","https://test12345.live/?num_scrambled_semantic=8&num_scrambled_causal=4&num_scrambled_schematic=4&participantId=CF3FDC171B364B7FBED6300012D923EB&assignmentId=5fd6ea35-82e1-41ce-8bf3-8041955f3e17&projectId=ba640c14-69c5-453e-80b2-29051492c0e0","CF3FDC171B364B7FBED6300012D923EB-2025-05-14-20-58-14","","null","","[]","null","",""
"","","","","","image-button-response","98","468861","0.0-14.0-1.0-0.3","CF3FDC171B364B7FBED6300012D923EB","CF3FDC171B364B7FBED6300012D923EB","5fd6ea35-82e1-41ce-8bf3-8041955f3e17","ba640c14-69c5-453e-80b2-29051492c0e0","{""num_scrambled_semantic"":""8"",""num_scrambled_causal"":""4"",""num_scrambled_schematic"":""4"",""participantId"":""CF3FDC171B364B7FBED6300012D923EB"",""assignmentId"":""5fd6ea35-82e1-41ce-8bf3-8041955f3e17"",""projectId"":""ba640c14-69c5-453e-80b2-29051492c0e0""}","https://test12345.live/?num_scrambled_semantic=8&num_scrambled_causal=4&num_scrambled_schematic=4&participantId=CF3FDC171B364B7FBED6300012D923EB&assignmentId=5fd6ea35-82e1-41ce-8bf3-8041955f3e17&projectId=ba640c14-69c5-453e-80b2-29051492c0e0","CF3FDC171B364B7FBED6300012D923EB-2025-05-14-20-58-14","","null","","images/semantic_sequence/cat_care_semantic/cat_care_semantic_3.png","null","",""
"","","","","","image-button-response","99","471485","0.0-14.0-1.0-1.3","CF3FDC171B364B7FBED6300012D923EB","CF3FDC171B364B7FBED6300012D923EB","5fd6ea35-82e1-41ce-8bf3-8041955f3e17","ba640c14-69c5-453e-80b2-29051492c0e0","{""num_scrambled_semantic"":""8"",""num_scrambled_causal"":""4"",""num_scrambled_schematic"":""4"",""participantId"":""CF3FDC171B364B7FBED6300012D923EB"",""assignmentId"":""5fd6ea35-82e1-41ce-8bf3-8041955f3e17"",""projectId"":""ba640c14-69c5-453e-80b2-29051492c0e0""}","https://test12345.live/?num_scrambled_semantic=8&num_scrambled_causal=4&num_scrambled_schematic=4&participantId=CF3FDC171B364B7FBED6300012D923EB&assignmentId=5fd6ea35-82e1-41ce-8bf3-8041955f3e17&projectId=ba640c14-69c5-453e-80b2-29051492c0e0","CF3FDC171B364B7FBED6300012D923EB-2025-05-14-20-58-14","","2623","","images/semantic_sequence/cat_care_semantic/cat_care_semantic_3.png","0","",""
"","","","","","image-button-response","100","473286","0.0-14.0-1.0-2.3","CF3FDC171B364B7FBED6300012D923EB","CF3FDC171B364B7FBED6300012D923EB","5fd6ea35-82e1-41ce-8bf3-8041955f3e17","ba640c14-69c5-453e-80b2-29051492c0e0","{""num_scrambled_semantic"":""8"",""num_scrambled_causal"":""4"",""num_scrambled_schematic"":""4"",""participantId"":""CF3FDC171B364B7FBED6300012D923EB"",""assignmentId"":""5fd6ea35-82e1-41ce-8bf3-8041955f3e17"",""projectId"":""ba640c14-69c5-453e-80b2-29051492c0e0""}","https://test12345.live/?num_scrambled_semantic=8&num_scrambled_causal=4&num_scrambled_schematic=4&participantId=CF3FDC171B364B7FBED6300012D923EB&assignmentId=5fd6ea35-82e1-41ce-8bf3-8041955f3e17&projectId=ba640c14-69c5-453e-80b2-29051492c0e0","CF3FDC171B364B7FBED6300012D923EB-2025-05-14-20-58-14","","null","","[]","null","",""
"","","","","","image-button-response","101","477788","0.0-14.0-1.0-0.4","CF3FDC171B364B7FBED6300012D923EB","CF3FDC171B364B7FBED6300012D923EB","5fd6ea35-82e1-41ce-8bf3-8041955f3e17","ba640c14-69c5-453e-80b2-29051492c0e0","{""num_scrambled_semantic"":""8"",""num_scrambled_causal"":""4"",""num_scrambled_schematic"":""4"",""participantId"":""CF3FDC171B364B7FBED6300012D923EB"",""assignmentId"":""5fd6ea35-82e1-41ce-8bf3-8041955f3e17"",""projectId"":""ba640c14-69c5-453e-80b2-29051492c0e0""}","https://test12345.live/?num_scrambled_semantic=8&num_scrambled_causal=4&num_scrambled_schematic=4&participantId=CF3FDC171B364B7FBED6300012D923EB&assignmentId=5fd6ea35-82e1-41ce-8bf3-8041955f3e17&projectId=ba640c14-69c5-453e-80b2-29051492c0e0","CF3FDC171B364B7FBED6300012D923EB-2025-05-14-20-58-14","","null","","images/semantic_sequence/cat_care_semantic/cat_care_semantic_5.png","null","",""
"","","","","","image-button-response","102","480948","0.0-14.0-1.0-1.4","CF3FDC171B364B7FBED6300012D923EB","CF3FDC171B364B7FBED6300012D923EB","5fd6ea35-82e1-41ce-8bf3-8041955f3e17","ba640c14-69c5-453e-80b2-29051492c0e0","{""num_scrambled_semantic"":""8"",""num_scrambled_causal"":""4"",""num_scrambled_schematic"":""4"",""participantId"":""CF3FDC171B364B7FBED6300012D923EB"",""assignmentId"":""5fd6ea35-82e1-41ce-8bf3-8041955f3e17"",""projectId"":""ba640c14-69c5-453e-80b2-29051492c0e0""}","https://test12345.live/?num_scrambled_semantic=8&num_scrambled_causal=4&num_scrambled_schematic=4&participantId=CF3FDC171B364B7FBED6300012D923EB&assignmentId=5fd6ea35-82e1-41ce-8bf3-8041955f3e17&projectId=ba640c14-69c5-453e-80b2-29051492c0e0","CF3FDC171B364B7FBED6300012D923EB-2025-05-14-20-58-14","","3158","","images/semantic_sequence/cat_care_semantic/cat_care_semantic_5.png","0","",""
"","","","","","image-button-response","103","482749","0.0-14.0-1.0-2.4","CF3FDC171B364B7FBED6300012D923EB","CF3FDC171B364B7FBED6300012D923EB","5fd6ea35-82e1-41ce-8bf3-8041955f3e17","ba640c14-69c5-453e-80b2-29051492c0e0","{""num_scrambled_semantic"":""8"",""num_scrambled_causal"":""4"",""num_scrambled_schematic"":""4"",""participantId"":""CF3FDC171B364B7FBED6300012D923EB"",""assignmentId"":""5fd6ea35-82e1-41ce-8bf3-8041955f3e17"",""projectId"":""ba640c14-69c5-453e-80b2-29051492c0e0""}","https://test12345.live/?num_scrambled_semantic=8&num_scrambled_causal=4&num_scrambled_schematic=4&participantId=CF3FDC171B364B7FBED6300012D923EB&assignmentId=5fd6ea35-82e1-41ce-8bf3-8041955f3e17&projectId=ba640c14-69c5-453e-80b2-29051492c0e0","CF3FDC171B364B7FBED6300012D923EB-2025-05-14-20-58-14","","null","","[]","null","",""
"","","","","","image-button-response","104","487255","0.0-14.0-1.0-0.5","CF3FDC171B364B7FBED6300012D923EB","CF3FDC171B364B7FBED6300012D923EB","5fd6ea35-82e1-41ce-8bf3-8041955f3e17","ba640c14-69c5-453e-80b2-29051492c0e0","{""num_scrambled_semantic"":""8"",""num_scrambled_causal"":""4"",""num_scrambled_schematic"":""4"",""participantId"":""CF3FDC171B364B7FBED6300012D923EB"",""assignmentId"":""5fd6ea35-82e1-41ce-8bf3-8041955f3e17"",""projectId"":""ba640c14-69c5-453e-80b2-29051492c0e0""}","https://test12345.live/?num_scrambled_semantic=8&num_scrambled_causal=4&num_scrambled_schematic=4&participantId=CF3FDC171B364B7FBED6300012D923EB&assignmentId=5fd6ea35-82e1-41ce-8bf3-8041955f3e17&projectId=ba640c14-69c5-453e-80b2-29051492c0e0","CF3FDC171B364B7FBED6300012D923EB-2025-05-14-20-58-14","","null","","images/semantic_sequence/cat_care_semantic/cat_care_semantic_6.png","null","",""
"","","","","","image-button-response","105","488863","0.0-14.0-1.0-1.5","CF3FDC171B364B7FBED6300012D923EB","CF3FDC171B364B7FBED6300012D923EB","5fd6ea35-82e1-41ce-8bf3-8041955f3e17","ba640c14-69c5-453e-80b2-29051492c0e0","{""num_scrambled_semantic"":""8"",""num_scrambled_causal"":""4"",""num_scrambled_schematic"":""4"",""participantId"":""CF3FDC171B364B7FBED6300012D923EB"",""assignmentId"":""5fd6ea35-82e1-41ce-8bf3-8041955f3e17"",""projectId"":""ba640c14-69c5-453e-80b2-29051492c0e0""}","https://test12345.live/?num_scrambled_semantic=8&num_scrambled_causal=4&num_scrambled_schematic=4&participantId=CF3FDC171B364B7FBED6300012D923EB&assignmentId=5fd6ea35-82e1-41ce-8bf3-8041955f3e17&projectId=ba640c14-69c5-453e-80b2-29051492c0e0","CF3FDC171B364B7FBED6300012D923EB-2025-05-14-20-58-14","","1607","","images/semantic_sequence/cat_care_semantic/cat_care_semantic_6.png","0","",""
"","","","","","image-button-response","106","490664","0.0-14.0-1.0-2.5","CF3FDC171B364B7FBED6300012D923EB","CF3FDC171B364B7FBED6300012D923EB","5fd6ea35-82e1-41ce-8bf3-8041955f3e17","ba640c14-69c5-453e-80b2-29051492c0e0","{""num_scrambled_semantic"":""8"",""num_scrambled_causal"":""4"",""num_scrambled_schematic"":""4"",""participantId"":""CF3FDC171B364B7FBED6300012D923EB"",""assignmentId"":""5fd6ea35-82e1-41ce-8bf3-8041955f3e17"",""projectId"":""ba640c14-69c5-453e-80b2-29051492c0e0""}","https://test12345.live/?num_scrambled_semantic=8&num_scrambled_causal=4&num_scrambled_schematic=4&participantId=CF3FDC171B364B7FBED6300012D923EB&assignmentId=5fd6ea35-82e1-41ce-8bf3-8041955f3e17&projectId=ba640c14-69c5-453e-80b2-29051492c0e0","CF3FDC171B364B7FBED6300012D923EB-2025-05-14-20-58-14","","null","","[]","null","",""
"","","","","","image-button-response","107","495175","0.0-14.0-1.0-0.6","CF3FDC171B364B7FBED6300012D923EB","CF3FDC171B364B7FBED6300012D923EB","5fd6ea35-82e1-41ce-8bf3-8041955f3e17","ba640c14-69c5-453e-80b2-29051492c0e0","{""num_scrambled_semantic"":""8"",""num_scrambled_causal"":""4"",""num_scrambled_schematic"":""4"",""participantId"":""CF3FDC171B364B7FBED6300012D923EB"",""assignmentId"":""5fd6ea35-82e1-41ce-8bf3-8041955f3e17"",""projectId"":""ba640c14-69c5-453e-80b2-29051492c0e0""}","https://test12345.live/?num_scrambled_semantic=8&num_scrambled_causal=4&num_scrambled_schematic=4&participantId=CF3FDC171B364B7FBED6300012D923EB&assignmentId=5fd6ea35-82e1-41ce-8bf3-8041955f3e17&projectId=ba640c14-69c5-453e-80b2-29051492c0e0","CF3FDC171B364B7FBED6300012D923EB-2025-05-14-20-58-14","","null","","images/semantic_sequence/cat_care_semantic/cat_care_semantic_1.png","null","",""
"","","","","","image-button-response","108","496082","0.0-14.0-1.0-1.6","CF3FDC171B364B7FBED6300012D923EB","CF3FDC171B364B7FBED6300012D923EB","5fd6ea35-82e1-41ce-8bf3-8041955f3e17","ba640c14-69c5-453e-80b2-29051492c0e0","{""num_scrambled_semantic"":""8"",""num_scrambled_causal"":""4"",""num_scrambled_schematic"":""4"",""participantId"":""CF3FDC171B364B7FBED6300012D923EB"",""assignmentId"":""5fd6ea35-82e1-41ce-8bf3-8041955f3e17"",""projectId"":""ba640c14-69c5-453e-80b2-29051492c0e0""}","https://test12345.live/?num_scrambled_semantic=8&num_scrambled_causal=4&num_scrambled_schematic=4&participantId=CF3FDC171B364B7FBED6300012D923EB&assignmentId=5fd6ea35-82e1-41ce-8bf3-8041955f3e17&projectId=ba640c14-69c5-453e-80b2-29051492c0e0","CF3FDC171B364B7FBED6300012D923EB-2025-05-14-20-58-14","","905","","images/semantic_sequence/cat_care_semantic/cat_care_semantic_1.png","0","",""
"","","","","","image-button-response","109","497884","0.0-14.0-1.0-2.6","CF3FDC171B364B7FBED6300012D923EB","CF3FDC171B364B7FBED6300012D923EB","5fd6ea35-82e1-41ce-8bf3-8041955f3e17","ba640c14-69c5-453e-80b2-29051492c0e0","{""num_scrambled_semantic"":""8"",""num_scrambled_causal"":""4"",""num_scrambled_schematic"":""4"",""participantId"":""CF3FDC171B364B7FBED6300012D923EB"",""assignmentId"":""5fd6ea35-82e1-41ce-8bf3-8041955f3e17"",""projectId"":""ba640c14-69c5-453e-80b2-29051492c0e0""}","https://test12345.live/?num_scrambled_semantic=8&num_scrambled_causal=4&num_scrambled_schematic=4&participantId=CF3FDC171B364B7FBED6300012D923EB&assignmentId=5fd6ea35-82e1-41ce-8bf3-8041955f3e17&projectId=ba640c14-69c5-453e-80b2-29051492c0e0","CF3FDC171B364B7FBED6300012D923EB-2025-05-14-20-58-14","","null","","[]","null","",""
"","","","","","image-button-response","110","502386","0.0-14.0-1.0-0.7","CF3FDC171B364B7FBED6300012D923EB","CF3FDC171B364B7FBED6300012D923EB","5fd6ea35-82e1-41ce-8bf3-8041955f3e17","ba640c14-69c5-453e-80b2-29051492c0e0","{""num_scrambled_semantic"":""8"",""num_scrambled_causal"":""4"",""num_scrambled_schematic"":""4"",""participantId"":""CF3FDC171B364B7FBED6300012D923EB"",""assignmentId"":""5fd6ea35-82e1-41ce-8bf3-8041955f3e17"",""projectId"":""ba640c14-69c5-453e-80b2-29051492c0e0""}","https://test12345.live/?num_scrambled_semantic=8&num_scrambled_causal=4&num_scrambled_schematic=4&participantId=CF3FDC171B364B7FBED6300012D923EB&assignmentId=5fd6ea35-82e1-41ce-8bf3-8041955f3e17&projectId=ba640c14-69c5-453e-80b2-29051492c0e0","CF3FDC171B364B7FBED6300012D923EB-2025-05-14-20-58-14","","null","","images/semantic_sequence/cat_care_semantic/cat_care_semantic_7.png","null","",""
"","","","","","image-button-response","111","503402","0.0-14.0-1.0-1.7","CF3FDC171B364B7FBED6300012D923EB","CF3FDC171B364B7FBED6300012D923EB","5fd6ea35-82e1-41ce-8bf3-8041955f3e17","ba640c14-69c5-453e-80b2-29051492c0e0","{""num_scrambled_semantic"":""8"",""num_scrambled_causal"":""4"",""num_scrambled_schematic"":""4"",""participantId"":""CF3FDC171B364B7FBED6300012D923EB"",""assignmentId"":""5fd6ea35-82e1-41ce-8bf3-8041955f3e17"",""projectId"":""ba640c14-69c5-453e-80b2-29051492c0e0""}","https://test12345.live/?num_scrambled_semantic=8&num_scrambled_causal=4&num_scrambled_schematic=4&participantId=CF3FDC171B364B7FBED6300012D923EB&assignmentId=5fd6ea35-82e1-41ce-8bf3-8041955f3e17&projectId=ba640c14-69c5-453e-80b2-29051492c0e0","CF3FDC171B364B7FBED6300012D923EB-2025-05-14-20-58-14","","1015","","images/semantic_sequence/cat_care_semantic/cat_care_semantic_7.png","0","",""
"","","","","","image-button-response","112","505207","0.0-14.0-1.0-2.7","CF3FDC171B364B7FBED6300012D923EB","CF3FDC171B364B7FBED6300012D923EB","5fd6ea35-82e1-41ce-8bf3-8041955f3e17","ba640c14-69c5-453e-80b2-29051492c0e0","{""num_scrambled_semantic"":""8"",""num_scrambled_causal"":""4"",""num_scrambled_schematic"":""4"",""participantId"":""CF3FDC171B364B7FBED6300012D923EB"",""assignmentId"":""5fd6ea35-82e1-41ce-8bf3-8041955f3e17"",""projectId"":""ba640c14-69c5-453e-80b2-29051492c0e0""}","https://test12345.live/?num_scrambled_semantic=8&num_scrambled_causal=4&num_scrambled_schematic=4&participantId=CF3FDC171B364B7FBED6300012D923EB&assignmentId=5fd6ea35-82e1-41ce-8bf3-8041955f3e17&projectId=ba640c14-69c5-453e-80b2-29051492c0e0","CF3FDC171B364B7FBED6300012D923EB-2025-05-14-20-58-14","","null","","[]","null","",""
"","","","","","image-button-response","113","509709","0.0-14.0-1.0-0.8","CF3FDC171B364B7FBED6300012D923EB","CF3FDC171B364B7FBED6300012D923EB","5fd6ea35-82e1-41ce-8bf3-8041955f3e17","ba640c14-69c5-453e-80b2-29051492c0e0","{""num_scrambled_semantic"":""8"",""num_scrambled_causal"":""4"",""num_scrambled_schematic"":""4"",""participantId"":""CF3FDC171B364B7FBED6300012D923EB"",""assignmentId"":""5fd6ea35-82e1-41ce-8bf3-8041955f3e17"",""projectId"":""ba640c14-69c5-453e-80b2-29051492c0e0""}","https://test12345.live/?num_scrambled_semantic=8&num_scrambled_causal=4&num_scrambled_schematic=4&participantId=CF3FDC171B364B7FBED6300012D923EB&assignmentId=5fd6ea35-82e1-41ce-8bf3-8041955f3e17&projectId=ba640c14-69c5-453e-80b2-29051492c0e0","CF3FDC171B364B7FBED6300012D923EB-2025-05-14-20-58-14","","null","","images/semantic_sequence/cat_care_semantic/cat_care_semantic_ten.png","null","",""
