"success","timeout","failed_images","failed_audio","failed_video","trial_type","trial_index","time_elapsed","internal_node_id","subject","subject_id","study_id","session_id","urlvar","current_url","audio_id","view_history","rt","device_id","stimulus","response","estimated_stimulus_onset","seq_name"
"true","false","[]","[]","[]","preload","0","15444","0.0-0.0","CF8240BC4830488DAE0D39F1D7A899CA","CF8240BC4830488DAE0D39F1D7A899CA","0198ee70-ec85-7e5c-a107-5bdedbd289c4","0198ee3c-27ac-7803-a9ea-f3b4ad4ad678","{""num_scrambled_semantic"":""8"",""num_scrambled_causal"":""4"",""num_scrambled_schematic"":""4"",""participantId"":""CF8240BC4830488DAE0D39F1D7A899CA"",""assignmentId"":""0198ee70-ec85-7e5c-a107-5bdedbd289c4"",""projectId"":""0198ee3c-27ac-7803-a9ea-f3b4ad4ad678""}","https://test12345.live/?num_scrambled_semantic=8&num_scrambled_causal=4&num_scrambled_schematic=4&participantId=CF8240BC4830488DAE0D39F1D7A899CA&assignmentId=0198ee70-ec85-7e5c-a107-5bdedbd289c4&projectId=0198ee3c-27ac-7803-a9ea-f3b4ad4ad678","CF8240BC4830488DAE0D39F1D7A899CA-2025-08-28-02-58-19","","","","","","",""
"","","","","","instructions","1","45838","0.0-1.0","CF8240BC4830488DAE0D39F1D7A899CA","CF8240BC4830488DAE0D39F1D7A899CA","0198ee70-ec85-7e5c-a107-5bdedbd289c4","0198ee3c-27ac-7803-a9ea-f3b4ad4ad678","{""num_scrambled_semantic"":""8"",""num_scrambled_causal"":""4"",""num_scrambled_schematic"":""4"",""participantId"":""CF8240BC4830488DAE0D39F1D7A899CA"",""assignmentId"":""0198ee70-ec85-7e5c-a107-5bdedbd289c4"",""projectId"":""0198ee3c-27ac-7803-a9ea-f3b4ad4ad678""}","https://test12345.live/?num_scrambled_semantic=8&num_scrambled_causal=4&num_scrambled_schematic=4&participantId=CF8240BC4830488DAE0D39F1D7A899CA&assignmentId=0198ee70-ec85-7e5c-a107-5bdedbd289c4&projectId=0198ee3c-27ac-7803-a9ea-f3b4ad4ad678","CF8240BC4830488DAE0D39F1D7A899CA-2025-08-28-02-58-19","[{""page_index"":0,""viewing_time"":30394}]","30394","","","","",""
"","","","","","instructions","2","62527","0.0-2.0","CF8240BC4830488DAE0D39F1D7A899CA","CF8240BC4830488DAE0D39F1D7A899CA","0198ee70-ec85-7e5c-a107-5bdedbd289c4","0198ee3c-27ac-7803-a9ea-f3b4ad4ad678","{""num_scrambled_semantic"":""8"",""num_scrambled_causal"":""4"",""num_scrambled_schematic"":""4"",""participantId"":""CF8240BC4830488DAE0D39F1D7A899CA"",""assignmentId"":""0198ee70-ec85-7e5c-a107-5bdedbd289c4"",""projectId"":""0198ee3c-27ac-7803-a9ea-f3b4ad4ad678""}","https://test12345.live/?num_scrambled_semantic=8&num_scrambled_causal=4&num_scrambled_schematic=4&participantId=CF8240BC4830488DAE0D39F1D7A899CA&assignmentId=0198ee70-ec85-7e5c-a107-5bdedbd289c4&projectId=0198ee3c-27ac-7803-a9ea-f3b4ad4ad678","CF8240BC4830488DAE0D39F1D7A899CA-2025-08-28-02-58-19","[{""page_index"":0,""viewing_time"":16687}]","16687","","","","",""
"true","","","","","fullscreen","3","65989","0.0-3.0","CF8240BC4830488DAE0D39F1D7A899CA","CF8240BC4830488DAE0D39F1D7A899CA","0198ee70-ec85-7e5c-a107-5bdedbd289c4","0198ee3c-27ac-7803-a9ea-f3b4ad4ad678","{""num_scrambled_semantic"":""8"",""num_scrambled_causal"":""4"",""num_scrambled_schematic"":""4"",""participantId"":""CF8240BC4830488DAE0D39F1D7A899CA"",""assignmentId"":""0198ee70-ec85-7e5c-a107-5bdedbd289c4"",""projectId"":""0198ee3c-27ac-7803-a9ea-f3b4ad4ad678""}","https://test12345.live/?num_scrambled_semantic=8&num_scrambled_causal=4&num_scrambled_schematic=4&participantId=CF8240BC4830488DAE0D39F1D7A899CA&assignmentId=0198ee70-ec85-7e5c-a107-5bdedbd289c4&projectId=0198ee3c-27ac-7803-a9ea-f3b4ad4ad678","CF8240BC4830488DAE0D39F1D7A899CA-2025-08-28-02-58-19","","2327","","","","",""
"","","","","","initialize-microphone","4","75152","0.0-4.0-0.0","CF8240BC4830488DAE0D39F1D7A899CA","CF8240BC4830488DAE0D39F1D7A899CA","0198ee70-ec85-7e5c-a107-5bdedbd289c4","0198ee3c-27ac-7803-a9ea-f3b4ad4ad678","{""num_scrambled_semantic"":""8"",""num_scrambled_causal"":""4"",""num_scrambled_schematic"":""4"",""participantId"":""CF8240BC4830488DAE0D39F1D7A899CA"",""assignmentId"":""0198ee70-ec85-7e5c-a107-5bdedbd289c4"",""projectId"":""0198ee3c-27ac-7803-a9ea-f3b4ad4ad678""}","https://test12345.live/?num_scrambled_semantic=8&num_scrambled_causal=4&num_scrambled_schematic=4&participantId=CF8240BC4830488DAE0D39F1D7A899CA&assignmentId=0198ee70-ec85-7e5c-a107-5bdedbd289c4&projectId=0198ee3c-27ac-7803-a9ea-f3b4ad4ad678","CF8240BC4830488DAE0D39F1D7A899CA-2025-08-28-02-58-19","","","QnVZhY4e1R+3hK2rUfCkws+bNpVpM3l7WfztGtZ8zx0=","","","",""
"","","","","","html-audio-response","5","101630","0.0-4.0-1.0","CF8240BC4830488DAE0D39F1D7A899CA","CF8240BC4830488DAE0D39F1D7A899CA","0198ee70-ec85-7e5c-a107-5bdedbd289c4","0198ee3c-27ac-7803-a9ea-f3b4ad4ad678","{""num_scrambled_semantic"":""8"",""num_scrambled_causal"":""4"",""num_scrambled_schematic"":""4"",""participantId"":""CF8240BC4830488DAE0D39F1D7A899CA"",""assignmentId"":""0198ee70-ec85-7e5c-a107-5bdedbd289c4"",""projectId"":""0198ee3c-27ac-7803-a9ea-f3b4ad4ad678""}","https://test12345.live/?num_scrambled_semantic=8&num_scrambled_causal=4&num_scrambled_schematic=4&participantId=CF8240BC4830488DAE0D39F1D7A899CA&assignmentId=0198ee70-ec85-7e5c-a107-5bdedbd289c4&projectId=0198ee3c-27ac-7803-a9ea-f3b4ad4ad678","CF8240BC4830488DAE0D39F1D7A899CA-2025-08-28-02-58-19","","1979","","<span style=""color: red; font-size: 24px""> NOW RECORDING</span>
        <p>Please test Microphone</p>","","1",""
"","","","","","html-button-response","6","105158","0.0-4.0-2.0","CF8240BC4830488DAE0D39F1D7A899CA","CF8240BC4830488DAE0D39F1D7A899CA","0198ee70-ec85-7e5c-a107-5bdedbd289c4","0198ee3c-27ac-7803-a9ea-f3b4ad4ad678","{""num_scrambled_semantic"":""8"",""num_scrambled_causal"":""4"",""num_scrambled_schematic"":""4"",""participantId"":""CF8240BC4830488DAE0D39F1D7A899CA"",""assignmentId"":""0198ee70-ec85-7e5c-a107-5bdedbd289c4"",""projectId"":""0198ee3c-27ac-7803-a9ea-f3b4ad4ad678""}","https://test12345.live/?num_scrambled_semantic=8&num_scrambled_causal=4&num_scrambled_schematic=4&participantId=CF8240BC4830488DAE0D39F1D7A899CA&assignmentId=0198ee70-ec85-7e5c-a107-5bdedbd289c4&projectId=0198ee3c-27ac-7803-a9ea-f3b4ad4ad678","CF8240BC4830488DAE0D39F1D7A899CA-2025-08-28-02-58-19","","3526","","<p style=""font-size:48px; color:red;"">Is Microphone OK?</p>","1","",""
"","","","","","instructions","7","120806","0.0-5.0","CF8240BC4830488DAE0D39F1D7A899CA","CF8240BC4830488DAE0D39F1D7A899CA","0198ee70-ec85-7e5c-a107-5bdedbd289c4","0198ee3c-27ac-7803-a9ea-f3b4ad4ad678","{""num_scrambled_semantic"":""8"",""num_scrambled_causal"":""4"",""num_scrambled_schematic"":""4"",""participantId"":""CF8240BC4830488DAE0D39F1D7A899CA"",""assignmentId"":""0198ee70-ec85-7e5c-a107-5bdedbd289c4"",""projectId"":""0198ee3c-27ac-7803-a9ea-f3b4ad4ad678""}","https://test12345.live/?num_scrambled_semantic=8&num_scrambled_causal=4&num_scrambled_schematic=4&participantId=CF8240BC4830488DAE0D39F1D7A899CA&assignmentId=0198ee70-ec85-7e5c-a107-5bdedbd289c4&projectId=0198ee3c-27ac-7803-a9ea-f3b4ad4ad678","CF8240BC4830488DAE0D39F1D7A899CA-2025-08-28-02-58-19","[{""page_index"":0,""viewing_time"":5103},{""page_index"":1,""viewing_time"":10543}]","15646","","","","",""
"","","","","","image-button-response","8","127102","0.0-6.0-0.0","CF8240BC4830488DAE0D39F1D7A899CA","CF8240BC4830488DAE0D39F1D7A899CA","0198ee70-ec85-7e5c-a107-5bdedbd289c4","0198ee3c-27ac-7803-a9ea-f3b4ad4ad678","{""num_scrambled_semantic"":""8"",""num_scrambled_causal"":""4"",""num_scrambled_schematic"":""4"",""participantId"":""CF8240BC4830488DAE0D39F1D7A899CA"",""assignmentId"":""0198ee70-ec85-7e5c-a107-5bdedbd289c4"",""projectId"":""0198ee3c-27ac-7803-a9ea-f3b4ad4ad678""}","https://test12345.live/?num_scrambled_semantic=8&num_scrambled_causal=4&num_scrambled_schematic=4&participantId=CF8240BC4830488DAE0D39F1D7A899CA&assignmentId=0198ee70-ec85-7e5c-a107-5bdedbd289c4&projectId=0198ee3c-27ac-7803-a9ea-f3b4ad4ad678","CF8240BC4830488DAE0D39F1D7A899CA-2025-08-28-02-58-19","","null","","images/instructions/movie_0.png","null","",""
"","","","","","image-button-response","9","131622","0.0-6.0-1.0-0.0","CF8240BC4830488DAE0D39F1D7A899CA","CF8240BC4830488DAE0D39F1D7A899CA","0198ee70-ec85-7e5c-a107-5bdedbd289c4","0198ee3c-27ac-7803-a9ea-f3b4ad4ad678","{""num_scrambled_semantic"":""8"",""num_scrambled_causal"":""4"",""num_scrambled_schematic"":""4"",""participantId"":""CF8240BC4830488DAE0D39F1D7A899CA"",""assignmentId"":""0198ee70-ec85-7e5c-a107-5bdedbd289c4"",""projectId"":""0198ee3c-27ac-7803-a9ea-f3b4ad4ad678""}","https://test12345.live/?num_scrambled_semantic=8&num_scrambled_causal=4&num_scrambled_schematic=4&participantId=CF8240BC4830488DAE0D39F1D7A899CA&assignmentId=0198ee70-ec85-7e5c-a107-5bdedbd289c4&projectId=0198ee3c-27ac-7803-a9ea-f3b4ad4ad678","CF8240BC4830488DAE0D39F1D7A899CA-2025-08-28-02-58-19","","null","","images/instructions/movie_1.png","null","",""
"","","","","","image-button-response","10","135649","0.0-6.0-1.0-1.0","CF8240BC4830488DAE0D39F1D7A899CA","CF8240BC4830488DAE0D39F1D7A899CA","0198ee70-ec85-7e5c-a107-5bdedbd289c4","0198ee3c-27ac-7803-a9ea-f3b4ad4ad678","{""num_scrambled_semantic"":""8"",""num_scrambled_causal"":""4"",""num_scrambled_schematic"":""4"",""participantId"":""CF8240BC4830488DAE0D39F1D7A899CA"",""assignmentId"":""0198ee70-ec85-7e5c-a107-5bdedbd289c4"",""projectId"":""0198ee3c-27ac-7803-a9ea-f3b4ad4ad678""}","https://test12345.live/?num_scrambled_semantic=8&num_scrambled_causal=4&num_scrambled_schematic=4&participantId=CF8240BC4830488DAE0D39F1D7A899CA&assignmentId=0198ee70-ec85-7e5c-a107-5bdedbd289c4&projectId=0198ee3c-27ac-7803-a9ea-f3b4ad4ad678","CF8240BC4830488DAE0D39F1D7A899CA-2025-08-28-02-58-19","","null","","images/instructions/movie_1.png","null","",""
"","","","","","image-button-response","11","137674","0.0-6.0-1.0-2.0","CF8240BC4830488DAE0D39F1D7A899CA","CF8240BC4830488DAE0D39F1D7A899CA","0198ee70-ec85-7e5c-a107-5bdedbd289c4","0198ee3c-27ac-7803-a9ea-f3b4ad4ad678","{""num_scrambled_semantic"":""8"",""num_scrambled_causal"":""4"",""num_scrambled_schematic"":""4"",""participantId"":""CF8240BC4830488DAE0D39F1D7A899CA"",""assignmentId"":""0198ee70-ec85-7e5c-a107-5bdedbd289c4"",""projectId"":""0198ee3c-27ac-7803-a9ea-f3b4ad4ad678""}","https://test12345.live/?num_scrambled_semantic=8&num_scrambled_causal=4&num_scrambled_schematic=4&participantId=CF8240BC4830488DAE0D39F1D7A899CA&assignmentId=0198ee70-ec85-7e5c-a107-5bdedbd289c4&projectId=0198ee3c-27ac-7803-a9ea-f3b4ad4ad678","CF8240BC4830488DAE0D39F1D7A899CA-2025-08-28-02-58-19","","null","","[]","null","",""
"","","","","","image-button-response","12","142197","0.0-6.0-1.0-0.1","CF8240BC4830488DAE0D39F1D7A899CA","CF8240BC4830488DAE0D39F1D7A899CA","0198ee70-ec85-7e5c-a107-5bdedbd289c4","0198ee3c-27ac-7803-a9ea-f3b4ad4ad678","{""num_scrambled_semantic"":""8"",""num_scrambled_causal"":""4"",""num_scrambled_schematic"":""4"",""participantId"":""CF8240BC4830488DAE0D39F1D7A899CA"",""assignmentId"":""0198ee70-ec85-7e5c-a107-5bdedbd289c4"",""projectId"":""0198ee3c-27ac-7803-a9ea-f3b4ad4ad678""}","https://test12345.live/?num_scrambled_semantic=8&num_scrambled_causal=4&num_scrambled_schematic=4&participantId=CF8240BC4830488DAE0D39F1D7A899CA&assignmentId=0198ee70-ec85-7e5c-a107-5bdedbd289c4&projectId=0198ee3c-27ac-7803-a9ea-f3b4ad4ad678","CF8240BC4830488DAE0D39F1D7A899CA-2025-08-28-02-58-19","","null","","images/instructions/movie_2.png","null","",""
"","","","","","image-button-response","13","143581","0.0-6.0-1.0-1.1","CF8240BC4830488DAE0D39F1D7A899CA","CF8240BC4830488DAE0D39F1D7A899CA","0198ee70-ec85-7e5c-a107-5bdedbd289c4","0198ee3c-27ac-7803-a9ea-f3b4ad4ad678","{""num_scrambled_semantic"":""8"",""num_scrambled_causal"":""4"",""num_scrambled_schematic"":""4"",""participantId"":""CF8240BC4830488DAE0D39F1D7A899CA"",""assignmentId"":""0198ee70-ec85-7e5c-a107-5bdedbd289c4"",""projectId"":""0198ee3c-27ac-7803-a9ea-f3b4ad4ad678""}","https://test12345.live/?num_scrambled_semantic=8&num_scrambled_causal=4&num_scrambled_schematic=4&participantId=CF8240BC4830488DAE0D39F1D7A899CA&assignmentId=0198ee70-ec85-7e5c-a107-5bdedbd289c4&projectId=0198ee3c-27ac-7803-a9ea-f3b4ad4ad678","CF8240BC4830488DAE0D39F1D7A899CA-2025-08-28-02-58-19","","1383","","images/instructions/movie_2.png","1","",""
"","","","","","image-button-response","14","145390","0.0-6.0-1.0-2.1","CF8240BC4830488DAE0D39F1D7A899CA","CF8240BC4830488DAE0D39F1D7A899CA","0198ee70-ec85-7e5c-a107-5bdedbd289c4","0198ee3c-27ac-7803-a9ea-f3b4ad4ad678","{""num_scrambled_semantic"":""8"",""num_scrambled_causal"":""4"",""num_scrambled_schematic"":""4"",""participantId"":""CF8240BC4830488DAE0D39F1D7A899CA"",""assignmentId"":""0198ee70-ec85-7e5c-a107-5bdedbd289c4"",""projectId"":""0198ee3c-27ac-7803-a9ea-f3b4ad4ad678""}","https://test12345.live/?num_scrambled_semantic=8&num_scrambled_causal=4&num_scrambled_schematic=4&participantId=CF8240BC4830488DAE0D39F1D7A899CA&assignmentId=0198ee70-ec85-7e5c-a107-5bdedbd289c4&projectId=0198ee3c-27ac-7803-a9ea-f3b4ad4ad678","CF8240BC4830488DAE0D39F1D7A899CA-2025-08-28-02-58-19","","null","","[]","null","",""
"","","","","","image-button-response","15","150058","0.0-6.0-1.0-0.2","CF8240BC4830488DAE0D39F1D7A899CA","CF8240BC4830488DAE0D39F1D7A899CA","0198ee70-ec85-7e5c-a107-5bdedbd289c4","0198ee3c-27ac-7803-a9ea-f3b4ad4ad678","{""num_scrambled_semantic"":""8"",""num_scrambled_causal"":""4"",""num_scrambled_schematic"":""4"",""participantId"":""CF8240BC4830488DAE0D39F1D7A899CA"",""assignmentId"":""0198ee70-ec85-7e5c-a107-5bdedbd289c4"",""projectId"":""0198ee3c-27ac-7803-a9ea-f3b4ad4ad678""}","https://test12345.live/?num_scrambled_semantic=8&num_scrambled_causal=4&num_scrambled_schematic=4&participantId=CF8240BC4830488DAE0D39F1D7A899CA&assignmentId=0198ee70-ec85-7e5c-a107-5bdedbd289c4&projectId=0198ee3c-27ac-7803-a9ea-f3b4ad4ad678","CF8240BC4830488DAE0D39F1D7A899CA-2025-08-28-02-58-19","","null","","images/instructions/movie_3.png","null","",""
"","","","","","image-button-response","16","151157","0.0-6.0-1.0-1.2","CF8240BC4830488DAE0D39F1D7A899CA","CF8240BC4830488DAE0D39F1D7A899CA","0198ee70-ec85-7e5c-a107-5bdedbd289c4","0198ee3c-27ac-7803-a9ea-f3b4ad4ad678","{""num_scrambled_semantic"":""8"",""num_scrambled_causal"":""4"",""num_scrambled_schematic"":""4"",""participantId"":""CF8240BC4830488DAE0D39F1D7A899CA"",""assignmentId"":""0198ee70-ec85-7e5c-a107-5bdedbd289c4"",""projectId"":""0198ee3c-27ac-7803-a9ea-f3b4ad4ad678""}","https://test12345.live/?num_scrambled_semantic=8&num_scrambled_causal=4&num_scrambled_schematic=4&participantId=CF8240BC4830488DAE0D39F1D7A899CA&assignmentId=0198ee70-ec85-7e5c-a107-5bdedbd289c4&projectId=0198ee3c-27ac-7803-a9ea-f3b4ad4ad678","CF8240BC4830488DAE0D39F1D7A899CA-2025-08-28-02-58-19","","1099","","images/instructions/movie_3.png","0","",""
"","","","","","image-button-response","17","153119","0.0-6.0-1.0-2.2","CF8240BC4830488DAE0D39F1D7A899CA","CF8240BC4830488DAE0D39F1D7A899CA","0198ee70-ec85-7e5c-a107-5bdedbd289c4","0198ee3c-27ac-7803-a9ea-f3b4ad4ad678","{""num_scrambled_semantic"":""8"",""num_scrambled_causal"":""4"",""num_scrambled_schematic"":""4"",""participantId"":""CF8240BC4830488DAE0D39F1D7A899CA"",""assignmentId"":""0198ee70-ec85-7e5c-a107-5bdedbd289c4"",""projectId"":""0198ee3c-27ac-7803-a9ea-f3b4ad4ad678""}","https://test12345.live/?num_scrambled_semantic=8&num_scrambled_causal=4&num_scrambled_schematic=4&participantId=CF8240BC4830488DAE0D39F1D7A899CA&assignmentId=0198ee70-ec85-7e5c-a107-5bdedbd289c4&projectId=0198ee3c-27ac-7803-a9ea-f3b4ad4ad678","CF8240BC4830488DAE0D39F1D7A899CA-2025-08-28-02-58-19","","null","","[]","null","",""
"","","","","","image-button-response","18","157978","0.0-6.0-1.0-0.3","CF8240BC4830488DAE0D39F1D7A899CA","CF8240BC4830488DAE0D39F1D7A899CA","0198ee70-ec85-7e5c-a107-5bdedbd289c4","0198ee3c-27ac-7803-a9ea-f3b4ad4ad678","{""num_scrambled_semantic"":""8"",""num_scrambled_causal"":""4"",""num_scrambled_schematic"":""4"",""participantId"":""CF8240BC4830488DAE0D39F1D7A899CA"",""assignmentId"":""0198ee70-ec85-7e5c-a107-5bdedbd289c4"",""projectId"":""0198ee3c-27ac-7803-a9ea-f3b4ad4ad678""}","https://test12345.live/?num_scrambled_semantic=8&num_scrambled_causal=4&num_scrambled_schematic=4&participantId=CF8240BC4830488DAE0D39F1D7A899CA&assignmentId=0198ee70-ec85-7e5c-a107-5bdedbd289c4&projectId=0198ee3c-27ac-7803-a9ea-f3b4ad4ad678","CF8240BC4830488DAE0D39F1D7A899CA-2025-08-28-02-58-19","","null","","images/instructions/movie_4.png","null","",""
"","","","","","image-button-response","19","158878","0.0-6.0-1.0-1.3","CF8240BC4830488DAE0D39F1D7A899CA","CF8240BC4830488DAE0D39F1D7A899CA","0198ee70-ec85-7e5c-a107-5bdedbd289c4","0198ee3c-27ac-7803-a9ea-f3b4ad4ad678","{""num_scrambled_semantic"":""8"",""num_scrambled_causal"":""4"",""num_scrambled_schematic"":""4"",""participantId"":""CF8240BC4830488DAE0D39F1D7A899CA"",""assignmentId"":""0198ee70-ec85-7e5c-a107-5bdedbd289c4"",""projectId"":""0198ee3c-27ac-7803-a9ea-f3b4ad4ad678""}","https://test12345.live/?num_scrambled_semantic=8&num_scrambled_causal=4&num_scrambled_schematic=4&participantId=CF8240BC4830488DAE0D39F1D7A899CA&assignmentId=0198ee70-ec85-7e5c-a107-5bdedbd289c4&projectId=0198ee3c-27ac-7803-a9ea-f3b4ad4ad678","CF8240BC4830488DAE0D39F1D7A899CA-2025-08-28-02-58-19","","900","","images/instructions/movie_4.png","0","",""
"","","","","","image-button-response","20","160684","0.0-6.0-1.0-2.3","CF8240BC4830488DAE0D39F1D7A899CA","CF8240BC4830488DAE0D39F1D7A899CA","0198ee70-ec85-7e5c-a107-5bdedbd289c4","0198ee3c-27ac-7803-a9ea-f3b4ad4ad678","{""num_scrambled_semantic"":""8"",""num_scrambled_causal"":""4"",""num_scrambled_schematic"":""4"",""participantId"":""CF8240BC4830488DAE0D39F1D7A899CA"",""assignmentId"":""0198ee70-ec85-7e5c-a107-5bdedbd289c4"",""projectId"":""0198ee3c-27ac-7803-a9ea-f3b4ad4ad678""}","https://test12345.live/?num_scrambled_semantic=8&num_scrambled_causal=4&num_scrambled_schematic=4&participantId=CF8240BC4830488DAE0D39F1D7A899CA&assignmentId=0198ee70-ec85-7e5c-a107-5bdedbd289c4&projectId=0198ee3c-27ac-7803-a9ea-f3b4ad4ad678","CF8240BC4830488DAE0D39F1D7A899CA-2025-08-28-02-58-19","","null","","[]","null","",""
"","","","","","instructions","21","176125","0.0-7.0","CF8240BC4830488DAE0D39F1D7A899CA","CF8240BC4830488DAE0D39F1D7A899CA","0198ee70-ec85-7e5c-a107-5bdedbd289c4","0198ee3c-27ac-7803-a9ea-f3b4ad4ad678","{""num_scrambled_semantic"":""8"",""num_scrambled_causal"":""4"",""num_scrambled_schematic"":""4"",""participantId"":""CF8240BC4830488DAE0D39F1D7A899CA"",""assignmentId"":""0198ee70-ec85-7e5c-a107-5bdedbd289c4"",""projectId"":""0198ee3c-27ac-7803-a9ea-f3b4ad4ad678""}","https://test12345.live/?num_scrambled_semantic=8&num_scrambled_causal=4&num_scrambled_schematic=4&participantId=CF8240BC4830488DAE0D39F1D7A899CA&assignmentId=0198ee70-ec85-7e5c-a107-5bdedbd289c4&projectId=0198ee3c-27ac-7803-a9ea-f3b4ad4ad678","CF8240BC4830488DAE0D39F1D7A899CA-2025-08-28-02-58-19","[{""page_index"":0,""viewing_time"":15442}]","15442","","","","",""
"","","","","","html-audio-response","22","202125","0.0-8.0","CF8240BC4830488DAE0D39F1D7A899CA","CF8240BC4830488DAE0D39F1D7A899CA","0198ee70-ec85-7e5c-a107-5bdedbd289c4","0198ee3c-27ac-7803-a9ea-f3b4ad4ad678","{""num_scrambled_semantic"":""8"",""num_scrambled_causal"":""4"",""num_scrambled_schematic"":""4"",""participantId"":""CF8240BC4830488DAE0D39F1D7A899CA"",""assignmentId"":""0198ee70-ec85-7e5c-a107-5bdedbd289c4"",""projectId"":""0198ee3c-27ac-7803-a9ea-f3b4ad4ad678""}","https://test12345.live/?num_scrambled_semantic=8&num_scrambled_causal=4&num_scrambled_schematic=4&participantId=CF8240BC4830488DAE0D39F1D7A899CA&assignmentId=0198ee70-ec85-7e5c-a107-5bdedbd289c4&projectId=0198ee3c-27ac-7803-a9ea-f3b4ad4ad678","CF8240BC4830488DAE0D39F1D7A899CA-2025-08-28-02-58-19","","18205","","[""<span style=\""color: red; font-size: 24px\""> NOW RECORDING</span><p>Please say out loud all the images you saw, in the order of the story they create. Try to recall the sequence of events as they appeared in the story, not necessarily the order they were presented on the screen.</p>""]","","3",""
"","","","","","instructions","23","204757","0.0-9.0","CF8240BC4830488DAE0D39F1D7A899CA","CF8240BC4830488DAE0D39F1D7A899CA","0198ee70-ec85-7e5c-a107-5bdedbd289c4","0198ee3c-27ac-7803-a9ea-f3b4ad4ad678","{""num_scrambled_semantic"":""8"",""num_scrambled_causal"":""4"",""num_scrambled_schematic"":""4"",""participantId"":""CF8240BC4830488DAE0D39F1D7A899CA"",""assignmentId"":""0198ee70-ec85-7e5c-a107-5bdedbd289c4"",""projectId"":""0198ee3c-27ac-7803-a9ea-f3b4ad4ad678""}","https://test12345.live/?num_scrambled_semantic=8&num_scrambled_causal=4&num_scrambled_schematic=4&participantId=CF8240BC4830488DAE0D39F1D7A899CA&assignmentId=0198ee70-ec85-7e5c-a107-5bdedbd289c4&projectId=0198ee3c-27ac-7803-a9ea-f3b4ad4ad678","CF8240BC4830488DAE0D39F1D7A899CA-2025-08-28-02-58-19","[{""page_index"":0,""viewing_time"":2628}]","2628","","","","",""
"","","","","","image-button-response","24","210768","0.0-10.0-0.0","CF8240BC4830488DAE0D39F1D7A899CA","CF8240BC4830488DAE0D39F1D7A899CA","0198ee70-ec85-7e5c-a107-5bdedbd289c4","0198ee3c-27ac-7803-a9ea-f3b4ad4ad678","{""num_scrambled_semantic"":""8"",""num_scrambled_causal"":""4"",""num_scrambled_schematic"":""4"",""participantId"":""CF8240BC4830488DAE0D39F1D7A899CA"",""assignmentId"":""0198ee70-ec85-7e5c-a107-5bdedbd289c4"",""projectId"":""0198ee3c-27ac-7803-a9ea-f3b4ad4ad678""}","https://test12345.live/?num_scrambled_semantic=8&num_scrambled_causal=4&num_scrambled_schematic=4&participantId=CF8240BC4830488DAE0D39F1D7A899CA&assignmentId=0198ee70-ec85-7e5c-a107-5bdedbd289c4&projectId=0198ee3c-27ac-7803-a9ea-f3b4ad4ad678","CF8240BC4830488DAE0D39F1D7A899CA-2025-08-28-02-58-19","","null","","images/semantic_sequence/creative_activities_semantic/creative_activities_semantic_0.png","null","",""
"","","","","","image-button-response","25","215321","0.0-10.0-1.0-0.0","CF8240BC4830488DAE0D39F1D7A899CA","CF8240BC4830488DAE0D39F1D7A899CA","0198ee70-ec85-7e5c-a107-5bdedbd289c4","0198ee3c-27ac-7803-a9ea-f3b4ad4ad678","{""num_scrambled_semantic"":""8"",""num_scrambled_causal"":""4"",""num_scrambled_schematic"":""4"",""participantId"":""CF8240BC4830488DAE0D39F1D7A899CA"",""assignmentId"":""0198ee70-ec85-7e5c-a107-5bdedbd289c4"",""projectId"":""0198ee3c-27ac-7803-a9ea-f3b4ad4ad678""}","https://test12345.live/?num_scrambled_semantic=8&num_scrambled_causal=4&num_scrambled_schematic=4&participantId=CF8240BC4830488DAE0D39F1D7A899CA&assignmentId=0198ee70-ec85-7e5c-a107-5bdedbd289c4&projectId=0198ee3c-27ac-7803-a9ea-f3b4ad4ad678","CF8240BC4830488DAE0D39F1D7A899CA-2025-08-28-02-58-19","","null","","images/semantic_sequence/creative_activities_semantic/creative_activities_semantic_1.png","null","",""
"","","","","","image-button-response","26","216325","0.0-10.0-1.0-1.0","CF8240BC4830488DAE0D39F1D7A899CA","CF8240BC4830488DAE0D39F1D7A899CA","0198ee70-ec85-7e5c-a107-5bdedbd289c4","0198ee3c-27ac-7803-a9ea-f3b4ad4ad678","{""num_scrambled_semantic"":""8"",""num_scrambled_causal"":""4"",""num_scrambled_schematic"":""4"",""participantId"":""CF8240BC4830488DAE0D39F1D7A899CA"",""assignmentId"":""0198ee70-ec85-7e5c-a107-5bdedbd289c4"",""projectId"":""0198ee3c-27ac-7803-a9ea-f3b4ad4ad678""}","https://test12345.live/?num_scrambled_semantic=8&num_scrambled_causal=4&num_scrambled_schematic=4&participantId=CF8240BC4830488DAE0D39F1D7A899CA&assignmentId=0198ee70-ec85-7e5c-a107-5bdedbd289c4&projectId=0198ee3c-27ac-7803-a9ea-f3b4ad4ad678","CF8240BC4830488DAE0D39F1D7A899CA-2025-08-28-02-58-19","","1004","","images/semantic_sequence/creative_activities_semantic/creative_activities_semantic_1.png","0","",""
"","","","","","image-button-response","27","218340","0.0-10.0-1.0-2.0","CF8240BC4830488DAE0D39F1D7A899CA","CF8240BC4830488DAE0D39F1D7A899CA","0198ee70-ec85-7e5c-a107-5bdedbd289c4","0198ee3c-27ac-7803-a9ea-f3b4ad4ad678","{""num_scrambled_semantic"":""8"",""num_scrambled_causal"":""4"",""num_scrambled_schematic"":""4"",""participantId"":""CF8240BC4830488DAE0D39F1D7A899CA"",""assignmentId"":""0198ee70-ec85-7e5c-a107-5bdedbd289c4"",""projectId"":""0198ee3c-27ac-7803-a9ea-f3b4ad4ad678""}","https://test12345.live/?num_scrambled_semantic=8&num_scrambled_causal=4&num_scrambled_schematic=4&participantId=CF8240BC4830488DAE0D39F1D7A899CA&assignmentId=0198ee70-ec85-7e5c-a107-5bdedbd289c4&projectId=0198ee3c-27ac-7803-a9ea-f3b4ad4ad678","CF8240BC4830488DAE0D39F1D7A899CA-2025-08-28-02-58-19","","null","","[]","null","",""
"","","","","","image-button-response","28","223181","0.0-10.0-1.0-0.1","CF8240BC4830488DAE0D39F1D7A899CA","CF8240BC4830488DAE0D39F1D7A899CA","0198ee70-ec85-7e5c-a107-5bdedbd289c4","0198ee3c-27ac-7803-a9ea-f3b4ad4ad678","{""num_scrambled_semantic"":""8"",""num_scrambled_causal"":""4"",""num_scrambled_schematic"":""4"",""participantId"":""CF8240BC4830488DAE0D39F1D7A899CA"",""assignmentId"":""0198ee70-ec85-7e5c-a107-5bdedbd289c4"",""projectId"":""0198ee3c-27ac-7803-a9ea-f3b4ad4ad678""}","https://test12345.live/?num_scrambled_semantic=8&num_scrambled_causal=4&num_scrambled_schematic=4&participantId=CF8240BC4830488DAE0D39F1D7A899CA&assignmentId=0198ee70-ec85-7e5c-a107-5bdedbd289c4&projectId=0198ee3c-27ac-7803-a9ea-f3b4ad4ad678","CF8240BC4830488DAE0D39F1D7A899CA-2025-08-28-02-58-19","","null","","images/semantic_sequence/creative_activities_semantic/creative_activities_semantic_2.png","null","",""
"","","","","","image-button-response","29","224229","0.0-10.0-1.0-1.1","CF8240BC4830488DAE0D39F1D7A899CA","CF8240BC4830488DAE0D39F1D7A899CA","0198ee70-ec85-7e5c-a107-5bdedbd289c4","0198ee3c-27ac-7803-a9ea-f3b4ad4ad678","{""num_scrambled_semantic"":""8"",""num_scrambled_causal"":""4"",""num_scrambled_schematic"":""4"",""participantId"":""CF8240BC4830488DAE0D39F1D7A899CA"",""assignmentId"":""0198ee70-ec85-7e5c-a107-5bdedbd289c4"",""projectId"":""0198ee3c-27ac-7803-a9ea-f3b4ad4ad678""}","https://test12345.live/?num_scrambled_semantic=8&num_scrambled_causal=4&num_scrambled_schematic=4&participantId=CF8240BC4830488DAE0D39F1D7A899CA&assignmentId=0198ee70-ec85-7e5c-a107-5bdedbd289c4&projectId=0198ee3c-27ac-7803-a9ea-f3b4ad4ad678","CF8240BC4830488DAE0D39F1D7A899CA-2025-08-28-02-58-19","","1048","","images/semantic_sequence/creative_activities_semantic/creative_activities_semantic_2.png","0","",""
"","","","","","image-button-response","30","226243","0.0-10.0-1.0-2.1","CF8240BC4830488DAE0D39F1D7A899CA","CF8240BC4830488DAE0D39F1D7A899CA","0198ee70-ec85-7e5c-a107-5bdedbd289c4","0198ee3c-27ac-7803-a9ea-f3b4ad4ad678","{""num_scrambled_semantic"":""8"",""num_scrambled_causal"":""4"",""num_scrambled_schematic"":""4"",""participantId"":""CF8240BC4830488DAE0D39F1D7A899CA"",""assignmentId"":""0198ee70-ec85-7e5c-a107-5bdedbd289c4"",""projectId"":""0198ee3c-27ac-7803-a9ea-f3b4ad4ad678""}","https://test12345.live/?num_scrambled_semantic=8&num_scrambled_causal=4&num_scrambled_schematic=4&participantId=CF8240BC4830488DAE0D39F1D7A899CA&assignmentId=0198ee70-ec85-7e5c-a107-5bdedbd289c4&projectId=0198ee3c-27ac-7803-a9ea-f3b4ad4ad678","CF8240BC4830488DAE0D39F1D7A899CA-2025-08-28-02-58-19","","null","","[]","null","",""
"","","","","","image-button-response","31","230958","0.0-10.0-1.0-0.2","CF8240BC4830488DAE0D39F1D7A899CA","CF8240BC4830488DAE0D39F1D7A899CA","0198ee70-ec85-7e5c-a107-5bdedbd289c4","0198ee3c-27ac-7803-a9ea-f3b4ad4ad678","{""num_scrambled_semantic"":""8"",""num_scrambled_causal"":""4"",""num_scrambled_schematic"":""4"",""participantId"":""CF8240BC4830488DAE0D39F1D7A899CA"",""assignmentId"":""0198ee70-ec85-7e5c-a107-5bdedbd289c4"",""projectId"":""0198ee3c-27ac-7803-a9ea-f3b4ad4ad678""}","https://test12345.live/?num_scrambled_semantic=8&num_scrambled_causal=4&num_scrambled_schematic=4&participantId=CF8240BC4830488DAE0D39F1D7A899CA&assignmentId=0198ee70-ec85-7e5c-a107-5bdedbd289c4&projectId=0198ee3c-27ac-7803-a9ea-f3b4ad4ad678","CF8240BC4830488DAE0D39F1D7A899CA-2025-08-28-02-58-19","","null","","images/semantic_sequence/creative_activities_semantic/creative_activities_semantic_3.png","null","",""
"","","","","","image-button-response","32","231941","0.0-10.0-1.0-1.2","CF8240BC4830488DAE0D39F1D7A899CA","CF8240BC4830488DAE0D39F1D7A899CA","0198ee70-ec85-7e5c-a107-5bdedbd289c4","0198ee3c-27ac-7803-a9ea-f3b4ad4ad678","{""num_scrambled_semantic"":""8"",""num_scrambled_causal"":""4"",""num_scrambled_schematic"":""4"",""participantId"":""CF8240BC4830488DAE0D39F1D7A899CA"",""assignmentId"":""0198ee70-ec85-7e5c-a107-5bdedbd289c4"",""projectId"":""0198ee3c-27ac-7803-a9ea-f3b4ad4ad678""}","https://test12345.live/?num_scrambled_semantic=8&num_scrambled_causal=4&num_scrambled_schematic=4&participantId=CF8240BC4830488DAE0D39F1D7A899CA&assignmentId=0198ee70-ec85-7e5c-a107-5bdedbd289c4&projectId=0198ee3c-27ac-7803-a9ea-f3b4ad4ad678","CF8240BC4830488DAE0D39F1D7A899CA-2025-08-28-02-58-19","","982","","images/semantic_sequence/creative_activities_semantic/creative_activities_semantic_3.png","0","",""
"","","","","","image-button-response","33","233744","0.0-10.0-1.0-2.2","CF8240BC4830488DAE0D39F1D7A899CA","CF8240BC4830488DAE0D39F1D7A899CA","0198ee70-ec85-7e5c-a107-5bdedbd289c4","0198ee3c-27ac-7803-a9ea-f3b4ad4ad678","{""num_scrambled_semantic"":""8"",""num_scrambled_causal"":""4"",""num_scrambled_schematic"":""4"",""participantId"":""CF8240BC4830488DAE0D39F1D7A899CA"",""assignmentId"":""0198ee70-ec85-7e5c-a107-5bdedbd289c4"",""projectId"":""0198ee3c-27ac-7803-a9ea-f3b4ad4ad678""}","https://test12345.live/?num_scrambled_semantic=8&num_scrambled_causal=4&num_scrambled_schematic=4&participantId=CF8240BC4830488DAE0D39F1D7A899CA&assignmentId=0198ee70-ec85-7e5c-a107-5bdedbd289c4&projectId=0198ee3c-27ac-7803-a9ea-f3b4ad4ad678","CF8240BC4830488DAE0D39F1D7A899CA-2025-08-28-02-58-19","","null","","[]","null","",""
"","","","","","image-button-response","34","238606","0.0-10.0-1.0-0.3","CF8240BC4830488DAE0D39F1D7A899CA","CF8240BC4830488DAE0D39F1D7A899CA","0198ee70-ec85-7e5c-a107-5bdedbd289c4","0198ee3c-27ac-7803-a9ea-f3b4ad4ad678","{""num_scrambled_semantic"":""8"",""num_scrambled_causal"":""4"",""num_scrambled_schematic"":""4"",""participantId"":""CF8240BC4830488DAE0D39F1D7A899CA"",""assignmentId"":""0198ee70-ec85-7e5c-a107-5bdedbd289c4"",""projectId"":""0198ee3c-27ac-7803-a9ea-f3b4ad4ad678""}","https://test12345.live/?num_scrambled_semantic=8&num_scrambled_causal=4&num_scrambled_schematic=4&participantId=CF8240BC4830488DAE0D39F1D7A899CA&assignmentId=0198ee70-ec85-7e5c-a107-5bdedbd289c4&projectId=0198ee3c-27ac-7803-a9ea-f3b4ad4ad678","CF8240BC4830488DAE0D39F1D7A899CA-2025-08-28-02-58-19","","null","","images/semantic_sequence/creative_activities_semantic/creative_activities_semantic_4.png","null","",""
"","","","","","image-button-response","35","239372","0.0-10.0-1.0-1.3","CF8240BC4830488DAE0D39F1D7A899CA","CF8240BC4830488DAE0D39F1D7A899CA","0198ee70-ec85-7e5c-a107-5bdedbd289c4","0198ee3c-27ac-7803-a9ea-f3b4ad4ad678","{""num_scrambled_semantic"":""8"",""num_scrambled_causal"":""4"",""num_scrambled_schematic"":""4"",""participantId"":""CF8240BC4830488DAE0D39F1D7A899CA"",""assignmentId"":""0198ee70-ec85-7e5c-a107-5bdedbd289c4"",""projectId"":""0198ee3c-27ac-7803-a9ea-f3b4ad4ad678""}","https://test12345.live/?num_scrambled_semantic=8&num_scrambled_causal=4&num_scrambled_schematic=4&participantId=CF8240BC4830488DAE0D39F1D7A899CA&assignmentId=0198ee70-ec85-7e5c-a107-5bdedbd289c4&projectId=0198ee3c-27ac-7803-a9ea-f3b4ad4ad678","CF8240BC4830488DAE0D39F1D7A899CA-2025-08-28-02-58-19","","766","","images/semantic_sequence/creative_activities_semantic/creative_activities_semantic_4.png","0","",""
"","","","","","image-button-response","36","241395","0.0-10.0-1.0-2.3","CF8240BC4830488DAE0D39F1D7A899CA","CF8240BC4830488DAE0D39F1D7A899CA","0198ee70-ec85-7e5c-a107-5bdedbd289c4","0198ee3c-27ac-7803-a9ea-f3b4ad4ad678","{""num_scrambled_semantic"":""8"",""num_scrambled_causal"":""4"",""num_scrambled_schematic"":""4"",""participantId"":""CF8240BC4830488DAE0D39F1D7A899CA"",""assignmentId"":""0198ee70-ec85-7e5c-a107-5bdedbd289c4"",""projectId"":""0198ee3c-27ac-7803-a9ea-f3b4ad4ad678""}","https://test12345.live/?num_scrambled_semantic=8&num_scrambled_causal=4&num_scrambled_schematic=4&participantId=CF8240BC4830488DAE0D39F1D7A899CA&assignmentId=0198ee70-ec85-7e5c-a107-5bdedbd289c4&projectId=0198ee3c-27ac-7803-a9ea-f3b4ad4ad678","CF8240BC4830488DAE0D39F1D7A899CA-2025-08-28-02-58-19","","null","","[]","null","",""
"","","","","","image-button-response","37","246142","0.0-10.0-1.0-0.4","CF8240BC4830488DAE0D39F1D7A899CA","CF8240BC4830488DAE0D39F1D7A899CA","0198ee70-ec85-7e5c-a107-5bdedbd289c4","0198ee3c-27ac-7803-a9ea-f3b4ad4ad678","{""num_scrambled_semantic"":""8"",""num_scrambled_causal"":""4"",""num_scrambled_schematic"":""4"",""participantId"":""CF8240BC4830488DAE0D39F1D7A899CA"",""assignmentId"":""0198ee70-ec85-7e5c-a107-5bdedbd289c4"",""projectId"":""0198ee3c-27ac-7803-a9ea-f3b4ad4ad678""}","https://test12345.live/?num_scrambled_semantic=8&num_scrambled_causal=4&num_scrambled_schematic=4&participantId=CF8240BC4830488DAE0D39F1D7A899CA&assignmentId=0198ee70-ec85-7e5c-a107-5bdedbd289c4&projectId=0198ee3c-27ac-7803-a9ea-f3b4ad4ad678","CF8240BC4830488DAE0D39F1D7A899CA-2025-08-28-02-58-19","","null","","images/semantic_sequence/creative_activities_semantic/creative_activities_semantic_5.png","null","",""
"","","","","","image-button-response","38","246869","0.0-10.0-1.0-1.4","CF8240BC4830488DAE0D39F1D7A899CA","CF8240BC4830488DAE0D39F1D7A899CA","0198ee70-ec85-7e5c-a107-5bdedbd289c4","0198ee3c-27ac-7803-a9ea-f3b4ad4ad678","{""num_scrambled_semantic"":""8"",""num_scrambled_causal"":""4"",""num_scrambled_schematic"":""4"",""participantId"":""CF8240BC4830488DAE0D39F1D7A899CA"",""assignmentId"":""0198ee70-ec85-7e5c-a107-5bdedbd289c4"",""projectId"":""0198ee3c-27ac-7803-a9ea-f3b4ad4ad678""}","https://test12345.live/?num_scrambled_semantic=8&num_scrambled_causal=4&num_scrambled_schematic=4&participantId=CF8240BC4830488DAE0D39F1D7A899CA&assignmentId=0198ee70-ec85-7e5c-a107-5bdedbd289c4&projectId=0198ee3c-27ac-7803-a9ea-f3b4ad4ad678","CF8240BC4830488DAE0D39F1D7A899CA-2025-08-28-02-58-19","","727","","images/semantic_sequence/creative_activities_semantic/creative_activities_semantic_5.png","0","",""
"","","","","","image-button-response","39","248744","0.0-10.0-1.0-2.4","CF8240BC4830488DAE0D39F1D7A899CA","CF8240BC4830488DAE0D39F1D7A899CA","0198ee70-ec85-7e5c-a107-5bdedbd289c4","0198ee3c-27ac-7803-a9ea-f3b4ad4ad678","{""num_scrambled_semantic"":""8"",""num_scrambled_causal"":""4"",""num_scrambled_schematic"":""4"",""participantId"":""CF8240BC4830488DAE0D39F1D7A899CA"",""assignmentId"":""0198ee70-ec85-7e5c-a107-5bdedbd289c4"",""projectId"":""0198ee3c-27ac-7803-a9ea-f3b4ad4ad678""}","https://test12345.live/?num_scrambled_semantic=8&num_scrambled_causal=4&num_scrambled_schematic=4&participantId=CF8240BC4830488DAE0D39F1D7A899CA&assignmentId=0198ee70-ec85-7e5c-a107-5bdedbd289c4&projectId=0198ee3c-27ac-7803-a9ea-f3b4ad4ad678","CF8240BC4830488DAE0D39F1D7A899CA-2025-08-28-02-58-19","","null","","[]","null","",""
"","","","","","image-button-response","40","253643","0.0-10.0-1.0-0.5","CF8240BC4830488DAE0D39F1D7A899CA","CF8240BC4830488DAE0D39F1D7A899CA","0198ee70-ec85-7e5c-a107-5bdedbd289c4","0198ee3c-27ac-7803-a9ea-f3b4ad4ad678","{""num_scrambled_semantic"":""8"",""num_scrambled_causal"":""4"",""num_scrambled_schematic"":""4"",""participantId"":""CF8240BC4830488DAE0D39F1D7A899CA"",""assignmentId"":""0198ee70-ec85-7e5c-a107-5bdedbd289c4"",""projectId"":""0198ee3c-27ac-7803-a9ea-f3b4ad4ad678""}","https://test12345.live/?num_scrambled_semantic=8&num_scrambled_causal=4&num_scrambled_schematic=4&participantId=CF8240BC4830488DAE0D39F1D7A899CA&assignmentId=0198ee70-ec85-7e5c-a107-5bdedbd289c4&projectId=0198ee3c-27ac-7803-a9ea-f3b4ad4ad678","CF8240BC4830488DAE0D39F1D7A899CA-2025-08-28-02-58-19","","null","","images/semantic_sequence/creative_activities_semantic/creative_activities_semantic_6.png","null","",""
"","","","","","image-button-response","41","254285","0.0-10.0-1.0-1.5","CF8240BC4830488DAE0D39F1D7A899CA","CF8240BC4830488DAE0D39F1D7A899CA","0198ee70-ec85-7e5c-a107-5bdedbd289c4","0198ee3c-27ac-7803-a9ea-f3b4ad4ad678","{""num_scrambled_semantic"":""8"",""num_scrambled_causal"":""4"",""num_scrambled_schematic"":""4"",""participantId"":""CF8240BC4830488DAE0D39F1D7A899CA"",""assignmentId"":""0198ee70-ec85-7e5c-a107-5bdedbd289c4"",""projectId"":""0198ee3c-27ac-7803-a9ea-f3b4ad4ad678""}","https://test12345.live/?num_scrambled_semantic=8&num_scrambled_causal=4&num_scrambled_schematic=4&participantId=CF8240BC4830488DAE0D39F1D7A899CA&assignmentId=0198ee70-ec85-7e5c-a107-5bdedbd289c4&projectId=0198ee3c-27ac-7803-a9ea-f3b4ad4ad678","CF8240BC4830488DAE0D39F1D7A899CA-2025-08-28-02-58-19","","642","","images/semantic_sequence/creative_activities_semantic/creative_activities_semantic_6.png","0","",""
"","","","","","image-button-response","42","256312","0.0-10.0-1.0-2.5","CF8240BC4830488DAE0D39F1D7A899CA","CF8240BC4830488DAE0D39F1D7A899CA","0198ee70-ec85-7e5c-a107-5bdedbd289c4","0198ee3c-27ac-7803-a9ea-f3b4ad4ad678","{""num_scrambled_semantic"":""8"",""num_scrambled_causal"":""4"",""num_scrambled_schematic"":""4"",""participantId"":""CF8240BC4830488DAE0D39F1D7A899CA"",""assignmentId"":""0198ee70-ec85-7e5c-a107-5bdedbd289c4"",""projectId"":""0198ee3c-27ac-7803-a9ea-f3b4ad4ad678""}","https://test12345.live/?num_scrambled_semantic=8&num_scrambled_causal=4&num_scrambled_schematic=4&participantId=CF8240BC4830488DAE0D39F1D7A899CA&assignmentId=0198ee70-ec85-7e5c-a107-5bdedbd289c4&projectId=0198ee3c-27ac-7803-a9ea-f3b4ad4ad678","CF8240BC4830488DAE0D39F1D7A899CA-2025-08-28-02-58-19","","null","","[]","null","",""
"","","","","","image-button-response","43","260830","0.0-10.0-1.0-0.6","CF8240BC4830488DAE0D39F1D7A899CA","CF8240BC4830488DAE0D39F1D7A899CA","0198ee70-ec85-7e5c-a107-5bdedbd289c4","0198ee3c-27ac-7803-a9ea-f3b4ad4ad678","{""num_scrambled_semantic"":""8"",""num_scrambled_causal"":""4"",""num_scrambled_schematic"":""4"",""participantId"":""CF8240BC4830488DAE0D39F1D7A899CA"",""assignmentId"":""0198ee70-ec85-7e5c-a107-5bdedbd289c4"",""projectId"":""0198ee3c-27ac-7803-a9ea-f3b4ad4ad678""}","https://test12345.live/?num_scrambled_semantic=8&num_scrambled_causal=4&num_scrambled_schematic=4&participantId=CF8240BC4830488DAE0D39F1D7A899CA&assignmentId=0198ee70-ec85-7e5c-a107-5bdedbd289c4&projectId=0198ee3c-27ac-7803-a9ea-f3b4ad4ad678","CF8240BC4830488DAE0D39F1D7A899CA-2025-08-28-02-58-19","","null","","images/semantic_sequence/creative_activities_semantic/creative_activities_semantic_7.png","null","",""
"","","","","","image-button-response","44","261340","0.0-10.0-1.0-1.6","CF8240BC4830488DAE0D39F1D7A899CA","CF8240BC4830488DAE0D39F1D7A899CA","0198ee70-ec85-7e5c-a107-5bdedbd289c4","0198ee3c-27ac-7803-a9ea-f3b4ad4ad678","{""num_scrambled_semantic"":""8"",""num_scrambled_causal"":""4"",""num_scrambled_schematic"":""4"",""participantId"":""CF8240BC4830488DAE0D39F1D7A899CA"",""assignmentId"":""0198ee70-ec85-7e5c-a107-5bdedbd289c4"",""projectId"":""0198ee3c-27ac-7803-a9ea-f3b4ad4ad678""}","https://test12345.live/?num_scrambled_semantic=8&num_scrambled_causal=4&num_scrambled_schematic=4&participantId=CF8240BC4830488DAE0D39F1D7A899CA&assignmentId=0198ee70-ec85-7e5c-a107-5bdedbd289c4&projectId=0198ee3c-27ac-7803-a9ea-f3b4ad4ad678","CF8240BC4830488DAE0D39F1D7A899CA-2025-08-28-02-58-19","","511","","images/semantic_sequence/creative_activities_semantic/creative_activities_semantic_7.png","0","",""
"","","","","","image-button-response","45","263357","0.0-10.0-1.0-2.6","CF8240BC4830488DAE0D39F1D7A899CA","CF8240BC4830488DAE0D39F1D7A899CA","0198ee70-ec85-7e5c-a107-5bdedbd289c4","0198ee3c-27ac-7803-a9ea-f3b4ad4ad678","{""num_scrambled_semantic"":""8"",""num_scrambled_causal"":""4"",""num_scrambled_schematic"":""4"",""participantId"":""CF8240BC4830488DAE0D39F1D7A899CA"",""assignmentId"":""0198ee70-ec85-7e5c-a107-5bdedbd289c4"",""projectId"":""0198ee3c-27ac-7803-a9ea-f3b4ad4ad678""}","https://test12345.live/?num_scrambled_semantic=8&num_scrambled_causal=4&num_scrambled_schematic=4&participantId=CF8240BC4830488DAE0D39F1D7A899CA&assignmentId=0198ee70-ec85-7e5c-a107-5bdedbd289c4&projectId=0198ee3c-27ac-7803-a9ea-f3b4ad4ad678","CF8240BC4830488DAE0D39F1D7A899CA-2025-08-28-02-58-19","","null","","[]","null","",""
"","","","","","image-button-response","46","267874","0.0-10.0-1.0-0.7","CF8240BC4830488DAE0D39F1D7A899CA","CF8240BC4830488DAE0D39F1D7A899CA","0198ee70-ec85-7e5c-a107-5bdedbd289c4","0198ee3c-27ac-7803-a9ea-f3b4ad4ad678","{""num_scrambled_semantic"":""8"",""num_scrambled_causal"":""4"",""num_scrambled_schematic"":""4"",""participantId"":""CF8240BC4830488DAE0D39F1D7A899CA"",""assignmentId"":""0198ee70-ec85-7e5c-a107-5bdedbd289c4"",""projectId"":""0198ee3c-27ac-7803-a9ea-f3b4ad4ad678""}","https://test12345.live/?num_scrambled_semantic=8&num_scrambled_causal=4&num_scrambled_schematic=4&participantId=CF8240BC4830488DAE0D39F1D7A899CA&assignmentId=0198ee70-ec85-7e5c-a107-5bdedbd289c4&projectId=0198ee3c-27ac-7803-a9ea-f3b4ad4ad678","CF8240BC4830488DAE0D39F1D7A899CA-2025-08-28-02-58-19","","null","","images/semantic_sequence/creative_activities_semantic/creative_activities_semantic_8.png","null","",""
"","","","","","image-button-response","47","268589","0.0-10.0-1.0-1.7","CF8240BC4830488DAE0D39F1D7A899CA","CF8240BC4830488DAE0D39F1D7A899CA","0198ee70-ec85-7e5c-a107-5bdedbd289c4","0198ee3c-27ac-7803-a9ea-f3b4ad4ad678","{""num_scrambled_semantic"":""8"",""num_scrambled_causal"":""4"",""num_scrambled_schematic"":""4"",""participantId"":""CF8240BC4830488DAE0D39F1D7A899CA"",""assignmentId"":""0198ee70-ec85-7e5c-a107-5bdedbd289c4"",""projectId"":""0198ee3c-27ac-7803-a9ea-f3b4ad4ad678""}","https://test12345.live/?num_scrambled_semantic=8&num_scrambled_causal=4&num_scrambled_schematic=4&participantId=CF8240BC4830488DAE0D39F1D7A899CA&assignmentId=0198ee70-ec85-7e5c-a107-5bdedbd289c4&projectId=0198ee3c-27ac-7803-a9ea-f3b4ad4ad678","CF8240BC4830488DAE0D39F1D7A899CA-2025-08-28-02-58-19","","713","","images/semantic_sequence/creative_activities_semantic/creative_activities_semantic_8.png","0","",""
"","","","","","image-button-response","48","270604","0.0-10.0-1.0-2.7","CF8240BC4830488DAE0D39F1D7A899CA","CF8240BC4830488DAE0D39F1D7A899CA","0198ee70-ec85-7e5c-a107-5bdedbd289c4","0198ee3c-27ac-7803-a9ea-f3b4ad4ad678","{""num_scrambled_semantic"":""8"",""num_scrambled_causal"":""4"",""num_scrambled_schematic"":""4"",""participantId"":""CF8240BC4830488DAE0D39F1D7A899CA"",""assignmentId"":""0198ee70-ec85-7e5c-a107-5bdedbd289c4"",""projectId"":""0198ee3c-27ac-7803-a9ea-f3b4ad4ad678""}","https://test12345.live/?num_scrambled_semantic=8&num_scrambled_causal=4&num_scrambled_schematic=4&participantId=CF8240BC4830488DAE0D39F1D7A899CA&assignmentId=0198ee70-ec85-7e5c-a107-5bdedbd289c4&projectId=0198ee3c-27ac-7803-a9ea-f3b4ad4ad678","CF8240BC4830488DAE0D39F1D7A899CA-2025-08-28-02-58-19","","null","","[]","null","",""
"","","","","","image-button-response","49","275228","0.0-10.0-1.0-0.8","CF8240BC4830488DAE0D39F1D7A899CA","CF8240BC4830488DAE0D39F1D7A899CA","0198ee70-ec85-7e5c-a107-5bdedbd289c4","0198ee3c-27ac-7803-a9ea-f3b4ad4ad678","{""num_scrambled_semantic"":""8"",""num_scrambled_causal"":""4"",""num_scrambled_schematic"":""4"",""participantId"":""CF8240BC4830488DAE0D39F1D7A899CA"",""assignmentId"":""0198ee70-ec85-7e5c-a107-5bdedbd289c4"",""projectId"":""0198ee3c-27ac-7803-a9ea-f3b4ad4ad678""}","https://test12345.live/?num_scrambled_semantic=8&num_scrambled_causal=4&num_scrambled_schematic=4&participantId=CF8240BC4830488DAE0D39F1D7A899CA&assignmentId=0198ee70-ec85-7e5c-a107-5bdedbd289c4&projectId=0198ee3c-27ac-7803-a9ea-f3b4ad4ad678","CF8240BC4830488DAE0D39F1D7A899CA-2025-08-28-02-58-19","","null","","images/semantic_sequence/creative_activities_semantic/creative_activities_semantic_9.png","null","",""
"","","","","","image-button-response","50","275764","0.0-10.0-1.0-1.8","CF8240BC4830488DAE0D39F1D7A899CA","CF8240BC4830488DAE0D39F1D7A899CA","0198ee70-ec85-7e5c-a107-5bdedbd289c4","0198ee3c-27ac-7803-a9ea-f3b4ad4ad678","{""num_scrambled_semantic"":""8"",""num_scrambled_causal"":""4"",""num_scrambled_schematic"":""4"",""participantId"":""CF8240BC4830488DAE0D39F1D7A899CA"",""assignmentId"":""0198ee70-ec85-7e5c-a107-5bdedbd289c4"",""projectId"":""0198ee3c-27ac-7803-a9ea-f3b4ad4ad678""}","https://test12345.live/?num_scrambled_semantic=8&num_scrambled_causal=4&num_scrambled_schematic=4&participantId=CF8240BC4830488DAE0D39F1D7A899CA&assignmentId=0198ee70-ec85-7e5c-a107-5bdedbd289c4&projectId=0198ee3c-27ac-7803-a9ea-f3b4ad4ad678","CF8240BC4830488DAE0D39F1D7A899CA-2025-08-28-02-58-19","","536","","images/semantic_sequence/creative_activities_semantic/creative_activities_semantic_9.png","0","",""
"","","","","","image-button-response","51","277776","0.0-10.0-1.0-2.8","CF8240BC4830488DAE0D39F1D7A899CA","CF8240BC4830488DAE0D39F1D7A899CA","0198ee70-ec85-7e5c-a107-5bdedbd289c4","0198ee3c-27ac-7803-a9ea-f3b4ad4ad678","{""num_scrambled_semantic"":""8"",""num_scrambled_causal"":""4"",""num_scrambled_schematic"":""4"",""participantId"":""CF8240BC4830488DAE0D39F1D7A899CA"",""assignmentId"":""0198ee70-ec85-7e5c-a107-5bdedbd289c4"",""projectId"":""0198ee3c-27ac-7803-a9ea-f3b4ad4ad678""}","https://test12345.live/?num_scrambled_semantic=8&num_scrambled_causal=4&num_scrambled_schematic=4&participantId=CF8240BC4830488DAE0D39F1D7A899CA&assignmentId=0198ee70-ec85-7e5c-a107-5bdedbd289c4&projectId=0198ee3c-27ac-7803-a9ea-f3b4ad4ad678","CF8240BC4830488DAE0D39F1D7A899CA-2025-08-28-02-58-19","","null","","[]","null","",""
"","","","","","image-button-response","52","282296","0.0-10.0-1.0-0.9","CF8240BC4830488DAE0D39F1D7A899CA","CF8240BC4830488DAE0D39F1D7A899CA","0198ee70-ec85-7e5c-a107-5bdedbd289c4","0198ee3c-27ac-7803-a9ea-f3b4ad4ad678","{""num_scrambled_semantic"":""8"",""num_scrambled_causal"":""4"",""num_scrambled_schematic"":""4"",""participantId"":""CF8240BC4830488DAE0D39F1D7A899CA"",""assignmentId"":""0198ee70-ec85-7e5c-a107-5bdedbd289c4"",""projectId"":""0198ee3c-27ac-7803-a9ea-f3b4ad4ad678""}","https://test12345.live/?num_scrambled_semantic=8&num_scrambled_causal=4&num_scrambled_schematic=4&participantId=CF8240BC4830488DAE0D39F1D7A899CA&assignmentId=0198ee70-ec85-7e5c-a107-5bdedbd289c4&projectId=0198ee3c-27ac-7803-a9ea-f3b4ad4ad678","CF8240BC4830488DAE0D39F1D7A899CA-2025-08-28-02-58-19","","null","","images/semantic_sequence/creative_activities_semantic/creative_activities_semantic_ten.png","null","",""
"","","","","","image-button-response","53","283268","0.0-10.0-1.0-1.9","CF8240BC4830488DAE0D39F1D7A899CA","CF8240BC4830488DAE0D39F1D7A899CA","0198ee70-ec85-7e5c-a107-5bdedbd289c4","0198ee3c-27ac-7803-a9ea-f3b4ad4ad678","{""num_scrambled_semantic"":""8"",""num_scrambled_causal"":""4"",""num_scrambled_schematic"":""4"",""participantId"":""CF8240BC4830488DAE0D39F1D7A899CA"",""assignmentId"":""0198ee70-ec85-7e5c-a107-5bdedbd289c4"",""projectId"":""0198ee3c-27ac-7803-a9ea-f3b4ad4ad678""}","https://test12345.live/?num_scrambled_semantic=8&num_scrambled_causal=4&num_scrambled_schematic=4&participantId=CF8240BC4830488DAE0D39F1D7A899CA&assignmentId=0198ee70-ec85-7e5c-a107-5bdedbd289c4&projectId=0198ee3c-27ac-7803-a9ea-f3b4ad4ad678","CF8240BC4830488DAE0D39F1D7A899CA-2025-08-28-02-58-19","","973","","images/semantic_sequence/creative_activities_semantic/creative_activities_semantic_ten.png","0","",""
"","","","","","image-button-response","54","285072","0.0-10.0-1.0-2.9","CF8240BC4830488DAE0D39F1D7A899CA","CF8240BC4830488DAE0D39F1D7A899CA","0198ee70-ec85-7e5c-a107-5bdedbd289c4","0198ee3c-27ac-7803-a9ea-f3b4ad4ad678","{""num_scrambled_semantic"":""8"",""num_scrambled_causal"":""4"",""num_scrambled_schematic"":""4"",""participantId"":""CF8240BC4830488DAE0D39F1D7A899CA"",""assignmentId"":""0198ee70-ec85-7e5c-a107-5bdedbd289c4"",""projectId"":""0198ee3c-27ac-7803-a9ea-f3b4ad4ad678""}","https://test12345.live/?num_scrambled_semantic=8&num_scrambled_causal=4&num_scrambled_schematic=4&participantId=CF8240BC4830488DAE0D39F1D7A899CA&assignmentId=0198ee70-ec85-7e5c-a107-5bdedbd289c4&projectId=0198ee3c-27ac-7803-a9ea-f3b4ad4ad678","CF8240BC4830488DAE0D39F1D7A899CA-2025-08-28-02-58-19","","null","","[]","null","",""
"","","","","","html-audio-response","55","312916","0.0-11.0","CF8240BC4830488DAE0D39F1D7A899CA","CF8240BC4830488DAE0D39F1D7A899CA","0198ee70-ec85-7e5c-a107-5bdedbd289c4","0198ee3c-27ac-7803-a9ea-f3b4ad4ad678","{""num_scrambled_semantic"":""8"",""num_scrambled_causal"":""4"",""num_scrambled_schematic"":""4"",""participantId"":""CF8240BC4830488DAE0D39F1D7A899CA"",""assignmentId"":""0198ee70-ec85-7e5c-a107-5bdedbd289c4"",""projectId"":""0198ee3c-27ac-7803-a9ea-f3b4ad4ad678""}","https://test12345.live/?num_scrambled_semantic=8&num_scrambled_causal=4&num_scrambled_schematic=4&participantId=CF8240BC4830488DAE0D39F1D7A899CA&assignmentId=0198ee70-ec85-7e5c-a107-5bdedbd289c4&projectId=0198ee3c-27ac-7803-a9ea-f3b4ad4ad678","CF8240BC4830488DAE0D39F1D7A899CA-2025-08-28-02-58-19","","16306","","[""<span style=\""color: red; font-size: 24px\""> NOW RECORDING</span><p>Please say out loud all the images you saw, in the order of the story they create. Try to recall the sequence of events as they appeared in the story, not necessarily the order they were presented on the screen.</p>""]","","1","creative_activities_semantic"
"","","","","","image-button-response","56","319103","0.0-12.0-0.0","CF8240BC4830488DAE0D39F1D7A899CA","CF8240BC4830488DAE0D39F1D7A899CA","0198ee70-ec85-7e5c-a107-5bdedbd289c4","0198ee3c-27ac-7803-a9ea-f3b4ad4ad678","{""num_scrambled_semantic"":""8"",""num_scrambled_causal"":""4"",""num_scrambled_schematic"":""4"",""participantId"":""CF8240BC4830488DAE0D39F1D7A899CA"",""assignmentId"":""0198ee70-ec85-7e5c-a107-5bdedbd289c4"",""projectId"":""0198ee3c-27ac-7803-a9ea-f3b4ad4ad678""}","https://test12345.live/?num_scrambled_semantic=8&num_scrambled_causal=4&num_scrambled_schematic=4&participantId=CF8240BC4830488DAE0D39F1D7A899CA&assignmentId=0198ee70-ec85-7e5c-a107-5bdedbd289c4&projectId=0198ee3c-27ac-7803-a9ea-f3b4ad4ad678","CF8240BC4830488DAE0D39F1D7A899CA-2025-08-28-02-58-19","","null","","images/causal_sequence/museum_causal/museum_causal_0.png","null","",""
"","","","","","image-button-response","57","323627","0.0-12.0-1.0-0.0","CF8240BC4830488DAE0D39F1D7A899CA","CF8240BC4830488DAE0D39F1D7A899CA","0198ee70-ec85-7e5c-a107-5bdedbd289c4","0198ee3c-27ac-7803-a9ea-f3b4ad4ad678","{""num_scrambled_semantic"":""8"",""num_scrambled_causal"":""4"",""num_scrambled_schematic"":""4"",""participantId"":""CF8240BC4830488DAE0D39F1D7A899CA"",""assignmentId"":""0198ee70-ec85-7e5c-a107-5bdedbd289c4"",""projectId"":""0198ee3c-27ac-7803-a9ea-f3b4ad4ad678""}","https://test12345.live/?num_scrambled_semantic=8&num_scrambled_causal=4&num_scrambled_schematic=4&participantId=CF8240BC4830488DAE0D39F1D7A899CA&assignmentId=0198ee70-ec85-7e5c-a107-5bdedbd289c4&projectId=0198ee3c-27ac-7803-a9ea-f3b4ad4ad678","CF8240BC4830488DAE0D39F1D7A899CA-2025-08-28-02-58-19","","null","","images/causal_sequence/museum_causal/museum_causal_7.png","null","",""
"","","","","","image-button-response","58","324500","0.0-12.0-1.0-1.0","CF8240BC4830488DAE0D39F1D7A899CA","CF8240BC4830488DAE0D39F1D7A899CA","0198ee70-ec85-7e5c-a107-5bdedbd289c4","0198ee3c-27ac-7803-a9ea-f3b4ad4ad678","{""num_scrambled_semantic"":""8"",""num_scrambled_causal"":""4"",""num_scrambled_schematic"":""4"",""participantId"":""CF8240BC4830488DAE0D39F1D7A899CA"",""assignmentId"":""0198ee70-ec85-7e5c-a107-5bdedbd289c4"",""projectId"":""0198ee3c-27ac-7803-a9ea-f3b4ad4ad678""}","https://test12345.live/?num_scrambled_semantic=8&num_scrambled_causal=4&num_scrambled_schematic=4&participantId=CF8240BC4830488DAE0D39F1D7A899CA&assignmentId=0198ee70-ec85-7e5c-a107-5bdedbd289c4&projectId=0198ee3c-27ac-7803-a9ea-f3b4ad4ad678","CF8240BC4830488DAE0D39F1D7A899CA-2025-08-28-02-58-19","","872","","images/causal_sequence/museum_causal/museum_causal_7.png","1","",""
"","","","","","image-button-response","59","326313","0.0-12.0-1.0-2.0","CF8240BC4830488DAE0D39F1D7A899CA","CF8240BC4830488DAE0D39F1D7A899CA","0198ee70-ec85-7e5c-a107-5bdedbd289c4","0198ee3c-27ac-7803-a9ea-f3b4ad4ad678","{""num_scrambled_semantic"":""8"",""num_scrambled_causal"":""4"",""num_scrambled_schematic"":""4"",""participantId"":""CF8240BC4830488DAE0D39F1D7A899CA"",""assignmentId"":""0198ee70-ec85-7e5c-a107-5bdedbd289c4"",""projectId"":""0198ee3c-27ac-7803-a9ea-f3b4ad4ad678""}","https://test12345.live/?num_scrambled_semantic=8&num_scrambled_causal=4&num_scrambled_schematic=4&participantId=CF8240BC4830488DAE0D39F1D7A899CA&assignmentId=0198ee70-ec85-7e5c-a107-5bdedbd289c4&projectId=0198ee3c-27ac-7803-a9ea-f3b4ad4ad678","CF8240BC4830488DAE0D39F1D7A899CA-2025-08-28-02-58-19","","null","","[]","null","",""
"","","","","","image-button-response","60","331199","0.0-12.0-1.0-0.1","CF8240BC4830488DAE0D39F1D7A899CA","CF8240BC4830488DAE0D39F1D7A899CA","0198ee70-ec85-7e5c-a107-5bdedbd289c4","0198ee3c-27ac-7803-a9ea-f3b4ad4ad678","{""num_scrambled_semantic"":""8"",""num_scrambled_causal"":""4"",""num_scrambled_schematic"":""4"",""participantId"":""CF8240BC4830488DAE0D39F1D7A899CA"",""assignmentId"":""0198ee70-ec85-7e5c-a107-5bdedbd289c4"",""projectId"":""0198ee3c-27ac-7803-a9ea-f3b4ad4ad678""}","https://test12345.live/?num_scrambled_semantic=8&num_scrambled_causal=4&num_scrambled_schematic=4&participantId=CF8240BC4830488DAE0D39F1D7A899CA&assignmentId=0198ee70-ec85-7e5c-a107-5bdedbd289c4&projectId=0198ee3c-27ac-7803-a9ea-f3b4ad4ad678","CF8240BC4830488DAE0D39F1D7A899CA-2025-08-28-02-58-19","","null","","images/causal_sequence/museum_causal/museum_causal_4.png","null","",""
"","","","","","image-button-response","61","332404","0.0-12.0-1.0-1.1","CF8240BC4830488DAE0D39F1D7A899CA","CF8240BC4830488DAE0D39F1D7A899CA","0198ee70-ec85-7e5c-a107-5bdedbd289c4","0198ee3c-27ac-7803-a9ea-f3b4ad4ad678","{""num_scrambled_semantic"":""8"",""num_scrambled_causal"":""4"",""num_scrambled_schematic"":""4"",""participantId"":""CF8240BC4830488DAE0D39F1D7A899CA"",""assignmentId"":""0198ee70-ec85-7e5c-a107-5bdedbd289c4"",""projectId"":""0198ee3c-27ac-7803-a9ea-f3b4ad4ad678""}","https://test12345.live/?num_scrambled_semantic=8&num_scrambled_causal=4&num_scrambled_schematic=4&participantId=CF8240BC4830488DAE0D39F1D7A899CA&assignmentId=0198ee70-ec85-7e5c-a107-5bdedbd289c4&projectId=0198ee3c-27ac-7803-a9ea-f3b4ad4ad678","CF8240BC4830488DAE0D39F1D7A899CA-2025-08-28-02-58-19","","1204","","images/causal_sequence/museum_causal/museum_causal_4.png","1","",""
"","","","","","image-button-response","62","334210","0.0-12.0-1.0-2.1","CF8240BC4830488DAE0D39F1D7A899CA","CF8240BC4830488DAE0D39F1D7A899CA","0198ee70-ec85-7e5c-a107-5bdedbd289c4","0198ee3c-27ac-7803-a9ea-f3b4ad4ad678","{""num_scrambled_semantic"":""8"",""num_scrambled_causal"":""4"",""num_scrambled_schematic"":""4"",""participantId"":""CF8240BC4830488DAE0D39F1D7A899CA"",""assignmentId"":""0198ee70-ec85-7e5c-a107-5bdedbd289c4"",""projectId"":""0198ee3c-27ac-7803-a9ea-f3b4ad4ad678""}","https://test12345.live/?num_scrambled_semantic=8&num_scrambled_causal=4&num_scrambled_schematic=4&participantId=CF8240BC4830488DAE0D39F1D7A899CA&assignmentId=0198ee70-ec85-7e5c-a107-5bdedbd289c4&projectId=0198ee3c-27ac-7803-a9ea-f3b4ad4ad678","CF8240BC4830488DAE0D39F1D7A899CA-2025-08-28-02-58-19","","null","","[]","null","",""
"","","","","","image-button-response","63","338862","0.0-12.0-1.0-0.2","CF8240BC4830488DAE0D39F1D7A899CA","CF8240BC4830488DAE0D39F1D7A899CA","0198ee70-ec85-7e5c-a107-5bdedbd289c4","0198ee3c-27ac-7803-a9ea-f3b4ad4ad678","{""num_scrambled_semantic"":""8"",""num_scrambled_causal"":""4"",""num_scrambled_schematic"":""4"",""participantId"":""CF8240BC4830488DAE0D39F1D7A899CA"",""assignmentId"":""0198ee70-ec85-7e5c-a107-5bdedbd289c4"",""projectId"":""0198ee3c-27ac-7803-a9ea-f3b4ad4ad678""}","https://test12345.live/?num_scrambled_semantic=8&num_scrambled_causal=4&num_scrambled_schematic=4&participantId=CF8240BC4830488DAE0D39F1D7A899CA&assignmentId=0198ee70-ec85-7e5c-a107-5bdedbd289c4&projectId=0198ee3c-27ac-7803-a9ea-f3b4ad4ad678","CF8240BC4830488DAE0D39F1D7A899CA-2025-08-28-02-58-19","","null","","images/causal_sequence/museum_causal/museum_causal_8.png","null","",""
"","","","","","image-button-response","64","339796","0.0-12.0-1.0-1.2","CF8240BC4830488DAE0D39F1D7A899CA","CF8240BC4830488DAE0D39F1D7A899CA","0198ee70-ec85-7e5c-a107-5bdedbd289c4","0198ee3c-27ac-7803-a9ea-f3b4ad4ad678","{""num_scrambled_semantic"":""8"",""num_scrambled_causal"":""4"",""num_scrambled_schematic"":""4"",""participantId"":""CF8240BC4830488DAE0D39F1D7A899CA"",""assignmentId"":""0198ee70-ec85-7e5c-a107-5bdedbd289c4"",""projectId"":""0198ee3c-27ac-7803-a9ea-f3b4ad4ad678""}","https://test12345.live/?num_scrambled_semantic=8&num_scrambled_causal=4&num_scrambled_schematic=4&participantId=CF8240BC4830488DAE0D39F1D7A899CA&assignmentId=0198ee70-ec85-7e5c-a107-5bdedbd289c4&projectId=0198ee3c-27ac-7803-a9ea-f3b4ad4ad678","CF8240BC4830488DAE0D39F1D7A899CA-2025-08-28-02-58-19","","932","","images/causal_sequence/museum_causal/museum_causal_8.png","0","",""
"","","","","","image-button-response","65","341608","0.0-12.0-1.0-2.2","CF8240BC4830488DAE0D39F1D7A899CA","CF8240BC4830488DAE0D39F1D7A899CA","0198ee70-ec85-7e5c-a107-5bdedbd289c4","0198ee3c-27ac-7803-a9ea-f3b4ad4ad678","{""num_scrambled_semantic"":""8"",""num_scrambled_causal"":""4"",""num_scrambled_schematic"":""4"",""participantId"":""CF8240BC4830488DAE0D39F1D7A899CA"",""assignmentId"":""0198ee70-ec85-7e5c-a107-5bdedbd289c4"",""projectId"":""0198ee3c-27ac-7803-a9ea-f3b4ad4ad678""}","https://test12345.live/?num_scrambled_semantic=8&num_scrambled_causal=4&num_scrambled_schematic=4&participantId=CF8240BC4830488DAE0D39F1D7A899CA&assignmentId=0198ee70-ec85-7e5c-a107-5bdedbd289c4&projectId=0198ee3c-27ac-7803-a9ea-f3b4ad4ad678","CF8240BC4830488DAE0D39F1D7A899CA-2025-08-28-02-58-19","","null","","[]","null","",""
"","","","","","image-button-response","66","346629","0.0-12.0-1.0-0.3","CF8240BC4830488DAE0D39F1D7A899CA","CF8240BC4830488DAE0D39F1D7A899CA","0198ee70-ec85-7e5c-a107-5bdedbd289c4","0198ee3c-27ac-7803-a9ea-f3b4ad4ad678","{""num_scrambled_semantic"":""8"",""num_scrambled_causal"":""4"",""num_scrambled_schematic"":""4"",""participantId"":""CF8240BC4830488DAE0D39F1D7A899CA"",""assignmentId"":""0198ee70-ec85-7e5c-a107-5bdedbd289c4"",""projectId"":""0198ee3c-27ac-7803-a9ea-f3b4ad4ad678""}","https://test12345.live/?num_scrambled_semantic=8&num_scrambled_causal=4&num_scrambled_schematic=4&participantId=CF8240BC4830488DAE0D39F1D7A899CA&assignmentId=0198ee70-ec85-7e5c-a107-5bdedbd289c4&projectId=0198ee3c-27ac-7803-a9ea-f3b4ad4ad678","CF8240BC4830488DAE0D39F1D7A899CA-2025-08-28-02-58-19","","null","","images/causal_sequence/museum_causal/museum_causal_2.png","null","",""
"","","","","","image-button-response","67","347860","0.0-12.0-1.0-1.3","CF8240BC4830488DAE0D39F1D7A899CA","CF8240BC4830488DAE0D39F1D7A899CA","0198ee70-ec85-7e5c-a107-5bdedbd289c4","0198ee3c-27ac-7803-a9ea-f3b4ad4ad678","{""num_scrambled_semantic"":""8"",""num_scrambled_causal"":""4"",""num_scrambled_schematic"":""4"",""participantId"":""CF8240BC4830488DAE0D39F1D7A899CA"",""assignmentId"":""0198ee70-ec85-7e5c-a107-5bdedbd289c4"",""projectId"":""0198ee3c-27ac-7803-a9ea-f3b4ad4ad678""}","https://test12345.live/?num_scrambled_semantic=8&num_scrambled_causal=4&num_scrambled_schematic=4&participantId=CF8240BC4830488DAE0D39F1D7A899CA&assignmentId=0198ee70-ec85-7e5c-a107-5bdedbd289c4&projectId=0198ee3c-27ac-7803-a9ea-f3b4ad4ad678","CF8240BC4830488DAE0D39F1D7A899CA-2025-08-28-02-58-19","","1231","","images/causal_sequence/museum_causal/museum_causal_2.png","0","",""
"","","","","","image-button-response","68","349669","0.0-12.0-1.0-2.3","CF8240BC4830488DAE0D39F1D7A899CA","CF8240BC4830488DAE0D39F1D7A899CA","0198ee70-ec85-7e5c-a107-5bdedbd289c4","0198ee3c-27ac-7803-a9ea-f3b4ad4ad678","{""num_scrambled_semantic"":""8"",""num_scrambled_causal"":""4"",""num_scrambled_schematic"":""4"",""participantId"":""CF8240BC4830488DAE0D39F1D7A899CA"",""assignmentId"":""0198ee70-ec85-7e5c-a107-5bdedbd289c4"",""projectId"":""0198ee3c-27ac-7803-a9ea-f3b4ad4ad678""}","https://test12345.live/?num_scrambled_semantic=8&num_scrambled_causal=4&num_scrambled_schematic=4&participantId=CF8240BC4830488DAE0D39F1D7A899CA&assignmentId=0198ee70-ec85-7e5c-a107-5bdedbd289c4&projectId=0198ee3c-27ac-7803-a9ea-f3b4ad4ad678","CF8240BC4830488DAE0D39F1D7A899CA-2025-08-28-02-58-19","","null","","[]","null","",""
"","","","","","image-button-response","69","354198","0.0-12.0-1.0-0.4","CF8240BC4830488DAE0D39F1D7A899CA","CF8240BC4830488DAE0D39F1D7A899CA","0198ee70-ec85-7e5c-a107-5bdedbd289c4","0198ee3c-27ac-7803-a9ea-f3b4ad4ad678","{""num_scrambled_semantic"":""8"",""num_scrambled_causal"":""4"",""num_scrambled_schematic"":""4"",""participantId"":""CF8240BC4830488DAE0D39F1D7A899CA"",""assignmentId"":""0198ee70-ec85-7e5c-a107-5bdedbd289c4"",""projectId"":""0198ee3c-27ac-7803-a9ea-f3b4ad4ad678""}","https://test12345.live/?num_scrambled_semantic=8&num_scrambled_causal=4&num_scrambled_schematic=4&participantId=CF8240BC4830488DAE0D39F1D7A899CA&assignmentId=0198ee70-ec85-7e5c-a107-5bdedbd289c4&projectId=0198ee3c-27ac-7803-a9ea-f3b4ad4ad678","CF8240BC4830488DAE0D39F1D7A899CA-2025-08-28-02-58-19","","null","","images/causal_sequence/museum_causal/museum_causal_1.png","null","",""
"","","","","","image-button-response","70","355492","0.0-12.0-1.0-1.4","CF8240BC4830488DAE0D39F1D7A899CA","CF8240BC4830488DAE0D39F1D7A899CA","0198ee70-ec85-7e5c-a107-5bdedbd289c4","0198ee3c-27ac-7803-a9ea-f3b4ad4ad678","{""num_scrambled_semantic"":""8"",""num_scrambled_causal"":""4"",""num_scrambled_schematic"":""4"",""participantId"":""CF8240BC4830488DAE0D39F1D7A899CA"",""assignmentId"":""0198ee70-ec85-7e5c-a107-5bdedbd289c4"",""projectId"":""0198ee3c-27ac-7803-a9ea-f3b4ad4ad678""}","https://test12345.live/?num_scrambled_semantic=8&num_scrambled_causal=4&num_scrambled_schematic=4&participantId=CF8240BC4830488DAE0D39F1D7A899CA&assignmentId=0198ee70-ec85-7e5c-a107-5bdedbd289c4&projectId=0198ee3c-27ac-7803-a9ea-f3b4ad4ad678","CF8240BC4830488DAE0D39F1D7A899CA-2025-08-28-02-58-19","","1292","","images/causal_sequence/museum_causal/museum_causal_1.png","0","",""
"","","","","","image-button-response","71","357299","0.0-12.0-1.0-2.4","CF8240BC4830488DAE0D39F1D7A899CA","CF8240BC4830488DAE0D39F1D7A899CA","0198ee70-ec85-7e5c-a107-5bdedbd289c4","0198ee3c-27ac-7803-a9ea-f3b4ad4ad678","{""num_scrambled_semantic"":""8"",""num_scrambled_causal"":""4"",""num_scrambled_schematic"":""4"",""participantId"":""CF8240BC4830488DAE0D39F1D7A899CA"",""assignmentId"":""0198ee70-ec85-7e5c-a107-5bdedbd289c4"",""projectId"":""0198ee3c-27ac-7803-a9ea-f3b4ad4ad678""}","https://test12345.live/?num_scrambled_semantic=8&num_scrambled_causal=4&num_scrambled_schematic=4&participantId=CF8240BC4830488DAE0D39F1D7A899CA&assignmentId=0198ee70-ec85-7e5c-a107-5bdedbd289c4&projectId=0198ee3c-27ac-7803-a9ea-f3b4ad4ad678","CF8240BC4830488DAE0D39F1D7A899CA-2025-08-28-02-58-19","","null","","[]","null","",""
"","","","","","image-button-response","72","362153","0.0-12.0-1.0-0.5","CF8240BC4830488DAE0D39F1D7A899CA","CF8240BC4830488DAE0D39F1D7A899CA","0198ee70-ec85-7e5c-a107-5bdedbd289c4","0198ee3c-27ac-7803-a9ea-f3b4ad4ad678","{""num_scrambled_semantic"":""8"",""num_scrambled_causal"":""4"",""num_scrambled_schematic"":""4"",""participantId"":""CF8240BC4830488DAE0D39F1D7A899CA"",""assignmentId"":""0198ee70-ec85-7e5c-a107-5bdedbd289c4"",""projectId"":""0198ee3c-27ac-7803-a9ea-f3b4ad4ad678""}","https://test12345.live/?num_scrambled_semantic=8&num_scrambled_causal=4&num_scrambled_schematic=4&participantId=CF8240BC4830488DAE0D39F1D7A899CA&assignmentId=0198ee70-ec85-7e5c-a107-5bdedbd289c4&projectId=0198ee3c-27ac-7803-a9ea-f3b4ad4ad678","CF8240BC4830488DAE0D39F1D7A899CA-2025-08-28-02-58-19","","null","","images/causal_sequence/museum_causal/museum_causal_5.png","null","",""
"","","","","","image-button-response","73","362740","0.0-12.0-1.0-1.5","CF8240BC4830488DAE0D39F1D7A899CA","CF8240BC4830488DAE0D39F1D7A899CA","0198ee70-ec85-7e5c-a107-5bdedbd289c4","0198ee3c-27ac-7803-a9ea-f3b4ad4ad678","{""num_scrambled_semantic"":""8"",""num_scrambled_causal"":""4"",""num_scrambled_schematic"":""4"",""participantId"":""CF8240BC4830488DAE0D39F1D7A899CA"",""assignmentId"":""0198ee70-ec85-7e5c-a107-5bdedbd289c4"",""projectId"":""0198ee3c-27ac-7803-a9ea-f3b4ad4ad678""}","https://test12345.live/?num_scrambled_semantic=8&num_scrambled_causal=4&num_scrambled_schematic=4&participantId=CF8240BC4830488DAE0D39F1D7A899CA&assignmentId=0198ee70-ec85-7e5c-a107-5bdedbd289c4&projectId=0198ee3c-27ac-7803-a9ea-f3b4ad4ad678","CF8240BC4830488DAE0D39F1D7A899CA-2025-08-28-02-58-19","","586","","images/causal_sequence/museum_causal/museum_causal_5.png","0","",""
"","","","","","image-button-response","74","364745","0.0-12.0-1.0-2.5","CF8240BC4830488DAE0D39F1D7A899CA","CF8240BC4830488DAE0D39F1D7A899CA","0198ee70-ec85-7e5c-a107-5bdedbd289c4","0198ee3c-27ac-7803-a9ea-f3b4ad4ad678","{""num_scrambled_semantic"":""8"",""num_scrambled_causal"":""4"",""num_scrambled_schematic"":""4"",""participantId"":""CF8240BC4830488DAE0D39F1D7A899CA"",""assignmentId"":""0198ee70-ec85-7e5c-a107-5bdedbd289c4"",""projectId"":""0198ee3c-27ac-7803-a9ea-f3b4ad4ad678""}","https://test12345.live/?num_scrambled_semantic=8&num_scrambled_causal=4&num_scrambled_schematic=4&participantId=CF8240BC4830488DAE0D39F1D7A899CA&assignmentId=0198ee70-ec85-7e5c-a107-5bdedbd289c4&projectId=0198ee3c-27ac-7803-a9ea-f3b4ad4ad678","CF8240BC4830488DAE0D39F1D7A899CA-2025-08-28-02-58-19","","null","","[]","null","",""
"","","","","","image-button-response","75","369259","0.0-12.0-1.0-0.6","CF8240BC4830488DAE0D39F1D7A899CA","CF8240BC4830488DAE0D39F1D7A899CA","0198ee70-ec85-7e5c-a107-5bdedbd289c4","0198ee3c-27ac-7803-a9ea-f3b4ad4ad678","{""num_scrambled_semantic"":""8"",""num_scrambled_causal"":""4"",""num_scrambled_schematic"":""4"",""participantId"":""CF8240BC4830488DAE0D39F1D7A899CA"",""assignmentId"":""0198ee70-ec85-7e5c-a107-5bdedbd289c4"",""projectId"":""0198ee3c-27ac-7803-a9ea-f3b4ad4ad678""}","https://test12345.live/?num_scrambled_semantic=8&num_scrambled_causal=4&num_scrambled_schematic=4&participantId=CF8240BC4830488DAE0D39F1D7A899CA&assignmentId=0198ee70-ec85-7e5c-a107-5bdedbd289c4&projectId=0198ee3c-27ac-7803-a9ea-f3b4ad4ad678","CF8240BC4830488DAE0D39F1D7A899CA-2025-08-28-02-58-19","","null","","images/causal_sequence/museum_causal/museum_causal_ten.png","null","",""
"","","","","","image-button-response","76","370516","0.0-12.0-1.0-1.6","CF8240BC4830488DAE0D39F1D7A899CA","CF8240BC4830488DAE0D39F1D7A899CA","0198ee70-ec85-7e5c-a107-5bdedbd289c4","0198ee3c-27ac-7803-a9ea-f3b4ad4ad678","{""num_scrambled_semantic"":""8"",""num_scrambled_causal"":""4"",""num_scrambled_schematic"":""4"",""participantId"":""CF8240BC4830488DAE0D39F1D7A899CA"",""assignmentId"":""0198ee70-ec85-7e5c-a107-5bdedbd289c4"",""projectId"":""0198ee3c-27ac-7803-a9ea-f3b4ad4ad678""}","https://test12345.live/?num_scrambled_semantic=8&num_scrambled_causal=4&num_scrambled_schematic=4&participantId=CF8240BC4830488DAE0D39F1D7A899CA&assignmentId=0198ee70-ec85-7e5c-a107-5bdedbd289c4&projectId=0198ee3c-27ac-7803-a9ea-f3b4ad4ad678","CF8240BC4830488DAE0D39F1D7A899CA-2025-08-28-02-58-19","","1255","","images/causal_sequence/museum_causal/museum_causal_ten.png","0","",""
"","","","","","image-button-response","77","372317","0.0-12.0-1.0-2.6","CF8240BC4830488DAE0D39F1D7A899CA","CF8240BC4830488DAE0D39F1D7A899CA","0198ee70-ec85-7e5c-a107-5bdedbd289c4","0198ee3c-27ac-7803-a9ea-f3b4ad4ad678","{""num_scrambled_semantic"":""8"",""num_scrambled_causal"":""4"",""num_scrambled_schematic"":""4"",""participantId"":""CF8240BC4830488DAE0D39F1D7A899CA"",""assignmentId"":""0198ee70-ec85-7e5c-a107-5bdedbd289c4"",""projectId"":""0198ee3c-27ac-7803-a9ea-f3b4ad4ad678""}","https://test12345.live/?num_scrambled_semantic=8&num_scrambled_causal=4&num_scrambled_schematic=4&participantId=CF8240BC4830488DAE0D39F1D7A899CA&assignmentId=0198ee70-ec85-7e5c-a107-5bdedbd289c4&projectId=0198ee3c-27ac-7803-a9ea-f3b4ad4ad678","CF8240BC4830488DAE0D39F1D7A899CA-2025-08-28-02-58-19","","null","","[]","null","",""
"","","","","","image-button-response","78","376852","0.0-12.0-1.0-0.7","CF8240BC4830488DAE0D39F1D7A899CA","CF8240BC4830488DAE0D39F1D7A899CA","0198ee70-ec85-7e5c-a107-5bdedbd289c4","0198ee3c-27ac-7803-a9ea-f3b4ad4ad678","{""num_scrambled_semantic"":""8"",""num_scrambled_causal"":""4"",""num_scrambled_schematic"":""4"",""participantId"":""CF8240BC4830488DAE0D39F1D7A899CA"",""assignmentId"":""0198ee70-ec85-7e5c-a107-5bdedbd289c4"",""projectId"":""0198ee3c-27ac-7803-a9ea-f3b4ad4ad678""}","https://test12345.live/?num_scrambled_semantic=8&num_scrambled_causal=4&num_scrambled_schematic=4&participantId=CF8240BC4830488DAE0D39F1D7A899CA&assignmentId=0198ee70-ec85-7e5c-a107-5bdedbd289c4&projectId=0198ee3c-27ac-7803-a9ea-f3b4ad4ad678","CF8240BC4830488DAE0D39F1D7A899CA-2025-08-28-02-58-19","","null","","images/causal_sequence/museum_causal/museum_causal_9.png","null","",""
"","","","","","image-button-response","79","377411","0.0-12.0-1.0-1.7","CF8240BC4830488DAE0D39F1D7A899CA","CF8240BC4830488DAE0D39F1D7A899CA","0198ee70-ec85-7e5c-a107-5bdedbd289c4","0198ee3c-27ac-7803-a9ea-f3b4ad4ad678","{""num_scrambled_semantic"":""8"",""num_scrambled_causal"":""4"",""num_scrambled_schematic"":""4"",""participantId"":""CF8240BC4830488DAE0D39F1D7A899CA"",""assignmentId"":""0198ee70-ec85-7e5c-a107-5bdedbd289c4"",""projectId"":""0198ee3c-27ac-7803-a9ea-f3b4ad4ad678""}","https://test12345.live/?num_scrambled_semantic=8&num_scrambled_causal=4&num_scrambled_schematic=4&participantId=CF8240BC4830488DAE0D39F1D7A899CA&assignmentId=0198ee70-ec85-7e5c-a107-5bdedbd289c4&projectId=0198ee3c-27ac-7803-a9ea-f3b4ad4ad678","CF8240BC4830488DAE0D39F1D7A899CA-2025-08-28-02-58-19","","559","","images/causal_sequence/museum_causal/museum_causal_9.png","1","",""
"","","","","","image-button-response","80","379415","0.0-12.0-1.0-2.7","CF8240BC4830488DAE0D39F1D7A899CA","CF8240BC4830488DAE0D39F1D7A899CA","0198ee70-ec85-7e5c-a107-5bdedbd289c4","0198ee3c-27ac-7803-a9ea-f3b4ad4ad678","{""num_scrambled_semantic"":""8"",""num_scrambled_causal"":""4"",""num_scrambled_schematic"":""4"",""participantId"":""CF8240BC4830488DAE0D39F1D7A899CA"",""assignmentId"":""0198ee70-ec85-7e5c-a107-5bdedbd289c4"",""projectId"":""0198ee3c-27ac-7803-a9ea-f3b4ad4ad678""}","https://test12345.live/?num_scrambled_semantic=8&num_scrambled_causal=4&num_scrambled_schematic=4&participantId=CF8240BC4830488DAE0D39F1D7A899CA&assignmentId=0198ee70-ec85-7e5c-a107-5bdedbd289c4&projectId=0198ee3c-27ac-7803-a9ea-f3b4ad4ad678","CF8240BC4830488DAE0D39F1D7A899CA-2025-08-28-02-58-19","","null","","[]","null","",""
"","","","","","image-button-response","81","384351","0.0-12.0-1.0-0.8","CF8240BC4830488DAE0D39F1D7A899CA","CF8240BC4830488DAE0D39F1D7A899CA","0198ee70-ec85-7e5c-a107-5bdedbd289c4","0198ee3c-27ac-7803-a9ea-f3b4ad4ad678","{""num_scrambled_semantic"":""8"",""num_scrambled_causal"":""4"",""num_scrambled_schematic"":""4"",""participantId"":""CF8240BC4830488DAE0D39F1D7A899CA"",""assignmentId"":""0198ee70-ec85-7e5c-a107-5bdedbd289c4"",""projectId"":""0198ee3c-27ac-7803-a9ea-f3b4ad4ad678""}","https://test12345.live/?num_scrambled_semantic=8&num_scrambled_causal=4&num_scrambled_schematic=4&participantId=CF8240BC4830488DAE0D39F1D7A899CA&assignmentId=0198ee70-ec85-7e5c-a107-5bdedbd289c4&projectId=0198ee3c-27ac-7803-a9ea-f3b4ad4ad678","CF8240BC4830488DAE0D39F1D7A899CA-2025-08-28-02-58-19","","null","","images/causal_sequence/museum_causal/museum_causal_3.png","null","",""
"","","","","","image-button-response","82","385748","0.0-12.0-1.0-1.8","CF8240BC4830488DAE0D39F1D7A899CA","CF8240BC4830488DAE0D39F1D7A899CA","0198ee70-ec85-7e5c-a107-5bdedbd289c4","0198ee3c-27ac-7803-a9ea-f3b4ad4ad678","{""num_scrambled_semantic"":""8"",""num_scrambled_causal"":""4"",""num_scrambled_schematic"":""4"",""participantId"":""CF8240BC4830488DAE0D39F1D7A899CA"",""assignmentId"":""0198ee70-ec85-7e5c-a107-5bdedbd289c4"",""projectId"":""0198ee3c-27ac-7803-a9ea-f3b4ad4ad678""}","https://test12345.live/?num_scrambled_semantic=8&num_scrambled_causal=4&num_scrambled_schematic=4&participantId=CF8240BC4830488DAE0D39F1D7A899CA&assignmentId=0198ee70-ec85-7e5c-a107-5bdedbd289c4&projectId=0198ee3c-27ac-7803-a9ea-f3b4ad4ad678","CF8240BC4830488DAE0D39F1D7A899CA-2025-08-28-02-58-19","","1396","","images/causal_sequence/museum_causal/museum_causal_3.png","0","",""
"","","","","","image-button-response","83","387563","0.0-12.0-1.0-2.8","CF8240BC4830488DAE0D39F1D7A899CA","CF8240BC4830488DAE0D39F1D7A899CA","0198ee70-ec85-7e5c-a107-5bdedbd289c4","0198ee3c-27ac-7803-a9ea-f3b4ad4ad678","{""num_scrambled_semantic"":""8"",""num_scrambled_causal"":""4"",""num_scrambled_schematic"":""4"",""participantId"":""CF8240BC4830488DAE0D39F1D7A899CA"",""assignmentId"":""0198ee70-ec85-7e5c-a107-5bdedbd289c4"",""projectId"":""0198ee3c-27ac-7803-a9ea-f3b4ad4ad678""}","https://test12345.live/?num_scrambled_semantic=8&num_scrambled_causal=4&num_scrambled_schematic=4&participantId=CF8240BC4830488DAE0D39F1D7A899CA&assignmentId=0198ee70-ec85-7e5c-a107-5bdedbd289c4&projectId=0198ee3c-27ac-7803-a9ea-f3b4ad4ad678","CF8240BC4830488DAE0D39F1D7A899CA-2025-08-28-02-58-19","","null","","[]","null","",""
"","","","","","image-button-response","84","392471","0.0-12.0-1.0-0.9","CF8240BC4830488DAE0D39F1D7A899CA","CF8240BC4830488DAE0D39F1D7A899CA","0198ee70-ec85-7e5c-a107-5bdedbd289c4","0198ee3c-27ac-7803-a9ea-f3b4ad4ad678","{""num_scrambled_semantic"":""8"",""num_scrambled_causal"":""4"",""num_scrambled_schematic"":""4"",""participantId"":""CF8240BC4830488DAE0D39F1D7A899CA"",""assignmentId"":""0198ee70-ec85-7e5c-a107-5bdedbd289c4"",""projectId"":""0198ee3c-27ac-7803-a9ea-f3b4ad4ad678""}","https://test12345.live/?num_scrambled_semantic=8&num_scrambled_causal=4&num_scrambled_schematic=4&participantId=CF8240BC4830488DAE0D39F1D7A899CA&assignmentId=0198ee70-ec85-7e5c-a107-5bdedbd289c4&projectId=0198ee3c-27ac-7803-a9ea-f3b4ad4ad678","CF8240BC4830488DAE0D39F1D7A899CA-2025-08-28-02-58-19","","null","","images/causal_sequence/museum_causal/museum_causal_6.png","null","",""
"","","","","","image-button-response","85","393252","0.0-12.0-1.0-1.9","CF8240BC4830488DAE0D39F1D7A899CA","CF8240BC4830488DAE0D39F1D7A899CA","0198ee70-ec85-7e5c-a107-5bdedbd289c4","0198ee3c-27ac-7803-a9ea-f3b4ad4ad678","{""num_scrambled_semantic"":""8"",""num_scrambled_causal"":""4"",""num_scrambled_schematic"":""4"",""participantId"":""CF8240BC4830488DAE0D39F1D7A899CA"",""assignmentId"":""0198ee70-ec85-7e5c-a107-5bdedbd289c4"",""projectId"":""0198ee3c-27ac-7803-a9ea-f3b4ad4ad678""}","https://test12345.live/?num_scrambled_semantic=8&num_scrambled_causal=4&num_scrambled_schematic=4&participantId=CF8240BC4830488DAE0D39F1D7A899CA&assignmentId=0198ee70-ec85-7e5c-a107-5bdedbd289c4&projectId=0198ee3c-27ac-7803-a9ea-f3b4ad4ad678","CF8240BC4830488DAE0D39F1D7A899CA-2025-08-28-02-58-19","","780","","images/causal_sequence/museum_causal/museum_causal_6.png","0","",""
"","","","","","image-button-response","86","395110","0.0-12.0-1.0-2.9","CF8240BC4830488DAE0D39F1D7A899CA","CF8240BC4830488DAE0D39F1D7A899CA","0198ee70-ec85-7e5c-a107-5bdedbd289c4","0198ee3c-27ac-7803-a9ea-f3b4ad4ad678","{""num_scrambled_semantic"":""8"",""num_scrambled_causal"":""4"",""num_scrambled_schematic"":""4"",""participantId"":""CF8240BC4830488DAE0D39F1D7A899CA"",""assignmentId"":""0198ee70-ec85-7e5c-a107-5bdedbd289c4"",""projectId"":""0198ee3c-27ac-7803-a9ea-f3b4ad4ad678""}","https://test12345.live/?num_scrambled_semantic=8&num_scrambled_causal=4&num_scrambled_schematic=4&participantId=CF8240BC4830488DAE0D39F1D7A899CA&assignmentId=0198ee70-ec85-7e5c-a107-5bdedbd289c4&projectId=0198ee3c-27ac-7803-a9ea-f3b4ad4ad678","CF8240BC4830488DAE0D39F1D7A899CA-2025-08-28-02-58-19","","null","","[]","null","",""
"","","","","","html-audio-response","87","414012","0.0-13.0","CF8240BC4830488DAE0D39F1D7A899CA","CF8240BC4830488DAE0D39F1D7A899CA","0198ee70-ec85-7e5c-a107-5bdedbd289c4","0198ee3c-27ac-7803-a9ea-f3b4ad4ad678","{""num_scrambled_semantic"":""8"",""num_scrambled_causal"":""4"",""num_scrambled_schematic"":""4"",""participantId"":""CF8240BC4830488DAE0D39F1D7A899CA"",""assignmentId"":""0198ee70-ec85-7e5c-a107-5bdedbd289c4"",""projectId"":""0198ee3c-27ac-7803-a9ea-f3b4ad4ad678""}","https://test12345.live/?num_scrambled_semantic=8&num_scrambled_causal=4&num_scrambled_schematic=4&participantId=CF8240BC4830488DAE0D39F1D7A899CA&assignmentId=0198ee70-ec85-7e5c-a107-5bdedbd289c4&projectId=0198ee3c-27ac-7803-a9ea-f3b4ad4ad678","CF8240BC4830488DAE0D39F1D7A899CA-2025-08-28-02-58-19","","17712","","[""<span style=\""color: red; font-size: 24px\""> NOW RECORDING</span><p>Please say out loud all the images you saw, in the order of the story they create. Try to recall the sequence of events as they appeared in the story, not necessarily the order they were presented on the screen.</p>""]","","0","museum_causal"
"","","","","","image-button-response","88","420382","0.0-14.0-0.0","CF8240BC4830488DAE0D39F1D7A899CA","CF8240BC4830488DAE0D39F1D7A899CA","0198ee70-ec85-7e5c-a107-5bdedbd289c4","0198ee3c-27ac-7803-a9ea-f3b4ad4ad678","{""num_scrambled_semantic"":""8"",""num_scrambled_causal"":""4"",""num_scrambled_schematic"":""4"",""participantId"":""CF8240BC4830488DAE0D39F1D7A899CA"",""assignmentId"":""0198ee70-ec85-7e5c-a107-5bdedbd289c4"",""projectId"":""0198ee3c-27ac-7803-a9ea-f3b4ad4ad678""}","https://test12345.live/?num_scrambled_semantic=8&num_scrambled_causal=4&num_scrambled_schematic=4&participantId=CF8240BC4830488DAE0D39F1D7A899CA&assignmentId=0198ee70-ec85-7e5c-a107-5bdedbd289c4&projectId=0198ee3c-27ac-7803-a9ea-f3b4ad4ad678","CF8240BC4830488DAE0D39F1D7A899CA-2025-08-28-02-58-19","","null","","images/semantic_sequence/housework_semantic/housework_semantic_0.png","null","",""
"","","","","","image-button-response","89","425037","0.0-14.0-1.0-0.0","CF8240BC4830488DAE0D39F1D7A899CA","CF8240BC4830488DAE0D39F1D7A899CA","0198ee70-ec85-7e5c-a107-5bdedbd289c4","0198ee3c-27ac-7803-a9ea-f3b4ad4ad678","{""num_scrambled_semantic"":""8"",""num_scrambled_causal"":""4"",""num_scrambled_schematic"":""4"",""participantId"":""CF8240BC4830488DAE0D39F1D7A899CA"",""assignmentId"":""0198ee70-ec85-7e5c-a107-5bdedbd289c4"",""projectId"":""0198ee3c-27ac-7803-a9ea-f3b4ad4ad678""}","https://test12345.live/?num_scrambled_semantic=8&num_scrambled_causal=4&num_scrambled_schematic=4&participantId=CF8240BC4830488DAE0D39F1D7A899CA&assignmentId=0198ee70-ec85-7e5c-a107-5bdedbd289c4&projectId=0198ee3c-27ac-7803-a9ea-f3b4ad4ad678","CF8240BC4830488DAE0D39F1D7A899CA-2025-08-28-02-58-19","","null","","images/semantic_sequence/housework_semantic/housework_semantic_3.png","null","",""
"","","","","","image-button-response","90","426707","0.0-14.0-1.0-1.0","CF8240BC4830488DAE0D39F1D7A899CA","CF8240BC4830488DAE0D39F1D7A899CA","0198ee70-ec85-7e5c-a107-5bdedbd289c4","0198ee3c-27ac-7803-a9ea-f3b4ad4ad678","{""num_scrambled_semantic"":""8"",""num_scrambled_causal"":""4"",""num_scrambled_schematic"":""4"",""participantId"":""CF8240BC4830488DAE0D39F1D7A899CA"",""assignmentId"":""0198ee70-ec85-7e5c-a107-5bdedbd289c4"",""projectId"":""0198ee3c-27ac-7803-a9ea-f3b4ad4ad678""}","https://test12345.live/?num_scrambled_semantic=8&num_scrambled_causal=4&num_scrambled_schematic=4&participantId=CF8240BC4830488DAE0D39F1D7A899CA&assignmentId=0198ee70-ec85-7e5c-a107-5bdedbd289c4&projectId=0198ee3c-27ac-7803-a9ea-f3b4ad4ad678","CF8240BC4830488DAE0D39F1D7A899CA-2025-08-28-02-58-19","","1671","","images/semantic_sequence/housework_semantic/housework_semantic_3.png","0","",""
"","","","","","image-button-response","91","428726","0.0-14.0-1.0-2.0","CF8240BC4830488DAE0D39F1D7A899CA","CF8240BC4830488DAE0D39F1D7A899CA","0198ee70-ec85-7e5c-a107-5bdedbd289c4","0198ee3c-27ac-7803-a9ea-f3b4ad4ad678","{""num_scrambled_semantic"":""8"",""num_scrambled_causal"":""4"",""num_scrambled_schematic"":""4"",""participantId"":""CF8240BC4830488DAE0D39F1D7A899CA"",""assignmentId"":""0198ee70-ec85-7e5c-a107-5bdedbd289c4"",""projectId"":""0198ee3c-27ac-7803-a9ea-f3b4ad4ad678""}","https://test12345.live/?num_scrambled_semantic=8&num_scrambled_causal=4&num_scrambled_schematic=4&participantId=CF8240BC4830488DAE0D39F1D7A899CA&assignmentId=0198ee70-ec85-7e5c-a107-5bdedbd289c4&projectId=0198ee3c-27ac-7803-a9ea-f3b4ad4ad678","CF8240BC4830488DAE0D39F1D7A899CA-2025-08-28-02-58-19","","null","","[]","null","",""
"","","","","","image-button-response","92","433250","0.0-14.0-1.0-0.1","CF8240BC4830488DAE0D39F1D7A899CA","CF8240BC4830488DAE0D39F1D7A899CA","0198ee70-ec85-7e5c-a107-5bdedbd289c4","0198ee3c-27ac-7803-a9ea-f3b4ad4ad678","{""num_scrambled_semantic"":""8"",""num_scrambled_causal"":""4"",""num_scrambled_schematic"":""4"",""participantId"":""CF8240BC4830488DAE0D39F1D7A899CA"",""assignmentId"":""0198ee70-ec85-7e5c-a107-5bdedbd289c4"",""projectId"":""0198ee3c-27ac-7803-a9ea-f3b4ad4ad678""}","https://test12345.live/?num_scrambled_semantic=8&num_scrambled_causal=4&num_scrambled_schematic=4&participantId=CF8240BC4830488DAE0D39F1D7A899CA&assignmentId=0198ee70-ec85-7e5c-a107-5bdedbd289c4&projectId=0198ee3c-27ac-7803-a9ea-f3b4ad4ad678","CF8240BC4830488DAE0D39F1D7A899CA-2025-08-28-02-58-19","","null","","images/semantic_sequence/housework_semantic/housework_semantic_1.png","null","",""
"","","","","","image-button-response","93","434771","0.0-14.0-1.0-1.1","CF8240BC4830488DAE0D39F1D7A899CA","CF8240BC4830488DAE0D39F1D7A899CA","0198ee70-ec85-7e5c-a107-5bdedbd289c4","0198ee3c-27ac-7803-a9ea-f3b4ad4ad678","{""num_scrambled_semantic"":""8"",""num_scrambled_causal"":""4"",""num_scrambled_schematic"":""4"",""participantId"":""CF8240BC4830488DAE0D39F1D7A899CA"",""assignmentId"":""0198ee70-ec85-7e5c-a107-5bdedbd289c4"",""projectId"":""0198ee3c-27ac-7803-a9ea-f3b4ad4ad678""}","https://test12345.live/?num_scrambled_semantic=8&num_scrambled_causal=4&num_scrambled_schematic=4&participantId=CF8240BC4830488DAE0D39F1D7A899CA&assignmentId=0198ee70-ec85-7e5c-a107-5bdedbd289c4&projectId=0198ee3c-27ac-7803-a9ea-f3b4ad4ad678","CF8240BC4830488DAE0D39F1D7A899CA-2025-08-28-02-58-19","","1521","","images/semantic_sequence/housework_semantic/housework_semantic_1.png","0","",""
"","","","","","image-button-response","94","436790","0.0-14.0-1.0-2.1","CF8240BC4830488DAE0D39F1D7A899CA","CF8240BC4830488DAE0D39F1D7A899CA","0198ee70-ec85-7e5c-a107-5bdedbd289c4","0198ee3c-27ac-7803-a9ea-f3b4ad4ad678","{""num_scrambled_semantic"":""8"",""num_scrambled_causal"":""4"",""num_scrambled_schematic"":""4"",""participantId"":""CF8240BC4830488DAE0D39F1D7A899CA"",""assignmentId"":""0198ee70-ec85-7e5c-a107-5bdedbd289c4"",""projectId"":""0198ee3c-27ac-7803-a9ea-f3b4ad4ad678""}","https://test12345.live/?num_scrambled_semantic=8&num_scrambled_causal=4&num_scrambled_schematic=4&participantId=CF8240BC4830488DAE0D39F1D7A899CA&assignmentId=0198ee70-ec85-7e5c-a107-5bdedbd289c4&projectId=0198ee3c-27ac-7803-a9ea-f3b4ad4ad678","CF8240BC4830488DAE0D39F1D7A899CA-2025-08-28-02-58-19","","null","","[]","null","",""
"","","","","","image-button-response","95","441311","0.0-14.0-1.0-0.2","CF8240BC4830488DAE0D39F1D7A899CA","CF8240BC4830488DAE0D39F1D7A899CA","0198ee70-ec85-7e5c-a107-5bdedbd289c4","0198ee3c-27ac-7803-a9ea-f3b4ad4ad678","{""num_scrambled_semantic"":""8"",""num_scrambled_causal"":""4"",""num_scrambled_schematic"":""4"",""participantId"":""CF8240BC4830488DAE0D39F1D7A899CA"",""assignmentId"":""0198ee70-ec85-7e5c-a107-5bdedbd289c4"",""projectId"":""0198ee3c-27ac-7803-a9ea-f3b4ad4ad678""}","https://test12345.live/?num_scrambled_semantic=8&num_scrambled_causal=4&num_scrambled_schematic=4&participantId=CF8240BC4830488DAE0D39F1D7A899CA&assignmentId=0198ee70-ec85-7e5c-a107-5bdedbd289c4&projectId=0198ee3c-27ac-7803-a9ea-f3b4ad4ad678","CF8240BC4830488DAE0D39F1D7A899CA-2025-08-28-02-58-19","","null","","images/semantic_sequence/housework_semantic/housework_semantic_7.png","null","",""
"","","","","","image-button-response","96","443236","0.0-14.0-1.0-1.2","CF8240BC4830488DAE0D39F1D7A899CA","CF8240BC4830488DAE0D39F1D7A899CA","0198ee70-ec85-7e5c-a107-5bdedbd289c4","0198ee3c-27ac-7803-a9ea-f3b4ad4ad678","{""num_scrambled_semantic"":""8"",""num_scrambled_causal"":""4"",""num_scrambled_schematic"":""4"",""participantId"":""CF8240BC4830488DAE0D39F1D7A899CA"",""assignmentId"":""0198ee70-ec85-7e5c-a107-5bdedbd289c4"",""projectId"":""0198ee3c-27ac-7803-a9ea-f3b4ad4ad678""}","https://test12345.live/?num_scrambled_semantic=8&num_scrambled_causal=4&num_scrambled_schematic=4&participantId=CF8240BC4830488DAE0D39F1D7A899CA&assignmentId=0198ee70-ec85-7e5c-a107-5bdedbd289c4&projectId=0198ee3c-27ac-7803-a9ea-f3b4ad4ad678","CF8240BC4830488DAE0D39F1D7A899CA-2025-08-28-02-58-19","","1924","","images/semantic_sequence/housework_semantic/housework_semantic_7.png","0","",""
"","","","","","image-button-response","97","445240","0.0-14.0-1.0-2.2","CF8240BC4830488DAE0D39F1D7A899CA","CF8240BC4830488DAE0D39F1D7A899CA","0198ee70-ec85-7e5c-a107-5bdedbd289c4","0198ee3c-27ac-7803-a9ea-f3b4ad4ad678","{""num_scrambled_semantic"":""8"",""num_scrambled_causal"":""4"",""num_scrambled_schematic"":""4"",""participantId"":""CF8240BC4830488DAE0D39F1D7A899CA"",""assignmentId"":""0198ee70-ec85-7e5c-a107-5bdedbd289c4"",""projectId"":""0198ee3c-27ac-7803-a9ea-f3b4ad4ad678""}","https://test12345.live/?num_scrambled_semantic=8&num_scrambled_causal=4&num_scrambled_schematic=4&participantId=CF8240BC4830488DAE0D39F1D7A899CA&assignmentId=0198ee70-ec85-7e5c-a107-5bdedbd289c4&projectId=0198ee3c-27ac-7803-a9ea-f3b4ad4ad678","CF8240BC4830488DAE0D39F1D7A899CA-2025-08-28-02-58-19","","null","","[]","null","",""
"","","","","","image-button-response","98","449765","0.0-14.0-1.0-0.3","CF8240BC4830488DAE0D39F1D7A899CA","CF8240BC4830488DAE0D39F1D7A899CA","0198ee70-ec85-7e5c-a107-5bdedbd289c4","0198ee3c-27ac-7803-a9ea-f3b4ad4ad678","{""num_scrambled_semantic"":""8"",""num_scrambled_causal"":""4"",""num_scrambled_schematic"":""4"",""participantId"":""CF8240BC4830488DAE0D39F1D7A899CA"",""assignmentId"":""0198ee70-ec85-7e5c-a107-5bdedbd289c4"",""projectId"":""0198ee3c-27ac-7803-a9ea-f3b4ad4ad678""}","https://test12345.live/?num_scrambled_semantic=8&num_scrambled_causal=4&num_scrambled_schematic=4&participantId=CF8240BC4830488DAE0D39F1D7A899CA&assignmentId=0198ee70-ec85-7e5c-a107-5bdedbd289c4&projectId=0198ee3c-27ac-7803-a9ea-f3b4ad4ad678","CF8240BC4830488DAE0D39F1D7A899CA-2025-08-28-02-58-19","","null","","images/semantic_sequence/housework_semantic/housework_semantic_9.png","null","",""
"","","","","","image-button-response","99","450539","0.0-14.0-1.0-1.3","CF8240BC4830488DAE0D39F1D7A899CA","CF8240BC4830488DAE0D39F1D7A899CA","0198ee70-ec85-7e5c-a107-5bdedbd289c4","0198ee3c-27ac-7803-a9ea-f3b4ad4ad678","{""num_scrambled_semantic"":""8"",""num_scrambled_causal"":""4"",""num_scrambled_schematic"":""4"",""participantId"":""CF8240BC4830488DAE0D39F1D7A899CA"",""assignmentId"":""0198ee70-ec85-7e5c-a107-5bdedbd289c4"",""projectId"":""0198ee3c-27ac-7803-a9ea-f3b4ad4ad678""}","https://test12345.live/?num_scrambled_semantic=8&num_scrambled_causal=4&num_scrambled_schematic=4&participantId=CF8240BC4830488DAE0D39F1D7A899CA&assignmentId=0198ee70-ec85-7e5c-a107-5bdedbd289c4&projectId=0198ee3c-27ac-7803-a9ea-f3b4ad4ad678","CF8240BC4830488DAE0D39F1D7A899CA-2025-08-28-02-58-19","","773","","images/semantic_sequence/housework_semantic/housework_semantic_9.png","0","",""
"","","","","","image-button-response","100","452550","0.0-14.0-1.0-2.3","CF8240BC4830488DAE0D39F1D7A899CA","CF8240BC4830488DAE0D39F1D7A899CA","0198ee70-ec85-7e5c-a107-5bdedbd289c4","0198ee3c-27ac-7803-a9ea-f3b4ad4ad678","{""num_scrambled_semantic"":""8"",""num_scrambled_causal"":""4"",""num_scrambled_schematic"":""4"",""participantId"":""CF8240BC4830488DAE0D39F1D7A899CA"",""assignmentId"":""0198ee70-ec85-7e5c-a107-5bdedbd289c4"",""projectId"":""0198ee3c-27ac-7803-a9ea-f3b4ad4ad678""}","https://test12345.live/?num_scrambled_semantic=8&num_scrambled_causal=4&num_scrambled_schematic=4&participantId=CF8240BC4830488DAE0D39F1D7A899CA&assignmentId=0198ee70-ec85-7e5c-a107-5bdedbd289c4&projectId=0198ee3c-27ac-7803-a9ea-f3b4ad4ad678","CF8240BC4830488DAE0D39F1D7A899CA-2025-08-28-02-58-19","","null","","[]","null","",""
"","","","","","image-button-response","101","457278","0.0-14.0-1.0-0.4","CF8240BC4830488DAE0D39F1D7A899CA","CF8240BC4830488DAE0D39F1D7A899CA","0198ee70-ec85-7e5c-a107-5bdedbd289c4","0198ee3c-27ac-7803-a9ea-f3b4ad4ad678","{""num_scrambled_semantic"":""8"",""num_scrambled_causal"":""4"",""num_scrambled_schematic"":""4"",""participantId"":""CF8240BC4830488DAE0D39F1D7A899CA"",""assignmentId"":""0198ee70-ec85-7e5c-a107-5bdedbd289c4"",""projectId"":""0198ee3c-27ac-7803-a9ea-f3b4ad4ad678""}","https://test12345.live/?num_scrambled_semantic=8&num_scrambled_causal=4&num_scrambled_schematic=4&participantId=CF8240BC4830488DAE0D39F1D7A899CA&assignmentId=0198ee70-ec85-7e5c-a107-5bdedbd289c4&projectId=0198ee3c-27ac-7803-a9ea-f3b4ad4ad678","CF8240BC4830488DAE0D39F1D7A899CA-2025-08-28-02-58-19","","null","","images/semantic_sequence/housework_semantic/housework_semantic_ten.png","null","",""
"","","","","","image-button-response","102","458179","0.0-14.0-1.0-1.4","CF8240BC4830488DAE0D39F1D7A899CA","CF8240BC4830488DAE0D39F1D7A899CA","0198ee70-ec85-7e5c-a107-5bdedbd289c4","0198ee3c-27ac-7803-a9ea-f3b4ad4ad678","{""num_scrambled_semantic"":""8"",""num_scrambled_causal"":""4"",""num_scrambled_schematic"":""4"",""participantId"":""CF8240BC4830488DAE0D39F1D7A899CA"",""assignmentId"":""0198ee70-ec85-7e5c-a107-5bdedbd289c4"",""projectId"":""0198ee3c-27ac-7803-a9ea-f3b4ad4ad678""}","https://test12345.live/?num_scrambled_semantic=8&num_scrambled_causal=4&num_scrambled_schematic=4&participantId=CF8240BC4830488DAE0D39F1D7A899CA&assignmentId=0198ee70-ec85-7e5c-a107-5bdedbd289c4&projectId=0198ee3c-27ac-7803-a9ea-f3b4ad4ad678","CF8240BC4830488DAE0D39F1D7A899CA-2025-08-28-02-58-19","","901","","images/semantic_sequence/housework_semantic/housework_semantic_ten.png","0","",""
"","","","","","image-button-response","103","460196","0.0-14.0-1.0-2.4","CF8240BC4830488DAE0D39F1D7A899CA","CF8240BC4830488DAE0D39F1D7A899CA","0198ee70-ec85-7e5c-a107-5bdedbd289c4","0198ee3c-27ac-7803-a9ea-f3b4ad4ad678","{""num_scrambled_semantic"":""8"",""num_scrambled_causal"":""4"",""num_scrambled_schematic"":""4"",""participantId"":""CF8240BC4830488DAE0D39F1D7A899CA"",""assignmentId"":""0198ee70-ec85-7e5c-a107-5bdedbd289c4"",""projectId"":""0198ee3c-27ac-7803-a9ea-f3b4ad4ad678""}","https://test12345.live/?num_scrambled_semantic=8&num_scrambled_causal=4&num_scrambled_schematic=4&participantId=CF8240BC4830488DAE0D39F1D7A899CA&assignmentId=0198ee70-ec85-7e5c-a107-5bdedbd289c4&projectId=0198ee3c-27ac-7803-a9ea-f3b4ad4ad678","CF8240BC4830488DAE0D39F1D7A899CA-2025-08-28-02-58-19","","null","","[]","null","",""
"","","","","","image-button-response","104","464713","0.0-14.0-1.0-0.5","CF8240BC4830488DAE0D39F1D7A899CA","CF8240BC4830488DAE0D39F1D7A899CA","0198ee70-ec85-7e5c-a107-5bdedbd289c4","0198ee3c-27ac-7803-a9ea-f3b4ad4ad678","{""num_scrambled_semantic"":""8"",""num_scrambled_causal"":""4"",""num_scrambled_schematic"":""4"",""participantId"":""CF8240BC4830488DAE0D39F1D7A899CA"",""assignmentId"":""0198ee70-ec85-7e5c-a107-5bdedbd289c4"",""projectId"":""0198ee3c-27ac-7803-a9ea-f3b4ad4ad678""}","https://test12345.live/?num_scrambled_semantic=8&num_scrambled_causal=4&num_scrambled_schematic=4&participantId=CF8240BC4830488DAE0D39F1D7A899CA&assignmentId=0198ee70-ec85-7e5c-a107-5bdedbd289c4&projectId=0198ee3c-27ac-7803-a9ea-f3b4ad4ad678","CF8240BC4830488DAE0D39F1D7A899CA-2025-08-28-02-58-19","","null","","images/semantic_sequence/housework_semantic/housework_semantic_6.png","null","",""
"","","","","","image-button-response","105","466091","0.0-14.0-1.0-1.5","CF8240BC4830488DAE0D39F1D7A899CA","CF8240BC4830488DAE0D39F1D7A899CA","0198ee70-ec85-7e5c-a107-5bdedbd289c4","0198ee3c-27ac-7803-a9ea-f3b4ad4ad678","{""num_scrambled_semantic"":""8"",""num_scrambled_causal"":""4"",""num_scrambled_schematic"":""4"",""participantId"":""CF8240BC4830488DAE0D39F1D7A899CA"",""assignmentId"":""0198ee70-ec85-7e5c-a107-5bdedbd289c4"",""projectId"":""0198ee3c-27ac-7803-a9ea-f3b4ad4ad678""}","https://test12345.live/?num_scrambled_semantic=8&num_scrambled_causal=4&num_scrambled_schematic=4&participantId=CF8240BC4830488DAE0D39F1D7A899CA&assignmentId=0198ee70-ec85-7e5c-a107-5bdedbd289c4&projectId=0198ee3c-27ac-7803-a9ea-f3b4ad4ad678","CF8240BC4830488DAE0D39F1D7A899CA-2025-08-28-02-58-19","","1378","","images/semantic_sequence/housework_semantic/housework_semantic_6.png","0","",""
"","","","","","image-button-response","106","467993","0.0-14.0-1.0-2.5","CF8240BC4830488DAE0D39F1D7A899CA","CF8240BC4830488DAE0D39F1D7A899CA","0198ee70-ec85-7e5c-a107-5bdedbd289c4","0198ee3c-27ac-7803-a9ea-f3b4ad4ad678","{""num_scrambled_semantic"":""8"",""num_scrambled_causal"":""4"",""num_scrambled_schematic"":""4"",""participantId"":""CF8240BC4830488DAE0D39F1D7A899CA"",""assignmentId"":""0198ee70-ec85-7e5c-a107-5bdedbd289c4"",""projectId"":""0198ee3c-27ac-7803-a9ea-f3b4ad4ad678""}","https://test12345.live/?num_scrambled_semantic=8&num_scrambled_causal=4&num_scrambled_schematic=4&participantId=CF8240BC4830488DAE0D39F1D7A899CA&assignmentId=0198ee70-ec85-7e5c-a107-5bdedbd289c4&projectId=0198ee3c-27ac-7803-a9ea-f3b4ad4ad678","CF8240BC4830488DAE0D39F1D7A899CA-2025-08-28-02-58-19","","null","","[]","null","",""
"","","","","","image-button-response","107","472864","0.0-14.0-1.0-0.6","CF8240BC4830488DAE0D39F1D7A899CA","CF8240BC4830488DAE0D39F1D7A899CA","0198ee70-ec85-7e5c-a107-5bdedbd289c4","0198ee3c-27ac-7803-a9ea-f3b4ad4ad678","{""num_scrambled_semantic"":""8"",""num_scrambled_causal"":""4"",""num_scrambled_schematic"":""4"",""participantId"":""CF8240BC4830488DAE0D39F1D7A899CA"",""assignmentId"":""0198ee70-ec85-7e5c-a107-5bdedbd289c4"",""projectId"":""0198ee3c-27ac-7803-a9ea-f3b4ad4ad678""}","https://test12345.live/?num_scrambled_semantic=8&num_scrambled_causal=4&num_scrambled_schematic=4&participantId=CF8240BC4830488DAE0D39F1D7A899CA&assignmentId=0198ee70-ec85-7e5c-a107-5bdedbd289c4&projectId=0198ee3c-27ac-7803-a9ea-f3b4ad4ad678","CF8240BC4830488DAE0D39F1D7A899CA-2025-08-28-02-58-19","","null","","images/semantic_sequence/housework_semantic/housework_semantic_5.png","null","",""
"","","","","","image-button-response","108","473603","0.0-14.0-1.0-1.6","CF8240BC4830488DAE0D39F1D7A899CA","CF8240BC4830488DAE0D39F1D7A899CA","0198ee70-ec85-7e5c-a107-5bdedbd289c4","0198ee3c-27ac-7803-a9ea-f3b4ad4ad678","{""num_scrambled_semantic"":""8"",""num_scrambled_causal"":""4"",""num_scrambled_schematic"":""4"",""participantId"":""CF8240BC4830488DAE0D39F1D7A899CA"",""assignmentId"":""0198ee70-ec85-7e5c-a107-5bdedbd289c4"",""projectId"":""0198ee3c-27ac-7803-a9ea-f3b4ad4ad678""}","https://test12345.live/?num_scrambled_semantic=8&num_scrambled_causal=4&num_scrambled_schematic=4&participantId=CF8240BC4830488DAE0D39F1D7A899CA&assignmentId=0198ee70-ec85-7e5c-a107-5bdedbd289c4&projectId=0198ee3c-27ac-7803-a9ea-f3b4ad4ad678","CF8240BC4830488DAE0D39F1D7A899CA-2025-08-28-02-58-19","","739","","images/semantic_sequence/housework_semantic/housework_semantic_5.png","0","",""
"","","","","","image-button-response","109","475611","0.0-14.0-1.0-2.6","CF8240BC4830488DAE0D39F1D7A899CA","CF8240BC4830488DAE0D39F1D7A899CA","0198ee70-ec85-7e5c-a107-5bdedbd289c4","0198ee3c-27ac-7803-a9ea-f3b4ad4ad678","{""num_scrambled_semantic"":""8"",""num_scrambled_causal"":""4"",""num_scrambled_schematic"":""4"",""participantId"":""CF8240BC4830488DAE0D39F1D7A899CA"",""assignmentId"":""0198ee70-ec85-7e5c-a107-5bdedbd289c4"",""projectId"":""0198ee3c-27ac-7803-a9ea-f3b4ad4ad678""}","https://test12345.live/?num_scrambled_semantic=8&num_scrambled_causal=4&num_scrambled_schematic=4&participantId=CF8240BC4830488DAE0D39F1D7A899CA&assignmentId=0198ee70-ec85-7e5c-a107-5bdedbd289c4&projectId=0198ee3c-27ac-7803-a9ea-f3b4ad4ad678","CF8240BC4830488DAE0D39F1D7A899CA-2025-08-28-02-58-19","","null","","[]","null","",""
"","","","","","image-button-response","110","480138","0.0-14.0-1.0-0.7","CF8240BC4830488DAE0D39F1D7A899CA","CF8240BC4830488DAE0D39F1D7A899CA","0198ee70-ec85-7e5c-a107-5bdedbd289c4","0198ee3c-27ac-7803-a9ea-f3b4ad4ad678","{""num_scrambled_semantic"":""8"",""num_scrambled_causal"":""4"",""num_scrambled_schematic"":""4"",""participantId"":""CF8240BC4830488DAE0D39F1D7A899CA"",""assignmentId"":""0198ee70-ec85-7e5c-a107-5bdedbd289c4"",""projectId"":""0198ee3c-27ac-7803-a9ea-f3b4ad4ad678""}","https://test12345.live/?num_scrambled_semantic=8&num_scrambled_causal=4&num_scrambled_schematic=4&participantId=CF8240BC4830488DAE0D39F1D7A899CA&assignmentId=0198ee70-ec85-7e5c-a107-5bdedbd289c4&projectId=0198ee3c-27ac-7803-a9ea-f3b4ad4ad678","CF8240BC4830488DAE0D39F1D7A899CA-2025-08-28-02-58-19","","null","","images/semantic_sequence/housework_semantic/housework_semantic_2.png","null","",""
"","","","","","image-button-response","111","481587","0.0-14.0-1.0-1.7","CF8240BC4830488DAE0D39F1D7A899CA","CF8240BC4830488DAE0D39F1D7A899CA","0198ee70-ec85-7e5c-a107-5bdedbd289c4","0198ee3c-27ac-7803-a9ea-f3b4ad4ad678","{""num_scrambled_semantic"":""8"",""num_scrambled_causal"":""4"",""num_scrambled_schematic"":""4"",""participantId"":""CF8240BC4830488DAE0D39F1D7A899CA"",""assignmentId"":""0198ee70-ec85-7e5c-a107-5bdedbd289c4"",""projectId"":""0198ee3c-27ac-7803-a9ea-f3b4ad4ad678""}","https://test12345.live/?num_scrambled_semantic=8&num_scrambled_causal=4&num_scrambled_schematic=4&participantId=CF8240BC4830488DAE0D39F1D7A899CA&assignmentId=0198ee70-ec85-7e5c-a107-5bdedbd289c4&projectId=0198ee3c-27ac-7803-a9ea-f3b4ad4ad678","CF8240BC4830488DAE0D39F1D7A899CA-2025-08-28-02-58-19","","1448","","images/semantic_sequence/housework_semantic/housework_semantic_2.png","0","",""
"","","","","","image-button-response","112","483608","0.0-14.0-1.0-2.7","CF8240BC4830488DAE0D39F1D7A899CA","CF8240BC4830488DAE0D39F1D7A899CA","0198ee70-ec85-7e5c-a107-5bdedbd289c4","0198ee3c-27ac-7803-a9ea-f3b4ad4ad678","{""num_scrambled_semantic"":""8"",""num_scrambled_causal"":""4"",""num_scrambled_schematic"":""4"",""participantId"":""CF8240BC4830488DAE0D39F1D7A899CA"",""assignmentId"":""0198ee70-ec85-7e5c-a107-5bdedbd289c4"",""projectId"":""0198ee3c-27ac-7803-a9ea-f3b4ad4ad678""}","https://test12345.live/?num_scrambled_semantic=8&num_scrambled_causal=4&num_scrambled_schematic=4&participantId=CF8240BC4830488DAE0D39F1D7A899CA&assignmentId=0198ee70-ec85-7e5c-a107-5bdedbd289c4&projectId=0198ee3c-27ac-7803-a9ea-f3b4ad4ad678","CF8240BC4830488DAE0D39F1D7A899CA-2025-08-28-02-58-19","","null","","[]","null","",""
"","","","","","image-button-response","113","488130","0.0-14.0-1.0-0.8","CF8240BC4830488DAE0D39F1D7A899CA","CF8240BC4830488DAE0D39F1D7A899CA","0198ee70-ec85-7e5c-a107-5bdedbd289c4","0198ee3c-27ac-7803-a9ea-f3b4ad4ad678","{""num_scrambled_semantic"":""8"",""num_scrambled_causal"":""4"",""num_scrambled_schematic"":""4"",""participantId"":""CF8240BC4830488DAE0D39F1D7A899CA"",""assignmentId"":""0198ee70-ec85-7e5c-a107-5bdedbd289c4"",""projectId"":""0198ee3c-27ac-7803-a9ea-f3b4ad4ad678""}","https://test12345.live/?num_scrambled_semantic=8&num_scrambled_causal=4&num_scrambled_schematic=4&participantId=CF8240BC4830488DAE0D39F1D7A899CA&assignmentId=0198ee70-ec85-7e5c-a107-5bdedbd289c4&projectId=0198ee3c-27ac-7803-a9ea-f3b4ad4ad678","CF8240BC4830488DAE0D39F1D7A899CA-2025-08-28-02-58-19","","null","","images/semantic_sequence/housework_semantic/housework_semantic_4.png","null","",""
