"success","timeout","failed_images","failed_audio","failed_video","trial_type","trial_index","time_elapsed","internal_node_id","subject","subject_id","study_id","session_id","urlvar","current_url","audio_id","view_history","rt","device_id","stimulus","response","estimated_stimulus_onset","seq_name"
"true","false","[]","[]","[]","preload","0","15547","0.0-0.0","D66EA70CA4F64CC0B50F9A805D8F79D5","D66EA70CA4F64CC0B50F9A805D8F79D5","0198ee77-83cd-74fc-b2fb-bec5cdf412b9","0198ee3c-27ac-7803-a9ea-f3b4ad4ad678","{""num_scrambled_semantic"":""8"",""num_scrambled_causal"":""4"",""num_scrambled_schematic"":""4"",""participantId"":""D66EA70CA4F64CC0B50F9A805D8F79D5"",""assignmentId"":""0198ee77-83cd-74fc-b2fb-bec5cdf412b9"",""projectId"":""0198ee3c-27ac-7803-a9ea-f3b4ad4ad678""}","https://test12345.live/?num_scrambled_semantic=8&num_scrambled_causal=4&num_scrambled_schematic=4&participantId=D66EA70CA4F64CC0B50F9A805D8F79D5&assignmentId=0198ee77-83cd-74fc-b2fb-bec5cdf412b9&projectId=0198ee3c-27ac-7803-a9ea-f3b4ad4ad678","D66EA70CA4F64CC0B50F9A805D8F79D5-2025-08-28-03-16-24","","","","","","",""
"","","","","","instructions","1","37638","0.0-1.0","D66EA70CA4F64CC0B50F9A805D8F79D5","D66EA70CA4F64CC0B50F9A805D8F79D5","0198ee77-83cd-74fc-b2fb-bec5cdf412b9","0198ee3c-27ac-7803-a9ea-f3b4ad4ad678","{""num_scrambled_semantic"":""8"",""num_scrambled_causal"":""4"",""num_scrambled_schematic"":""4"",""participantId"":""D66EA70CA4F64CC0B50F9A805D8F79D5"",""assignmentId"":""0198ee77-83cd-74fc-b2fb-bec5cdf412b9"",""projectId"":""0198ee3c-27ac-7803-a9ea-f3b4ad4ad678""}","https://test12345.live/?num_scrambled_semantic=8&num_scrambled_causal=4&num_scrambled_schematic=4&participantId=D66EA70CA4F64CC0B50F9A805D8F79D5&assignmentId=0198ee77-83cd-74fc-b2fb-bec5cdf412b9&projectId=0198ee3c-27ac-7803-a9ea-f3b4ad4ad678","D66EA70CA4F64CC0B50F9A805D8F79D5-2025-08-28-03-16-24","[{""page_index"":0,""viewing_time"":22089}]","22090","","","","",""
"","","","","","instructions","2","42125","0.0-2.0","D66EA70CA4F64CC0B50F9A805D8F79D5","D66EA70CA4F64CC0B50F9A805D8F79D5","0198ee77-83cd-74fc-b2fb-bec5cdf412b9","0198ee3c-27ac-7803-a9ea-f3b4ad4ad678","{""num_scrambled_semantic"":""8"",""num_scrambled_causal"":""4"",""num_scrambled_schematic"":""4"",""participantId"":""D66EA70CA4F64CC0B50F9A805D8F79D5"",""assignmentId"":""0198ee77-83cd-74fc-b2fb-bec5cdf412b9"",""projectId"":""0198ee3c-27ac-7803-a9ea-f3b4ad4ad678""}","https://test12345.live/?num_scrambled_semantic=8&num_scrambled_causal=4&num_scrambled_schematic=4&participantId=D66EA70CA4F64CC0B50F9A805D8F79D5&assignmentId=0198ee77-83cd-74fc-b2fb-bec5cdf412b9&projectId=0198ee3c-27ac-7803-a9ea-f3b4ad4ad678","D66EA70CA4F64CC0B50F9A805D8F79D5-2025-08-28-03-16-24","[{""page_index"":0,""viewing_time"":4486}]","4487","","","","",""
"true","","","","","fullscreen","3","45895","0.0-3.0","D66EA70CA4F64CC0B50F9A805D8F79D5","D66EA70CA4F64CC0B50F9A805D8F79D5","0198ee77-83cd-74fc-b2fb-bec5cdf412b9","0198ee3c-27ac-7803-a9ea-f3b4ad4ad678","{""num_scrambled_semantic"":""8"",""num_scrambled_causal"":""4"",""num_scrambled_schematic"":""4"",""participantId"":""D66EA70CA4F64CC0B50F9A805D8F79D5"",""assignmentId"":""0198ee77-83cd-74fc-b2fb-bec5cdf412b9"",""projectId"":""0198ee3c-27ac-7803-a9ea-f3b4ad4ad678""}","https://test12345.live/?num_scrambled_semantic=8&num_scrambled_causal=4&num_scrambled_schematic=4&participantId=D66EA70CA4F64CC0B50F9A805D8F79D5&assignmentId=0198ee77-83cd-74fc-b2fb-bec5cdf412b9&projectId=0198ee3c-27ac-7803-a9ea-f3b4ad4ad678","D66EA70CA4F64CC0B50F9A805D8F79D5-2025-08-28-03-16-24","","2757","","","","",""
"","","","","","initialize-microphone","4","56157","0.0-4.0-0.0","D66EA70CA4F64CC0B50F9A805D8F79D5","D66EA70CA4F64CC0B50F9A805D8F79D5","0198ee77-83cd-74fc-b2fb-bec5cdf412b9","0198ee3c-27ac-7803-a9ea-f3b4ad4ad678","{""num_scrambled_semantic"":""8"",""num_scrambled_causal"":""4"",""num_scrambled_schematic"":""4"",""participantId"":""D66EA70CA4F64CC0B50F9A805D8F79D5"",""assignmentId"":""0198ee77-83cd-74fc-b2fb-bec5cdf412b9"",""projectId"":""0198ee3c-27ac-7803-a9ea-f3b4ad4ad678""}","https://test12345.live/?num_scrambled_semantic=8&num_scrambled_causal=4&num_scrambled_schematic=4&participantId=D66EA70CA4F64CC0B50F9A805D8F79D5&assignmentId=0198ee77-83cd-74fc-b2fb-bec5cdf412b9&projectId=0198ee3c-27ac-7803-a9ea-f3b4ad4ad678","D66EA70CA4F64CC0B50F9A805D8F79D5-2025-08-28-03-16-24","","","1377710c2b29dde818c936a539f3d2361a81ba28ffc04113544a11657b0f8da5","","","",""
"","","","","","html-audio-response","5","84181","0.0-4.0-1.0","D66EA70CA4F64CC0B50F9A805D8F79D5","D66EA70CA4F64CC0B50F9A805D8F79D5","0198ee77-83cd-74fc-b2fb-bec5cdf412b9","0198ee3c-27ac-7803-a9ea-f3b4ad4ad678","{""num_scrambled_semantic"":""8"",""num_scrambled_causal"":""4"",""num_scrambled_schematic"":""4"",""participantId"":""D66EA70CA4F64CC0B50F9A805D8F79D5"",""assignmentId"":""0198ee77-83cd-74fc-b2fb-bec5cdf412b9"",""projectId"":""0198ee3c-27ac-7803-a9ea-f3b4ad4ad678""}","https://test12345.live/?num_scrambled_semantic=8&num_scrambled_causal=4&num_scrambled_schematic=4&participantId=D66EA70CA4F64CC0B50F9A805D8F79D5&assignmentId=0198ee77-83cd-74fc-b2fb-bec5cdf412b9&projectId=0198ee3c-27ac-7803-a9ea-f3b4ad4ad678","D66EA70CA4F64CC0B50F9A805D8F79D5-2025-08-28-03-16-24","","2966","","<span style=""color: red; font-size: 24px""> NOW RECORDING</span>
        <p>Please test Microphone</p>","","4",""
"","","","","","html-button-response","6","85609","0.0-4.0-2.0","D66EA70CA4F64CC0B50F9A805D8F79D5","D66EA70CA4F64CC0B50F9A805D8F79D5","0198ee77-83cd-74fc-b2fb-bec5cdf412b9","0198ee3c-27ac-7803-a9ea-f3b4ad4ad678","{""num_scrambled_semantic"":""8"",""num_scrambled_causal"":""4"",""num_scrambled_schematic"":""4"",""participantId"":""D66EA70CA4F64CC0B50F9A805D8F79D5"",""assignmentId"":""0198ee77-83cd-74fc-b2fb-bec5cdf412b9"",""projectId"":""0198ee3c-27ac-7803-a9ea-f3b4ad4ad678""}","https://test12345.live/?num_scrambled_semantic=8&num_scrambled_causal=4&num_scrambled_schematic=4&participantId=D66EA70CA4F64CC0B50F9A805D8F79D5&assignmentId=0198ee77-83cd-74fc-b2fb-bec5cdf412b9&projectId=0198ee3c-27ac-7803-a9ea-f3b4ad4ad678","D66EA70CA4F64CC0B50F9A805D8F79D5-2025-08-28-03-16-24","","1427","","<p style=""font-size:48px; color:red;"">Is Microphone OK?</p>","1","",""
"","","","","","instructions","7","108181","0.0-5.0","D66EA70CA4F64CC0B50F9A805D8F79D5","D66EA70CA4F64CC0B50F9A805D8F79D5","0198ee77-83cd-74fc-b2fb-bec5cdf412b9","0198ee3c-27ac-7803-a9ea-f3b4ad4ad678","{""num_scrambled_semantic"":""8"",""num_scrambled_causal"":""4"",""num_scrambled_schematic"":""4"",""participantId"":""D66EA70CA4F64CC0B50F9A805D8F79D5"",""assignmentId"":""0198ee77-83cd-74fc-b2fb-bec5cdf412b9"",""projectId"":""0198ee3c-27ac-7803-a9ea-f3b4ad4ad678""}","https://test12345.live/?num_scrambled_semantic=8&num_scrambled_causal=4&num_scrambled_schematic=4&participantId=D66EA70CA4F64CC0B50F9A805D8F79D5&assignmentId=0198ee77-83cd-74fc-b2fb-bec5cdf412b9&projectId=0198ee3c-27ac-7803-a9ea-f3b4ad4ad678","D66EA70CA4F64CC0B50F9A805D8F79D5-2025-08-28-03-16-24","[{""page_index"":0,""viewing_time"":11182},{""page_index"":1,""viewing_time"":11389}]","22571","","","","",""
"","","","","","image-button-response","8","114186","0.0-6.0-0.0","D66EA70CA4F64CC0B50F9A805D8F79D5","D66EA70CA4F64CC0B50F9A805D8F79D5","0198ee77-83cd-74fc-b2fb-bec5cdf412b9","0198ee3c-27ac-7803-a9ea-f3b4ad4ad678","{""num_scrambled_semantic"":""8"",""num_scrambled_causal"":""4"",""num_scrambled_schematic"":""4"",""participantId"":""D66EA70CA4F64CC0B50F9A805D8F79D5"",""assignmentId"":""0198ee77-83cd-74fc-b2fb-bec5cdf412b9"",""projectId"":""0198ee3c-27ac-7803-a9ea-f3b4ad4ad678""}","https://test12345.live/?num_scrambled_semantic=8&num_scrambled_causal=4&num_scrambled_schematic=4&participantId=D66EA70CA4F64CC0B50F9A805D8F79D5&assignmentId=0198ee77-83cd-74fc-b2fb-bec5cdf412b9&projectId=0198ee3c-27ac-7803-a9ea-f3b4ad4ad678","D66EA70CA4F64CC0B50F9A805D8F79D5-2025-08-28-03-16-24","","null","","images/instructions/movie_0.png","null","",""
"","","","","","image-button-response","9","118692","0.0-6.0-1.0-0.0","D66EA70CA4F64CC0B50F9A805D8F79D5","D66EA70CA4F64CC0B50F9A805D8F79D5","0198ee77-83cd-74fc-b2fb-bec5cdf412b9","0198ee3c-27ac-7803-a9ea-f3b4ad4ad678","{""num_scrambled_semantic"":""8"",""num_scrambled_causal"":""4"",""num_scrambled_schematic"":""4"",""participantId"":""D66EA70CA4F64CC0B50F9A805D8F79D5"",""assignmentId"":""0198ee77-83cd-74fc-b2fb-bec5cdf412b9"",""projectId"":""0198ee3c-27ac-7803-a9ea-f3b4ad4ad678""}","https://test12345.live/?num_scrambled_semantic=8&num_scrambled_causal=4&num_scrambled_schematic=4&participantId=D66EA70CA4F64CC0B50F9A805D8F79D5&assignmentId=0198ee77-83cd-74fc-b2fb-bec5cdf412b9&projectId=0198ee3c-27ac-7803-a9ea-f3b4ad4ad678","D66EA70CA4F64CC0B50F9A805D8F79D5-2025-08-28-03-16-24","","null","","images/instructions/movie_1.png","null","",""
"","","","","","image-button-response","10","121927","0.0-6.0-1.0-1.0","D66EA70CA4F64CC0B50F9A805D8F79D5","D66EA70CA4F64CC0B50F9A805D8F79D5","0198ee77-83cd-74fc-b2fb-bec5cdf412b9","0198ee3c-27ac-7803-a9ea-f3b4ad4ad678","{""num_scrambled_semantic"":""8"",""num_scrambled_causal"":""4"",""num_scrambled_schematic"":""4"",""participantId"":""D66EA70CA4F64CC0B50F9A805D8F79D5"",""assignmentId"":""0198ee77-83cd-74fc-b2fb-bec5cdf412b9"",""projectId"":""0198ee3c-27ac-7803-a9ea-f3b4ad4ad678""}","https://test12345.live/?num_scrambled_semantic=8&num_scrambled_causal=4&num_scrambled_schematic=4&participantId=D66EA70CA4F64CC0B50F9A805D8F79D5&assignmentId=0198ee77-83cd-74fc-b2fb-bec5cdf412b9&projectId=0198ee3c-27ac-7803-a9ea-f3b4ad4ad678","D66EA70CA4F64CC0B50F9A805D8F79D5-2025-08-28-03-16-24","","3235","","images/instructions/movie_1.png","0","",""
"","","","","","image-button-response","11","123735","0.0-6.0-1.0-2.0","D66EA70CA4F64CC0B50F9A805D8F79D5","D66EA70CA4F64CC0B50F9A805D8F79D5","0198ee77-83cd-74fc-b2fb-bec5cdf412b9","0198ee3c-27ac-7803-a9ea-f3b4ad4ad678","{""num_scrambled_semantic"":""8"",""num_scrambled_causal"":""4"",""num_scrambled_schematic"":""4"",""participantId"":""D66EA70CA4F64CC0B50F9A805D8F79D5"",""assignmentId"":""0198ee77-83cd-74fc-b2fb-bec5cdf412b9"",""projectId"":""0198ee3c-27ac-7803-a9ea-f3b4ad4ad678""}","https://test12345.live/?num_scrambled_semantic=8&num_scrambled_causal=4&num_scrambled_schematic=4&participantId=D66EA70CA4F64CC0B50F9A805D8F79D5&assignmentId=0198ee77-83cd-74fc-b2fb-bec5cdf412b9&projectId=0198ee3c-27ac-7803-a9ea-f3b4ad4ad678","D66EA70CA4F64CC0B50F9A805D8F79D5-2025-08-28-03-16-24","","null","","[]","null","",""
"","","","","","image-button-response","12","128240","0.0-6.0-1.0-0.1","D66EA70CA4F64CC0B50F9A805D8F79D5","D66EA70CA4F64CC0B50F9A805D8F79D5","0198ee77-83cd-74fc-b2fb-bec5cdf412b9","0198ee3c-27ac-7803-a9ea-f3b4ad4ad678","{""num_scrambled_semantic"":""8"",""num_scrambled_causal"":""4"",""num_scrambled_schematic"":""4"",""participantId"":""D66EA70CA4F64CC0B50F9A805D8F79D5"",""assignmentId"":""0198ee77-83cd-74fc-b2fb-bec5cdf412b9"",""projectId"":""0198ee3c-27ac-7803-a9ea-f3b4ad4ad678""}","https://test12345.live/?num_scrambled_semantic=8&num_scrambled_causal=4&num_scrambled_schematic=4&participantId=D66EA70CA4F64CC0B50F9A805D8F79D5&assignmentId=0198ee77-83cd-74fc-b2fb-bec5cdf412b9&projectId=0198ee3c-27ac-7803-a9ea-f3b4ad4ad678","D66EA70CA4F64CC0B50F9A805D8F79D5-2025-08-28-03-16-24","","null","","images/instructions/movie_2.png","null","",""
"","","","","","image-button-response","13","131345","0.0-6.0-1.0-1.1","D66EA70CA4F64CC0B50F9A805D8F79D5","D66EA70CA4F64CC0B50F9A805D8F79D5","0198ee77-83cd-74fc-b2fb-bec5cdf412b9","0198ee3c-27ac-7803-a9ea-f3b4ad4ad678","{""num_scrambled_semantic"":""8"",""num_scrambled_causal"":""4"",""num_scrambled_schematic"":""4"",""participantId"":""D66EA70CA4F64CC0B50F9A805D8F79D5"",""assignmentId"":""0198ee77-83cd-74fc-b2fb-bec5cdf412b9"",""projectId"":""0198ee3c-27ac-7803-a9ea-f3b4ad4ad678""}","https://test12345.live/?num_scrambled_semantic=8&num_scrambled_causal=4&num_scrambled_schematic=4&participantId=D66EA70CA4F64CC0B50F9A805D8F79D5&assignmentId=0198ee77-83cd-74fc-b2fb-bec5cdf412b9&projectId=0198ee3c-27ac-7803-a9ea-f3b4ad4ad678","D66EA70CA4F64CC0B50F9A805D8F79D5-2025-08-28-03-16-24","","3104","","images/instructions/movie_2.png","0","",""
"","","","","","image-button-response","14","133147","0.0-6.0-1.0-2.1","D66EA70CA4F64CC0B50F9A805D8F79D5","D66EA70CA4F64CC0B50F9A805D8F79D5","0198ee77-83cd-74fc-b2fb-bec5cdf412b9","0198ee3c-27ac-7803-a9ea-f3b4ad4ad678","{""num_scrambled_semantic"":""8"",""num_scrambled_causal"":""4"",""num_scrambled_schematic"":""4"",""participantId"":""D66EA70CA4F64CC0B50F9A805D8F79D5"",""assignmentId"":""0198ee77-83cd-74fc-b2fb-bec5cdf412b9"",""projectId"":""0198ee3c-27ac-7803-a9ea-f3b4ad4ad678""}","https://test12345.live/?num_scrambled_semantic=8&num_scrambled_causal=4&num_scrambled_schematic=4&participantId=D66EA70CA4F64CC0B50F9A805D8F79D5&assignmentId=0198ee77-83cd-74fc-b2fb-bec5cdf412b9&projectId=0198ee3c-27ac-7803-a9ea-f3b4ad4ad678","D66EA70CA4F64CC0B50F9A805D8F79D5-2025-08-28-03-16-24","","null","","[]","null","",""
"","","","","","image-button-response","15","137650","0.0-6.0-1.0-0.2","D66EA70CA4F64CC0B50F9A805D8F79D5","D66EA70CA4F64CC0B50F9A805D8F79D5","0198ee77-83cd-74fc-b2fb-bec5cdf412b9","0198ee3c-27ac-7803-a9ea-f3b4ad4ad678","{""num_scrambled_semantic"":""8"",""num_scrambled_causal"":""4"",""num_scrambled_schematic"":""4"",""participantId"":""D66EA70CA4F64CC0B50F9A805D8F79D5"",""assignmentId"":""0198ee77-83cd-74fc-b2fb-bec5cdf412b9"",""projectId"":""0198ee3c-27ac-7803-a9ea-f3b4ad4ad678""}","https://test12345.live/?num_scrambled_semantic=8&num_scrambled_causal=4&num_scrambled_schematic=4&participantId=D66EA70CA4F64CC0B50F9A805D8F79D5&assignmentId=0198ee77-83cd-74fc-b2fb-bec5cdf412b9&projectId=0198ee3c-27ac-7803-a9ea-f3b4ad4ad678","D66EA70CA4F64CC0B50F9A805D8F79D5-2025-08-28-03-16-24","","null","","images/instructions/movie_3.png","null","",""
"","","","","","image-button-response","16","139133","0.0-6.0-1.0-1.2","D66EA70CA4F64CC0B50F9A805D8F79D5","D66EA70CA4F64CC0B50F9A805D8F79D5","0198ee77-83cd-74fc-b2fb-bec5cdf412b9","0198ee3c-27ac-7803-a9ea-f3b4ad4ad678","{""num_scrambled_semantic"":""8"",""num_scrambled_causal"":""4"",""num_scrambled_schematic"":""4"",""participantId"":""D66EA70CA4F64CC0B50F9A805D8F79D5"",""assignmentId"":""0198ee77-83cd-74fc-b2fb-bec5cdf412b9"",""projectId"":""0198ee3c-27ac-7803-a9ea-f3b4ad4ad678""}","https://test12345.live/?num_scrambled_semantic=8&num_scrambled_causal=4&num_scrambled_schematic=4&participantId=D66EA70CA4F64CC0B50F9A805D8F79D5&assignmentId=0198ee77-83cd-74fc-b2fb-bec5cdf412b9&projectId=0198ee3c-27ac-7803-a9ea-f3b4ad4ad678","D66EA70CA4F64CC0B50F9A805D8F79D5-2025-08-28-03-16-24","","1482","","images/instructions/movie_3.png","0","",""
"","","","","","image-button-response","17","140947","0.0-6.0-1.0-2.2","D66EA70CA4F64CC0B50F9A805D8F79D5","D66EA70CA4F64CC0B50F9A805D8F79D5","0198ee77-83cd-74fc-b2fb-bec5cdf412b9","0198ee3c-27ac-7803-a9ea-f3b4ad4ad678","{""num_scrambled_semantic"":""8"",""num_scrambled_causal"":""4"",""num_scrambled_schematic"":""4"",""participantId"":""D66EA70CA4F64CC0B50F9A805D8F79D5"",""assignmentId"":""0198ee77-83cd-74fc-b2fb-bec5cdf412b9"",""projectId"":""0198ee3c-27ac-7803-a9ea-f3b4ad4ad678""}","https://test12345.live/?num_scrambled_semantic=8&num_scrambled_causal=4&num_scrambled_schematic=4&participantId=D66EA70CA4F64CC0B50F9A805D8F79D5&assignmentId=0198ee77-83cd-74fc-b2fb-bec5cdf412b9&projectId=0198ee3c-27ac-7803-a9ea-f3b4ad4ad678","D66EA70CA4F64CC0B50F9A805D8F79D5-2025-08-28-03-16-24","","null","","[]","null","",""
"","","","","","image-button-response","18","145451","0.0-6.0-1.0-0.3","D66EA70CA4F64CC0B50F9A805D8F79D5","D66EA70CA4F64CC0B50F9A805D8F79D5","0198ee77-83cd-74fc-b2fb-bec5cdf412b9","0198ee3c-27ac-7803-a9ea-f3b4ad4ad678","{""num_scrambled_semantic"":""8"",""num_scrambled_causal"":""4"",""num_scrambled_schematic"":""4"",""participantId"":""D66EA70CA4F64CC0B50F9A805D8F79D5"",""assignmentId"":""0198ee77-83cd-74fc-b2fb-bec5cdf412b9"",""projectId"":""0198ee3c-27ac-7803-a9ea-f3b4ad4ad678""}","https://test12345.live/?num_scrambled_semantic=8&num_scrambled_causal=4&num_scrambled_schematic=4&participantId=D66EA70CA4F64CC0B50F9A805D8F79D5&assignmentId=0198ee77-83cd-74fc-b2fb-bec5cdf412b9&projectId=0198ee3c-27ac-7803-a9ea-f3b4ad4ad678","D66EA70CA4F64CC0B50F9A805D8F79D5-2025-08-28-03-16-24","","null","","images/instructions/movie_4.png","null","",""
"","","","","","image-button-response","19","147626","0.0-6.0-1.0-1.3","D66EA70CA4F64CC0B50F9A805D8F79D5","D66EA70CA4F64CC0B50F9A805D8F79D5","0198ee77-83cd-74fc-b2fb-bec5cdf412b9","0198ee3c-27ac-7803-a9ea-f3b4ad4ad678","{""num_scrambled_semantic"":""8"",""num_scrambled_causal"":""4"",""num_scrambled_schematic"":""4"",""participantId"":""D66EA70CA4F64CC0B50F9A805D8F79D5"",""assignmentId"":""0198ee77-83cd-74fc-b2fb-bec5cdf412b9"",""projectId"":""0198ee3c-27ac-7803-a9ea-f3b4ad4ad678""}","https://test12345.live/?num_scrambled_semantic=8&num_scrambled_causal=4&num_scrambled_schematic=4&participantId=D66EA70CA4F64CC0B50F9A805D8F79D5&assignmentId=0198ee77-83cd-74fc-b2fb-bec5cdf412b9&projectId=0198ee3c-27ac-7803-a9ea-f3b4ad4ad678","D66EA70CA4F64CC0B50F9A805D8F79D5-2025-08-28-03-16-24","","2174","","images/instructions/movie_4.png","0","",""
"","","","","","image-button-response","20","149427","0.0-6.0-1.0-2.3","D66EA70CA4F64CC0B50F9A805D8F79D5","D66EA70CA4F64CC0B50F9A805D8F79D5","0198ee77-83cd-74fc-b2fb-bec5cdf412b9","0198ee3c-27ac-7803-a9ea-f3b4ad4ad678","{""num_scrambled_semantic"":""8"",""num_scrambled_causal"":""4"",""num_scrambled_schematic"":""4"",""participantId"":""D66EA70CA4F64CC0B50F9A805D8F79D5"",""assignmentId"":""0198ee77-83cd-74fc-b2fb-bec5cdf412b9"",""projectId"":""0198ee3c-27ac-7803-a9ea-f3b4ad4ad678""}","https://test12345.live/?num_scrambled_semantic=8&num_scrambled_causal=4&num_scrambled_schematic=4&participantId=D66EA70CA4F64CC0B50F9A805D8F79D5&assignmentId=0198ee77-83cd-74fc-b2fb-bec5cdf412b9&projectId=0198ee3c-27ac-7803-a9ea-f3b4ad4ad678","D66EA70CA4F64CC0B50F9A805D8F79D5-2025-08-28-03-16-24","","null","","[]","null","",""
"","","","","","instructions","21","162335","0.0-7.0","D66EA70CA4F64CC0B50F9A805D8F79D5","D66EA70CA4F64CC0B50F9A805D8F79D5","0198ee77-83cd-74fc-b2fb-bec5cdf412b9","0198ee3c-27ac-7803-a9ea-f3b4ad4ad678","{""num_scrambled_semantic"":""8"",""num_scrambled_causal"":""4"",""num_scrambled_schematic"":""4"",""participantId"":""D66EA70CA4F64CC0B50F9A805D8F79D5"",""assignmentId"":""0198ee77-83cd-74fc-b2fb-bec5cdf412b9"",""projectId"":""0198ee3c-27ac-7803-a9ea-f3b4ad4ad678""}","https://test12345.live/?num_scrambled_semantic=8&num_scrambled_causal=4&num_scrambled_schematic=4&participantId=D66EA70CA4F64CC0B50F9A805D8F79D5&assignmentId=0198ee77-83cd-74fc-b2fb-bec5cdf412b9&projectId=0198ee3c-27ac-7803-a9ea-f3b4ad4ad678","D66EA70CA4F64CC0B50F9A805D8F79D5-2025-08-28-03-16-24","[{""page_index"":0,""viewing_time"":12908}]","12908","","","","",""
"","","","","","html-audio-response","22","230711","0.0-8.0","D66EA70CA4F64CC0B50F9A805D8F79D5","D66EA70CA4F64CC0B50F9A805D8F79D5","0198ee77-83cd-74fc-b2fb-bec5cdf412b9","0198ee3c-27ac-7803-a9ea-f3b4ad4ad678","{""num_scrambled_semantic"":""8"",""num_scrambled_causal"":""4"",""num_scrambled_schematic"":""4"",""participantId"":""D66EA70CA4F64CC0B50F9A805D8F79D5"",""assignmentId"":""0198ee77-83cd-74fc-b2fb-bec5cdf412b9"",""projectId"":""0198ee3c-27ac-7803-a9ea-f3b4ad4ad678""}","https://test12345.live/?num_scrambled_semantic=8&num_scrambled_causal=4&num_scrambled_schematic=4&participantId=D66EA70CA4F64CC0B50F9A805D8F79D5&assignmentId=0198ee77-83cd-74fc-b2fb-bec5cdf412b9&projectId=0198ee3c-27ac-7803-a9ea-f3b4ad4ad678","D66EA70CA4F64CC0B50F9A805D8F79D5-2025-08-28-03-16-24","","35752","","[""<span style=\""color: red; font-size: 24px\""> NOW RECORDING</span><p>Please say out loud all the images you saw, in the order of the story they create. Try to recall the sequence of events as they appeared in the story, not necessarily the order they were presented on the screen.</p>""]","","1",""
"","","","","","instructions","23","233744","0.0-9.0","D66EA70CA4F64CC0B50F9A805D8F79D5","D66EA70CA4F64CC0B50F9A805D8F79D5","0198ee77-83cd-74fc-b2fb-bec5cdf412b9","0198ee3c-27ac-7803-a9ea-f3b4ad4ad678","{""num_scrambled_semantic"":""8"",""num_scrambled_causal"":""4"",""num_scrambled_schematic"":""4"",""participantId"":""D66EA70CA4F64CC0B50F9A805D8F79D5"",""assignmentId"":""0198ee77-83cd-74fc-b2fb-bec5cdf412b9"",""projectId"":""0198ee3c-27ac-7803-a9ea-f3b4ad4ad678""}","https://test12345.live/?num_scrambled_semantic=8&num_scrambled_causal=4&num_scrambled_schematic=4&participantId=D66EA70CA4F64CC0B50F9A805D8F79D5&assignmentId=0198ee77-83cd-74fc-b2fb-bec5cdf412b9&projectId=0198ee3c-27ac-7803-a9ea-f3b4ad4ad678","D66EA70CA4F64CC0B50F9A805D8F79D5-2025-08-28-03-16-24","[{""page_index"":0,""viewing_time"":3027}]","3028","","","","",""
"","","","","","image-button-response","24","239751","0.0-10.0-0.0","D66EA70CA4F64CC0B50F9A805D8F79D5","D66EA70CA4F64CC0B50F9A805D8F79D5","0198ee77-83cd-74fc-b2fb-bec5cdf412b9","0198ee3c-27ac-7803-a9ea-f3b4ad4ad678","{""num_scrambled_semantic"":""8"",""num_scrambled_causal"":""4"",""num_scrambled_schematic"":""4"",""participantId"":""D66EA70CA4F64CC0B50F9A805D8F79D5"",""assignmentId"":""0198ee77-83cd-74fc-b2fb-bec5cdf412b9"",""projectId"":""0198ee3c-27ac-7803-a9ea-f3b4ad4ad678""}","https://test12345.live/?num_scrambled_semantic=8&num_scrambled_causal=4&num_scrambled_schematic=4&participantId=D66EA70CA4F64CC0B50F9A805D8F79D5&assignmentId=0198ee77-83cd-74fc-b2fb-bec5cdf412b9&projectId=0198ee3c-27ac-7803-a9ea-f3b4ad4ad678","D66EA70CA4F64CC0B50F9A805D8F79D5-2025-08-28-03-16-24","","null","","images/semantic_sequence/redecorating_a_house_semantic/redecorating_a_house_semantic_0.png","null","",""
"","","","","","image-button-response","25","244258","0.0-10.0-1.0-0.0","D66EA70CA4F64CC0B50F9A805D8F79D5","D66EA70CA4F64CC0B50F9A805D8F79D5","0198ee77-83cd-74fc-b2fb-bec5cdf412b9","0198ee3c-27ac-7803-a9ea-f3b4ad4ad678","{""num_scrambled_semantic"":""8"",""num_scrambled_causal"":""4"",""num_scrambled_schematic"":""4"",""participantId"":""D66EA70CA4F64CC0B50F9A805D8F79D5"",""assignmentId"":""0198ee77-83cd-74fc-b2fb-bec5cdf412b9"",""projectId"":""0198ee3c-27ac-7803-a9ea-f3b4ad4ad678""}","https://test12345.live/?num_scrambled_semantic=8&num_scrambled_causal=4&num_scrambled_schematic=4&participantId=D66EA70CA4F64CC0B50F9A805D8F79D5&assignmentId=0198ee77-83cd-74fc-b2fb-bec5cdf412b9&projectId=0198ee3c-27ac-7803-a9ea-f3b4ad4ad678","D66EA70CA4F64CC0B50F9A805D8F79D5-2025-08-28-03-16-24","","null","","images/semantic_sequence/redecorating_a_house_semantic/redecorating_a_house_semantic_1.png","null","",""
"","","","","","image-button-response","26","246787","0.0-10.0-1.0-1.0","D66EA70CA4F64CC0B50F9A805D8F79D5","D66EA70CA4F64CC0B50F9A805D8F79D5","0198ee77-83cd-74fc-b2fb-bec5cdf412b9","0198ee3c-27ac-7803-a9ea-f3b4ad4ad678","{""num_scrambled_semantic"":""8"",""num_scrambled_causal"":""4"",""num_scrambled_schematic"":""4"",""participantId"":""D66EA70CA4F64CC0B50F9A805D8F79D5"",""assignmentId"":""0198ee77-83cd-74fc-b2fb-bec5cdf412b9"",""projectId"":""0198ee3c-27ac-7803-a9ea-f3b4ad4ad678""}","https://test12345.live/?num_scrambled_semantic=8&num_scrambled_causal=4&num_scrambled_schematic=4&participantId=D66EA70CA4F64CC0B50F9A805D8F79D5&assignmentId=0198ee77-83cd-74fc-b2fb-bec5cdf412b9&projectId=0198ee3c-27ac-7803-a9ea-f3b4ad4ad678","D66EA70CA4F64CC0B50F9A805D8F79D5-2025-08-28-03-16-24","","2529","","images/semantic_sequence/redecorating_a_house_semantic/redecorating_a_house_semantic_1.png","0","",""
"","","","","","image-button-response","27","248598","0.0-10.0-1.0-2.0","D66EA70CA4F64CC0B50F9A805D8F79D5","D66EA70CA4F64CC0B50F9A805D8F79D5","0198ee77-83cd-74fc-b2fb-bec5cdf412b9","0198ee3c-27ac-7803-a9ea-f3b4ad4ad678","{""num_scrambled_semantic"":""8"",""num_scrambled_causal"":""4"",""num_scrambled_schematic"":""4"",""participantId"":""D66EA70CA4F64CC0B50F9A805D8F79D5"",""assignmentId"":""0198ee77-83cd-74fc-b2fb-bec5cdf412b9"",""projectId"":""0198ee3c-27ac-7803-a9ea-f3b4ad4ad678""}","https://test12345.live/?num_scrambled_semantic=8&num_scrambled_causal=4&num_scrambled_schematic=4&participantId=D66EA70CA4F64CC0B50F9A805D8F79D5&assignmentId=0198ee77-83cd-74fc-b2fb-bec5cdf412b9&projectId=0198ee3c-27ac-7803-a9ea-f3b4ad4ad678","D66EA70CA4F64CC0B50F9A805D8F79D5-2025-08-28-03-16-24","","null","","[]","null","",""
"","","","","","image-button-response","28","253104","0.0-10.0-1.0-0.1","D66EA70CA4F64CC0B50F9A805D8F79D5","D66EA70CA4F64CC0B50F9A805D8F79D5","0198ee77-83cd-74fc-b2fb-bec5cdf412b9","0198ee3c-27ac-7803-a9ea-f3b4ad4ad678","{""num_scrambled_semantic"":""8"",""num_scrambled_causal"":""4"",""num_scrambled_schematic"":""4"",""participantId"":""D66EA70CA4F64CC0B50F9A805D8F79D5"",""assignmentId"":""0198ee77-83cd-74fc-b2fb-bec5cdf412b9"",""projectId"":""0198ee3c-27ac-7803-a9ea-f3b4ad4ad678""}","https://test12345.live/?num_scrambled_semantic=8&num_scrambled_causal=4&num_scrambled_schematic=4&participantId=D66EA70CA4F64CC0B50F9A805D8F79D5&assignmentId=0198ee77-83cd-74fc-b2fb-bec5cdf412b9&projectId=0198ee3c-27ac-7803-a9ea-f3b4ad4ad678","D66EA70CA4F64CC0B50F9A805D8F79D5-2025-08-28-03-16-24","","null","","images/semantic_sequence/redecorating_a_house_semantic/redecorating_a_house_semantic_2.png","null","",""
"","","","","","image-button-response","29","255032","0.0-10.0-1.0-1.1","D66EA70CA4F64CC0B50F9A805D8F79D5","D66EA70CA4F64CC0B50F9A805D8F79D5","0198ee77-83cd-74fc-b2fb-bec5cdf412b9","0198ee3c-27ac-7803-a9ea-f3b4ad4ad678","{""num_scrambled_semantic"":""8"",""num_scrambled_causal"":""4"",""num_scrambled_schematic"":""4"",""participantId"":""D66EA70CA4F64CC0B50F9A805D8F79D5"",""assignmentId"":""0198ee77-83cd-74fc-b2fb-bec5cdf412b9"",""projectId"":""0198ee3c-27ac-7803-a9ea-f3b4ad4ad678""}","https://test12345.live/?num_scrambled_semantic=8&num_scrambled_causal=4&num_scrambled_schematic=4&participantId=D66EA70CA4F64CC0B50F9A805D8F79D5&assignmentId=0198ee77-83cd-74fc-b2fb-bec5cdf412b9&projectId=0198ee3c-27ac-7803-a9ea-f3b4ad4ad678","D66EA70CA4F64CC0B50F9A805D8F79D5-2025-08-28-03-16-24","","1927","","images/semantic_sequence/redecorating_a_house_semantic/redecorating_a_house_semantic_2.png","0","",""
"","","","","","image-button-response","30","256847","0.0-10.0-1.0-2.1","D66EA70CA4F64CC0B50F9A805D8F79D5","D66EA70CA4F64CC0B50F9A805D8F79D5","0198ee77-83cd-74fc-b2fb-bec5cdf412b9","0198ee3c-27ac-7803-a9ea-f3b4ad4ad678","{""num_scrambled_semantic"":""8"",""num_scrambled_causal"":""4"",""num_scrambled_schematic"":""4"",""participantId"":""D66EA70CA4F64CC0B50F9A805D8F79D5"",""assignmentId"":""0198ee77-83cd-74fc-b2fb-bec5cdf412b9"",""projectId"":""0198ee3c-27ac-7803-a9ea-f3b4ad4ad678""}","https://test12345.live/?num_scrambled_semantic=8&num_scrambled_causal=4&num_scrambled_schematic=4&participantId=D66EA70CA4F64CC0B50F9A805D8F79D5&assignmentId=0198ee77-83cd-74fc-b2fb-bec5cdf412b9&projectId=0198ee3c-27ac-7803-a9ea-f3b4ad4ad678","D66EA70CA4F64CC0B50F9A805D8F79D5-2025-08-28-03-16-24","","null","","[]","null","",""
"","","","","","image-button-response","31","261353","0.0-10.0-1.0-0.2","D66EA70CA4F64CC0B50F9A805D8F79D5","D66EA70CA4F64CC0B50F9A805D8F79D5","0198ee77-83cd-74fc-b2fb-bec5cdf412b9","0198ee3c-27ac-7803-a9ea-f3b4ad4ad678","{""num_scrambled_semantic"":""8"",""num_scrambled_causal"":""4"",""num_scrambled_schematic"":""4"",""participantId"":""D66EA70CA4F64CC0B50F9A805D8F79D5"",""assignmentId"":""0198ee77-83cd-74fc-b2fb-bec5cdf412b9"",""projectId"":""0198ee3c-27ac-7803-a9ea-f3b4ad4ad678""}","https://test12345.live/?num_scrambled_semantic=8&num_scrambled_causal=4&num_scrambled_schematic=4&participantId=D66EA70CA4F64CC0B50F9A805D8F79D5&assignmentId=0198ee77-83cd-74fc-b2fb-bec5cdf412b9&projectId=0198ee3c-27ac-7803-a9ea-f3b4ad4ad678","D66EA70CA4F64CC0B50F9A805D8F79D5-2025-08-28-03-16-24","","null","","images/semantic_sequence/redecorating_a_house_semantic/redecorating_a_house_semantic_3.png","null","",""
"","","","","","image-button-response","32","262722","0.0-10.0-1.0-1.2","D66EA70CA4F64CC0B50F9A805D8F79D5","D66EA70CA4F64CC0B50F9A805D8F79D5","0198ee77-83cd-74fc-b2fb-bec5cdf412b9","0198ee3c-27ac-7803-a9ea-f3b4ad4ad678","{""num_scrambled_semantic"":""8"",""num_scrambled_causal"":""4"",""num_scrambled_schematic"":""4"",""participantId"":""D66EA70CA4F64CC0B50F9A805D8F79D5"",""assignmentId"":""0198ee77-83cd-74fc-b2fb-bec5cdf412b9"",""projectId"":""0198ee3c-27ac-7803-a9ea-f3b4ad4ad678""}","https://test12345.live/?num_scrambled_semantic=8&num_scrambled_causal=4&num_scrambled_schematic=4&participantId=D66EA70CA4F64CC0B50F9A805D8F79D5&assignmentId=0198ee77-83cd-74fc-b2fb-bec5cdf412b9&projectId=0198ee3c-27ac-7803-a9ea-f3b4ad4ad678","D66EA70CA4F64CC0B50F9A805D8F79D5-2025-08-28-03-16-24","","1369","","images/semantic_sequence/redecorating_a_house_semantic/redecorating_a_house_semantic_3.png","0","",""
"","","","","","image-button-response","33","264525","0.0-10.0-1.0-2.2","D66EA70CA4F64CC0B50F9A805D8F79D5","D66EA70CA4F64CC0B50F9A805D8F79D5","0198ee77-83cd-74fc-b2fb-bec5cdf412b9","0198ee3c-27ac-7803-a9ea-f3b4ad4ad678","{""num_scrambled_semantic"":""8"",""num_scrambled_causal"":""4"",""num_scrambled_schematic"":""4"",""participantId"":""D66EA70CA4F64CC0B50F9A805D8F79D5"",""assignmentId"":""0198ee77-83cd-74fc-b2fb-bec5cdf412b9"",""projectId"":""0198ee3c-27ac-7803-a9ea-f3b4ad4ad678""}","https://test12345.live/?num_scrambled_semantic=8&num_scrambled_causal=4&num_scrambled_schematic=4&participantId=D66EA70CA4F64CC0B50F9A805D8F79D5&assignmentId=0198ee77-83cd-74fc-b2fb-bec5cdf412b9&projectId=0198ee3c-27ac-7803-a9ea-f3b4ad4ad678","D66EA70CA4F64CC0B50F9A805D8F79D5-2025-08-28-03-16-24","","null","","[]","null","",""
"","","","","","image-button-response","34","269026","0.0-10.0-1.0-0.3","D66EA70CA4F64CC0B50F9A805D8F79D5","D66EA70CA4F64CC0B50F9A805D8F79D5","0198ee77-83cd-74fc-b2fb-bec5cdf412b9","0198ee3c-27ac-7803-a9ea-f3b4ad4ad678","{""num_scrambled_semantic"":""8"",""num_scrambled_causal"":""4"",""num_scrambled_schematic"":""4"",""participantId"":""D66EA70CA4F64CC0B50F9A805D8F79D5"",""assignmentId"":""0198ee77-83cd-74fc-b2fb-bec5cdf412b9"",""projectId"":""0198ee3c-27ac-7803-a9ea-f3b4ad4ad678""}","https://test12345.live/?num_scrambled_semantic=8&num_scrambled_causal=4&num_scrambled_schematic=4&participantId=D66EA70CA4F64CC0B50F9A805D8F79D5&assignmentId=0198ee77-83cd-74fc-b2fb-bec5cdf412b9&projectId=0198ee3c-27ac-7803-a9ea-f3b4ad4ad678","D66EA70CA4F64CC0B50F9A805D8F79D5-2025-08-28-03-16-24","","null","","images/semantic_sequence/redecorating_a_house_semantic/redecorating_a_house_semantic_4.png","null","",""
"","","","","","image-button-response","35","272381","0.0-10.0-1.0-1.3","D66EA70CA4F64CC0B50F9A805D8F79D5","D66EA70CA4F64CC0B50F9A805D8F79D5","0198ee77-83cd-74fc-b2fb-bec5cdf412b9","0198ee3c-27ac-7803-a9ea-f3b4ad4ad678","{""num_scrambled_semantic"":""8"",""num_scrambled_causal"":""4"",""num_scrambled_schematic"":""4"",""participantId"":""D66EA70CA4F64CC0B50F9A805D8F79D5"",""assignmentId"":""0198ee77-83cd-74fc-b2fb-bec5cdf412b9"",""projectId"":""0198ee3c-27ac-7803-a9ea-f3b4ad4ad678""}","https://test12345.live/?num_scrambled_semantic=8&num_scrambled_causal=4&num_scrambled_schematic=4&participantId=D66EA70CA4F64CC0B50F9A805D8F79D5&assignmentId=0198ee77-83cd-74fc-b2fb-bec5cdf412b9&projectId=0198ee3c-27ac-7803-a9ea-f3b4ad4ad678","D66EA70CA4F64CC0B50F9A805D8F79D5-2025-08-28-03-16-24","","3354","","images/semantic_sequence/redecorating_a_house_semantic/redecorating_a_house_semantic_4.png","0","",""
"","","","","","image-button-response","36","274183","0.0-10.0-1.0-2.3","D66EA70CA4F64CC0B50F9A805D8F79D5","D66EA70CA4F64CC0B50F9A805D8F79D5","0198ee77-83cd-74fc-b2fb-bec5cdf412b9","0198ee3c-27ac-7803-a9ea-f3b4ad4ad678","{""num_scrambled_semantic"":""8"",""num_scrambled_causal"":""4"",""num_scrambled_schematic"":""4"",""participantId"":""D66EA70CA4F64CC0B50F9A805D8F79D5"",""assignmentId"":""0198ee77-83cd-74fc-b2fb-bec5cdf412b9"",""projectId"":""0198ee3c-27ac-7803-a9ea-f3b4ad4ad678""}","https://test12345.live/?num_scrambled_semantic=8&num_scrambled_causal=4&num_scrambled_schematic=4&participantId=D66EA70CA4F64CC0B50F9A805D8F79D5&assignmentId=0198ee77-83cd-74fc-b2fb-bec5cdf412b9&projectId=0198ee3c-27ac-7803-a9ea-f3b4ad4ad678","D66EA70CA4F64CC0B50F9A805D8F79D5-2025-08-28-03-16-24","","null","","[]","null","",""
"","","","","","image-button-response","37","278694","0.0-10.0-1.0-0.4","D66EA70CA4F64CC0B50F9A805D8F79D5","D66EA70CA4F64CC0B50F9A805D8F79D5","0198ee77-83cd-74fc-b2fb-bec5cdf412b9","0198ee3c-27ac-7803-a9ea-f3b4ad4ad678","{""num_scrambled_semantic"":""8"",""num_scrambled_causal"":""4"",""num_scrambled_schematic"":""4"",""participantId"":""D66EA70CA4F64CC0B50F9A805D8F79D5"",""assignmentId"":""0198ee77-83cd-74fc-b2fb-bec5cdf412b9"",""projectId"":""0198ee3c-27ac-7803-a9ea-f3b4ad4ad678""}","https://test12345.live/?num_scrambled_semantic=8&num_scrambled_causal=4&num_scrambled_schematic=4&participantId=D66EA70CA4F64CC0B50F9A805D8F79D5&assignmentId=0198ee77-83cd-74fc-b2fb-bec5cdf412b9&projectId=0198ee3c-27ac-7803-a9ea-f3b4ad4ad678","D66EA70CA4F64CC0B50F9A805D8F79D5-2025-08-28-03-16-24","","null","","images/semantic_sequence/redecorating_a_house_semantic/redecorating_a_house_semantic_5.png","null","",""
"","","","","","image-button-response","38","280878","0.0-10.0-1.0-1.4","D66EA70CA4F64CC0B50F9A805D8F79D5","D66EA70CA4F64CC0B50F9A805D8F79D5","0198ee77-83cd-74fc-b2fb-bec5cdf412b9","0198ee3c-27ac-7803-a9ea-f3b4ad4ad678","{""num_scrambled_semantic"":""8"",""num_scrambled_causal"":""4"",""num_scrambled_schematic"":""4"",""participantId"":""D66EA70CA4F64CC0B50F9A805D8F79D5"",""assignmentId"":""0198ee77-83cd-74fc-b2fb-bec5cdf412b9"",""projectId"":""0198ee3c-27ac-7803-a9ea-f3b4ad4ad678""}","https://test12345.live/?num_scrambled_semantic=8&num_scrambled_causal=4&num_scrambled_schematic=4&participantId=D66EA70CA4F64CC0B50F9A805D8F79D5&assignmentId=0198ee77-83cd-74fc-b2fb-bec5cdf412b9&projectId=0198ee3c-27ac-7803-a9ea-f3b4ad4ad678","D66EA70CA4F64CC0B50F9A805D8F79D5-2025-08-28-03-16-24","","2184","","images/semantic_sequence/redecorating_a_house_semantic/redecorating_a_house_semantic_5.png","0","",""
"","","","","","image-button-response","39","282688","0.0-10.0-1.0-2.4","D66EA70CA4F64CC0B50F9A805D8F79D5","D66EA70CA4F64CC0B50F9A805D8F79D5","0198ee77-83cd-74fc-b2fb-bec5cdf412b9","0198ee3c-27ac-7803-a9ea-f3b4ad4ad678","{""num_scrambled_semantic"":""8"",""num_scrambled_causal"":""4"",""num_scrambled_schematic"":""4"",""participantId"":""D66EA70CA4F64CC0B50F9A805D8F79D5"",""assignmentId"":""0198ee77-83cd-74fc-b2fb-bec5cdf412b9"",""projectId"":""0198ee3c-27ac-7803-a9ea-f3b4ad4ad678""}","https://test12345.live/?num_scrambled_semantic=8&num_scrambled_causal=4&num_scrambled_schematic=4&participantId=D66EA70CA4F64CC0B50F9A805D8F79D5&assignmentId=0198ee77-83cd-74fc-b2fb-bec5cdf412b9&projectId=0198ee3c-27ac-7803-a9ea-f3b4ad4ad678","D66EA70CA4F64CC0B50F9A805D8F79D5-2025-08-28-03-16-24","","null","","[]","null","",""
"","","","","","image-button-response","40","287196","0.0-10.0-1.0-0.5","D66EA70CA4F64CC0B50F9A805D8F79D5","D66EA70CA4F64CC0B50F9A805D8F79D5","0198ee77-83cd-74fc-b2fb-bec5cdf412b9","0198ee3c-27ac-7803-a9ea-f3b4ad4ad678","{""num_scrambled_semantic"":""8"",""num_scrambled_causal"":""4"",""num_scrambled_schematic"":""4"",""participantId"":""D66EA70CA4F64CC0B50F9A805D8F79D5"",""assignmentId"":""0198ee77-83cd-74fc-b2fb-bec5cdf412b9"",""projectId"":""0198ee3c-27ac-7803-a9ea-f3b4ad4ad678""}","https://test12345.live/?num_scrambled_semantic=8&num_scrambled_causal=4&num_scrambled_schematic=4&participantId=D66EA70CA4F64CC0B50F9A805D8F79D5&assignmentId=0198ee77-83cd-74fc-b2fb-bec5cdf412b9&projectId=0198ee3c-27ac-7803-a9ea-f3b4ad4ad678","D66EA70CA4F64CC0B50F9A805D8F79D5-2025-08-28-03-16-24","","null","","images/semantic_sequence/redecorating_a_house_semantic/redecorating_a_house_semantic_6.png","null","",""
"","","","","","image-button-response","41","291202","0.0-10.0-1.0-1.5","D66EA70CA4F64CC0B50F9A805D8F79D5","D66EA70CA4F64CC0B50F9A805D8F79D5","0198ee77-83cd-74fc-b2fb-bec5cdf412b9","0198ee3c-27ac-7803-a9ea-f3b4ad4ad678","{""num_scrambled_semantic"":""8"",""num_scrambled_causal"":""4"",""num_scrambled_schematic"":""4"",""participantId"":""D66EA70CA4F64CC0B50F9A805D8F79D5"",""assignmentId"":""0198ee77-83cd-74fc-b2fb-bec5cdf412b9"",""projectId"":""0198ee3c-27ac-7803-a9ea-f3b4ad4ad678""}","https://test12345.live/?num_scrambled_semantic=8&num_scrambled_causal=4&num_scrambled_schematic=4&participantId=D66EA70CA4F64CC0B50F9A805D8F79D5&assignmentId=0198ee77-83cd-74fc-b2fb-bec5cdf412b9&projectId=0198ee3c-27ac-7803-a9ea-f3b4ad4ad678","D66EA70CA4F64CC0B50F9A805D8F79D5-2025-08-28-03-16-24","","null","","images/semantic_sequence/redecorating_a_house_semantic/redecorating_a_house_semantic_6.png","null","",""
"","","","","","image-button-response","42","293012","0.0-10.0-1.0-2.5","D66EA70CA4F64CC0B50F9A805D8F79D5","D66EA70CA4F64CC0B50F9A805D8F79D5","0198ee77-83cd-74fc-b2fb-bec5cdf412b9","0198ee3c-27ac-7803-a9ea-f3b4ad4ad678","{""num_scrambled_semantic"":""8"",""num_scrambled_causal"":""4"",""num_scrambled_schematic"":""4"",""participantId"":""D66EA70CA4F64CC0B50F9A805D8F79D5"",""assignmentId"":""0198ee77-83cd-74fc-b2fb-bec5cdf412b9"",""projectId"":""0198ee3c-27ac-7803-a9ea-f3b4ad4ad678""}","https://test12345.live/?num_scrambled_semantic=8&num_scrambled_causal=4&num_scrambled_schematic=4&participantId=D66EA70CA4F64CC0B50F9A805D8F79D5&assignmentId=0198ee77-83cd-74fc-b2fb-bec5cdf412b9&projectId=0198ee3c-27ac-7803-a9ea-f3b4ad4ad678","D66EA70CA4F64CC0B50F9A805D8F79D5-2025-08-28-03-16-24","","null","","[]","null","",""
"","","","","","image-button-response","43","297515","0.0-10.0-1.0-0.6","D66EA70CA4F64CC0B50F9A805D8F79D5","D66EA70CA4F64CC0B50F9A805D8F79D5","0198ee77-83cd-74fc-b2fb-bec5cdf412b9","0198ee3c-27ac-7803-a9ea-f3b4ad4ad678","{""num_scrambled_semantic"":""8"",""num_scrambled_causal"":""4"",""num_scrambled_schematic"":""4"",""participantId"":""D66EA70CA4F64CC0B50F9A805D8F79D5"",""assignmentId"":""0198ee77-83cd-74fc-b2fb-bec5cdf412b9"",""projectId"":""0198ee3c-27ac-7803-a9ea-f3b4ad4ad678""}","https://test12345.live/?num_scrambled_semantic=8&num_scrambled_causal=4&num_scrambled_schematic=4&participantId=D66EA70CA4F64CC0B50F9A805D8F79D5&assignmentId=0198ee77-83cd-74fc-b2fb-bec5cdf412b9&projectId=0198ee3c-27ac-7803-a9ea-f3b4ad4ad678","D66EA70CA4F64CC0B50F9A805D8F79D5-2025-08-28-03-16-24","","null","","images/semantic_sequence/redecorating_a_house_semantic/redecorating_a_house_semantic_7.png","null","",""
"","","","","","image-button-response","44","298999","0.0-10.0-1.0-1.6","D66EA70CA4F64CC0B50F9A805D8F79D5","D66EA70CA4F64CC0B50F9A805D8F79D5","0198ee77-83cd-74fc-b2fb-bec5cdf412b9","0198ee3c-27ac-7803-a9ea-f3b4ad4ad678","{""num_scrambled_semantic"":""8"",""num_scrambled_causal"":""4"",""num_scrambled_schematic"":""4"",""participantId"":""D66EA70CA4F64CC0B50F9A805D8F79D5"",""assignmentId"":""0198ee77-83cd-74fc-b2fb-bec5cdf412b9"",""projectId"":""0198ee3c-27ac-7803-a9ea-f3b4ad4ad678""}","https://test12345.live/?num_scrambled_semantic=8&num_scrambled_causal=4&num_scrambled_schematic=4&participantId=D66EA70CA4F64CC0B50F9A805D8F79D5&assignmentId=0198ee77-83cd-74fc-b2fb-bec5cdf412b9&projectId=0198ee3c-27ac-7803-a9ea-f3b4ad4ad678","D66EA70CA4F64CC0B50F9A805D8F79D5-2025-08-28-03-16-24","","1483","","images/semantic_sequence/redecorating_a_house_semantic/redecorating_a_house_semantic_7.png","0","",""
"","","","","","image-button-response","45","300809","0.0-10.0-1.0-2.6","D66EA70CA4F64CC0B50F9A805D8F79D5","D66EA70CA4F64CC0B50F9A805D8F79D5","0198ee77-83cd-74fc-b2fb-bec5cdf412b9","0198ee3c-27ac-7803-a9ea-f3b4ad4ad678","{""num_scrambled_semantic"":""8"",""num_scrambled_causal"":""4"",""num_scrambled_schematic"":""4"",""participantId"":""D66EA70CA4F64CC0B50F9A805D8F79D5"",""assignmentId"":""0198ee77-83cd-74fc-b2fb-bec5cdf412b9"",""projectId"":""0198ee3c-27ac-7803-a9ea-f3b4ad4ad678""}","https://test12345.live/?num_scrambled_semantic=8&num_scrambled_causal=4&num_scrambled_schematic=4&participantId=D66EA70CA4F64CC0B50F9A805D8F79D5&assignmentId=0198ee77-83cd-74fc-b2fb-bec5cdf412b9&projectId=0198ee3c-27ac-7803-a9ea-f3b4ad4ad678","D66EA70CA4F64CC0B50F9A805D8F79D5-2025-08-28-03-16-24","","null","","[]","null","",""
"","","","","","image-button-response","46","305314","0.0-10.0-1.0-0.7","D66EA70CA4F64CC0B50F9A805D8F79D5","D66EA70CA4F64CC0B50F9A805D8F79D5","0198ee77-83cd-74fc-b2fb-bec5cdf412b9","0198ee3c-27ac-7803-a9ea-f3b4ad4ad678","{""num_scrambled_semantic"":""8"",""num_scrambled_causal"":""4"",""num_scrambled_schematic"":""4"",""participantId"":""D66EA70CA4F64CC0B50F9A805D8F79D5"",""assignmentId"":""0198ee77-83cd-74fc-b2fb-bec5cdf412b9"",""projectId"":""0198ee3c-27ac-7803-a9ea-f3b4ad4ad678""}","https://test12345.live/?num_scrambled_semantic=8&num_scrambled_causal=4&num_scrambled_schematic=4&participantId=D66EA70CA4F64CC0B50F9A805D8F79D5&assignmentId=0198ee77-83cd-74fc-b2fb-bec5cdf412b9&projectId=0198ee3c-27ac-7803-a9ea-f3b4ad4ad678","D66EA70CA4F64CC0B50F9A805D8F79D5-2025-08-28-03-16-24","","null","","images/semantic_sequence/redecorating_a_house_semantic/redecorating_a_house_semantic_8.png","null","",""
"","","","","","image-button-response","47","307837","0.0-10.0-1.0-1.7","D66EA70CA4F64CC0B50F9A805D8F79D5","D66EA70CA4F64CC0B50F9A805D8F79D5","0198ee77-83cd-74fc-b2fb-bec5cdf412b9","0198ee3c-27ac-7803-a9ea-f3b4ad4ad678","{""num_scrambled_semantic"":""8"",""num_scrambled_causal"":""4"",""num_scrambled_schematic"":""4"",""participantId"":""D66EA70CA4F64CC0B50F9A805D8F79D5"",""assignmentId"":""0198ee77-83cd-74fc-b2fb-bec5cdf412b9"",""projectId"":""0198ee3c-27ac-7803-a9ea-f3b4ad4ad678""}","https://test12345.live/?num_scrambled_semantic=8&num_scrambled_causal=4&num_scrambled_schematic=4&participantId=D66EA70CA4F64CC0B50F9A805D8F79D5&assignmentId=0198ee77-83cd-74fc-b2fb-bec5cdf412b9&projectId=0198ee3c-27ac-7803-a9ea-f3b4ad4ad678","D66EA70CA4F64CC0B50F9A805D8F79D5-2025-08-28-03-16-24","","2522","","images/semantic_sequence/redecorating_a_house_semantic/redecorating_a_house_semantic_8.png","0","",""
"","","","","","image-button-response","48","309650","0.0-10.0-1.0-2.7","D66EA70CA4F64CC0B50F9A805D8F79D5","D66EA70CA4F64CC0B50F9A805D8F79D5","0198ee77-83cd-74fc-b2fb-bec5cdf412b9","0198ee3c-27ac-7803-a9ea-f3b4ad4ad678","{""num_scrambled_semantic"":""8"",""num_scrambled_causal"":""4"",""num_scrambled_schematic"":""4"",""participantId"":""D66EA70CA4F64CC0B50F9A805D8F79D5"",""assignmentId"":""0198ee77-83cd-74fc-b2fb-bec5cdf412b9"",""projectId"":""0198ee3c-27ac-7803-a9ea-f3b4ad4ad678""}","https://test12345.live/?num_scrambled_semantic=8&num_scrambled_causal=4&num_scrambled_schematic=4&participantId=D66EA70CA4F64CC0B50F9A805D8F79D5&assignmentId=0198ee77-83cd-74fc-b2fb-bec5cdf412b9&projectId=0198ee3c-27ac-7803-a9ea-f3b4ad4ad678","D66EA70CA4F64CC0B50F9A805D8F79D5-2025-08-28-03-16-24","","null","","[]","null","",""
"","","","","","image-button-response","49","314151","0.0-10.0-1.0-0.8","D66EA70CA4F64CC0B50F9A805D8F79D5","D66EA70CA4F64CC0B50F9A805D8F79D5","0198ee77-83cd-74fc-b2fb-bec5cdf412b9","0198ee3c-27ac-7803-a9ea-f3b4ad4ad678","{""num_scrambled_semantic"":""8"",""num_scrambled_causal"":""4"",""num_scrambled_schematic"":""4"",""participantId"":""D66EA70CA4F64CC0B50F9A805D8F79D5"",""assignmentId"":""0198ee77-83cd-74fc-b2fb-bec5cdf412b9"",""projectId"":""0198ee3c-27ac-7803-a9ea-f3b4ad4ad678""}","https://test12345.live/?num_scrambled_semantic=8&num_scrambled_causal=4&num_scrambled_schematic=4&participantId=D66EA70CA4F64CC0B50F9A805D8F79D5&assignmentId=0198ee77-83cd-74fc-b2fb-bec5cdf412b9&projectId=0198ee3c-27ac-7803-a9ea-f3b4ad4ad678","D66EA70CA4F64CC0B50F9A805D8F79D5-2025-08-28-03-16-24","","null","","images/semantic_sequence/redecorating_a_house_semantic/redecorating_a_house_semantic_9.png","null","",""
"","","","","","image-button-response","50","315839","0.0-10.0-1.0-1.8","D66EA70CA4F64CC0B50F9A805D8F79D5","D66EA70CA4F64CC0B50F9A805D8F79D5","0198ee77-83cd-74fc-b2fb-bec5cdf412b9","0198ee3c-27ac-7803-a9ea-f3b4ad4ad678","{""num_scrambled_semantic"":""8"",""num_scrambled_causal"":""4"",""num_scrambled_schematic"":""4"",""participantId"":""D66EA70CA4F64CC0B50F9A805D8F79D5"",""assignmentId"":""0198ee77-83cd-74fc-b2fb-bec5cdf412b9"",""projectId"":""0198ee3c-27ac-7803-a9ea-f3b4ad4ad678""}","https://test12345.live/?num_scrambled_semantic=8&num_scrambled_causal=4&num_scrambled_schematic=4&participantId=D66EA70CA4F64CC0B50F9A805D8F79D5&assignmentId=0198ee77-83cd-74fc-b2fb-bec5cdf412b9&projectId=0198ee3c-27ac-7803-a9ea-f3b4ad4ad678","D66EA70CA4F64CC0B50F9A805D8F79D5-2025-08-28-03-16-24","","1687","","images/semantic_sequence/redecorating_a_house_semantic/redecorating_a_house_semantic_9.png","0","",""
"","","","","","image-button-response","51","317650","0.0-10.0-1.0-2.8","D66EA70CA4F64CC0B50F9A805D8F79D5","D66EA70CA4F64CC0B50F9A805D8F79D5","0198ee77-83cd-74fc-b2fb-bec5cdf412b9","0198ee3c-27ac-7803-a9ea-f3b4ad4ad678","{""num_scrambled_semantic"":""8"",""num_scrambled_causal"":""4"",""num_scrambled_schematic"":""4"",""participantId"":""D66EA70CA4F64CC0B50F9A805D8F79D5"",""assignmentId"":""0198ee77-83cd-74fc-b2fb-bec5cdf412b9"",""projectId"":""0198ee3c-27ac-7803-a9ea-f3b4ad4ad678""}","https://test12345.live/?num_scrambled_semantic=8&num_scrambled_causal=4&num_scrambled_schematic=4&participantId=D66EA70CA4F64CC0B50F9A805D8F79D5&assignmentId=0198ee77-83cd-74fc-b2fb-bec5cdf412b9&projectId=0198ee3c-27ac-7803-a9ea-f3b4ad4ad678","D66EA70CA4F64CC0B50F9A805D8F79D5-2025-08-28-03-16-24","","null","","[]","null","",""
"","","","","","image-button-response","52","322152","0.0-10.0-1.0-0.9","D66EA70CA4F64CC0B50F9A805D8F79D5","D66EA70CA4F64CC0B50F9A805D8F79D5","0198ee77-83cd-74fc-b2fb-bec5cdf412b9","0198ee3c-27ac-7803-a9ea-f3b4ad4ad678","{""num_scrambled_semantic"":""8"",""num_scrambled_causal"":""4"",""num_scrambled_schematic"":""4"",""participantId"":""D66EA70CA4F64CC0B50F9A805D8F79D5"",""assignmentId"":""0198ee77-83cd-74fc-b2fb-bec5cdf412b9"",""projectId"":""0198ee3c-27ac-7803-a9ea-f3b4ad4ad678""}","https://test12345.live/?num_scrambled_semantic=8&num_scrambled_causal=4&num_scrambled_schematic=4&participantId=D66EA70CA4F64CC0B50F9A805D8F79D5&assignmentId=0198ee77-83cd-74fc-b2fb-bec5cdf412b9&projectId=0198ee3c-27ac-7803-a9ea-f3b4ad4ad678","D66EA70CA4F64CC0B50F9A805D8F79D5-2025-08-28-03-16-24","","null","","images/semantic_sequence/redecorating_a_house_semantic/redecorating_a_house_semantic_ten.png","null","",""
"","","","","","image-button-response","53","323948","0.0-10.0-1.0-1.9","D66EA70CA4F64CC0B50F9A805D8F79D5","D66EA70CA4F64CC0B50F9A805D8F79D5","0198ee77-83cd-74fc-b2fb-bec5cdf412b9","0198ee3c-27ac-7803-a9ea-f3b4ad4ad678","{""num_scrambled_semantic"":""8"",""num_scrambled_causal"":""4"",""num_scrambled_schematic"":""4"",""participantId"":""D66EA70CA4F64CC0B50F9A805D8F79D5"",""assignmentId"":""0198ee77-83cd-74fc-b2fb-bec5cdf412b9"",""projectId"":""0198ee3c-27ac-7803-a9ea-f3b4ad4ad678""}","https://test12345.live/?num_scrambled_semantic=8&num_scrambled_causal=4&num_scrambled_schematic=4&participantId=D66EA70CA4F64CC0B50F9A805D8F79D5&assignmentId=0198ee77-83cd-74fc-b2fb-bec5cdf412b9&projectId=0198ee3c-27ac-7803-a9ea-f3b4ad4ad678","D66EA70CA4F64CC0B50F9A805D8F79D5-2025-08-28-03-16-24","","1796","","images/semantic_sequence/redecorating_a_house_semantic/redecorating_a_house_semantic_ten.png","0","",""
"","","","","","image-button-response","54","325756","0.0-10.0-1.0-2.9","D66EA70CA4F64CC0B50F9A805D8F79D5","D66EA70CA4F64CC0B50F9A805D8F79D5","0198ee77-83cd-74fc-b2fb-bec5cdf412b9","0198ee3c-27ac-7803-a9ea-f3b4ad4ad678","{""num_scrambled_semantic"":""8"",""num_scrambled_causal"":""4"",""num_scrambled_schematic"":""4"",""participantId"":""D66EA70CA4F64CC0B50F9A805D8F79D5"",""assignmentId"":""0198ee77-83cd-74fc-b2fb-bec5cdf412b9"",""projectId"":""0198ee3c-27ac-7803-a9ea-f3b4ad4ad678""}","https://test12345.live/?num_scrambled_semantic=8&num_scrambled_causal=4&num_scrambled_schematic=4&participantId=D66EA70CA4F64CC0B50F9A805D8F79D5&assignmentId=0198ee77-83cd-74fc-b2fb-bec5cdf412b9&projectId=0198ee3c-27ac-7803-a9ea-f3b4ad4ad678","D66EA70CA4F64CC0B50F9A805D8F79D5-2025-08-28-03-16-24","","null","","[]","null","",""
"","","","","","html-audio-response","55","453537","0.0-11.0","D66EA70CA4F64CC0B50F9A805D8F79D5","D66EA70CA4F64CC0B50F9A805D8F79D5","0198ee77-83cd-74fc-b2fb-bec5cdf412b9","0198ee3c-27ac-7803-a9ea-f3b4ad4ad678","{""num_scrambled_semantic"":""8"",""num_scrambled_causal"":""4"",""num_scrambled_schematic"":""4"",""participantId"":""D66EA70CA4F64CC0B50F9A805D8F79D5"",""assignmentId"":""0198ee77-83cd-74fc-b2fb-bec5cdf412b9"",""projectId"":""0198ee3c-27ac-7803-a9ea-f3b4ad4ad678""}","https://test12345.live/?num_scrambled_semantic=8&num_scrambled_causal=4&num_scrambled_schematic=4&participantId=D66EA70CA4F64CC0B50F9A805D8F79D5&assignmentId=0198ee77-83cd-74fc-b2fb-bec5cdf412b9&projectId=0198ee3c-27ac-7803-a9ea-f3b4ad4ad678","D66EA70CA4F64CC0B50F9A805D8F79D5-2025-08-28-03-16-24","","2833","","[""<span style=\""color: red; font-size: 24px\""> NOW RECORDING</span><p>Please say out loud all the images you saw, in the order of the story they create. Try to recall the sequence of events as they appeared in the story, not necessarily the order they were presented on the screen.</p>""]","","1","redecorating_a_house_semantic"
"","","","","","image-button-response","56","459557","0.0-12.0-0.0","D66EA70CA4F64CC0B50F9A805D8F79D5","D66EA70CA4F64CC0B50F9A805D8F79D5","0198ee77-83cd-74fc-b2fb-bec5cdf412b9","0198ee3c-27ac-7803-a9ea-f3b4ad4ad678","{""num_scrambled_semantic"":""8"",""num_scrambled_causal"":""4"",""num_scrambled_schematic"":""4"",""participantId"":""D66EA70CA4F64CC0B50F9A805D8F79D5"",""assignmentId"":""0198ee77-83cd-74fc-b2fb-bec5cdf412b9"",""projectId"":""0198ee3c-27ac-7803-a9ea-f3b4ad4ad678""}","https://test12345.live/?num_scrambled_semantic=8&num_scrambled_causal=4&num_scrambled_schematic=4&participantId=D66EA70CA4F64CC0B50F9A805D8F79D5&assignmentId=0198ee77-83cd-74fc-b2fb-bec5cdf412b9&projectId=0198ee3c-27ac-7803-a9ea-f3b4ad4ad678","D66EA70CA4F64CC0B50F9A805D8F79D5-2025-08-28-03-16-24","","null","","images/semantic_sequence/using_technology_semantic/using_technology_semantic_0.png","null","",""
"","","","","","image-button-response","57","464062","0.0-12.0-1.0-0.0","D66EA70CA4F64CC0B50F9A805D8F79D5","D66EA70CA4F64CC0B50F9A805D8F79D5","0198ee77-83cd-74fc-b2fb-bec5cdf412b9","0198ee3c-27ac-7803-a9ea-f3b4ad4ad678","{""num_scrambled_semantic"":""8"",""num_scrambled_causal"":""4"",""num_scrambled_schematic"":""4"",""participantId"":""D66EA70CA4F64CC0B50F9A805D8F79D5"",""assignmentId"":""0198ee77-83cd-74fc-b2fb-bec5cdf412b9"",""projectId"":""0198ee3c-27ac-7803-a9ea-f3b4ad4ad678""}","https://test12345.live/?num_scrambled_semantic=8&num_scrambled_causal=4&num_scrambled_schematic=4&participantId=D66EA70CA4F64CC0B50F9A805D8F79D5&assignmentId=0198ee77-83cd-74fc-b2fb-bec5cdf412b9&projectId=0198ee3c-27ac-7803-a9ea-f3b4ad4ad678","D66EA70CA4F64CC0B50F9A805D8F79D5-2025-08-28-03-16-24","","null","","images/semantic_sequence/using_technology_semantic/using_technology_semantic_6.png","null","",""
"","","","","","image-button-response","58","466146","0.0-12.0-1.0-1.0","D66EA70CA4F64CC0B50F9A805D8F79D5","D66EA70CA4F64CC0B50F9A805D8F79D5","0198ee77-83cd-74fc-b2fb-bec5cdf412b9","0198ee3c-27ac-7803-a9ea-f3b4ad4ad678","{""num_scrambled_semantic"":""8"",""num_scrambled_causal"":""4"",""num_scrambled_schematic"":""4"",""participantId"":""D66EA70CA4F64CC0B50F9A805D8F79D5"",""assignmentId"":""0198ee77-83cd-74fc-b2fb-bec5cdf412b9"",""projectId"":""0198ee3c-27ac-7803-a9ea-f3b4ad4ad678""}","https://test12345.live/?num_scrambled_semantic=8&num_scrambled_causal=4&num_scrambled_schematic=4&participantId=D66EA70CA4F64CC0B50F9A805D8F79D5&assignmentId=0198ee77-83cd-74fc-b2fb-bec5cdf412b9&projectId=0198ee3c-27ac-7803-a9ea-f3b4ad4ad678","D66EA70CA4F64CC0B50F9A805D8F79D5-2025-08-28-03-16-24","","2084","","images/semantic_sequence/using_technology_semantic/using_technology_semantic_6.png","0","",""
"","","","","","image-button-response","59","467957","0.0-12.0-1.0-2.0","D66EA70CA4F64CC0B50F9A805D8F79D5","D66EA70CA4F64CC0B50F9A805D8F79D5","0198ee77-83cd-74fc-b2fb-bec5cdf412b9","0198ee3c-27ac-7803-a9ea-f3b4ad4ad678","{""num_scrambled_semantic"":""8"",""num_scrambled_causal"":""4"",""num_scrambled_schematic"":""4"",""participantId"":""D66EA70CA4F64CC0B50F9A805D8F79D5"",""assignmentId"":""0198ee77-83cd-74fc-b2fb-bec5cdf412b9"",""projectId"":""0198ee3c-27ac-7803-a9ea-f3b4ad4ad678""}","https://test12345.live/?num_scrambled_semantic=8&num_scrambled_causal=4&num_scrambled_schematic=4&participantId=D66EA70CA4F64CC0B50F9A805D8F79D5&assignmentId=0198ee77-83cd-74fc-b2fb-bec5cdf412b9&projectId=0198ee3c-27ac-7803-a9ea-f3b4ad4ad678","D66EA70CA4F64CC0B50F9A805D8F79D5-2025-08-28-03-16-24","","null","","[]","null","",""
"","","","","","image-button-response","60","472460","0.0-12.0-1.0-0.1","D66EA70CA4F64CC0B50F9A805D8F79D5","D66EA70CA4F64CC0B50F9A805D8F79D5","0198ee77-83cd-74fc-b2fb-bec5cdf412b9","0198ee3c-27ac-7803-a9ea-f3b4ad4ad678","{""num_scrambled_semantic"":""8"",""num_scrambled_causal"":""4"",""num_scrambled_schematic"":""4"",""participantId"":""D66EA70CA4F64CC0B50F9A805D8F79D5"",""assignmentId"":""0198ee77-83cd-74fc-b2fb-bec5cdf412b9"",""projectId"":""0198ee3c-27ac-7803-a9ea-f3b4ad4ad678""}","https://test12345.live/?num_scrambled_semantic=8&num_scrambled_causal=4&num_scrambled_schematic=4&participantId=D66EA70CA4F64CC0B50F9A805D8F79D5&assignmentId=0198ee77-83cd-74fc-b2fb-bec5cdf412b9&projectId=0198ee3c-27ac-7803-a9ea-f3b4ad4ad678","D66EA70CA4F64CC0B50F9A805D8F79D5-2025-08-28-03-16-24","","null","","images/semantic_sequence/using_technology_semantic/using_technology_semantic_4.png","null","",""
"","","","","","image-button-response","61","474207","0.0-12.0-1.0-1.1","D66EA70CA4F64CC0B50F9A805D8F79D5","D66EA70CA4F64CC0B50F9A805D8F79D5","0198ee77-83cd-74fc-b2fb-bec5cdf412b9","0198ee3c-27ac-7803-a9ea-f3b4ad4ad678","{""num_scrambled_semantic"":""8"",""num_scrambled_causal"":""4"",""num_scrambled_schematic"":""4"",""participantId"":""D66EA70CA4F64CC0B50F9A805D8F79D5"",""assignmentId"":""0198ee77-83cd-74fc-b2fb-bec5cdf412b9"",""projectId"":""0198ee3c-27ac-7803-a9ea-f3b4ad4ad678""}","https://test12345.live/?num_scrambled_semantic=8&num_scrambled_causal=4&num_scrambled_schematic=4&participantId=D66EA70CA4F64CC0B50F9A805D8F79D5&assignmentId=0198ee77-83cd-74fc-b2fb-bec5cdf412b9&projectId=0198ee3c-27ac-7803-a9ea-f3b4ad4ad678","D66EA70CA4F64CC0B50F9A805D8F79D5-2025-08-28-03-16-24","","1746","","images/semantic_sequence/using_technology_semantic/using_technology_semantic_4.png","0","",""
"","","","","","image-button-response","62","476021","0.0-12.0-1.0-2.1","D66EA70CA4F64CC0B50F9A805D8F79D5","D66EA70CA4F64CC0B50F9A805D8F79D5","0198ee77-83cd-74fc-b2fb-bec5cdf412b9","0198ee3c-27ac-7803-a9ea-f3b4ad4ad678","{""num_scrambled_semantic"":""8"",""num_scrambled_causal"":""4"",""num_scrambled_schematic"":""4"",""participantId"":""D66EA70CA4F64CC0B50F9A805D8F79D5"",""assignmentId"":""0198ee77-83cd-74fc-b2fb-bec5cdf412b9"",""projectId"":""0198ee3c-27ac-7803-a9ea-f3b4ad4ad678""}","https://test12345.live/?num_scrambled_semantic=8&num_scrambled_causal=4&num_scrambled_schematic=4&participantId=D66EA70CA4F64CC0B50F9A805D8F79D5&assignmentId=0198ee77-83cd-74fc-b2fb-bec5cdf412b9&projectId=0198ee3c-27ac-7803-a9ea-f3b4ad4ad678","D66EA70CA4F64CC0B50F9A805D8F79D5-2025-08-28-03-16-24","","null","","[]","null","",""
"","","","","","image-button-response","63","480523","0.0-12.0-1.0-0.2","D66EA70CA4F64CC0B50F9A805D8F79D5","D66EA70CA4F64CC0B50F9A805D8F79D5","0198ee77-83cd-74fc-b2fb-bec5cdf412b9","0198ee3c-27ac-7803-a9ea-f3b4ad4ad678","{""num_scrambled_semantic"":""8"",""num_scrambled_causal"":""4"",""num_scrambled_schematic"":""4"",""participantId"":""D66EA70CA4F64CC0B50F9A805D8F79D5"",""assignmentId"":""0198ee77-83cd-74fc-b2fb-bec5cdf412b9"",""projectId"":""0198ee3c-27ac-7803-a9ea-f3b4ad4ad678""}","https://test12345.live/?num_scrambled_semantic=8&num_scrambled_causal=4&num_scrambled_schematic=4&participantId=D66EA70CA4F64CC0B50F9A805D8F79D5&assignmentId=0198ee77-83cd-74fc-b2fb-bec5cdf412b9&projectId=0198ee3c-27ac-7803-a9ea-f3b4ad4ad678","D66EA70CA4F64CC0B50F9A805D8F79D5-2025-08-28-03-16-24","","null","","images/semantic_sequence/using_technology_semantic/using_technology_semantic_2.png","null","",""
"","","","","","image-button-response","64","481608","0.0-12.0-1.0-1.2","D66EA70CA4F64CC0B50F9A805D8F79D5","D66EA70CA4F64CC0B50F9A805D8F79D5","0198ee77-83cd-74fc-b2fb-bec5cdf412b9","0198ee3c-27ac-7803-a9ea-f3b4ad4ad678","{""num_scrambled_semantic"":""8"",""num_scrambled_causal"":""4"",""num_scrambled_schematic"":""4"",""participantId"":""D66EA70CA4F64CC0B50F9A805D8F79D5"",""assignmentId"":""0198ee77-83cd-74fc-b2fb-bec5cdf412b9"",""projectId"":""0198ee3c-27ac-7803-a9ea-f3b4ad4ad678""}","https://test12345.live/?num_scrambled_semantic=8&num_scrambled_causal=4&num_scrambled_schematic=4&participantId=D66EA70CA4F64CC0B50F9A805D8F79D5&assignmentId=0198ee77-83cd-74fc-b2fb-bec5cdf412b9&projectId=0198ee3c-27ac-7803-a9ea-f3b4ad4ad678","D66EA70CA4F64CC0B50F9A805D8F79D5-2025-08-28-03-16-24","","1085","","images/semantic_sequence/using_technology_semantic/using_technology_semantic_2.png","0","",""
"","","","","","image-button-response","65","483418","0.0-12.0-1.0-2.2","D66EA70CA4F64CC0B50F9A805D8F79D5","D66EA70CA4F64CC0B50F9A805D8F79D5","0198ee77-83cd-74fc-b2fb-bec5cdf412b9","0198ee3c-27ac-7803-a9ea-f3b4ad4ad678","{""num_scrambled_semantic"":""8"",""num_scrambled_causal"":""4"",""num_scrambled_schematic"":""4"",""participantId"":""D66EA70CA4F64CC0B50F9A805D8F79D5"",""assignmentId"":""0198ee77-83cd-74fc-b2fb-bec5cdf412b9"",""projectId"":""0198ee3c-27ac-7803-a9ea-f3b4ad4ad678""}","https://test12345.live/?num_scrambled_semantic=8&num_scrambled_causal=4&num_scrambled_schematic=4&participantId=D66EA70CA4F64CC0B50F9A805D8F79D5&assignmentId=0198ee77-83cd-74fc-b2fb-bec5cdf412b9&projectId=0198ee3c-27ac-7803-a9ea-f3b4ad4ad678","D66EA70CA4F64CC0B50F9A805D8F79D5-2025-08-28-03-16-24","","null","","[]","null","",""
"","","","","","image-button-response","66","487925","0.0-12.0-1.0-0.3","D66EA70CA4F64CC0B50F9A805D8F79D5","D66EA70CA4F64CC0B50F9A805D8F79D5","0198ee77-83cd-74fc-b2fb-bec5cdf412b9","0198ee3c-27ac-7803-a9ea-f3b4ad4ad678","{""num_scrambled_semantic"":""8"",""num_scrambled_causal"":""4"",""num_scrambled_schematic"":""4"",""participantId"":""D66EA70CA4F64CC0B50F9A805D8F79D5"",""assignmentId"":""0198ee77-83cd-74fc-b2fb-bec5cdf412b9"",""projectId"":""0198ee3c-27ac-7803-a9ea-f3b4ad4ad678""}","https://test12345.live/?num_scrambled_semantic=8&num_scrambled_causal=4&num_scrambled_schematic=4&participantId=D66EA70CA4F64CC0B50F9A805D8F79D5&assignmentId=0198ee77-83cd-74fc-b2fb-bec5cdf412b9&projectId=0198ee3c-27ac-7803-a9ea-f3b4ad4ad678","D66EA70CA4F64CC0B50F9A805D8F79D5-2025-08-28-03-16-24","","null","","images/semantic_sequence/using_technology_semantic/using_technology_semantic_1.png","null","",""
"","","","","","image-button-response","67","488925","0.0-12.0-1.0-1.3","D66EA70CA4F64CC0B50F9A805D8F79D5","D66EA70CA4F64CC0B50F9A805D8F79D5","0198ee77-83cd-74fc-b2fb-bec5cdf412b9","0198ee3c-27ac-7803-a9ea-f3b4ad4ad678","{""num_scrambled_semantic"":""8"",""num_scrambled_causal"":""4"",""num_scrambled_schematic"":""4"",""participantId"":""D66EA70CA4F64CC0B50F9A805D8F79D5"",""assignmentId"":""0198ee77-83cd-74fc-b2fb-bec5cdf412b9"",""projectId"":""0198ee3c-27ac-7803-a9ea-f3b4ad4ad678""}","https://test12345.live/?num_scrambled_semantic=8&num_scrambled_causal=4&num_scrambled_schematic=4&participantId=D66EA70CA4F64CC0B50F9A805D8F79D5&assignmentId=0198ee77-83cd-74fc-b2fb-bec5cdf412b9&projectId=0198ee3c-27ac-7803-a9ea-f3b4ad4ad678","D66EA70CA4F64CC0B50F9A805D8F79D5-2025-08-28-03-16-24","","999","","images/semantic_sequence/using_technology_semantic/using_technology_semantic_1.png","0","",""
"","","","","","image-button-response","68","490738","0.0-12.0-1.0-2.3","D66EA70CA4F64CC0B50F9A805D8F79D5","D66EA70CA4F64CC0B50F9A805D8F79D5","0198ee77-83cd-74fc-b2fb-bec5cdf412b9","0198ee3c-27ac-7803-a9ea-f3b4ad4ad678","{""num_scrambled_semantic"":""8"",""num_scrambled_causal"":""4"",""num_scrambled_schematic"":""4"",""participantId"":""D66EA70CA4F64CC0B50F9A805D8F79D5"",""assignmentId"":""0198ee77-83cd-74fc-b2fb-bec5cdf412b9"",""projectId"":""0198ee3c-27ac-7803-a9ea-f3b4ad4ad678""}","https://test12345.live/?num_scrambled_semantic=8&num_scrambled_causal=4&num_scrambled_schematic=4&participantId=D66EA70CA4F64CC0B50F9A805D8F79D5&assignmentId=0198ee77-83cd-74fc-b2fb-bec5cdf412b9&projectId=0198ee3c-27ac-7803-a9ea-f3b4ad4ad678","D66EA70CA4F64CC0B50F9A805D8F79D5-2025-08-28-03-16-24","","null","","[]","null","",""
"","","","","","image-button-response","69","495244","0.0-12.0-1.0-0.4","D66EA70CA4F64CC0B50F9A805D8F79D5","D66EA70CA4F64CC0B50F9A805D8F79D5","0198ee77-83cd-74fc-b2fb-bec5cdf412b9","0198ee3c-27ac-7803-a9ea-f3b4ad4ad678","{""num_scrambled_semantic"":""8"",""num_scrambled_causal"":""4"",""num_scrambled_schematic"":""4"",""participantId"":""D66EA70CA4F64CC0B50F9A805D8F79D5"",""assignmentId"":""0198ee77-83cd-74fc-b2fb-bec5cdf412b9"",""projectId"":""0198ee3c-27ac-7803-a9ea-f3b4ad4ad678""}","https://test12345.live/?num_scrambled_semantic=8&num_scrambled_causal=4&num_scrambled_schematic=4&participantId=D66EA70CA4F64CC0B50F9A805D8F79D5&assignmentId=0198ee77-83cd-74fc-b2fb-bec5cdf412b9&projectId=0198ee3c-27ac-7803-a9ea-f3b4ad4ad678","D66EA70CA4F64CC0B50F9A805D8F79D5-2025-08-28-03-16-24","","null","","images/semantic_sequence/using_technology_semantic/using_technology_semantic_ten.png","null","",""
"","","","","","image-button-response","70","496456","0.0-12.0-1.0-1.4","D66EA70CA4F64CC0B50F9A805D8F79D5","D66EA70CA4F64CC0B50F9A805D8F79D5","0198ee77-83cd-74fc-b2fb-bec5cdf412b9","0198ee3c-27ac-7803-a9ea-f3b4ad4ad678","{""num_scrambled_semantic"":""8"",""num_scrambled_causal"":""4"",""num_scrambled_schematic"":""4"",""participantId"":""D66EA70CA4F64CC0B50F9A805D8F79D5"",""assignmentId"":""0198ee77-83cd-74fc-b2fb-bec5cdf412b9"",""projectId"":""0198ee3c-27ac-7803-a9ea-f3b4ad4ad678""}","https://test12345.live/?num_scrambled_semantic=8&num_scrambled_causal=4&num_scrambled_schematic=4&participantId=D66EA70CA4F64CC0B50F9A805D8F79D5&assignmentId=0198ee77-83cd-74fc-b2fb-bec5cdf412b9&projectId=0198ee3c-27ac-7803-a9ea-f3b4ad4ad678","D66EA70CA4F64CC0B50F9A805D8F79D5-2025-08-28-03-16-24","","1211","","images/semantic_sequence/using_technology_semantic/using_technology_semantic_ten.png","0","",""
"","","","","","image-button-response","71","498262","0.0-12.0-1.0-2.4","D66EA70CA4F64CC0B50F9A805D8F79D5","D66EA70CA4F64CC0B50F9A805D8F79D5","0198ee77-83cd-74fc-b2fb-bec5cdf412b9","0198ee3c-27ac-7803-a9ea-f3b4ad4ad678","{""num_scrambled_semantic"":""8"",""num_scrambled_causal"":""4"",""num_scrambled_schematic"":""4"",""participantId"":""D66EA70CA4F64CC0B50F9A805D8F79D5"",""assignmentId"":""0198ee77-83cd-74fc-b2fb-bec5cdf412b9"",""projectId"":""0198ee3c-27ac-7803-a9ea-f3b4ad4ad678""}","https://test12345.live/?num_scrambled_semantic=8&num_scrambled_causal=4&num_scrambled_schematic=4&participantId=D66EA70CA4F64CC0B50F9A805D8F79D5&assignmentId=0198ee77-83cd-74fc-b2fb-bec5cdf412b9&projectId=0198ee3c-27ac-7803-a9ea-f3b4ad4ad678","D66EA70CA4F64CC0B50F9A805D8F79D5-2025-08-28-03-16-24","","null","","[]","null","",""
"","","","","","image-button-response","72","502768","0.0-12.0-1.0-0.5","D66EA70CA4F64CC0B50F9A805D8F79D5","D66EA70CA4F64CC0B50F9A805D8F79D5","0198ee77-83cd-74fc-b2fb-bec5cdf412b9","0198ee3c-27ac-7803-a9ea-f3b4ad4ad678","{""num_scrambled_semantic"":""8"",""num_scrambled_causal"":""4"",""num_scrambled_schematic"":""4"",""participantId"":""D66EA70CA4F64CC0B50F9A805D8F79D5"",""assignmentId"":""0198ee77-83cd-74fc-b2fb-bec5cdf412b9"",""projectId"":""0198ee3c-27ac-7803-a9ea-f3b4ad4ad678""}","https://test12345.live/?num_scrambled_semantic=8&num_scrambled_causal=4&num_scrambled_schematic=4&participantId=D66EA70CA4F64CC0B50F9A805D8F79D5&assignmentId=0198ee77-83cd-74fc-b2fb-bec5cdf412b9&projectId=0198ee3c-27ac-7803-a9ea-f3b4ad4ad678","D66EA70CA4F64CC0B50F9A805D8F79D5-2025-08-28-03-16-24","","null","","images/semantic_sequence/using_technology_semantic/using_technology_semantic_9.png","null","",""
"","","","","","image-button-response","73","506407","0.0-12.0-1.0-1.5","D66EA70CA4F64CC0B50F9A805D8F79D5","D66EA70CA4F64CC0B50F9A805D8F79D5","0198ee77-83cd-74fc-b2fb-bec5cdf412b9","0198ee3c-27ac-7803-a9ea-f3b4ad4ad678","{""num_scrambled_semantic"":""8"",""num_scrambled_causal"":""4"",""num_scrambled_schematic"":""4"",""participantId"":""D66EA70CA4F64CC0B50F9A805D8F79D5"",""assignmentId"":""0198ee77-83cd-74fc-b2fb-bec5cdf412b9"",""projectId"":""0198ee3c-27ac-7803-a9ea-f3b4ad4ad678""}","https://test12345.live/?num_scrambled_semantic=8&num_scrambled_causal=4&num_scrambled_schematic=4&participantId=D66EA70CA4F64CC0B50F9A805D8F79D5&assignmentId=0198ee77-83cd-74fc-b2fb-bec5cdf412b9&projectId=0198ee3c-27ac-7803-a9ea-f3b4ad4ad678","D66EA70CA4F64CC0B50F9A805D8F79D5-2025-08-28-03-16-24","","3638","","images/semantic_sequence/using_technology_semantic/using_technology_semantic_9.png","0","",""
"","","","","","image-button-response","74","508209","0.0-12.0-1.0-2.5","D66EA70CA4F64CC0B50F9A805D8F79D5","D66EA70CA4F64CC0B50F9A805D8F79D5","0198ee77-83cd-74fc-b2fb-bec5cdf412b9","0198ee3c-27ac-7803-a9ea-f3b4ad4ad678","{""num_scrambled_semantic"":""8"",""num_scrambled_causal"":""4"",""num_scrambled_schematic"":""4"",""participantId"":""D66EA70CA4F64CC0B50F9A805D8F79D5"",""assignmentId"":""0198ee77-83cd-74fc-b2fb-bec5cdf412b9"",""projectId"":""0198ee3c-27ac-7803-a9ea-f3b4ad4ad678""}","https://test12345.live/?num_scrambled_semantic=8&num_scrambled_causal=4&num_scrambled_schematic=4&participantId=D66EA70CA4F64CC0B50F9A805D8F79D5&assignmentId=0198ee77-83cd-74fc-b2fb-bec5cdf412b9&projectId=0198ee3c-27ac-7803-a9ea-f3b4ad4ad678","D66EA70CA4F64CC0B50F9A805D8F79D5-2025-08-28-03-16-24","","null","","[]","null","",""
"","","","","","image-button-response","75","512724","0.0-12.0-1.0-0.6","D66EA70CA4F64CC0B50F9A805D8F79D5","D66EA70CA4F64CC0B50F9A805D8F79D5","0198ee77-83cd-74fc-b2fb-bec5cdf412b9","0198ee3c-27ac-7803-a9ea-f3b4ad4ad678","{""num_scrambled_semantic"":""8"",""num_scrambled_causal"":""4"",""num_scrambled_schematic"":""4"",""participantId"":""D66EA70CA4F64CC0B50F9A805D8F79D5"",""assignmentId"":""0198ee77-83cd-74fc-b2fb-bec5cdf412b9"",""projectId"":""0198ee3c-27ac-7803-a9ea-f3b4ad4ad678""}","https://test12345.live/?num_scrambled_semantic=8&num_scrambled_causal=4&num_scrambled_schematic=4&participantId=D66EA70CA4F64CC0B50F9A805D8F79D5&assignmentId=0198ee77-83cd-74fc-b2fb-bec5cdf412b9&projectId=0198ee3c-27ac-7803-a9ea-f3b4ad4ad678","D66EA70CA4F64CC0B50F9A805D8F79D5-2025-08-28-03-16-24","","null","","images/semantic_sequence/using_technology_semantic/using_technology_semantic_3.png","null","",""
"","","","","","image-button-response","76","514285","0.0-12.0-1.0-1.6","D66EA70CA4F64CC0B50F9A805D8F79D5","D66EA70CA4F64CC0B50F9A805D8F79D5","0198ee77-83cd-74fc-b2fb-bec5cdf412b9","0198ee3c-27ac-7803-a9ea-f3b4ad4ad678","{""num_scrambled_semantic"":""8"",""num_scrambled_causal"":""4"",""num_scrambled_schematic"":""4"",""participantId"":""D66EA70CA4F64CC0B50F9A805D8F79D5"",""assignmentId"":""0198ee77-83cd-74fc-b2fb-bec5cdf412b9"",""projectId"":""0198ee3c-27ac-7803-a9ea-f3b4ad4ad678""}","https://test12345.live/?num_scrambled_semantic=8&num_scrambled_causal=4&num_scrambled_schematic=4&participantId=D66EA70CA4F64CC0B50F9A805D8F79D5&assignmentId=0198ee77-83cd-74fc-b2fb-bec5cdf412b9&projectId=0198ee3c-27ac-7803-a9ea-f3b4ad4ad678","D66EA70CA4F64CC0B50F9A805D8F79D5-2025-08-28-03-16-24","","1560","","images/semantic_sequence/using_technology_semantic/using_technology_semantic_3.png","0","",""
"","","","","","image-button-response","77","516086","0.0-12.0-1.0-2.6","D66EA70CA4F64CC0B50F9A805D8F79D5","D66EA70CA4F64CC0B50F9A805D8F79D5","0198ee77-83cd-74fc-b2fb-bec5cdf412b9","0198ee3c-27ac-7803-a9ea-f3b4ad4ad678","{""num_scrambled_semantic"":""8"",""num_scrambled_causal"":""4"",""num_scrambled_schematic"":""4"",""participantId"":""D66EA70CA4F64CC0B50F9A805D8F79D5"",""assignmentId"":""0198ee77-83cd-74fc-b2fb-bec5cdf412b9"",""projectId"":""0198ee3c-27ac-7803-a9ea-f3b4ad4ad678""}","https://test12345.live/?num_scrambled_semantic=8&num_scrambled_causal=4&num_scrambled_schematic=4&participantId=D66EA70CA4F64CC0B50F9A805D8F79D5&assignmentId=0198ee77-83cd-74fc-b2fb-bec5cdf412b9&projectId=0198ee3c-27ac-7803-a9ea-f3b4ad4ad678","D66EA70CA4F64CC0B50F9A805D8F79D5-2025-08-28-03-16-24","","null","","[]","null","",""
"","","","","","image-button-response","78","520587","0.0-12.0-1.0-0.7","D66EA70CA4F64CC0B50F9A805D8F79D5","D66EA70CA4F64CC0B50F9A805D8F79D5","0198ee77-83cd-74fc-b2fb-bec5cdf412b9","0198ee3c-27ac-7803-a9ea-f3b4ad4ad678","{""num_scrambled_semantic"":""8"",""num_scrambled_causal"":""4"",""num_scrambled_schematic"":""4"",""participantId"":""D66EA70CA4F64CC0B50F9A805D8F79D5"",""assignmentId"":""0198ee77-83cd-74fc-b2fb-bec5cdf412b9"",""projectId"":""0198ee3c-27ac-7803-a9ea-f3b4ad4ad678""}","https://test12345.live/?num_scrambled_semantic=8&num_scrambled_causal=4&num_scrambled_schematic=4&participantId=D66EA70CA4F64CC0B50F9A805D8F79D5&assignmentId=0198ee77-83cd-74fc-b2fb-bec5cdf412b9&projectId=0198ee3c-27ac-7803-a9ea-f3b4ad4ad678","D66EA70CA4F64CC0B50F9A805D8F79D5-2025-08-28-03-16-24","","null","","images/semantic_sequence/using_technology_semantic/using_technology_semantic_5.png","null","",""
"","","","","","image-button-response","79","521674","0.0-12.0-1.0-1.7","D66EA70CA4F64CC0B50F9A805D8F79D5","D66EA70CA4F64CC0B50F9A805D8F79D5","0198ee77-83cd-74fc-b2fb-bec5cdf412b9","0198ee3c-27ac-7803-a9ea-f3b4ad4ad678","{""num_scrambled_semantic"":""8"",""num_scrambled_causal"":""4"",""num_scrambled_schematic"":""4"",""participantId"":""D66EA70CA4F64CC0B50F9A805D8F79D5"",""assignmentId"":""0198ee77-83cd-74fc-b2fb-bec5cdf412b9"",""projectId"":""0198ee3c-27ac-7803-a9ea-f3b4ad4ad678""}","https://test12345.live/?num_scrambled_semantic=8&num_scrambled_causal=4&num_scrambled_schematic=4&participantId=D66EA70CA4F64CC0B50F9A805D8F79D5&assignmentId=0198ee77-83cd-74fc-b2fb-bec5cdf412b9&projectId=0198ee3c-27ac-7803-a9ea-f3b4ad4ad678","D66EA70CA4F64CC0B50F9A805D8F79D5-2025-08-28-03-16-24","","1086","","images/semantic_sequence/using_technology_semantic/using_technology_semantic_5.png","0","",""
"","","","","","image-button-response","80","523482","0.0-12.0-1.0-2.7","D66EA70CA4F64CC0B50F9A805D8F79D5","D66EA70CA4F64CC0B50F9A805D8F79D5","0198ee77-83cd-74fc-b2fb-bec5cdf412b9","0198ee3c-27ac-7803-a9ea-f3b4ad4ad678","{""num_scrambled_semantic"":""8"",""num_scrambled_causal"":""4"",""num_scrambled_schematic"":""4"",""participantId"":""D66EA70CA4F64CC0B50F9A805D8F79D5"",""assignmentId"":""0198ee77-83cd-74fc-b2fb-bec5cdf412b9"",""projectId"":""0198ee3c-27ac-7803-a9ea-f3b4ad4ad678""}","https://test12345.live/?num_scrambled_semantic=8&num_scrambled_causal=4&num_scrambled_schematic=4&participantId=D66EA70CA4F64CC0B50F9A805D8F79D5&assignmentId=0198ee77-83cd-74fc-b2fb-bec5cdf412b9&projectId=0198ee3c-27ac-7803-a9ea-f3b4ad4ad678","D66EA70CA4F64CC0B50F9A805D8F79D5-2025-08-28-03-16-24","","null","","[]","null","",""
"","","","","","image-button-response","81","527984","0.0-12.0-1.0-0.8","D66EA70CA4F64CC0B50F9A805D8F79D5","D66EA70CA4F64CC0B50F9A805D8F79D5","0198ee77-83cd-74fc-b2fb-bec5cdf412b9","0198ee3c-27ac-7803-a9ea-f3b4ad4ad678","{""num_scrambled_semantic"":""8"",""num_scrambled_causal"":""4"",""num_scrambled_schematic"":""4"",""participantId"":""D66EA70CA4F64CC0B50F9A805D8F79D5"",""assignmentId"":""0198ee77-83cd-74fc-b2fb-bec5cdf412b9"",""projectId"":""0198ee3c-27ac-7803-a9ea-f3b4ad4ad678""}","https://test12345.live/?num_scrambled_semantic=8&num_scrambled_causal=4&num_scrambled_schematic=4&participantId=D66EA70CA4F64CC0B50F9A805D8F79D5&assignmentId=0198ee77-83cd-74fc-b2fb-bec5cdf412b9&projectId=0198ee3c-27ac-7803-a9ea-f3b4ad4ad678","D66EA70CA4F64CC0B50F9A805D8F79D5-2025-08-28-03-16-24","","null","","images/semantic_sequence/using_technology_semantic/using_technology_semantic_7.png","null","",""
"","","","","","image-button-response","82","529288","0.0-12.0-1.0-1.8","D66EA70CA4F64CC0B50F9A805D8F79D5","D66EA70CA4F64CC0B50F9A805D8F79D5","0198ee77-83cd-74fc-b2fb-bec5cdf412b9","0198ee3c-27ac-7803-a9ea-f3b4ad4ad678","{""num_scrambled_semantic"":""8"",""num_scrambled_causal"":""4"",""num_scrambled_schematic"":""4"",""participantId"":""D66EA70CA4F64CC0B50F9A805D8F79D5"",""assignmentId"":""0198ee77-83cd-74fc-b2fb-bec5cdf412b9"",""projectId"":""0198ee3c-27ac-7803-a9ea-f3b4ad4ad678""}","https://test12345.live/?num_scrambled_semantic=8&num_scrambled_causal=4&num_scrambled_schematic=4&participantId=D66EA70CA4F64CC0B50F9A805D8F79D5&assignmentId=0198ee77-83cd-74fc-b2fb-bec5cdf412b9&projectId=0198ee3c-27ac-7803-a9ea-f3b4ad4ad678","D66EA70CA4F64CC0B50F9A805D8F79D5-2025-08-28-03-16-24","","1304","","images/semantic_sequence/using_technology_semantic/using_technology_semantic_7.png","0","",""
"","","","","","image-button-response","83","531090","0.0-12.0-1.0-2.8","D66EA70CA4F64CC0B50F9A805D8F79D5","D66EA70CA4F64CC0B50F9A805D8F79D5","0198ee77-83cd-74fc-b2fb-bec5cdf412b9","0198ee3c-27ac-7803-a9ea-f3b4ad4ad678","{""num_scrambled_semantic"":""8"",""num_scrambled_causal"":""4"",""num_scrambled_schematic"":""4"",""participantId"":""D66EA70CA4F64CC0B50F9A805D8F79D5"",""assignmentId"":""0198ee77-83cd-74fc-b2fb-bec5cdf412b9"",""projectId"":""0198ee3c-27ac-7803-a9ea-f3b4ad4ad678""}","https://test12345.live/?num_scrambled_semantic=8&num_scrambled_causal=4&num_scrambled_schematic=4&participantId=D66EA70CA4F64CC0B50F9A805D8F79D5&assignmentId=0198ee77-83cd-74fc-b2fb-bec5cdf412b9&projectId=0198ee3c-27ac-7803-a9ea-f3b4ad4ad678","D66EA70CA4F64CC0B50F9A805D8F79D5-2025-08-28-03-16-24","","null","","[]","null","",""
"","","","","","image-button-response","84","535600","0.0-12.0-1.0-0.9","D66EA70CA4F64CC0B50F9A805D8F79D5","D66EA70CA4F64CC0B50F9A805D8F79D5","0198ee77-83cd-74fc-b2fb-bec5cdf412b9","0198ee3c-27ac-7803-a9ea-f3b4ad4ad678","{""num_scrambled_semantic"":""8"",""num_scrambled_causal"":""4"",""num_scrambled_schematic"":""4"",""participantId"":""D66EA70CA4F64CC0B50F9A805D8F79D5"",""assignmentId"":""0198ee77-83cd-74fc-b2fb-bec5cdf412b9"",""projectId"":""0198ee3c-27ac-7803-a9ea-f3b4ad4ad678""}","https://test12345.live/?num_scrambled_semantic=8&num_scrambled_causal=4&num_scrambled_schematic=4&participantId=D66EA70CA4F64CC0B50F9A805D8F79D5&assignmentId=0198ee77-83cd-74fc-b2fb-bec5cdf412b9&projectId=0198ee3c-27ac-7803-a9ea-f3b4ad4ad678","D66EA70CA4F64CC0B50F9A805D8F79D5-2025-08-28-03-16-24","","null","","images/semantic_sequence/using_technology_semantic/using_technology_semantic_8.png","null","",""
"","","","","","image-button-response","85","536664","0.0-12.0-1.0-1.9","D66EA70CA4F64CC0B50F9A805D8F79D5","D66EA70CA4F64CC0B50F9A805D8F79D5","0198ee77-83cd-74fc-b2fb-bec5cdf412b9","0198ee3c-27ac-7803-a9ea-f3b4ad4ad678","{""num_scrambled_semantic"":""8"",""num_scrambled_causal"":""4"",""num_scrambled_schematic"":""4"",""participantId"":""D66EA70CA4F64CC0B50F9A805D8F79D5"",""assignmentId"":""0198ee77-83cd-74fc-b2fb-bec5cdf412b9"",""projectId"":""0198ee3c-27ac-7803-a9ea-f3b4ad4ad678""}","https://test12345.live/?num_scrambled_semantic=8&num_scrambled_causal=4&num_scrambled_schematic=4&participantId=D66EA70CA4F64CC0B50F9A805D8F79D5&assignmentId=0198ee77-83cd-74fc-b2fb-bec5cdf412b9&projectId=0198ee3c-27ac-7803-a9ea-f3b4ad4ad678","D66EA70CA4F64CC0B50F9A805D8F79D5-2025-08-28-03-16-24","","1063","","images/semantic_sequence/using_technology_semantic/using_technology_semantic_8.png","0","",""
"","","","","","image-button-response","86","538480","0.0-12.0-1.0-2.9","D66EA70CA4F64CC0B50F9A805D8F79D5","D66EA70CA4F64CC0B50F9A805D8F79D5","0198ee77-83cd-74fc-b2fb-bec5cdf412b9","0198ee3c-27ac-7803-a9ea-f3b4ad4ad678","{""num_scrambled_semantic"":""8"",""num_scrambled_causal"":""4"",""num_scrambled_schematic"":""4"",""participantId"":""D66EA70CA4F64CC0B50F9A805D8F79D5"",""assignmentId"":""0198ee77-83cd-74fc-b2fb-bec5cdf412b9"",""projectId"":""0198ee3c-27ac-7803-a9ea-f3b4ad4ad678""}","https://test12345.live/?num_scrambled_semantic=8&num_scrambled_causal=4&num_scrambled_schematic=4&participantId=D66EA70CA4F64CC0B50F9A805D8F79D5&assignmentId=0198ee77-83cd-74fc-b2fb-bec5cdf412b9&projectId=0198ee3c-27ac-7803-a9ea-f3b4ad4ad678","D66EA70CA4F64CC0B50F9A805D8F79D5-2025-08-28-03-16-24","","null","","[]","null","",""
"","","","","","html-audio-response","87","585864","0.0-13.0","D66EA70CA4F64CC0B50F9A805D8F79D5","D66EA70CA4F64CC0B50F9A805D8F79D5","0198ee77-83cd-74fc-b2fb-bec5cdf412b9","0198ee3c-27ac-7803-a9ea-f3b4ad4ad678","{""num_scrambled_semantic"":""8"",""num_scrambled_causal"":""4"",""num_scrambled_schematic"":""4"",""participantId"":""D66EA70CA4F64CC0B50F9A805D8F79D5"",""assignmentId"":""0198ee77-83cd-74fc-b2fb-bec5cdf412b9"",""projectId"":""0198ee3c-27ac-7803-a9ea-f3b4ad4ad678""}","https://test12345.live/?num_scrambled_semantic=8&num_scrambled_causal=4&num_scrambled_schematic=4&participantId=D66EA70CA4F64CC0B50F9A805D8F79D5&assignmentId=0198ee77-83cd-74fc-b2fb-bec5cdf412b9&projectId=0198ee3c-27ac-7803-a9ea-f3b4ad4ad678","D66EA70CA4F64CC0B50F9A805D8F79D5-2025-08-28-03-16-24","","30572","","[""<span style=\""color: red; font-size: 24px\""> NOW RECORDING</span><p>Please say out loud all the images you saw, in the order of the story they create. Try to recall the sequence of events as they appeared in the story, not necessarily the order they were presented on the screen.</p>""]","","1","using_technology_semantic"
"","","","","","image-button-response","88","591874","0.0-14.0-0.0","D66EA70CA4F64CC0B50F9A805D8F79D5","D66EA70CA4F64CC0B50F9A805D8F79D5","0198ee77-83cd-74fc-b2fb-bec5cdf412b9","0198ee3c-27ac-7803-a9ea-f3b4ad4ad678","{""num_scrambled_semantic"":""8"",""num_scrambled_causal"":""4"",""num_scrambled_schematic"":""4"",""participantId"":""D66EA70CA4F64CC0B50F9A805D8F79D5"",""assignmentId"":""0198ee77-83cd-74fc-b2fb-bec5cdf412b9"",""projectId"":""0198ee3c-27ac-7803-a9ea-f3b4ad4ad678""}","https://test12345.live/?num_scrambled_semantic=8&num_scrambled_causal=4&num_scrambled_schematic=4&participantId=D66EA70CA4F64CC0B50F9A805D8F79D5&assignmentId=0198ee77-83cd-74fc-b2fb-bec5cdf412b9&projectId=0198ee3c-27ac-7803-a9ea-f3b4ad4ad678","D66EA70CA4F64CC0B50F9A805D8F79D5-2025-08-28-03-16-24","","null","","images/semantic_sequence/kitchen_operations_semantic/kitchen_operations_semantic_0.png","null","",""
"","","","","","image-button-response","89","596378","0.0-14.0-1.0-0.0","D66EA70CA4F64CC0B50F9A805D8F79D5","D66EA70CA4F64CC0B50F9A805D8F79D5","0198ee77-83cd-74fc-b2fb-bec5cdf412b9","0198ee3c-27ac-7803-a9ea-f3b4ad4ad678","{""num_scrambled_semantic"":""8"",""num_scrambled_causal"":""4"",""num_scrambled_schematic"":""4"",""participantId"":""D66EA70CA4F64CC0B50F9A805D8F79D5"",""assignmentId"":""0198ee77-83cd-74fc-b2fb-bec5cdf412b9"",""projectId"":""0198ee3c-27ac-7803-a9ea-f3b4ad4ad678""}","https://test12345.live/?num_scrambled_semantic=8&num_scrambled_causal=4&num_scrambled_schematic=4&participantId=D66EA70CA4F64CC0B50F9A805D8F79D5&assignmentId=0198ee77-83cd-74fc-b2fb-bec5cdf412b9&projectId=0198ee3c-27ac-7803-a9ea-f3b4ad4ad678","D66EA70CA4F64CC0B50F9A805D8F79D5-2025-08-28-03-16-24","","null","","images/semantic_sequence/kitchen_operations_semantic/kitchen_operations_semantic_ten.png","null","",""
"","","","","","image-button-response","90","597622","0.0-14.0-1.0-1.0","D66EA70CA4F64CC0B50F9A805D8F79D5","D66EA70CA4F64CC0B50F9A805D8F79D5","0198ee77-83cd-74fc-b2fb-bec5cdf412b9","0198ee3c-27ac-7803-a9ea-f3b4ad4ad678","{""num_scrambled_semantic"":""8"",""num_scrambled_causal"":""4"",""num_scrambled_schematic"":""4"",""participantId"":""D66EA70CA4F64CC0B50F9A805D8F79D5"",""assignmentId"":""0198ee77-83cd-74fc-b2fb-bec5cdf412b9"",""projectId"":""0198ee3c-27ac-7803-a9ea-f3b4ad4ad678""}","https://test12345.live/?num_scrambled_semantic=8&num_scrambled_causal=4&num_scrambled_schematic=4&participantId=D66EA70CA4F64CC0B50F9A805D8F79D5&assignmentId=0198ee77-83cd-74fc-b2fb-bec5cdf412b9&projectId=0198ee3c-27ac-7803-a9ea-f3b4ad4ad678","D66EA70CA4F64CC0B50F9A805D8F79D5-2025-08-28-03-16-24","","1244","","images/semantic_sequence/kitchen_operations_semantic/kitchen_operations_semantic_ten.png","0","",""
"","","","","","image-button-response","91","599425","0.0-14.0-1.0-2.0","D66EA70CA4F64CC0B50F9A805D8F79D5","D66EA70CA4F64CC0B50F9A805D8F79D5","0198ee77-83cd-74fc-b2fb-bec5cdf412b9","0198ee3c-27ac-7803-a9ea-f3b4ad4ad678","{""num_scrambled_semantic"":""8"",""num_scrambled_causal"":""4"",""num_scrambled_schematic"":""4"",""participantId"":""D66EA70CA4F64CC0B50F9A805D8F79D5"",""assignmentId"":""0198ee77-83cd-74fc-b2fb-bec5cdf412b9"",""projectId"":""0198ee3c-27ac-7803-a9ea-f3b4ad4ad678""}","https://test12345.live/?num_scrambled_semantic=8&num_scrambled_causal=4&num_scrambled_schematic=4&participantId=D66EA70CA4F64CC0B50F9A805D8F79D5&assignmentId=0198ee77-83cd-74fc-b2fb-bec5cdf412b9&projectId=0198ee3c-27ac-7803-a9ea-f3b4ad4ad678","D66EA70CA4F64CC0B50F9A805D8F79D5-2025-08-28-03-16-24","","null","","[]","null","",""
"","","","","","image-button-response","92","603929","0.0-14.0-1.0-0.1","D66EA70CA4F64CC0B50F9A805D8F79D5","D66EA70CA4F64CC0B50F9A805D8F79D5","0198ee77-83cd-74fc-b2fb-bec5cdf412b9","0198ee3c-27ac-7803-a9ea-f3b4ad4ad678","{""num_scrambled_semantic"":""8"",""num_scrambled_causal"":""4"",""num_scrambled_schematic"":""4"",""participantId"":""D66EA70CA4F64CC0B50F9A805D8F79D5"",""assignmentId"":""0198ee77-83cd-74fc-b2fb-bec5cdf412b9"",""projectId"":""0198ee3c-27ac-7803-a9ea-f3b4ad4ad678""}","https://test12345.live/?num_scrambled_semantic=8&num_scrambled_causal=4&num_scrambled_schematic=4&participantId=D66EA70CA4F64CC0B50F9A805D8F79D5&assignmentId=0198ee77-83cd-74fc-b2fb-bec5cdf412b9&projectId=0198ee3c-27ac-7803-a9ea-f3b4ad4ad678","D66EA70CA4F64CC0B50F9A805D8F79D5-2025-08-28-03-16-24","","null","","images/semantic_sequence/kitchen_operations_semantic/kitchen_operations_semantic_1.png","null","",""
"","","","","","image-button-response","93","606014","0.0-14.0-1.0-1.1","D66EA70CA4F64CC0B50F9A805D8F79D5","D66EA70CA4F64CC0B50F9A805D8F79D5","0198ee77-83cd-74fc-b2fb-bec5cdf412b9","0198ee3c-27ac-7803-a9ea-f3b4ad4ad678","{""num_scrambled_semantic"":""8"",""num_scrambled_causal"":""4"",""num_scrambled_schematic"":""4"",""participantId"":""D66EA70CA4F64CC0B50F9A805D8F79D5"",""assignmentId"":""0198ee77-83cd-74fc-b2fb-bec5cdf412b9"",""projectId"":""0198ee3c-27ac-7803-a9ea-f3b4ad4ad678""}","https://test12345.live/?num_scrambled_semantic=8&num_scrambled_causal=4&num_scrambled_schematic=4&participantId=D66EA70CA4F64CC0B50F9A805D8F79D5&assignmentId=0198ee77-83cd-74fc-b2fb-bec5cdf412b9&projectId=0198ee3c-27ac-7803-a9ea-f3b4ad4ad678","D66EA70CA4F64CC0B50F9A805D8F79D5-2025-08-28-03-16-24","","2084","","images/semantic_sequence/kitchen_operations_semantic/kitchen_operations_semantic_1.png","0","",""
"","","","","","image-button-response","94","607829","0.0-14.0-1.0-2.1","D66EA70CA4F64CC0B50F9A805D8F79D5","D66EA70CA4F64CC0B50F9A805D8F79D5","0198ee77-83cd-74fc-b2fb-bec5cdf412b9","0198ee3c-27ac-7803-a9ea-f3b4ad4ad678","{""num_scrambled_semantic"":""8"",""num_scrambled_causal"":""4"",""num_scrambled_schematic"":""4"",""participantId"":""D66EA70CA4F64CC0B50F9A805D8F79D5"",""assignmentId"":""0198ee77-83cd-74fc-b2fb-bec5cdf412b9"",""projectId"":""0198ee3c-27ac-7803-a9ea-f3b4ad4ad678""}","https://test12345.live/?num_scrambled_semantic=8&num_scrambled_causal=4&num_scrambled_schematic=4&participantId=D66EA70CA4F64CC0B50F9A805D8F79D5&assignmentId=0198ee77-83cd-74fc-b2fb-bec5cdf412b9&projectId=0198ee3c-27ac-7803-a9ea-f3b4ad4ad678","D66EA70CA4F64CC0B50F9A805D8F79D5-2025-08-28-03-16-24","","null","","[]","null","",""
"","","","","","image-button-response","95","612333","0.0-14.0-1.0-0.2","D66EA70CA4F64CC0B50F9A805D8F79D5","D66EA70CA4F64CC0B50F9A805D8F79D5","0198ee77-83cd-74fc-b2fb-bec5cdf412b9","0198ee3c-27ac-7803-a9ea-f3b4ad4ad678","{""num_scrambled_semantic"":""8"",""num_scrambled_causal"":""4"",""num_scrambled_schematic"":""4"",""participantId"":""D66EA70CA4F64CC0B50F9A805D8F79D5"",""assignmentId"":""0198ee77-83cd-74fc-b2fb-bec5cdf412b9"",""projectId"":""0198ee3c-27ac-7803-a9ea-f3b4ad4ad678""}","https://test12345.live/?num_scrambled_semantic=8&num_scrambled_causal=4&num_scrambled_schematic=4&participantId=D66EA70CA4F64CC0B50F9A805D8F79D5&assignmentId=0198ee77-83cd-74fc-b2fb-bec5cdf412b9&projectId=0198ee3c-27ac-7803-a9ea-f3b4ad4ad678","D66EA70CA4F64CC0B50F9A805D8F79D5-2025-08-28-03-16-24","","null","","images/semantic_sequence/kitchen_operations_semantic/kitchen_operations_semantic_7.png","null","",""
"","","","","","image-button-response","96","613203","0.0-14.0-1.0-1.2","D66EA70CA4F64CC0B50F9A805D8F79D5","D66EA70CA4F64CC0B50F9A805D8F79D5","0198ee77-83cd-74fc-b2fb-bec5cdf412b9","0198ee3c-27ac-7803-a9ea-f3b4ad4ad678","{""num_scrambled_semantic"":""8"",""num_scrambled_causal"":""4"",""num_scrambled_schematic"":""4"",""participantId"":""D66EA70CA4F64CC0B50F9A805D8F79D5"",""assignmentId"":""0198ee77-83cd-74fc-b2fb-bec5cdf412b9"",""projectId"":""0198ee3c-27ac-7803-a9ea-f3b4ad4ad678""}","https://test12345.live/?num_scrambled_semantic=8&num_scrambled_causal=4&num_scrambled_schematic=4&participantId=D66EA70CA4F64CC0B50F9A805D8F79D5&assignmentId=0198ee77-83cd-74fc-b2fb-bec5cdf412b9&projectId=0198ee3c-27ac-7803-a9ea-f3b4ad4ad678","D66EA70CA4F64CC0B50F9A805D8F79D5-2025-08-28-03-16-24","","870","","images/semantic_sequence/kitchen_operations_semantic/kitchen_operations_semantic_7.png","0","",""
"","","","","","image-button-response","97","615008","0.0-14.0-1.0-2.2","D66EA70CA4F64CC0B50F9A805D8F79D5","D66EA70CA4F64CC0B50F9A805D8F79D5","0198ee77-83cd-74fc-b2fb-bec5cdf412b9","0198ee3c-27ac-7803-a9ea-f3b4ad4ad678","{""num_scrambled_semantic"":""8"",""num_scrambled_causal"":""4"",""num_scrambled_schematic"":""4"",""participantId"":""D66EA70CA4F64CC0B50F9A805D8F79D5"",""assignmentId"":""0198ee77-83cd-74fc-b2fb-bec5cdf412b9"",""projectId"":""0198ee3c-27ac-7803-a9ea-f3b4ad4ad678""}","https://test12345.live/?num_scrambled_semantic=8&num_scrambled_causal=4&num_scrambled_schematic=4&participantId=D66EA70CA4F64CC0B50F9A805D8F79D5&assignmentId=0198ee77-83cd-74fc-b2fb-bec5cdf412b9&projectId=0198ee3c-27ac-7803-a9ea-f3b4ad4ad678","D66EA70CA4F64CC0B50F9A805D8F79D5-2025-08-28-03-16-24","","null","","[]","null","",""
"","","","","","image-button-response","98","619509","0.0-14.0-1.0-0.3","D66EA70CA4F64CC0B50F9A805D8F79D5","D66EA70CA4F64CC0B50F9A805D8F79D5","0198ee77-83cd-74fc-b2fb-bec5cdf412b9","0198ee3c-27ac-7803-a9ea-f3b4ad4ad678","{""num_scrambled_semantic"":""8"",""num_scrambled_causal"":""4"",""num_scrambled_schematic"":""4"",""participantId"":""D66EA70CA4F64CC0B50F9A805D8F79D5"",""assignmentId"":""0198ee77-83cd-74fc-b2fb-bec5cdf412b9"",""projectId"":""0198ee3c-27ac-7803-a9ea-f3b4ad4ad678""}","https://test12345.live/?num_scrambled_semantic=8&num_scrambled_causal=4&num_scrambled_schematic=4&participantId=D66EA70CA4F64CC0B50F9A805D8F79D5&assignmentId=0198ee77-83cd-74fc-b2fb-bec5cdf412b9&projectId=0198ee3c-27ac-7803-a9ea-f3b4ad4ad678","D66EA70CA4F64CC0B50F9A805D8F79D5-2025-08-28-03-16-24","","null","","images/semantic_sequence/kitchen_operations_semantic/kitchen_operations_semantic_2.png","null","",""
"","","","","","image-button-response","99","623520","0.0-14.0-1.0-1.3","D66EA70CA4F64CC0B50F9A805D8F79D5","D66EA70CA4F64CC0B50F9A805D8F79D5","0198ee77-83cd-74fc-b2fb-bec5cdf412b9","0198ee3c-27ac-7803-a9ea-f3b4ad4ad678","{""num_scrambled_semantic"":""8"",""num_scrambled_causal"":""4"",""num_scrambled_schematic"":""4"",""participantId"":""D66EA70CA4F64CC0B50F9A805D8F79D5"",""assignmentId"":""0198ee77-83cd-74fc-b2fb-bec5cdf412b9"",""projectId"":""0198ee3c-27ac-7803-a9ea-f3b4ad4ad678""}","https://test12345.live/?num_scrambled_semantic=8&num_scrambled_causal=4&num_scrambled_schematic=4&participantId=D66EA70CA4F64CC0B50F9A805D8F79D5&assignmentId=0198ee77-83cd-74fc-b2fb-bec5cdf412b9&projectId=0198ee3c-27ac-7803-a9ea-f3b4ad4ad678","D66EA70CA4F64CC0B50F9A805D8F79D5-2025-08-28-03-16-24","","null","","images/semantic_sequence/kitchen_operations_semantic/kitchen_operations_semantic_2.png","null","",""
"","","","","","image-button-response","100","625329","0.0-14.0-1.0-2.3","D66EA70CA4F64CC0B50F9A805D8F79D5","D66EA70CA4F64CC0B50F9A805D8F79D5","0198ee77-83cd-74fc-b2fb-bec5cdf412b9","0198ee3c-27ac-7803-a9ea-f3b4ad4ad678","{""num_scrambled_semantic"":""8"",""num_scrambled_causal"":""4"",""num_scrambled_schematic"":""4"",""participantId"":""D66EA70CA4F64CC0B50F9A805D8F79D5"",""assignmentId"":""0198ee77-83cd-74fc-b2fb-bec5cdf412b9"",""projectId"":""0198ee3c-27ac-7803-a9ea-f3b4ad4ad678""}","https://test12345.live/?num_scrambled_semantic=8&num_scrambled_causal=4&num_scrambled_schematic=4&participantId=D66EA70CA4F64CC0B50F9A805D8F79D5&assignmentId=0198ee77-83cd-74fc-b2fb-bec5cdf412b9&projectId=0198ee3c-27ac-7803-a9ea-f3b4ad4ad678","D66EA70CA4F64CC0B50F9A805D8F79D5-2025-08-28-03-16-24","","null","","[]","null","",""
"","","","","","image-button-response","101","629832","0.0-14.0-1.0-0.4","D66EA70CA4F64CC0B50F9A805D8F79D5","D66EA70CA4F64CC0B50F9A805D8F79D5","0198ee77-83cd-74fc-b2fb-bec5cdf412b9","0198ee3c-27ac-7803-a9ea-f3b4ad4ad678","{""num_scrambled_semantic"":""8"",""num_scrambled_causal"":""4"",""num_scrambled_schematic"":""4"",""participantId"":""D66EA70CA4F64CC0B50F9A805D8F79D5"",""assignmentId"":""0198ee77-83cd-74fc-b2fb-bec5cdf412b9"",""projectId"":""0198ee3c-27ac-7803-a9ea-f3b4ad4ad678""}","https://test12345.live/?num_scrambled_semantic=8&num_scrambled_causal=4&num_scrambled_schematic=4&participantId=D66EA70CA4F64CC0B50F9A805D8F79D5&assignmentId=0198ee77-83cd-74fc-b2fb-bec5cdf412b9&projectId=0198ee3c-27ac-7803-a9ea-f3b4ad4ad678","D66EA70CA4F64CC0B50F9A805D8F79D5-2025-08-28-03-16-24","","null","","images/semantic_sequence/kitchen_operations_semantic/kitchen_operations_semantic_3.png","null","",""
"","","","","","image-button-response","102","633841","0.0-14.0-1.0-1.4","D66EA70CA4F64CC0B50F9A805D8F79D5","D66EA70CA4F64CC0B50F9A805D8F79D5","0198ee77-83cd-74fc-b2fb-bec5cdf412b9","0198ee3c-27ac-7803-a9ea-f3b4ad4ad678","{""num_scrambled_semantic"":""8"",""num_scrambled_causal"":""4"",""num_scrambled_schematic"":""4"",""participantId"":""D66EA70CA4F64CC0B50F9A805D8F79D5"",""assignmentId"":""0198ee77-83cd-74fc-b2fb-bec5cdf412b9"",""projectId"":""0198ee3c-27ac-7803-a9ea-f3b4ad4ad678""}","https://test12345.live/?num_scrambled_semantic=8&num_scrambled_causal=4&num_scrambled_schematic=4&participantId=D66EA70CA4F64CC0B50F9A805D8F79D5&assignmentId=0198ee77-83cd-74fc-b2fb-bec5cdf412b9&projectId=0198ee3c-27ac-7803-a9ea-f3b4ad4ad678","D66EA70CA4F64CC0B50F9A805D8F79D5-2025-08-28-03-16-24","","null","","images/semantic_sequence/kitchen_operations_semantic/kitchen_operations_semantic_3.png","null","",""
"","","","","","image-button-response","103","635650","0.0-14.0-1.0-2.4","D66EA70CA4F64CC0B50F9A805D8F79D5","D66EA70CA4F64CC0B50F9A805D8F79D5","0198ee77-83cd-74fc-b2fb-bec5cdf412b9","0198ee3c-27ac-7803-a9ea-f3b4ad4ad678","{""num_scrambled_semantic"":""8"",""num_scrambled_causal"":""4"",""num_scrambled_schematic"":""4"",""participantId"":""D66EA70CA4F64CC0B50F9A805D8F79D5"",""assignmentId"":""0198ee77-83cd-74fc-b2fb-bec5cdf412b9"",""projectId"":""0198ee3c-27ac-7803-a9ea-f3b4ad4ad678""}","https://test12345.live/?num_scrambled_semantic=8&num_scrambled_causal=4&num_scrambled_schematic=4&participantId=D66EA70CA4F64CC0B50F9A805D8F79D5&assignmentId=0198ee77-83cd-74fc-b2fb-bec5cdf412b9&projectId=0198ee3c-27ac-7803-a9ea-f3b4ad4ad678","D66EA70CA4F64CC0B50F9A805D8F79D5-2025-08-28-03-16-24","","null","","[]","null","",""
"","","","","","image-button-response","104","640166","0.0-14.0-1.0-0.5","D66EA70CA4F64CC0B50F9A805D8F79D5","D66EA70CA4F64CC0B50F9A805D8F79D5","0198ee77-83cd-74fc-b2fb-bec5cdf412b9","0198ee3c-27ac-7803-a9ea-f3b4ad4ad678","{""num_scrambled_semantic"":""8"",""num_scrambled_causal"":""4"",""num_scrambled_schematic"":""4"",""participantId"":""D66EA70CA4F64CC0B50F9A805D8F79D5"",""assignmentId"":""0198ee77-83cd-74fc-b2fb-bec5cdf412b9"",""projectId"":""0198ee3c-27ac-7803-a9ea-f3b4ad4ad678""}","https://test12345.live/?num_scrambled_semantic=8&num_scrambled_causal=4&num_scrambled_schematic=4&participantId=D66EA70CA4F64CC0B50F9A805D8F79D5&assignmentId=0198ee77-83cd-74fc-b2fb-bec5cdf412b9&projectId=0198ee3c-27ac-7803-a9ea-f3b4ad4ad678","D66EA70CA4F64CC0B50F9A805D8F79D5-2025-08-28-03-16-24","","null","","images/semantic_sequence/kitchen_operations_semantic/kitchen_operations_semantic_4.png","null","",""
"","","","","","image-button-response","105","642825","0.0-14.0-1.0-1.5","D66EA70CA4F64CC0B50F9A805D8F79D5","D66EA70CA4F64CC0B50F9A805D8F79D5","0198ee77-83cd-74fc-b2fb-bec5cdf412b9","0198ee3c-27ac-7803-a9ea-f3b4ad4ad678","{""num_scrambled_semantic"":""8"",""num_scrambled_causal"":""4"",""num_scrambled_schematic"":""4"",""participantId"":""D66EA70CA4F64CC0B50F9A805D8F79D5"",""assignmentId"":""0198ee77-83cd-74fc-b2fb-bec5cdf412b9"",""projectId"":""0198ee3c-27ac-7803-a9ea-f3b4ad4ad678""}","https://test12345.live/?num_scrambled_semantic=8&num_scrambled_causal=4&num_scrambled_schematic=4&participantId=D66EA70CA4F64CC0B50F9A805D8F79D5&assignmentId=0198ee77-83cd-74fc-b2fb-bec5cdf412b9&projectId=0198ee3c-27ac-7803-a9ea-f3b4ad4ad678","D66EA70CA4F64CC0B50F9A805D8F79D5-2025-08-28-03-16-24","","2659","","images/semantic_sequence/kitchen_operations_semantic/kitchen_operations_semantic_4.png","0","",""
"","","","","","image-button-response","106","644627","0.0-14.0-1.0-2.5","D66EA70CA4F64CC0B50F9A805D8F79D5","D66EA70CA4F64CC0B50F9A805D8F79D5","0198ee77-83cd-74fc-b2fb-bec5cdf412b9","0198ee3c-27ac-7803-a9ea-f3b4ad4ad678","{""num_scrambled_semantic"":""8"",""num_scrambled_causal"":""4"",""num_scrambled_schematic"":""4"",""participantId"":""D66EA70CA4F64CC0B50F9A805D8F79D5"",""assignmentId"":""0198ee77-83cd-74fc-b2fb-bec5cdf412b9"",""projectId"":""0198ee3c-27ac-7803-a9ea-f3b4ad4ad678""}","https://test12345.live/?num_scrambled_semantic=8&num_scrambled_causal=4&num_scrambled_schematic=4&participantId=D66EA70CA4F64CC0B50F9A805D8F79D5&assignmentId=0198ee77-83cd-74fc-b2fb-bec5cdf412b9&projectId=0198ee3c-27ac-7803-a9ea-f3b4ad4ad678","D66EA70CA4F64CC0B50F9A805D8F79D5-2025-08-28-03-16-24","","null","","[]","null","",""
"","","","","","image-button-response","107","649131","0.0-14.0-1.0-0.6","D66EA70CA4F64CC0B50F9A805D8F79D5","D66EA70CA4F64CC0B50F9A805D8F79D5","0198ee77-83cd-74fc-b2fb-bec5cdf412b9","0198ee3c-27ac-7803-a9ea-f3b4ad4ad678","{""num_scrambled_semantic"":""8"",""num_scrambled_causal"":""4"",""num_scrambled_schematic"":""4"",""participantId"":""D66EA70CA4F64CC0B50F9A805D8F79D5"",""assignmentId"":""0198ee77-83cd-74fc-b2fb-bec5cdf412b9"",""projectId"":""0198ee3c-27ac-7803-a9ea-f3b4ad4ad678""}","https://test12345.live/?num_scrambled_semantic=8&num_scrambled_causal=4&num_scrambled_schematic=4&participantId=D66EA70CA4F64CC0B50F9A805D8F79D5&assignmentId=0198ee77-83cd-74fc-b2fb-bec5cdf412b9&projectId=0198ee3c-27ac-7803-a9ea-f3b4ad4ad678","D66EA70CA4F64CC0B50F9A805D8F79D5-2025-08-28-03-16-24","","null","","images/semantic_sequence/kitchen_operations_semantic/kitchen_operations_semantic_6.png","null","",""
"","","","","","image-button-response","108","652440","0.0-14.0-1.0-1.6","D66EA70CA4F64CC0B50F9A805D8F79D5","D66EA70CA4F64CC0B50F9A805D8F79D5","0198ee77-83cd-74fc-b2fb-bec5cdf412b9","0198ee3c-27ac-7803-a9ea-f3b4ad4ad678","{""num_scrambled_semantic"":""8"",""num_scrambled_causal"":""4"",""num_scrambled_schematic"":""4"",""participantId"":""D66EA70CA4F64CC0B50F9A805D8F79D5"",""assignmentId"":""0198ee77-83cd-74fc-b2fb-bec5cdf412b9"",""projectId"":""0198ee3c-27ac-7803-a9ea-f3b4ad4ad678""}","https://test12345.live/?num_scrambled_semantic=8&num_scrambled_causal=4&num_scrambled_schematic=4&participantId=D66EA70CA4F64CC0B50F9A805D8F79D5&assignmentId=0198ee77-83cd-74fc-b2fb-bec5cdf412b9&projectId=0198ee3c-27ac-7803-a9ea-f3b4ad4ad678","D66EA70CA4F64CC0B50F9A805D8F79D5-2025-08-28-03-16-24","","3309","","images/semantic_sequence/kitchen_operations_semantic/kitchen_operations_semantic_6.png","0","",""
"","","","","","image-button-response","109","654256","0.0-14.0-1.0-2.6","D66EA70CA4F64CC0B50F9A805D8F79D5","D66EA70CA4F64CC0B50F9A805D8F79D5","0198ee77-83cd-74fc-b2fb-bec5cdf412b9","0198ee3c-27ac-7803-a9ea-f3b4ad4ad678","{""num_scrambled_semantic"":""8"",""num_scrambled_causal"":""4"",""num_scrambled_schematic"":""4"",""participantId"":""D66EA70CA4F64CC0B50F9A805D8F79D5"",""assignmentId"":""0198ee77-83cd-74fc-b2fb-bec5cdf412b9"",""projectId"":""0198ee3c-27ac-7803-a9ea-f3b4ad4ad678""}","https://test12345.live/?num_scrambled_semantic=8&num_scrambled_causal=4&num_scrambled_schematic=4&participantId=D66EA70CA4F64CC0B50F9A805D8F79D5&assignmentId=0198ee77-83cd-74fc-b2fb-bec5cdf412b9&projectId=0198ee3c-27ac-7803-a9ea-f3b4ad4ad678","D66EA70CA4F64CC0B50F9A805D8F79D5-2025-08-28-03-16-24","","null","","[]","null","",""
"","","","","","image-button-response","110","658761","0.0-14.0-1.0-0.7","D66EA70CA4F64CC0B50F9A805D8F79D5","D66EA70CA4F64CC0B50F9A805D8F79D5","0198ee77-83cd-74fc-b2fb-bec5cdf412b9","0198ee3c-27ac-7803-a9ea-f3b4ad4ad678","{""num_scrambled_semantic"":""8"",""num_scrambled_causal"":""4"",""num_scrambled_schematic"":""4"",""participantId"":""D66EA70CA4F64CC0B50F9A805D8F79D5"",""assignmentId"":""0198ee77-83cd-74fc-b2fb-bec5cdf412b9"",""projectId"":""0198ee3c-27ac-7803-a9ea-f3b4ad4ad678""}","https://test12345.live/?num_scrambled_semantic=8&num_scrambled_causal=4&num_scrambled_schematic=4&participantId=D66EA70CA4F64CC0B50F9A805D8F79D5&assignmentId=0198ee77-83cd-74fc-b2fb-bec5cdf412b9&projectId=0198ee3c-27ac-7803-a9ea-f3b4ad4ad678","D66EA70CA4F64CC0B50F9A805D8F79D5-2025-08-28-03-16-24","","null","","images/semantic_sequence/kitchen_operations_semantic/kitchen_operations_semantic_8.png","null","",""
"","","","","","image-button-response","111","662768","0.0-14.0-1.0-1.7","D66EA70CA4F64CC0B50F9A805D8F79D5","D66EA70CA4F64CC0B50F9A805D8F79D5","0198ee77-83cd-74fc-b2fb-bec5cdf412b9","0198ee3c-27ac-7803-a9ea-f3b4ad4ad678","{""num_scrambled_semantic"":""8"",""num_scrambled_causal"":""4"",""num_scrambled_schematic"":""4"",""participantId"":""D66EA70CA4F64CC0B50F9A805D8F79D5"",""assignmentId"":""0198ee77-83cd-74fc-b2fb-bec5cdf412b9"",""projectId"":""0198ee3c-27ac-7803-a9ea-f3b4ad4ad678""}","https://test12345.live/?num_scrambled_semantic=8&num_scrambled_causal=4&num_scrambled_schematic=4&participantId=D66EA70CA4F64CC0B50F9A805D8F79D5&assignmentId=0198ee77-83cd-74fc-b2fb-bec5cdf412b9&projectId=0198ee3c-27ac-7803-a9ea-f3b4ad4ad678","D66EA70CA4F64CC0B50F9A805D8F79D5-2025-08-28-03-16-24","","null","","images/semantic_sequence/kitchen_operations_semantic/kitchen_operations_semantic_8.png","null","",""
"","","","","","image-button-response","112","664583","0.0-14.0-1.0-2.7","D66EA70CA4F64CC0B50F9A805D8F79D5","D66EA70CA4F64CC0B50F9A805D8F79D5","0198ee77-83cd-74fc-b2fb-bec5cdf412b9","0198ee3c-27ac-7803-a9ea-f3b4ad4ad678","{""num_scrambled_semantic"":""8"",""num_scrambled_causal"":""4"",""num_scrambled_schematic"":""4"",""participantId"":""D66EA70CA4F64CC0B50F9A805D8F79D5"",""assignmentId"":""0198ee77-83cd-74fc-b2fb-bec5cdf412b9"",""projectId"":""0198ee3c-27ac-7803-a9ea-f3b4ad4ad678""}","https://test12345.live/?num_scrambled_semantic=8&num_scrambled_causal=4&num_scrambled_schematic=4&participantId=D66EA70CA4F64CC0B50F9A805D8F79D5&assignmentId=0198ee77-83cd-74fc-b2fb-bec5cdf412b9&projectId=0198ee3c-27ac-7803-a9ea-f3b4ad4ad678","D66EA70CA4F64CC0B50F9A805D8F79D5-2025-08-28-03-16-24","","null","","[]","null","",""
