"success","timeout","failed_images","failed_audio","failed_video","trial_type","trial_index","time_elapsed","internal_node_id","subject","subject_id","study_id","session_id","urlvar","current_url","audio_id","view_history","rt","device_id","stimulus","response","estimated_stimulus_onset","seq_name"
"true","false","[]","[]","[]","preload","0","11552","0.0-0.0","D67CD316F6AD4CCCB1EC9A7C37307B54","D67CD316F6AD4CCCB1EC9A7C37307B54","b77d5d07-393c-4587-b325-ee6e7e7ee025","9076ac92-be42-43a2-9634-8b67c7fe93a7","{""num_scrambled_semantic"":""8"",""num_scrambled_causal"":""4"",""num_scrambled_schematic"":""4"",""participantId"":""D67CD316F6AD4CCCB1EC9A7C37307B54"",""assignmentId"":""b77d5d07-393c-4587-b325-ee6e7e7ee025"",""projectId"":""9076ac92-be42-43a2-9634-8b67c7fe93a7""}","https://test12345.live/?num_scrambled_semantic=8&num_scrambled_causal=4&num_scrambled_schematic=4&participantId=D67CD316F6AD4CCCB1EC9A7C37307B54&assignmentId=b77d5d07-393c-4587-b325-ee6e7e7ee025&projectId=9076ac92-be42-43a2-9634-8b67c7fe93a7","D67CD316F6AD4CCCB1EC9A7C37307B54-2025-05-22-19-44-43","","","","","","",""
"","","","","","instructions","1","785704","0.0-1.0","D67CD316F6AD4CCCB1EC9A7C37307B54","D67CD316F6AD4CCCB1EC9A7C37307B54","b77d5d07-393c-4587-b325-ee6e7e7ee025","9076ac92-be42-43a2-9634-8b67c7fe93a7","{""num_scrambled_semantic"":""8"",""num_scrambled_causal"":""4"",""num_scrambled_schematic"":""4"",""participantId"":""D67CD316F6AD4CCCB1EC9A7C37307B54"",""assignmentId"":""b77d5d07-393c-4587-b325-ee6e7e7ee025"",""projectId"":""9076ac92-be42-43a2-9634-8b67c7fe93a7""}","https://test12345.live/?num_scrambled_semantic=8&num_scrambled_causal=4&num_scrambled_schematic=4&participantId=D67CD316F6AD4CCCB1EC9A7C37307B54&assignmentId=b77d5d07-393c-4587-b325-ee6e7e7ee025&projectId=9076ac92-be42-43a2-9634-8b67c7fe93a7","D67CD316F6AD4CCCB1EC9A7C37307B54-2025-05-22-19-44-43","[{""page_index"":0,""viewing_time"":774152}]","774152","","","","",""
"","","","","","instructions","2","798416","0.0-2.0","D67CD316F6AD4CCCB1EC9A7C37307B54","D67CD316F6AD4CCCB1EC9A7C37307B54","b77d5d07-393c-4587-b325-ee6e7e7ee025","9076ac92-be42-43a2-9634-8b67c7fe93a7","{""num_scrambled_semantic"":""8"",""num_scrambled_causal"":""4"",""num_scrambled_schematic"":""4"",""participantId"":""D67CD316F6AD4CCCB1EC9A7C37307B54"",""assignmentId"":""b77d5d07-393c-4587-b325-ee6e7e7ee025"",""projectId"":""9076ac92-be42-43a2-9634-8b67c7fe93a7""}","https://test12345.live/?num_scrambled_semantic=8&num_scrambled_causal=4&num_scrambled_schematic=4&participantId=D67CD316F6AD4CCCB1EC9A7C37307B54&assignmentId=b77d5d07-393c-4587-b325-ee6e7e7ee025&projectId=9076ac92-be42-43a2-9634-8b67c7fe93a7","D67CD316F6AD4CCCB1EC9A7C37307B54-2025-05-22-19-44-43","[{""page_index"":0,""viewing_time"":12712}]","12712","","","","",""
"true","","","","","fullscreen","3","800903","0.0-3.0","D67CD316F6AD4CCCB1EC9A7C37307B54","D67CD316F6AD4CCCB1EC9A7C37307B54","b77d5d07-393c-4587-b325-ee6e7e7ee025","9076ac92-be42-43a2-9634-8b67c7fe93a7","{""num_scrambled_semantic"":""8"",""num_scrambled_causal"":""4"",""num_scrambled_schematic"":""4"",""participantId"":""D67CD316F6AD4CCCB1EC9A7C37307B54"",""assignmentId"":""b77d5d07-393c-4587-b325-ee6e7e7ee025"",""projectId"":""9076ac92-be42-43a2-9634-8b67c7fe93a7""}","https://test12345.live/?num_scrambled_semantic=8&num_scrambled_causal=4&num_scrambled_schematic=4&participantId=D67CD316F6AD4CCCB1EC9A7C37307B54&assignmentId=b77d5d07-393c-4587-b325-ee6e7e7ee025&projectId=9076ac92-be42-43a2-9634-8b67c7fe93a7","D67CD316F6AD4CCCB1EC9A7C37307B54-2025-05-22-19-44-43","","1479","","","","",""
"","","","","","initialize-microphone","4","813012","0.0-4.0-0.0","D67CD316F6AD4CCCB1EC9A7C37307B54","D67CD316F6AD4CCCB1EC9A7C37307B54","b77d5d07-393c-4587-b325-ee6e7e7ee025","9076ac92-be42-43a2-9634-8b67c7fe93a7","{""num_scrambled_semantic"":""8"",""num_scrambled_causal"":""4"",""num_scrambled_schematic"":""4"",""participantId"":""D67CD316F6AD4CCCB1EC9A7C37307B54"",""assignmentId"":""b77d5d07-393c-4587-b325-ee6e7e7ee025"",""projectId"":""9076ac92-be42-43a2-9634-8b67c7fe93a7""}","https://test12345.live/?num_scrambled_semantic=8&num_scrambled_causal=4&num_scrambled_schematic=4&participantId=D67CD316F6AD4CCCB1EC9A7C37307B54&assignmentId=b77d5d07-393c-4587-b325-ee6e7e7ee025&projectId=9076ac92-be42-43a2-9634-8b67c7fe93a7","D67CD316F6AD4CCCB1EC9A7C37307B54-2025-05-22-19-44-43","","","270d2568169b0f45d2aaddaaf201cf7f11e2805da16f75839e403174c0b92d1c","","","",""
"","","","","","html-audio-response","5","837000","0.0-4.0-1.0","D67CD316F6AD4CCCB1EC9A7C37307B54","D67CD316F6AD4CCCB1EC9A7C37307B54","b77d5d07-393c-4587-b325-ee6e7e7ee025","9076ac92-be42-43a2-9634-8b67c7fe93a7","{""num_scrambled_semantic"":""8"",""num_scrambled_causal"":""4"",""num_scrambled_schematic"":""4"",""participantId"":""D67CD316F6AD4CCCB1EC9A7C37307B54"",""assignmentId"":""b77d5d07-393c-4587-b325-ee6e7e7ee025"",""projectId"":""9076ac92-be42-43a2-9634-8b67c7fe93a7""}","https://test12345.live/?num_scrambled_semantic=8&num_scrambled_causal=4&num_scrambled_schematic=4&participantId=D67CD316F6AD4CCCB1EC9A7C37307B54&assignmentId=b77d5d07-393c-4587-b325-ee6e7e7ee025&projectId=9076ac92-be42-43a2-9634-8b67c7fe93a7","D67CD316F6AD4CCCB1EC9A7C37307B54-2025-05-22-19-44-43","","6477","","<span style=""color: red; font-size: 24px""> NOW RECORDING</span>
        <p>Please test Microphone</p>","","13",""
"","","","","","html-button-response","6","893200","0.0-4.0-2.0","D67CD316F6AD4CCCB1EC9A7C37307B54","D67CD316F6AD4CCCB1EC9A7C37307B54","b77d5d07-393c-4587-b325-ee6e7e7ee025","9076ac92-be42-43a2-9634-8b67c7fe93a7","{""num_scrambled_semantic"":""8"",""num_scrambled_causal"":""4"",""num_scrambled_schematic"":""4"",""participantId"":""D67CD316F6AD4CCCB1EC9A7C37307B54"",""assignmentId"":""b77d5d07-393c-4587-b325-ee6e7e7ee025"",""projectId"":""9076ac92-be42-43a2-9634-8b67c7fe93a7""}","https://test12345.live/?num_scrambled_semantic=8&num_scrambled_causal=4&num_scrambled_schematic=4&participantId=D67CD316F6AD4CCCB1EC9A7C37307B54&assignmentId=b77d5d07-393c-4587-b325-ee6e7e7ee025&projectId=9076ac92-be42-43a2-9634-8b67c7fe93a7","D67CD316F6AD4CCCB1EC9A7C37307B54-2025-05-22-19-44-43","","56199","","<p style=""font-size:48px; color:red;"">Is Microphone OK?</p>","1","",""
"","","","","","instructions","7","910760","0.0-5.0","D67CD316F6AD4CCCB1EC9A7C37307B54","D67CD316F6AD4CCCB1EC9A7C37307B54","b77d5d07-393c-4587-b325-ee6e7e7ee025","9076ac92-be42-43a2-9634-8b67c7fe93a7","{""num_scrambled_semantic"":""8"",""num_scrambled_causal"":""4"",""num_scrambled_schematic"":""4"",""participantId"":""D67CD316F6AD4CCCB1EC9A7C37307B54"",""assignmentId"":""b77d5d07-393c-4587-b325-ee6e7e7ee025"",""projectId"":""9076ac92-be42-43a2-9634-8b67c7fe93a7""}","https://test12345.live/?num_scrambled_semantic=8&num_scrambled_causal=4&num_scrambled_schematic=4&participantId=D67CD316F6AD4CCCB1EC9A7C37307B54&assignmentId=b77d5d07-393c-4587-b325-ee6e7e7ee025&projectId=9076ac92-be42-43a2-9634-8b67c7fe93a7","D67CD316F6AD4CCCB1EC9A7C37307B54-2025-05-22-19-44-43","[{""page_index"":0,""viewing_time"":9008},{""page_index"":1,""viewing_time"":8552}]","17559","","","","",""
"","","","","","image-button-response","8","916764","0.0-6.0-0.0","D67CD316F6AD4CCCB1EC9A7C37307B54","D67CD316F6AD4CCCB1EC9A7C37307B54","b77d5d07-393c-4587-b325-ee6e7e7ee025","9076ac92-be42-43a2-9634-8b67c7fe93a7","{""num_scrambled_semantic"":""8"",""num_scrambled_causal"":""4"",""num_scrambled_schematic"":""4"",""participantId"":""D67CD316F6AD4CCCB1EC9A7C37307B54"",""assignmentId"":""b77d5d07-393c-4587-b325-ee6e7e7ee025"",""projectId"":""9076ac92-be42-43a2-9634-8b67c7fe93a7""}","https://test12345.live/?num_scrambled_semantic=8&num_scrambled_causal=4&num_scrambled_schematic=4&participantId=D67CD316F6AD4CCCB1EC9A7C37307B54&assignmentId=b77d5d07-393c-4587-b325-ee6e7e7ee025&projectId=9076ac92-be42-43a2-9634-8b67c7fe93a7","D67CD316F6AD4CCCB1EC9A7C37307B54-2025-05-22-19-44-43","","null","","images/instructions/movie_0.png","null","",""
"","","","","","image-button-response","9","921266","0.0-6.0-1.0-0.0","D67CD316F6AD4CCCB1EC9A7C37307B54","D67CD316F6AD4CCCB1EC9A7C37307B54","b77d5d07-393c-4587-b325-ee6e7e7ee025","9076ac92-be42-43a2-9634-8b67c7fe93a7","{""num_scrambled_semantic"":""8"",""num_scrambled_causal"":""4"",""num_scrambled_schematic"":""4"",""participantId"":""D67CD316F6AD4CCCB1EC9A7C37307B54"",""assignmentId"":""b77d5d07-393c-4587-b325-ee6e7e7ee025"",""projectId"":""9076ac92-be42-43a2-9634-8b67c7fe93a7""}","https://test12345.live/?num_scrambled_semantic=8&num_scrambled_causal=4&num_scrambled_schematic=4&participantId=D67CD316F6AD4CCCB1EC9A7C37307B54&assignmentId=b77d5d07-393c-4587-b325-ee6e7e7ee025&projectId=9076ac92-be42-43a2-9634-8b67c7fe93a7","D67CD316F6AD4CCCB1EC9A7C37307B54-2025-05-22-19-44-43","","null","","images/instructions/movie_1.png","null","",""
"","","","","","image-button-response","10","925281","0.0-6.0-1.0-1.0","D67CD316F6AD4CCCB1EC9A7C37307B54","D67CD316F6AD4CCCB1EC9A7C37307B54","b77d5d07-393c-4587-b325-ee6e7e7ee025","9076ac92-be42-43a2-9634-8b67c7fe93a7","{""num_scrambled_semantic"":""8"",""num_scrambled_causal"":""4"",""num_scrambled_schematic"":""4"",""participantId"":""D67CD316F6AD4CCCB1EC9A7C37307B54"",""assignmentId"":""b77d5d07-393c-4587-b325-ee6e7e7ee025"",""projectId"":""9076ac92-be42-43a2-9634-8b67c7fe93a7""}","https://test12345.live/?num_scrambled_semantic=8&num_scrambled_causal=4&num_scrambled_schematic=4&participantId=D67CD316F6AD4CCCB1EC9A7C37307B54&assignmentId=b77d5d07-393c-4587-b325-ee6e7e7ee025&projectId=9076ac92-be42-43a2-9634-8b67c7fe93a7","D67CD316F6AD4CCCB1EC9A7C37307B54-2025-05-22-19-44-43","","null","","images/instructions/movie_1.png","null","",""
"","","","","","image-button-response","11","927082","0.0-6.0-1.0-2.0","D67CD316F6AD4CCCB1EC9A7C37307B54","D67CD316F6AD4CCCB1EC9A7C37307B54","b77d5d07-393c-4587-b325-ee6e7e7ee025","9076ac92-be42-43a2-9634-8b67c7fe93a7","{""num_scrambled_semantic"":""8"",""num_scrambled_causal"":""4"",""num_scrambled_schematic"":""4"",""participantId"":""D67CD316F6AD4CCCB1EC9A7C37307B54"",""assignmentId"":""b77d5d07-393c-4587-b325-ee6e7e7ee025"",""projectId"":""9076ac92-be42-43a2-9634-8b67c7fe93a7""}","https://test12345.live/?num_scrambled_semantic=8&num_scrambled_causal=4&num_scrambled_schematic=4&participantId=D67CD316F6AD4CCCB1EC9A7C37307B54&assignmentId=b77d5d07-393c-4587-b325-ee6e7e7ee025&projectId=9076ac92-be42-43a2-9634-8b67c7fe93a7","D67CD316F6AD4CCCB1EC9A7C37307B54-2025-05-22-19-44-43","","null","","[]","null","",""
"","","","","","image-button-response","12","931586","0.0-6.0-1.0-0.1","D67CD316F6AD4CCCB1EC9A7C37307B54","D67CD316F6AD4CCCB1EC9A7C37307B54","b77d5d07-393c-4587-b325-ee6e7e7ee025","9076ac92-be42-43a2-9634-8b67c7fe93a7","{""num_scrambled_semantic"":""8"",""num_scrambled_causal"":""4"",""num_scrambled_schematic"":""4"",""participantId"":""D67CD316F6AD4CCCB1EC9A7C37307B54"",""assignmentId"":""b77d5d07-393c-4587-b325-ee6e7e7ee025"",""projectId"":""9076ac92-be42-43a2-9634-8b67c7fe93a7""}","https://test12345.live/?num_scrambled_semantic=8&num_scrambled_causal=4&num_scrambled_schematic=4&participantId=D67CD316F6AD4CCCB1EC9A7C37307B54&assignmentId=b77d5d07-393c-4587-b325-ee6e7e7ee025&projectId=9076ac92-be42-43a2-9634-8b67c7fe93a7","D67CD316F6AD4CCCB1EC9A7C37307B54-2025-05-22-19-44-43","","null","","images/instructions/movie_2.png","null","",""
"","","","","","image-button-response","13","934224","0.0-6.0-1.0-1.1","D67CD316F6AD4CCCB1EC9A7C37307B54","D67CD316F6AD4CCCB1EC9A7C37307B54","b77d5d07-393c-4587-b325-ee6e7e7ee025","9076ac92-be42-43a2-9634-8b67c7fe93a7","{""num_scrambled_semantic"":""8"",""num_scrambled_causal"":""4"",""num_scrambled_schematic"":""4"",""participantId"":""D67CD316F6AD4CCCB1EC9A7C37307B54"",""assignmentId"":""b77d5d07-393c-4587-b325-ee6e7e7ee025"",""projectId"":""9076ac92-be42-43a2-9634-8b67c7fe93a7""}","https://test12345.live/?num_scrambled_semantic=8&num_scrambled_causal=4&num_scrambled_schematic=4&participantId=D67CD316F6AD4CCCB1EC9A7C37307B54&assignmentId=b77d5d07-393c-4587-b325-ee6e7e7ee025&projectId=9076ac92-be42-43a2-9634-8b67c7fe93a7","D67CD316F6AD4CCCB1EC9A7C37307B54-2025-05-22-19-44-43","","2637","","images/instructions/movie_2.png","0","",""
"","","","","","image-button-response","14","936024","0.0-6.0-1.0-2.1","D67CD316F6AD4CCCB1EC9A7C37307B54","D67CD316F6AD4CCCB1EC9A7C37307B54","b77d5d07-393c-4587-b325-ee6e7e7ee025","9076ac92-be42-43a2-9634-8b67c7fe93a7","{""num_scrambled_semantic"":""8"",""num_scrambled_causal"":""4"",""num_scrambled_schematic"":""4"",""participantId"":""D67CD316F6AD4CCCB1EC9A7C37307B54"",""assignmentId"":""b77d5d07-393c-4587-b325-ee6e7e7ee025"",""projectId"":""9076ac92-be42-43a2-9634-8b67c7fe93a7""}","https://test12345.live/?num_scrambled_semantic=8&num_scrambled_causal=4&num_scrambled_schematic=4&participantId=D67CD316F6AD4CCCB1EC9A7C37307B54&assignmentId=b77d5d07-393c-4587-b325-ee6e7e7ee025&projectId=9076ac92-be42-43a2-9634-8b67c7fe93a7","D67CD316F6AD4CCCB1EC9A7C37307B54-2025-05-22-19-44-43","","null","","[]","null","",""
"","","","","","image-button-response","15","940532","0.0-6.0-1.0-0.2","D67CD316F6AD4CCCB1EC9A7C37307B54","D67CD316F6AD4CCCB1EC9A7C37307B54","b77d5d07-393c-4587-b325-ee6e7e7ee025","9076ac92-be42-43a2-9634-8b67c7fe93a7","{""num_scrambled_semantic"":""8"",""num_scrambled_causal"":""4"",""num_scrambled_schematic"":""4"",""participantId"":""D67CD316F6AD4CCCB1EC9A7C37307B54"",""assignmentId"":""b77d5d07-393c-4587-b325-ee6e7e7ee025"",""projectId"":""9076ac92-be42-43a2-9634-8b67c7fe93a7""}","https://test12345.live/?num_scrambled_semantic=8&num_scrambled_causal=4&num_scrambled_schematic=4&participantId=D67CD316F6AD4CCCB1EC9A7C37307B54&assignmentId=b77d5d07-393c-4587-b325-ee6e7e7ee025&projectId=9076ac92-be42-43a2-9634-8b67c7fe93a7","D67CD316F6AD4CCCB1EC9A7C37307B54-2025-05-22-19-44-43","","null","","images/instructions/movie_3.png","null","",""
"","","","","","image-button-response","16","943264","0.0-6.0-1.0-1.2","D67CD316F6AD4CCCB1EC9A7C37307B54","D67CD316F6AD4CCCB1EC9A7C37307B54","b77d5d07-393c-4587-b325-ee6e7e7ee025","9076ac92-be42-43a2-9634-8b67c7fe93a7","{""num_scrambled_semantic"":""8"",""num_scrambled_causal"":""4"",""num_scrambled_schematic"":""4"",""participantId"":""D67CD316F6AD4CCCB1EC9A7C37307B54"",""assignmentId"":""b77d5d07-393c-4587-b325-ee6e7e7ee025"",""projectId"":""9076ac92-be42-43a2-9634-8b67c7fe93a7""}","https://test12345.live/?num_scrambled_semantic=8&num_scrambled_causal=4&num_scrambled_schematic=4&participantId=D67CD316F6AD4CCCB1EC9A7C37307B54&assignmentId=b77d5d07-393c-4587-b325-ee6e7e7ee025&projectId=9076ac92-be42-43a2-9634-8b67c7fe93a7","D67CD316F6AD4CCCB1EC9A7C37307B54-2025-05-22-19-44-43","","2731","","images/instructions/movie_3.png","0","",""
"","","","","","image-button-response","17","945079","0.0-6.0-1.0-2.2","D67CD316F6AD4CCCB1EC9A7C37307B54","D67CD316F6AD4CCCB1EC9A7C37307B54","b77d5d07-393c-4587-b325-ee6e7e7ee025","9076ac92-be42-43a2-9634-8b67c7fe93a7","{""num_scrambled_semantic"":""8"",""num_scrambled_causal"":""4"",""num_scrambled_schematic"":""4"",""participantId"":""D67CD316F6AD4CCCB1EC9A7C37307B54"",""assignmentId"":""b77d5d07-393c-4587-b325-ee6e7e7ee025"",""projectId"":""9076ac92-be42-43a2-9634-8b67c7fe93a7""}","https://test12345.live/?num_scrambled_semantic=8&num_scrambled_causal=4&num_scrambled_schematic=4&participantId=D67CD316F6AD4CCCB1EC9A7C37307B54&assignmentId=b77d5d07-393c-4587-b325-ee6e7e7ee025&projectId=9076ac92-be42-43a2-9634-8b67c7fe93a7","D67CD316F6AD4CCCB1EC9A7C37307B54-2025-05-22-19-44-43","","null","","[]","null","",""
"","","","","","image-button-response","18","949593","0.0-6.0-1.0-0.3","D67CD316F6AD4CCCB1EC9A7C37307B54","D67CD316F6AD4CCCB1EC9A7C37307B54","b77d5d07-393c-4587-b325-ee6e7e7ee025","9076ac92-be42-43a2-9634-8b67c7fe93a7","{""num_scrambled_semantic"":""8"",""num_scrambled_causal"":""4"",""num_scrambled_schematic"":""4"",""participantId"":""D67CD316F6AD4CCCB1EC9A7C37307B54"",""assignmentId"":""b77d5d07-393c-4587-b325-ee6e7e7ee025"",""projectId"":""9076ac92-be42-43a2-9634-8b67c7fe93a7""}","https://test12345.live/?num_scrambled_semantic=8&num_scrambled_causal=4&num_scrambled_schematic=4&participantId=D67CD316F6AD4CCCB1EC9A7C37307B54&assignmentId=b77d5d07-393c-4587-b325-ee6e7e7ee025&projectId=9076ac92-be42-43a2-9634-8b67c7fe93a7","D67CD316F6AD4CCCB1EC9A7C37307B54-2025-05-22-19-44-43","","null","","images/instructions/movie_4.png","null","",""
"","","","","","image-button-response","19","951096","0.0-6.0-1.0-1.3","D67CD316F6AD4CCCB1EC9A7C37307B54","D67CD316F6AD4CCCB1EC9A7C37307B54","b77d5d07-393c-4587-b325-ee6e7e7ee025","9076ac92-be42-43a2-9634-8b67c7fe93a7","{""num_scrambled_semantic"":""8"",""num_scrambled_causal"":""4"",""num_scrambled_schematic"":""4"",""participantId"":""D67CD316F6AD4CCCB1EC9A7C37307B54"",""assignmentId"":""b77d5d07-393c-4587-b325-ee6e7e7ee025"",""projectId"":""9076ac92-be42-43a2-9634-8b67c7fe93a7""}","https://test12345.live/?num_scrambled_semantic=8&num_scrambled_causal=4&num_scrambled_schematic=4&participantId=D67CD316F6AD4CCCB1EC9A7C37307B54&assignmentId=b77d5d07-393c-4587-b325-ee6e7e7ee025&projectId=9076ac92-be42-43a2-9634-8b67c7fe93a7","D67CD316F6AD4CCCB1EC9A7C37307B54-2025-05-22-19-44-43","","1502","","images/instructions/movie_4.png","0","",""
"","","","","","image-button-response","20","952900","0.0-6.0-1.0-2.3","D67CD316F6AD4CCCB1EC9A7C37307B54","D67CD316F6AD4CCCB1EC9A7C37307B54","b77d5d07-393c-4587-b325-ee6e7e7ee025","9076ac92-be42-43a2-9634-8b67c7fe93a7","{""num_scrambled_semantic"":""8"",""num_scrambled_causal"":""4"",""num_scrambled_schematic"":""4"",""participantId"":""D67CD316F6AD4CCCB1EC9A7C37307B54"",""assignmentId"":""b77d5d07-393c-4587-b325-ee6e7e7ee025"",""projectId"":""9076ac92-be42-43a2-9634-8b67c7fe93a7""}","https://test12345.live/?num_scrambled_semantic=8&num_scrambled_causal=4&num_scrambled_schematic=4&participantId=D67CD316F6AD4CCCB1EC9A7C37307B54&assignmentId=b77d5d07-393c-4587-b325-ee6e7e7ee025&projectId=9076ac92-be42-43a2-9634-8b67c7fe93a7","D67CD316F6AD4CCCB1EC9A7C37307B54-2025-05-22-19-44-43","","null","","[]","null","",""
"","","","","","instructions","21","1001664","0.0-7.0","D67CD316F6AD4CCCB1EC9A7C37307B54","D67CD316F6AD4CCCB1EC9A7C37307B54","b77d5d07-393c-4587-b325-ee6e7e7ee025","9076ac92-be42-43a2-9634-8b67c7fe93a7","{""num_scrambled_semantic"":""8"",""num_scrambled_causal"":""4"",""num_scrambled_schematic"":""4"",""participantId"":""D67CD316F6AD4CCCB1EC9A7C37307B54"",""assignmentId"":""b77d5d07-393c-4587-b325-ee6e7e7ee025"",""projectId"":""9076ac92-be42-43a2-9634-8b67c7fe93a7""}","https://test12345.live/?num_scrambled_semantic=8&num_scrambled_causal=4&num_scrambled_schematic=4&participantId=D67CD316F6AD4CCCB1EC9A7C37307B54&assignmentId=b77d5d07-393c-4587-b325-ee6e7e7ee025&projectId=9076ac92-be42-43a2-9634-8b67c7fe93a7","D67CD316F6AD4CCCB1EC9A7C37307B54-2025-05-22-19-44-43","[{""page_index"":0,""viewing_time"":47292},{""page_index"":1,""viewing_time"":1472}]","48764","","","","",""
"","","","","","html-audio-response","22","1263080","0.0-8.0","D67CD316F6AD4CCCB1EC9A7C37307B54","D67CD316F6AD4CCCB1EC9A7C37307B54","b77d5d07-393c-4587-b325-ee6e7e7ee025","9076ac92-be42-43a2-9634-8b67c7fe93a7","{""num_scrambled_semantic"":""8"",""num_scrambled_causal"":""4"",""num_scrambled_schematic"":""4"",""participantId"":""D67CD316F6AD4CCCB1EC9A7C37307B54"",""assignmentId"":""b77d5d07-393c-4587-b325-ee6e7e7ee025"",""projectId"":""9076ac92-be42-43a2-9634-8b67c7fe93a7""}","https://test12345.live/?num_scrambled_semantic=8&num_scrambled_causal=4&num_scrambled_schematic=4&participantId=D67CD316F6AD4CCCB1EC9A7C37307B54&assignmentId=b77d5d07-393c-4587-b325-ee6e7e7ee025&projectId=9076ac92-be42-43a2-9634-8b67c7fe93a7","D67CD316F6AD4CCCB1EC9A7C37307B54-2025-05-22-19-44-43","","41454","","[""<span style=\""color: red; font-size: 24px\""> NOW RECORDING</span><p>Please say out loud all the images you saw in the exact order you saw them. Try to recall as many images as you can, but remember: getting the order right is more important than the number of images you recall.</p>""]","","2",""
"","","","","","instructions","23","1266416","0.0-9.0","D67CD316F6AD4CCCB1EC9A7C37307B54","D67CD316F6AD4CCCB1EC9A7C37307B54","b77d5d07-393c-4587-b325-ee6e7e7ee025","9076ac92-be42-43a2-9634-8b67c7fe93a7","{""num_scrambled_semantic"":""8"",""num_scrambled_causal"":""4"",""num_scrambled_schematic"":""4"",""participantId"":""D67CD316F6AD4CCCB1EC9A7C37307B54"",""assignmentId"":""b77d5d07-393c-4587-b325-ee6e7e7ee025"",""projectId"":""9076ac92-be42-43a2-9634-8b67c7fe93a7""}","https://test12345.live/?num_scrambled_semantic=8&num_scrambled_causal=4&num_scrambled_schematic=4&participantId=D67CD316F6AD4CCCB1EC9A7C37307B54&assignmentId=b77d5d07-393c-4587-b325-ee6e7e7ee025&projectId=9076ac92-be42-43a2-9634-8b67c7fe93a7","D67CD316F6AD4CCCB1EC9A7C37307B54-2025-05-22-19-44-43","[{""page_index"":0,""viewing_time"":3331}]","3331","","","","",""
"","","","","","image-button-response","24","1272428","0.0-10.0-0.0","D67CD316F6AD4CCCB1EC9A7C37307B54","D67CD316F6AD4CCCB1EC9A7C37307B54","b77d5d07-393c-4587-b325-ee6e7e7ee025","9076ac92-be42-43a2-9634-8b67c7fe93a7","{""num_scrambled_semantic"":""8"",""num_scrambled_causal"":""4"",""num_scrambled_schematic"":""4"",""participantId"":""D67CD316F6AD4CCCB1EC9A7C37307B54"",""assignmentId"":""b77d5d07-393c-4587-b325-ee6e7e7ee025"",""projectId"":""9076ac92-be42-43a2-9634-8b67c7fe93a7""}","https://test12345.live/?num_scrambled_semantic=8&num_scrambled_causal=4&num_scrambled_schematic=4&participantId=D67CD316F6AD4CCCB1EC9A7C37307B54&assignmentId=b77d5d07-393c-4587-b325-ee6e7e7ee025&projectId=9076ac92-be42-43a2-9634-8b67c7fe93a7","D67CD316F6AD4CCCB1EC9A7C37307B54-2025-05-22-19-44-43","","null","","images/causal_sequence/the_performance_causal/the_performance_causal_0.png","null","",""
"","","","","","image-button-response","25","1276932","0.0-10.0-1.0-0.0","D67CD316F6AD4CCCB1EC9A7C37307B54","D67CD316F6AD4CCCB1EC9A7C37307B54","b77d5d07-393c-4587-b325-ee6e7e7ee025","9076ac92-be42-43a2-9634-8b67c7fe93a7","{""num_scrambled_semantic"":""8"",""num_scrambled_causal"":""4"",""num_scrambled_schematic"":""4"",""participantId"":""D67CD316F6AD4CCCB1EC9A7C37307B54"",""assignmentId"":""b77d5d07-393c-4587-b325-ee6e7e7ee025"",""projectId"":""9076ac92-be42-43a2-9634-8b67c7fe93a7""}","https://test12345.live/?num_scrambled_semantic=8&num_scrambled_causal=4&num_scrambled_schematic=4&participantId=D67CD316F6AD4CCCB1EC9A7C37307B54&assignmentId=b77d5d07-393c-4587-b325-ee6e7e7ee025&projectId=9076ac92-be42-43a2-9634-8b67c7fe93a7","D67CD316F6AD4CCCB1EC9A7C37307B54-2025-05-22-19-44-43","","null","","images/causal_sequence/the_performance_causal/the_performance_causal_1.png","null","",""
"","","","","","image-button-response","26","1280933","0.0-10.0-1.0-1.0","D67CD316F6AD4CCCB1EC9A7C37307B54","D67CD316F6AD4CCCB1EC9A7C37307B54","b77d5d07-393c-4587-b325-ee6e7e7ee025","9076ac92-be42-43a2-9634-8b67c7fe93a7","{""num_scrambled_semantic"":""8"",""num_scrambled_causal"":""4"",""num_scrambled_schematic"":""4"",""participantId"":""D67CD316F6AD4CCCB1EC9A7C37307B54"",""assignmentId"":""b77d5d07-393c-4587-b325-ee6e7e7ee025"",""projectId"":""9076ac92-be42-43a2-9634-8b67c7fe93a7""}","https://test12345.live/?num_scrambled_semantic=8&num_scrambled_causal=4&num_scrambled_schematic=4&participantId=D67CD316F6AD4CCCB1EC9A7C37307B54&assignmentId=b77d5d07-393c-4587-b325-ee6e7e7ee025&projectId=9076ac92-be42-43a2-9634-8b67c7fe93a7","D67CD316F6AD4CCCB1EC9A7C37307B54-2025-05-22-19-44-43","","null","","images/causal_sequence/the_performance_causal/the_performance_causal_1.png","null","",""
"","","","","","image-button-response","27","1282737","0.0-10.0-1.0-2.0","D67CD316F6AD4CCCB1EC9A7C37307B54","D67CD316F6AD4CCCB1EC9A7C37307B54","b77d5d07-393c-4587-b325-ee6e7e7ee025","9076ac92-be42-43a2-9634-8b67c7fe93a7","{""num_scrambled_semantic"":""8"",""num_scrambled_causal"":""4"",""num_scrambled_schematic"":""4"",""participantId"":""D67CD316F6AD4CCCB1EC9A7C37307B54"",""assignmentId"":""b77d5d07-393c-4587-b325-ee6e7e7ee025"",""projectId"":""9076ac92-be42-43a2-9634-8b67c7fe93a7""}","https://test12345.live/?num_scrambled_semantic=8&num_scrambled_causal=4&num_scrambled_schematic=4&participantId=D67CD316F6AD4CCCB1EC9A7C37307B54&assignmentId=b77d5d07-393c-4587-b325-ee6e7e7ee025&projectId=9076ac92-be42-43a2-9634-8b67c7fe93a7","D67CD316F6AD4CCCB1EC9A7C37307B54-2025-05-22-19-44-43","","null","","[]","null","",""
"","","","","","image-button-response","28","1287248","0.0-10.0-1.0-0.1","D67CD316F6AD4CCCB1EC9A7C37307B54","D67CD316F6AD4CCCB1EC9A7C37307B54","b77d5d07-393c-4587-b325-ee6e7e7ee025","9076ac92-be42-43a2-9634-8b67c7fe93a7","{""num_scrambled_semantic"":""8"",""num_scrambled_causal"":""4"",""num_scrambled_schematic"":""4"",""participantId"":""D67CD316F6AD4CCCB1EC9A7C37307B54"",""assignmentId"":""b77d5d07-393c-4587-b325-ee6e7e7ee025"",""projectId"":""9076ac92-be42-43a2-9634-8b67c7fe93a7""}","https://test12345.live/?num_scrambled_semantic=8&num_scrambled_causal=4&num_scrambled_schematic=4&participantId=D67CD316F6AD4CCCB1EC9A7C37307B54&assignmentId=b77d5d07-393c-4587-b325-ee6e7e7ee025&projectId=9076ac92-be42-43a2-9634-8b67c7fe93a7","D67CD316F6AD4CCCB1EC9A7C37307B54-2025-05-22-19-44-43","","null","","images/causal_sequence/the_performance_causal/the_performance_causal_2.png","null","",""
"","","","","","image-button-response","29","1287992","0.0-10.0-1.0-1.1","D67CD316F6AD4CCCB1EC9A7C37307B54","D67CD316F6AD4CCCB1EC9A7C37307B54","b77d5d07-393c-4587-b325-ee6e7e7ee025","9076ac92-be42-43a2-9634-8b67c7fe93a7","{""num_scrambled_semantic"":""8"",""num_scrambled_causal"":""4"",""num_scrambled_schematic"":""4"",""participantId"":""D67CD316F6AD4CCCB1EC9A7C37307B54"",""assignmentId"":""b77d5d07-393c-4587-b325-ee6e7e7ee025"",""projectId"":""9076ac92-be42-43a2-9634-8b67c7fe93a7""}","https://test12345.live/?num_scrambled_semantic=8&num_scrambled_causal=4&num_scrambled_schematic=4&participantId=D67CD316F6AD4CCCB1EC9A7C37307B54&assignmentId=b77d5d07-393c-4587-b325-ee6e7e7ee025&projectId=9076ac92-be42-43a2-9634-8b67c7fe93a7","D67CD316F6AD4CCCB1EC9A7C37307B54-2025-05-22-19-44-43","","743","","images/causal_sequence/the_performance_causal/the_performance_causal_2.png","0","",""
"","","","","","image-button-response","30","1289806","0.0-10.0-1.0-2.1","D67CD316F6AD4CCCB1EC9A7C37307B54","D67CD316F6AD4CCCB1EC9A7C37307B54","b77d5d07-393c-4587-b325-ee6e7e7ee025","9076ac92-be42-43a2-9634-8b67c7fe93a7","{""num_scrambled_semantic"":""8"",""num_scrambled_causal"":""4"",""num_scrambled_schematic"":""4"",""participantId"":""D67CD316F6AD4CCCB1EC9A7C37307B54"",""assignmentId"":""b77d5d07-393c-4587-b325-ee6e7e7ee025"",""projectId"":""9076ac92-be42-43a2-9634-8b67c7fe93a7""}","https://test12345.live/?num_scrambled_semantic=8&num_scrambled_causal=4&num_scrambled_schematic=4&participantId=D67CD316F6AD4CCCB1EC9A7C37307B54&assignmentId=b77d5d07-393c-4587-b325-ee6e7e7ee025&projectId=9076ac92-be42-43a2-9634-8b67c7fe93a7","D67CD316F6AD4CCCB1EC9A7C37307B54-2025-05-22-19-44-43","","null","","[]","null","",""
"","","","","","image-button-response","31","1294311","0.0-10.0-1.0-0.2","D67CD316F6AD4CCCB1EC9A7C37307B54","D67CD316F6AD4CCCB1EC9A7C37307B54","b77d5d07-393c-4587-b325-ee6e7e7ee025","9076ac92-be42-43a2-9634-8b67c7fe93a7","{""num_scrambled_semantic"":""8"",""num_scrambled_causal"":""4"",""num_scrambled_schematic"":""4"",""participantId"":""D67CD316F6AD4CCCB1EC9A7C37307B54"",""assignmentId"":""b77d5d07-393c-4587-b325-ee6e7e7ee025"",""projectId"":""9076ac92-be42-43a2-9634-8b67c7fe93a7""}","https://test12345.live/?num_scrambled_semantic=8&num_scrambled_causal=4&num_scrambled_schematic=4&participantId=D67CD316F6AD4CCCB1EC9A7C37307B54&assignmentId=b77d5d07-393c-4587-b325-ee6e7e7ee025&projectId=9076ac92-be42-43a2-9634-8b67c7fe93a7","D67CD316F6AD4CCCB1EC9A7C37307B54-2025-05-22-19-44-43","","null","","images/causal_sequence/the_performance_causal/the_performance_causal_3.png","null","",""
"","","","","","image-button-response","32","1295552","0.0-10.0-1.0-1.2","D67CD316F6AD4CCCB1EC9A7C37307B54","D67CD316F6AD4CCCB1EC9A7C37307B54","b77d5d07-393c-4587-b325-ee6e7e7ee025","9076ac92-be42-43a2-9634-8b67c7fe93a7","{""num_scrambled_semantic"":""8"",""num_scrambled_causal"":""4"",""num_scrambled_schematic"":""4"",""participantId"":""D67CD316F6AD4CCCB1EC9A7C37307B54"",""assignmentId"":""b77d5d07-393c-4587-b325-ee6e7e7ee025"",""projectId"":""9076ac92-be42-43a2-9634-8b67c7fe93a7""}","https://test12345.live/?num_scrambled_semantic=8&num_scrambled_causal=4&num_scrambled_schematic=4&participantId=D67CD316F6AD4CCCB1EC9A7C37307B54&assignmentId=b77d5d07-393c-4587-b325-ee6e7e7ee025&projectId=9076ac92-be42-43a2-9634-8b67c7fe93a7","D67CD316F6AD4CCCB1EC9A7C37307B54-2025-05-22-19-44-43","","1241","","images/causal_sequence/the_performance_causal/the_performance_causal_3.png","0","",""
"","","","","","image-button-response","33","1297368","0.0-10.0-1.0-2.2","D67CD316F6AD4CCCB1EC9A7C37307B54","D67CD316F6AD4CCCB1EC9A7C37307B54","b77d5d07-393c-4587-b325-ee6e7e7ee025","9076ac92-be42-43a2-9634-8b67c7fe93a7","{""num_scrambled_semantic"":""8"",""num_scrambled_causal"":""4"",""num_scrambled_schematic"":""4"",""participantId"":""D67CD316F6AD4CCCB1EC9A7C37307B54"",""assignmentId"":""b77d5d07-393c-4587-b325-ee6e7e7ee025"",""projectId"":""9076ac92-be42-43a2-9634-8b67c7fe93a7""}","https://test12345.live/?num_scrambled_semantic=8&num_scrambled_causal=4&num_scrambled_schematic=4&participantId=D67CD316F6AD4CCCB1EC9A7C37307B54&assignmentId=b77d5d07-393c-4587-b325-ee6e7e7ee025&projectId=9076ac92-be42-43a2-9634-8b67c7fe93a7","D67CD316F6AD4CCCB1EC9A7C37307B54-2025-05-22-19-44-43","","null","","[]","null","",""
"","","","","","image-button-response","34","1301869","0.0-10.0-1.0-0.3","D67CD316F6AD4CCCB1EC9A7C37307B54","D67CD316F6AD4CCCB1EC9A7C37307B54","b77d5d07-393c-4587-b325-ee6e7e7ee025","9076ac92-be42-43a2-9634-8b67c7fe93a7","{""num_scrambled_semantic"":""8"",""num_scrambled_causal"":""4"",""num_scrambled_schematic"":""4"",""participantId"":""D67CD316F6AD4CCCB1EC9A7C37307B54"",""assignmentId"":""b77d5d07-393c-4587-b325-ee6e7e7ee025"",""projectId"":""9076ac92-be42-43a2-9634-8b67c7fe93a7""}","https://test12345.live/?num_scrambled_semantic=8&num_scrambled_causal=4&num_scrambled_schematic=4&participantId=D67CD316F6AD4CCCB1EC9A7C37307B54&assignmentId=b77d5d07-393c-4587-b325-ee6e7e7ee025&projectId=9076ac92-be42-43a2-9634-8b67c7fe93a7","D67CD316F6AD4CCCB1EC9A7C37307B54-2025-05-22-19-44-43","","null","","images/causal_sequence/the_performance_causal/the_performance_causal_4.png","null","",""
"","","","","","image-button-response","35","1302568","0.0-10.0-1.0-1.3","D67CD316F6AD4CCCB1EC9A7C37307B54","D67CD316F6AD4CCCB1EC9A7C37307B54","b77d5d07-393c-4587-b325-ee6e7e7ee025","9076ac92-be42-43a2-9634-8b67c7fe93a7","{""num_scrambled_semantic"":""8"",""num_scrambled_causal"":""4"",""num_scrambled_schematic"":""4"",""participantId"":""D67CD316F6AD4CCCB1EC9A7C37307B54"",""assignmentId"":""b77d5d07-393c-4587-b325-ee6e7e7ee025"",""projectId"":""9076ac92-be42-43a2-9634-8b67c7fe93a7""}","https://test12345.live/?num_scrambled_semantic=8&num_scrambled_causal=4&num_scrambled_schematic=4&participantId=D67CD316F6AD4CCCB1EC9A7C37307B54&assignmentId=b77d5d07-393c-4587-b325-ee6e7e7ee025&projectId=9076ac92-be42-43a2-9634-8b67c7fe93a7","D67CD316F6AD4CCCB1EC9A7C37307B54-2025-05-22-19-44-43","","699","","images/causal_sequence/the_performance_causal/the_performance_causal_4.png","0","",""
"","","","","","image-button-response","36","1304372","0.0-10.0-1.0-2.3","D67CD316F6AD4CCCB1EC9A7C37307B54","D67CD316F6AD4CCCB1EC9A7C37307B54","b77d5d07-393c-4587-b325-ee6e7e7ee025","9076ac92-be42-43a2-9634-8b67c7fe93a7","{""num_scrambled_semantic"":""8"",""num_scrambled_causal"":""4"",""num_scrambled_schematic"":""4"",""participantId"":""D67CD316F6AD4CCCB1EC9A7C37307B54"",""assignmentId"":""b77d5d07-393c-4587-b325-ee6e7e7ee025"",""projectId"":""9076ac92-be42-43a2-9634-8b67c7fe93a7""}","https://test12345.live/?num_scrambled_semantic=8&num_scrambled_causal=4&num_scrambled_schematic=4&participantId=D67CD316F6AD4CCCB1EC9A7C37307B54&assignmentId=b77d5d07-393c-4587-b325-ee6e7e7ee025&projectId=9076ac92-be42-43a2-9634-8b67c7fe93a7","D67CD316F6AD4CCCB1EC9A7C37307B54-2025-05-22-19-44-43","","null","","[]","null","",""
"","","","","","image-button-response","37","1308878","0.0-10.0-1.0-0.4","D67CD316F6AD4CCCB1EC9A7C37307B54","D67CD316F6AD4CCCB1EC9A7C37307B54","b77d5d07-393c-4587-b325-ee6e7e7ee025","9076ac92-be42-43a2-9634-8b67c7fe93a7","{""num_scrambled_semantic"":""8"",""num_scrambled_causal"":""4"",""num_scrambled_schematic"":""4"",""participantId"":""D67CD316F6AD4CCCB1EC9A7C37307B54"",""assignmentId"":""b77d5d07-393c-4587-b325-ee6e7e7ee025"",""projectId"":""9076ac92-be42-43a2-9634-8b67c7fe93a7""}","https://test12345.live/?num_scrambled_semantic=8&num_scrambled_causal=4&num_scrambled_schematic=4&participantId=D67CD316F6AD4CCCB1EC9A7C37307B54&assignmentId=b77d5d07-393c-4587-b325-ee6e7e7ee025&projectId=9076ac92-be42-43a2-9634-8b67c7fe93a7","D67CD316F6AD4CCCB1EC9A7C37307B54-2025-05-22-19-44-43","","null","","images/causal_sequence/the_performance_causal/the_performance_causal_5.png","null","",""
"","","","","","image-button-response","38","1309512","0.0-10.0-1.0-1.4","D67CD316F6AD4CCCB1EC9A7C37307B54","D67CD316F6AD4CCCB1EC9A7C37307B54","b77d5d07-393c-4587-b325-ee6e7e7ee025","9076ac92-be42-43a2-9634-8b67c7fe93a7","{""num_scrambled_semantic"":""8"",""num_scrambled_causal"":""4"",""num_scrambled_schematic"":""4"",""participantId"":""D67CD316F6AD4CCCB1EC9A7C37307B54"",""assignmentId"":""b77d5d07-393c-4587-b325-ee6e7e7ee025"",""projectId"":""9076ac92-be42-43a2-9634-8b67c7fe93a7""}","https://test12345.live/?num_scrambled_semantic=8&num_scrambled_causal=4&num_scrambled_schematic=4&participantId=D67CD316F6AD4CCCB1EC9A7C37307B54&assignmentId=b77d5d07-393c-4587-b325-ee6e7e7ee025&projectId=9076ac92-be42-43a2-9634-8b67c7fe93a7","D67CD316F6AD4CCCB1EC9A7C37307B54-2025-05-22-19-44-43","","634","","images/causal_sequence/the_performance_causal/the_performance_causal_5.png","0","",""
"","","","","","image-button-response","39","1311322","0.0-10.0-1.0-2.4","D67CD316F6AD4CCCB1EC9A7C37307B54","D67CD316F6AD4CCCB1EC9A7C37307B54","b77d5d07-393c-4587-b325-ee6e7e7ee025","9076ac92-be42-43a2-9634-8b67c7fe93a7","{""num_scrambled_semantic"":""8"",""num_scrambled_causal"":""4"",""num_scrambled_schematic"":""4"",""participantId"":""D67CD316F6AD4CCCB1EC9A7C37307B54"",""assignmentId"":""b77d5d07-393c-4587-b325-ee6e7e7ee025"",""projectId"":""9076ac92-be42-43a2-9634-8b67c7fe93a7""}","https://test12345.live/?num_scrambled_semantic=8&num_scrambled_causal=4&num_scrambled_schematic=4&participantId=D67CD316F6AD4CCCB1EC9A7C37307B54&assignmentId=b77d5d07-393c-4587-b325-ee6e7e7ee025&projectId=9076ac92-be42-43a2-9634-8b67c7fe93a7","D67CD316F6AD4CCCB1EC9A7C37307B54-2025-05-22-19-44-43","","null","","[]","null","",""
"","","","","","image-button-response","40","1315824","0.0-10.0-1.0-0.5","D67CD316F6AD4CCCB1EC9A7C37307B54","D67CD316F6AD4CCCB1EC9A7C37307B54","b77d5d07-393c-4587-b325-ee6e7e7ee025","9076ac92-be42-43a2-9634-8b67c7fe93a7","{""num_scrambled_semantic"":""8"",""num_scrambled_causal"":""4"",""num_scrambled_schematic"":""4"",""participantId"":""D67CD316F6AD4CCCB1EC9A7C37307B54"",""assignmentId"":""b77d5d07-393c-4587-b325-ee6e7e7ee025"",""projectId"":""9076ac92-be42-43a2-9634-8b67c7fe93a7""}","https://test12345.live/?num_scrambled_semantic=8&num_scrambled_causal=4&num_scrambled_schematic=4&participantId=D67CD316F6AD4CCCB1EC9A7C37307B54&assignmentId=b77d5d07-393c-4587-b325-ee6e7e7ee025&projectId=9076ac92-be42-43a2-9634-8b67c7fe93a7","D67CD316F6AD4CCCB1EC9A7C37307B54-2025-05-22-19-44-43","","null","","images/causal_sequence/the_performance_causal/the_performance_causal_6.png","null","",""
"","","","","","image-button-response","41","1316776","0.0-10.0-1.0-1.5","D67CD316F6AD4CCCB1EC9A7C37307B54","D67CD316F6AD4CCCB1EC9A7C37307B54","b77d5d07-393c-4587-b325-ee6e7e7ee025","9076ac92-be42-43a2-9634-8b67c7fe93a7","{""num_scrambled_semantic"":""8"",""num_scrambled_causal"":""4"",""num_scrambled_schematic"":""4"",""participantId"":""D67CD316F6AD4CCCB1EC9A7C37307B54"",""assignmentId"":""b77d5d07-393c-4587-b325-ee6e7e7ee025"",""projectId"":""9076ac92-be42-43a2-9634-8b67c7fe93a7""}","https://test12345.live/?num_scrambled_semantic=8&num_scrambled_causal=4&num_scrambled_schematic=4&participantId=D67CD316F6AD4CCCB1EC9A7C37307B54&assignmentId=b77d5d07-393c-4587-b325-ee6e7e7ee025&projectId=9076ac92-be42-43a2-9634-8b67c7fe93a7","D67CD316F6AD4CCCB1EC9A7C37307B54-2025-05-22-19-44-43","","952","","images/causal_sequence/the_performance_causal/the_performance_causal_6.png","0","",""
"","","","","","image-button-response","42","1318578","0.0-10.0-1.0-2.5","D67CD316F6AD4CCCB1EC9A7C37307B54","D67CD316F6AD4CCCB1EC9A7C37307B54","b77d5d07-393c-4587-b325-ee6e7e7ee025","9076ac92-be42-43a2-9634-8b67c7fe93a7","{""num_scrambled_semantic"":""8"",""num_scrambled_causal"":""4"",""num_scrambled_schematic"":""4"",""participantId"":""D67CD316F6AD4CCCB1EC9A7C37307B54"",""assignmentId"":""b77d5d07-393c-4587-b325-ee6e7e7ee025"",""projectId"":""9076ac92-be42-43a2-9634-8b67c7fe93a7""}","https://test12345.live/?num_scrambled_semantic=8&num_scrambled_causal=4&num_scrambled_schematic=4&participantId=D67CD316F6AD4CCCB1EC9A7C37307B54&assignmentId=b77d5d07-393c-4587-b325-ee6e7e7ee025&projectId=9076ac92-be42-43a2-9634-8b67c7fe93a7","D67CD316F6AD4CCCB1EC9A7C37307B54-2025-05-22-19-44-43","","null","","[]","null","",""
"","","","","","image-button-response","43","1323091","0.0-10.0-1.0-0.6","D67CD316F6AD4CCCB1EC9A7C37307B54","D67CD316F6AD4CCCB1EC9A7C37307B54","b77d5d07-393c-4587-b325-ee6e7e7ee025","9076ac92-be42-43a2-9634-8b67c7fe93a7","{""num_scrambled_semantic"":""8"",""num_scrambled_causal"":""4"",""num_scrambled_schematic"":""4"",""participantId"":""D67CD316F6AD4CCCB1EC9A7C37307B54"",""assignmentId"":""b77d5d07-393c-4587-b325-ee6e7e7ee025"",""projectId"":""9076ac92-be42-43a2-9634-8b67c7fe93a7""}","https://test12345.live/?num_scrambled_semantic=8&num_scrambled_causal=4&num_scrambled_schematic=4&participantId=D67CD316F6AD4CCCB1EC9A7C37307B54&assignmentId=b77d5d07-393c-4587-b325-ee6e7e7ee025&projectId=9076ac92-be42-43a2-9634-8b67c7fe93a7","D67CD316F6AD4CCCB1EC9A7C37307B54-2025-05-22-19-44-43","","null","","images/causal_sequence/the_performance_causal/the_performance_causal_7.png","null","",""
"","","","","","image-button-response","44","1324488","0.0-10.0-1.0-1.6","D67CD316F6AD4CCCB1EC9A7C37307B54","D67CD316F6AD4CCCB1EC9A7C37307B54","b77d5d07-393c-4587-b325-ee6e7e7ee025","9076ac92-be42-43a2-9634-8b67c7fe93a7","{""num_scrambled_semantic"":""8"",""num_scrambled_causal"":""4"",""num_scrambled_schematic"":""4"",""participantId"":""D67CD316F6AD4CCCB1EC9A7C37307B54"",""assignmentId"":""b77d5d07-393c-4587-b325-ee6e7e7ee025"",""projectId"":""9076ac92-be42-43a2-9634-8b67c7fe93a7""}","https://test12345.live/?num_scrambled_semantic=8&num_scrambled_causal=4&num_scrambled_schematic=4&participantId=D67CD316F6AD4CCCB1EC9A7C37307B54&assignmentId=b77d5d07-393c-4587-b325-ee6e7e7ee025&projectId=9076ac92-be42-43a2-9634-8b67c7fe93a7","D67CD316F6AD4CCCB1EC9A7C37307B54-2025-05-22-19-44-43","","1396","","images/causal_sequence/the_performance_causal/the_performance_causal_7.png","0","",""
"","","","","","image-button-response","45","1326295","0.0-10.0-1.0-2.6","D67CD316F6AD4CCCB1EC9A7C37307B54","D67CD316F6AD4CCCB1EC9A7C37307B54","b77d5d07-393c-4587-b325-ee6e7e7ee025","9076ac92-be42-43a2-9634-8b67c7fe93a7","{""num_scrambled_semantic"":""8"",""num_scrambled_causal"":""4"",""num_scrambled_schematic"":""4"",""participantId"":""D67CD316F6AD4CCCB1EC9A7C37307B54"",""assignmentId"":""b77d5d07-393c-4587-b325-ee6e7e7ee025"",""projectId"":""9076ac92-be42-43a2-9634-8b67c7fe93a7""}","https://test12345.live/?num_scrambled_semantic=8&num_scrambled_causal=4&num_scrambled_schematic=4&participantId=D67CD316F6AD4CCCB1EC9A7C37307B54&assignmentId=b77d5d07-393c-4587-b325-ee6e7e7ee025&projectId=9076ac92-be42-43a2-9634-8b67c7fe93a7","D67CD316F6AD4CCCB1EC9A7C37307B54-2025-05-22-19-44-43","","null","","[]","null","",""
"","","","","","image-button-response","46","1330807","0.0-10.0-1.0-0.7","D67CD316F6AD4CCCB1EC9A7C37307B54","D67CD316F6AD4CCCB1EC9A7C37307B54","b77d5d07-393c-4587-b325-ee6e7e7ee025","9076ac92-be42-43a2-9634-8b67c7fe93a7","{""num_scrambled_semantic"":""8"",""num_scrambled_causal"":""4"",""num_scrambled_schematic"":""4"",""participantId"":""D67CD316F6AD4CCCB1EC9A7C37307B54"",""assignmentId"":""b77d5d07-393c-4587-b325-ee6e7e7ee025"",""projectId"":""9076ac92-be42-43a2-9634-8b67c7fe93a7""}","https://test12345.live/?num_scrambled_semantic=8&num_scrambled_causal=4&num_scrambled_schematic=4&participantId=D67CD316F6AD4CCCB1EC9A7C37307B54&assignmentId=b77d5d07-393c-4587-b325-ee6e7e7ee025&projectId=9076ac92-be42-43a2-9634-8b67c7fe93a7","D67CD316F6AD4CCCB1EC9A7C37307B54-2025-05-22-19-44-43","","null","","images/causal_sequence/the_performance_causal/the_performance_causal_8.png","null","",""
"","","","","","image-button-response","47","1331760","0.0-10.0-1.0-1.7","D67CD316F6AD4CCCB1EC9A7C37307B54","D67CD316F6AD4CCCB1EC9A7C37307B54","b77d5d07-393c-4587-b325-ee6e7e7ee025","9076ac92-be42-43a2-9634-8b67c7fe93a7","{""num_scrambled_semantic"":""8"",""num_scrambled_causal"":""4"",""num_scrambled_schematic"":""4"",""participantId"":""D67CD316F6AD4CCCB1EC9A7C37307B54"",""assignmentId"":""b77d5d07-393c-4587-b325-ee6e7e7ee025"",""projectId"":""9076ac92-be42-43a2-9634-8b67c7fe93a7""}","https://test12345.live/?num_scrambled_semantic=8&num_scrambled_causal=4&num_scrambled_schematic=4&participantId=D67CD316F6AD4CCCB1EC9A7C37307B54&assignmentId=b77d5d07-393c-4587-b325-ee6e7e7ee025&projectId=9076ac92-be42-43a2-9634-8b67c7fe93a7","D67CD316F6AD4CCCB1EC9A7C37307B54-2025-05-22-19-44-43","","952","","images/causal_sequence/the_performance_causal/the_performance_causal_8.png","0","",""
"","","","","","image-button-response","48","1333565","0.0-10.0-1.0-2.7","D67CD316F6AD4CCCB1EC9A7C37307B54","D67CD316F6AD4CCCB1EC9A7C37307B54","b77d5d07-393c-4587-b325-ee6e7e7ee025","9076ac92-be42-43a2-9634-8b67c7fe93a7","{""num_scrambled_semantic"":""8"",""num_scrambled_causal"":""4"",""num_scrambled_schematic"":""4"",""participantId"":""D67CD316F6AD4CCCB1EC9A7C37307B54"",""assignmentId"":""b77d5d07-393c-4587-b325-ee6e7e7ee025"",""projectId"":""9076ac92-be42-43a2-9634-8b67c7fe93a7""}","https://test12345.live/?num_scrambled_semantic=8&num_scrambled_causal=4&num_scrambled_schematic=4&participantId=D67CD316F6AD4CCCB1EC9A7C37307B54&assignmentId=b77d5d07-393c-4587-b325-ee6e7e7ee025&projectId=9076ac92-be42-43a2-9634-8b67c7fe93a7","D67CD316F6AD4CCCB1EC9A7C37307B54-2025-05-22-19-44-43","","null","","[]","null","",""
"","","","","","image-button-response","49","1338079","0.0-10.0-1.0-0.8","D67CD316F6AD4CCCB1EC9A7C37307B54","D67CD316F6AD4CCCB1EC9A7C37307B54","b77d5d07-393c-4587-b325-ee6e7e7ee025","9076ac92-be42-43a2-9634-8b67c7fe93a7","{""num_scrambled_semantic"":""8"",""num_scrambled_causal"":""4"",""num_scrambled_schematic"":""4"",""participantId"":""D67CD316F6AD4CCCB1EC9A7C37307B54"",""assignmentId"":""b77d5d07-393c-4587-b325-ee6e7e7ee025"",""projectId"":""9076ac92-be42-43a2-9634-8b67c7fe93a7""}","https://test12345.live/?num_scrambled_semantic=8&num_scrambled_causal=4&num_scrambled_schematic=4&participantId=D67CD316F6AD4CCCB1EC9A7C37307B54&assignmentId=b77d5d07-393c-4587-b325-ee6e7e7ee025&projectId=9076ac92-be42-43a2-9634-8b67c7fe93a7","D67CD316F6AD4CCCB1EC9A7C37307B54-2025-05-22-19-44-43","","null","","images/causal_sequence/the_performance_causal/the_performance_causal_9.png","null","",""
"","","","","","image-button-response","50","1338624","0.0-10.0-1.0-1.8","D67CD316F6AD4CCCB1EC9A7C37307B54","D67CD316F6AD4CCCB1EC9A7C37307B54","b77d5d07-393c-4587-b325-ee6e7e7ee025","9076ac92-be42-43a2-9634-8b67c7fe93a7","{""num_scrambled_semantic"":""8"",""num_scrambled_causal"":""4"",""num_scrambled_schematic"":""4"",""participantId"":""D67CD316F6AD4CCCB1EC9A7C37307B54"",""assignmentId"":""b77d5d07-393c-4587-b325-ee6e7e7ee025"",""projectId"":""9076ac92-be42-43a2-9634-8b67c7fe93a7""}","https://test12345.live/?num_scrambled_semantic=8&num_scrambled_causal=4&num_scrambled_schematic=4&participantId=D67CD316F6AD4CCCB1EC9A7C37307B54&assignmentId=b77d5d07-393c-4587-b325-ee6e7e7ee025&projectId=9076ac92-be42-43a2-9634-8b67c7fe93a7","D67CD316F6AD4CCCB1EC9A7C37307B54-2025-05-22-19-44-43","","544","","images/causal_sequence/the_performance_causal/the_performance_causal_9.png","0","",""
"","","","","","image-button-response","51","1340434","0.0-10.0-1.0-2.8","D67CD316F6AD4CCCB1EC9A7C37307B54","D67CD316F6AD4CCCB1EC9A7C37307B54","b77d5d07-393c-4587-b325-ee6e7e7ee025","9076ac92-be42-43a2-9634-8b67c7fe93a7","{""num_scrambled_semantic"":""8"",""num_scrambled_causal"":""4"",""num_scrambled_schematic"":""4"",""participantId"":""D67CD316F6AD4CCCB1EC9A7C37307B54"",""assignmentId"":""b77d5d07-393c-4587-b325-ee6e7e7ee025"",""projectId"":""9076ac92-be42-43a2-9634-8b67c7fe93a7""}","https://test12345.live/?num_scrambled_semantic=8&num_scrambled_causal=4&num_scrambled_schematic=4&participantId=D67CD316F6AD4CCCB1EC9A7C37307B54&assignmentId=b77d5d07-393c-4587-b325-ee6e7e7ee025&projectId=9076ac92-be42-43a2-9634-8b67c7fe93a7","D67CD316F6AD4CCCB1EC9A7C37307B54-2025-05-22-19-44-43","","null","","[]","null","",""
"","","","","","image-button-response","52","1344947","0.0-10.0-1.0-0.9","D67CD316F6AD4CCCB1EC9A7C37307B54","D67CD316F6AD4CCCB1EC9A7C37307B54","b77d5d07-393c-4587-b325-ee6e7e7ee025","9076ac92-be42-43a2-9634-8b67c7fe93a7","{""num_scrambled_semantic"":""8"",""num_scrambled_causal"":""4"",""num_scrambled_schematic"":""4"",""participantId"":""D67CD316F6AD4CCCB1EC9A7C37307B54"",""assignmentId"":""b77d5d07-393c-4587-b325-ee6e7e7ee025"",""projectId"":""9076ac92-be42-43a2-9634-8b67c7fe93a7""}","https://test12345.live/?num_scrambled_semantic=8&num_scrambled_causal=4&num_scrambled_schematic=4&participantId=D67CD316F6AD4CCCB1EC9A7C37307B54&assignmentId=b77d5d07-393c-4587-b325-ee6e7e7ee025&projectId=9076ac92-be42-43a2-9634-8b67c7fe93a7","D67CD316F6AD4CCCB1EC9A7C37307B54-2025-05-22-19-44-43","","null","","images/causal_sequence/the_performance_causal/the_performance_causal_ten.png","null","",""
"","","","","","image-button-response","53","1348961","0.0-10.0-1.0-1.9","D67CD316F6AD4CCCB1EC9A7C37307B54","D67CD316F6AD4CCCB1EC9A7C37307B54","b77d5d07-393c-4587-b325-ee6e7e7ee025","9076ac92-be42-43a2-9634-8b67c7fe93a7","{""num_scrambled_semantic"":""8"",""num_scrambled_causal"":""4"",""num_scrambled_schematic"":""4"",""participantId"":""D67CD316F6AD4CCCB1EC9A7C37307B54"",""assignmentId"":""b77d5d07-393c-4587-b325-ee6e7e7ee025"",""projectId"":""9076ac92-be42-43a2-9634-8b67c7fe93a7""}","https://test12345.live/?num_scrambled_semantic=8&num_scrambled_causal=4&num_scrambled_schematic=4&participantId=D67CD316F6AD4CCCB1EC9A7C37307B54&assignmentId=b77d5d07-393c-4587-b325-ee6e7e7ee025&projectId=9076ac92-be42-43a2-9634-8b67c7fe93a7","D67CD316F6AD4CCCB1EC9A7C37307B54-2025-05-22-19-44-43","","null","","images/causal_sequence/the_performance_causal/the_performance_causal_ten.png","null","",""
"","","","","","image-button-response","54","1350774","0.0-10.0-1.0-2.9","D67CD316F6AD4CCCB1EC9A7C37307B54","D67CD316F6AD4CCCB1EC9A7C37307B54","b77d5d07-393c-4587-b325-ee6e7e7ee025","9076ac92-be42-43a2-9634-8b67c7fe93a7","{""num_scrambled_semantic"":""8"",""num_scrambled_causal"":""4"",""num_scrambled_schematic"":""4"",""participantId"":""D67CD316F6AD4CCCB1EC9A7C37307B54"",""assignmentId"":""b77d5d07-393c-4587-b325-ee6e7e7ee025"",""projectId"":""9076ac92-be42-43a2-9634-8b67c7fe93a7""}","https://test12345.live/?num_scrambled_semantic=8&num_scrambled_causal=4&num_scrambled_schematic=4&participantId=D67CD316F6AD4CCCB1EC9A7C37307B54&assignmentId=b77d5d07-393c-4587-b325-ee6e7e7ee025&projectId=9076ac92-be42-43a2-9634-8b67c7fe93a7","D67CD316F6AD4CCCB1EC9A7C37307B54-2025-05-22-19-44-43","","null","","[]","null","",""
"","","","","","html-audio-response","55","1405376","0.0-11.0","D67CD316F6AD4CCCB1EC9A7C37307B54","D67CD316F6AD4CCCB1EC9A7C37307B54","b77d5d07-393c-4587-b325-ee6e7e7ee025","9076ac92-be42-43a2-9634-8b67c7fe93a7","{""num_scrambled_semantic"":""8"",""num_scrambled_causal"":""4"",""num_scrambled_schematic"":""4"",""participantId"":""D67CD316F6AD4CCCB1EC9A7C37307B54"",""assignmentId"":""b77d5d07-393c-4587-b325-ee6e7e7ee025"",""projectId"":""9076ac92-be42-43a2-9634-8b67c7fe93a7""}","https://test12345.live/?num_scrambled_semantic=8&num_scrambled_causal=4&num_scrambled_schematic=4&participantId=D67CD316F6AD4CCCB1EC9A7C37307B54&assignmentId=b77d5d07-393c-4587-b325-ee6e7e7ee025&projectId=9076ac92-be42-43a2-9634-8b67c7fe93a7","D67CD316F6AD4CCCB1EC9A7C37307B54-2025-05-22-19-44-43","","52937","","[""<span style=\""color: red; font-size: 24px\""> NOW RECORDING</span><p>Please say out loud all the images you saw, in the exact order you saw them. Try to recall as many images as you can, but remember: getting the order right is more important than the number of images you recall.</p>""]","","1","the_performance_causal"
"","","","","","image-button-response","56","1411391","0.0-12.0-0.0","D67CD316F6AD4CCCB1EC9A7C37307B54","D67CD316F6AD4CCCB1EC9A7C37307B54","b77d5d07-393c-4587-b325-ee6e7e7ee025","9076ac92-be42-43a2-9634-8b67c7fe93a7","{""num_scrambled_semantic"":""8"",""num_scrambled_causal"":""4"",""num_scrambled_schematic"":""4"",""participantId"":""D67CD316F6AD4CCCB1EC9A7C37307B54"",""assignmentId"":""b77d5d07-393c-4587-b325-ee6e7e7ee025"",""projectId"":""9076ac92-be42-43a2-9634-8b67c7fe93a7""}","https://test12345.live/?num_scrambled_semantic=8&num_scrambled_causal=4&num_scrambled_schematic=4&participantId=D67CD316F6AD4CCCB1EC9A7C37307B54&assignmentId=b77d5d07-393c-4587-b325-ee6e7e7ee025&projectId=9076ac92-be42-43a2-9634-8b67c7fe93a7","D67CD316F6AD4CCCB1EC9A7C37307B54-2025-05-22-19-44-43","","null","","images/semantic_sequence/physical_activity_semantic/physical_activity_semantic_0.png","null","",""
"","","","","","image-button-response","57","1415892","0.0-12.0-1.0-0.0","D67CD316F6AD4CCCB1EC9A7C37307B54","D67CD316F6AD4CCCB1EC9A7C37307B54","b77d5d07-393c-4587-b325-ee6e7e7ee025","9076ac92-be42-43a2-9634-8b67c7fe93a7","{""num_scrambled_semantic"":""8"",""num_scrambled_causal"":""4"",""num_scrambled_schematic"":""4"",""participantId"":""D67CD316F6AD4CCCB1EC9A7C37307B54"",""assignmentId"":""b77d5d07-393c-4587-b325-ee6e7e7ee025"",""projectId"":""9076ac92-be42-43a2-9634-8b67c7fe93a7""}","https://test12345.live/?num_scrambled_semantic=8&num_scrambled_causal=4&num_scrambled_schematic=4&participantId=D67CD316F6AD4CCCB1EC9A7C37307B54&assignmentId=b77d5d07-393c-4587-b325-ee6e7e7ee025&projectId=9076ac92-be42-43a2-9634-8b67c7fe93a7","D67CD316F6AD4CCCB1EC9A7C37307B54-2025-05-22-19-44-43","","null","","images/semantic_sequence/physical_activity_semantic/physical_activity_semantic_6.png","null","",""
"","","","","","image-button-response","58","1419895","0.0-12.0-1.0-1.0","D67CD316F6AD4CCCB1EC9A7C37307B54","D67CD316F6AD4CCCB1EC9A7C37307B54","b77d5d07-393c-4587-b325-ee6e7e7ee025","9076ac92-be42-43a2-9634-8b67c7fe93a7","{""num_scrambled_semantic"":""8"",""num_scrambled_causal"":""4"",""num_scrambled_schematic"":""4"",""participantId"":""D67CD316F6AD4CCCB1EC9A7C37307B54"",""assignmentId"":""b77d5d07-393c-4587-b325-ee6e7e7ee025"",""projectId"":""9076ac92-be42-43a2-9634-8b67c7fe93a7""}","https://test12345.live/?num_scrambled_semantic=8&num_scrambled_causal=4&num_scrambled_schematic=4&participantId=D67CD316F6AD4CCCB1EC9A7C37307B54&assignmentId=b77d5d07-393c-4587-b325-ee6e7e7ee025&projectId=9076ac92-be42-43a2-9634-8b67c7fe93a7","D67CD316F6AD4CCCB1EC9A7C37307B54-2025-05-22-19-44-43","","null","","images/semantic_sequence/physical_activity_semantic/physical_activity_semantic_6.png","null","",""
"","","","","","image-button-response","59","1421703","0.0-12.0-1.0-2.0","D67CD316F6AD4CCCB1EC9A7C37307B54","D67CD316F6AD4CCCB1EC9A7C37307B54","b77d5d07-393c-4587-b325-ee6e7e7ee025","9076ac92-be42-43a2-9634-8b67c7fe93a7","{""num_scrambled_semantic"":""8"",""num_scrambled_causal"":""4"",""num_scrambled_schematic"":""4"",""participantId"":""D67CD316F6AD4CCCB1EC9A7C37307B54"",""assignmentId"":""b77d5d07-393c-4587-b325-ee6e7e7ee025"",""projectId"":""9076ac92-be42-43a2-9634-8b67c7fe93a7""}","https://test12345.live/?num_scrambled_semantic=8&num_scrambled_causal=4&num_scrambled_schematic=4&participantId=D67CD316F6AD4CCCB1EC9A7C37307B54&assignmentId=b77d5d07-393c-4587-b325-ee6e7e7ee025&projectId=9076ac92-be42-43a2-9634-8b67c7fe93a7","D67CD316F6AD4CCCB1EC9A7C37307B54-2025-05-22-19-44-43","","null","","[]","null","",""
"","","","","","image-button-response","60","1426205","0.0-12.0-1.0-0.1","D67CD316F6AD4CCCB1EC9A7C37307B54","D67CD316F6AD4CCCB1EC9A7C37307B54","b77d5d07-393c-4587-b325-ee6e7e7ee025","9076ac92-be42-43a2-9634-8b67c7fe93a7","{""num_scrambled_semantic"":""8"",""num_scrambled_causal"":""4"",""num_scrambled_schematic"":""4"",""participantId"":""D67CD316F6AD4CCCB1EC9A7C37307B54"",""assignmentId"":""b77d5d07-393c-4587-b325-ee6e7e7ee025"",""projectId"":""9076ac92-be42-43a2-9634-8b67c7fe93a7""}","https://test12345.live/?num_scrambled_semantic=8&num_scrambled_causal=4&num_scrambled_schematic=4&participantId=D67CD316F6AD4CCCB1EC9A7C37307B54&assignmentId=b77d5d07-393c-4587-b325-ee6e7e7ee025&projectId=9076ac92-be42-43a2-9634-8b67c7fe93a7","D67CD316F6AD4CCCB1EC9A7C37307B54-2025-05-22-19-44-43","","null","","images/semantic_sequence/physical_activity_semantic/physical_activity_semantic_ten.png","null","",""
"","","","","","image-button-response","61","1427056","0.0-12.0-1.0-1.1","D67CD316F6AD4CCCB1EC9A7C37307B54","D67CD316F6AD4CCCB1EC9A7C37307B54","b77d5d07-393c-4587-b325-ee6e7e7ee025","9076ac92-be42-43a2-9634-8b67c7fe93a7","{""num_scrambled_semantic"":""8"",""num_scrambled_causal"":""4"",""num_scrambled_schematic"":""4"",""participantId"":""D67CD316F6AD4CCCB1EC9A7C37307B54"",""assignmentId"":""b77d5d07-393c-4587-b325-ee6e7e7ee025"",""projectId"":""9076ac92-be42-43a2-9634-8b67c7fe93a7""}","https://test12345.live/?num_scrambled_semantic=8&num_scrambled_causal=4&num_scrambled_schematic=4&participantId=D67CD316F6AD4CCCB1EC9A7C37307B54&assignmentId=b77d5d07-393c-4587-b325-ee6e7e7ee025&projectId=9076ac92-be42-43a2-9634-8b67c7fe93a7","D67CD316F6AD4CCCB1EC9A7C37307B54-2025-05-22-19-44-43","","850","","images/semantic_sequence/physical_activity_semantic/physical_activity_semantic_ten.png","0","",""
"","","","","","image-button-response","62","1428860","0.0-12.0-1.0-2.1","D67CD316F6AD4CCCB1EC9A7C37307B54","D67CD316F6AD4CCCB1EC9A7C37307B54","b77d5d07-393c-4587-b325-ee6e7e7ee025","9076ac92-be42-43a2-9634-8b67c7fe93a7","{""num_scrambled_semantic"":""8"",""num_scrambled_causal"":""4"",""num_scrambled_schematic"":""4"",""participantId"":""D67CD316F6AD4CCCB1EC9A7C37307B54"",""assignmentId"":""b77d5d07-393c-4587-b325-ee6e7e7ee025"",""projectId"":""9076ac92-be42-43a2-9634-8b67c7fe93a7""}","https://test12345.live/?num_scrambled_semantic=8&num_scrambled_causal=4&num_scrambled_schematic=4&participantId=D67CD316F6AD4CCCB1EC9A7C37307B54&assignmentId=b77d5d07-393c-4587-b325-ee6e7e7ee025&projectId=9076ac92-be42-43a2-9634-8b67c7fe93a7","D67CD316F6AD4CCCB1EC9A7C37307B54-2025-05-22-19-44-43","","null","","[]","null","",""
"","","","","","image-button-response","63","1433370","0.0-12.0-1.0-0.2","D67CD316F6AD4CCCB1EC9A7C37307B54","D67CD316F6AD4CCCB1EC9A7C37307B54","b77d5d07-393c-4587-b325-ee6e7e7ee025","9076ac92-be42-43a2-9634-8b67c7fe93a7","{""num_scrambled_semantic"":""8"",""num_scrambled_causal"":""4"",""num_scrambled_schematic"":""4"",""participantId"":""D67CD316F6AD4CCCB1EC9A7C37307B54"",""assignmentId"":""b77d5d07-393c-4587-b325-ee6e7e7ee025"",""projectId"":""9076ac92-be42-43a2-9634-8b67c7fe93a7""}","https://test12345.live/?num_scrambled_semantic=8&num_scrambled_causal=4&num_scrambled_schematic=4&participantId=D67CD316F6AD4CCCB1EC9A7C37307B54&assignmentId=b77d5d07-393c-4587-b325-ee6e7e7ee025&projectId=9076ac92-be42-43a2-9634-8b67c7fe93a7","D67CD316F6AD4CCCB1EC9A7C37307B54-2025-05-22-19-44-43","","null","","images/semantic_sequence/physical_activity_semantic/physical_activity_semantic_7.png","null","",""
"","","","","","image-button-response","64","1436264","0.0-12.0-1.0-1.2","D67CD316F6AD4CCCB1EC9A7C37307B54","D67CD316F6AD4CCCB1EC9A7C37307B54","b77d5d07-393c-4587-b325-ee6e7e7ee025","9076ac92-be42-43a2-9634-8b67c7fe93a7","{""num_scrambled_semantic"":""8"",""num_scrambled_causal"":""4"",""num_scrambled_schematic"":""4"",""participantId"":""D67CD316F6AD4CCCB1EC9A7C37307B54"",""assignmentId"":""b77d5d07-393c-4587-b325-ee6e7e7ee025"",""projectId"":""9076ac92-be42-43a2-9634-8b67c7fe93a7""}","https://test12345.live/?num_scrambled_semantic=8&num_scrambled_causal=4&num_scrambled_schematic=4&participantId=D67CD316F6AD4CCCB1EC9A7C37307B54&assignmentId=b77d5d07-393c-4587-b325-ee6e7e7ee025&projectId=9076ac92-be42-43a2-9634-8b67c7fe93a7","D67CD316F6AD4CCCB1EC9A7C37307B54-2025-05-22-19-44-43","","2894","","images/semantic_sequence/physical_activity_semantic/physical_activity_semantic_7.png","0","",""
"","","","","","image-button-response","65","1438074","0.0-12.0-1.0-2.2","D67CD316F6AD4CCCB1EC9A7C37307B54","D67CD316F6AD4CCCB1EC9A7C37307B54","b77d5d07-393c-4587-b325-ee6e7e7ee025","9076ac92-be42-43a2-9634-8b67c7fe93a7","{""num_scrambled_semantic"":""8"",""num_scrambled_causal"":""4"",""num_scrambled_schematic"":""4"",""participantId"":""D67CD316F6AD4CCCB1EC9A7C37307B54"",""assignmentId"":""b77d5d07-393c-4587-b325-ee6e7e7ee025"",""projectId"":""9076ac92-be42-43a2-9634-8b67c7fe93a7""}","https://test12345.live/?num_scrambled_semantic=8&num_scrambled_causal=4&num_scrambled_schematic=4&participantId=D67CD316F6AD4CCCB1EC9A7C37307B54&assignmentId=b77d5d07-393c-4587-b325-ee6e7e7ee025&projectId=9076ac92-be42-43a2-9634-8b67c7fe93a7","D67CD316F6AD4CCCB1EC9A7C37307B54-2025-05-22-19-44-43","","null","","[]","null","",""
"","","","","","image-button-response","66","1442579","0.0-12.0-1.0-0.3","D67CD316F6AD4CCCB1EC9A7C37307B54","D67CD316F6AD4CCCB1EC9A7C37307B54","b77d5d07-393c-4587-b325-ee6e7e7ee025","9076ac92-be42-43a2-9634-8b67c7fe93a7","{""num_scrambled_semantic"":""8"",""num_scrambled_causal"":""4"",""num_scrambled_schematic"":""4"",""participantId"":""D67CD316F6AD4CCCB1EC9A7C37307B54"",""assignmentId"":""b77d5d07-393c-4587-b325-ee6e7e7ee025"",""projectId"":""9076ac92-be42-43a2-9634-8b67c7fe93a7""}","https://test12345.live/?num_scrambled_semantic=8&num_scrambled_causal=4&num_scrambled_schematic=4&participantId=D67CD316F6AD4CCCB1EC9A7C37307B54&assignmentId=b77d5d07-393c-4587-b325-ee6e7e7ee025&projectId=9076ac92-be42-43a2-9634-8b67c7fe93a7","D67CD316F6AD4CCCB1EC9A7C37307B54-2025-05-22-19-44-43","","null","","images/semantic_sequence/physical_activity_semantic/physical_activity_semantic_3.png","null","",""
"","","","","","image-button-response","67","1444648","0.0-12.0-1.0-1.3","D67CD316F6AD4CCCB1EC9A7C37307B54","D67CD316F6AD4CCCB1EC9A7C37307B54","b77d5d07-393c-4587-b325-ee6e7e7ee025","9076ac92-be42-43a2-9634-8b67c7fe93a7","{""num_scrambled_semantic"":""8"",""num_scrambled_causal"":""4"",""num_scrambled_schematic"":""4"",""participantId"":""D67CD316F6AD4CCCB1EC9A7C37307B54"",""assignmentId"":""b77d5d07-393c-4587-b325-ee6e7e7ee025"",""projectId"":""9076ac92-be42-43a2-9634-8b67c7fe93a7""}","https://test12345.live/?num_scrambled_semantic=8&num_scrambled_causal=4&num_scrambled_schematic=4&participantId=D67CD316F6AD4CCCB1EC9A7C37307B54&assignmentId=b77d5d07-393c-4587-b325-ee6e7e7ee025&projectId=9076ac92-be42-43a2-9634-8b67c7fe93a7","D67CD316F6AD4CCCB1EC9A7C37307B54-2025-05-22-19-44-43","","2068","","images/semantic_sequence/physical_activity_semantic/physical_activity_semantic_3.png","0","",""
"","","","","","image-button-response","68","1446460","0.0-12.0-1.0-2.3","D67CD316F6AD4CCCB1EC9A7C37307B54","D67CD316F6AD4CCCB1EC9A7C37307B54","b77d5d07-393c-4587-b325-ee6e7e7ee025","9076ac92-be42-43a2-9634-8b67c7fe93a7","{""num_scrambled_semantic"":""8"",""num_scrambled_causal"":""4"",""num_scrambled_schematic"":""4"",""participantId"":""D67CD316F6AD4CCCB1EC9A7C37307B54"",""assignmentId"":""b77d5d07-393c-4587-b325-ee6e7e7ee025"",""projectId"":""9076ac92-be42-43a2-9634-8b67c7fe93a7""}","https://test12345.live/?num_scrambled_semantic=8&num_scrambled_causal=4&num_scrambled_schematic=4&participantId=D67CD316F6AD4CCCB1EC9A7C37307B54&assignmentId=b77d5d07-393c-4587-b325-ee6e7e7ee025&projectId=9076ac92-be42-43a2-9634-8b67c7fe93a7","D67CD316F6AD4CCCB1EC9A7C37307B54-2025-05-22-19-44-43","","null","","[]","null","",""
"","","","","","image-button-response","69","1450967","0.0-12.0-1.0-0.4","D67CD316F6AD4CCCB1EC9A7C37307B54","D67CD316F6AD4CCCB1EC9A7C37307B54","b77d5d07-393c-4587-b325-ee6e7e7ee025","9076ac92-be42-43a2-9634-8b67c7fe93a7","{""num_scrambled_semantic"":""8"",""num_scrambled_causal"":""4"",""num_scrambled_schematic"":""4"",""participantId"":""D67CD316F6AD4CCCB1EC9A7C37307B54"",""assignmentId"":""b77d5d07-393c-4587-b325-ee6e7e7ee025"",""projectId"":""9076ac92-be42-43a2-9634-8b67c7fe93a7""}","https://test12345.live/?num_scrambled_semantic=8&num_scrambled_causal=4&num_scrambled_schematic=4&participantId=D67CD316F6AD4CCCB1EC9A7C37307B54&assignmentId=b77d5d07-393c-4587-b325-ee6e7e7ee025&projectId=9076ac92-be42-43a2-9634-8b67c7fe93a7","D67CD316F6AD4CCCB1EC9A7C37307B54-2025-05-22-19-44-43","","null","","images/semantic_sequence/physical_activity_semantic/physical_activity_semantic_2.png","null","",""
"","","","","","image-button-response","70","1454968","0.0-12.0-1.0-1.4","D67CD316F6AD4CCCB1EC9A7C37307B54","D67CD316F6AD4CCCB1EC9A7C37307B54","b77d5d07-393c-4587-b325-ee6e7e7ee025","9076ac92-be42-43a2-9634-8b67c7fe93a7","{""num_scrambled_semantic"":""8"",""num_scrambled_causal"":""4"",""num_scrambled_schematic"":""4"",""participantId"":""D67CD316F6AD4CCCB1EC9A7C37307B54"",""assignmentId"":""b77d5d07-393c-4587-b325-ee6e7e7ee025"",""projectId"":""9076ac92-be42-43a2-9634-8b67c7fe93a7""}","https://test12345.live/?num_scrambled_semantic=8&num_scrambled_causal=4&num_scrambled_schematic=4&participantId=D67CD316F6AD4CCCB1EC9A7C37307B54&assignmentId=b77d5d07-393c-4587-b325-ee6e7e7ee025&projectId=9076ac92-be42-43a2-9634-8b67c7fe93a7","D67CD316F6AD4CCCB1EC9A7C37307B54-2025-05-22-19-44-43","","null","","images/semantic_sequence/physical_activity_semantic/physical_activity_semantic_2.png","null","",""
"","","","","","image-button-response","71","1456779","0.0-12.0-1.0-2.4","D67CD316F6AD4CCCB1EC9A7C37307B54","D67CD316F6AD4CCCB1EC9A7C37307B54","b77d5d07-393c-4587-b325-ee6e7e7ee025","9076ac92-be42-43a2-9634-8b67c7fe93a7","{""num_scrambled_semantic"":""8"",""num_scrambled_causal"":""4"",""num_scrambled_schematic"":""4"",""participantId"":""D67CD316F6AD4CCCB1EC9A7C37307B54"",""assignmentId"":""b77d5d07-393c-4587-b325-ee6e7e7ee025"",""projectId"":""9076ac92-be42-43a2-9634-8b67c7fe93a7""}","https://test12345.live/?num_scrambled_semantic=8&num_scrambled_causal=4&num_scrambled_schematic=4&participantId=D67CD316F6AD4CCCB1EC9A7C37307B54&assignmentId=b77d5d07-393c-4587-b325-ee6e7e7ee025&projectId=9076ac92-be42-43a2-9634-8b67c7fe93a7","D67CD316F6AD4CCCB1EC9A7C37307B54-2025-05-22-19-44-43","","null","","[]","null","",""
"","","","","","image-button-response","72","1461286","0.0-12.0-1.0-0.5","D67CD316F6AD4CCCB1EC9A7C37307B54","D67CD316F6AD4CCCB1EC9A7C37307B54","b77d5d07-393c-4587-b325-ee6e7e7ee025","9076ac92-be42-43a2-9634-8b67c7fe93a7","{""num_scrambled_semantic"":""8"",""num_scrambled_causal"":""4"",""num_scrambled_schematic"":""4"",""participantId"":""D67CD316F6AD4CCCB1EC9A7C37307B54"",""assignmentId"":""b77d5d07-393c-4587-b325-ee6e7e7ee025"",""projectId"":""9076ac92-be42-43a2-9634-8b67c7fe93a7""}","https://test12345.live/?num_scrambled_semantic=8&num_scrambled_causal=4&num_scrambled_schematic=4&participantId=D67CD316F6AD4CCCB1EC9A7C37307B54&assignmentId=b77d5d07-393c-4587-b325-ee6e7e7ee025&projectId=9076ac92-be42-43a2-9634-8b67c7fe93a7","D67CD316F6AD4CCCB1EC9A7C37307B54-2025-05-22-19-44-43","","null","","images/semantic_sequence/physical_activity_semantic/physical_activity_semantic_9.png","null","",""
"","","","","","image-button-response","73","1462464","0.0-12.0-1.0-1.5","D67CD316F6AD4CCCB1EC9A7C37307B54","D67CD316F6AD4CCCB1EC9A7C37307B54","b77d5d07-393c-4587-b325-ee6e7e7ee025","9076ac92-be42-43a2-9634-8b67c7fe93a7","{""num_scrambled_semantic"":""8"",""num_scrambled_causal"":""4"",""num_scrambled_schematic"":""4"",""participantId"":""D67CD316F6AD4CCCB1EC9A7C37307B54"",""assignmentId"":""b77d5d07-393c-4587-b325-ee6e7e7ee025"",""projectId"":""9076ac92-be42-43a2-9634-8b67c7fe93a7""}","https://test12345.live/?num_scrambled_semantic=8&num_scrambled_causal=4&num_scrambled_schematic=4&participantId=D67CD316F6AD4CCCB1EC9A7C37307B54&assignmentId=b77d5d07-393c-4587-b325-ee6e7e7ee025&projectId=9076ac92-be42-43a2-9634-8b67c7fe93a7","D67CD316F6AD4CCCB1EC9A7C37307B54-2025-05-22-19-44-43","","1177","","images/semantic_sequence/physical_activity_semantic/physical_activity_semantic_9.png","0","",""
"","","","","","image-button-response","74","1464271","0.0-12.0-1.0-2.5","D67CD316F6AD4CCCB1EC9A7C37307B54","D67CD316F6AD4CCCB1EC9A7C37307B54","b77d5d07-393c-4587-b325-ee6e7e7ee025","9076ac92-be42-43a2-9634-8b67c7fe93a7","{""num_scrambled_semantic"":""8"",""num_scrambled_causal"":""4"",""num_scrambled_schematic"":""4"",""participantId"":""D67CD316F6AD4CCCB1EC9A7C37307B54"",""assignmentId"":""b77d5d07-393c-4587-b325-ee6e7e7ee025"",""projectId"":""9076ac92-be42-43a2-9634-8b67c7fe93a7""}","https://test12345.live/?num_scrambled_semantic=8&num_scrambled_causal=4&num_scrambled_schematic=4&participantId=D67CD316F6AD4CCCB1EC9A7C37307B54&assignmentId=b77d5d07-393c-4587-b325-ee6e7e7ee025&projectId=9076ac92-be42-43a2-9634-8b67c7fe93a7","D67CD316F6AD4CCCB1EC9A7C37307B54-2025-05-22-19-44-43","","null","","[]","null","",""
"","","","","","image-button-response","75","1468784","0.0-12.0-1.0-0.6","D67CD316F6AD4CCCB1EC9A7C37307B54","D67CD316F6AD4CCCB1EC9A7C37307B54","b77d5d07-393c-4587-b325-ee6e7e7ee025","9076ac92-be42-43a2-9634-8b67c7fe93a7","{""num_scrambled_semantic"":""8"",""num_scrambled_causal"":""4"",""num_scrambled_schematic"":""4"",""participantId"":""D67CD316F6AD4CCCB1EC9A7C37307B54"",""assignmentId"":""b77d5d07-393c-4587-b325-ee6e7e7ee025"",""projectId"":""9076ac92-be42-43a2-9634-8b67c7fe93a7""}","https://test12345.live/?num_scrambled_semantic=8&num_scrambled_causal=4&num_scrambled_schematic=4&participantId=D67CD316F6AD4CCCB1EC9A7C37307B54&assignmentId=b77d5d07-393c-4587-b325-ee6e7e7ee025&projectId=9076ac92-be42-43a2-9634-8b67c7fe93a7","D67CD316F6AD4CCCB1EC9A7C37307B54-2025-05-22-19-44-43","","null","","images/semantic_sequence/physical_activity_semantic/physical_activity_semantic_8.png","null","",""
"","","","","","image-button-response","76","1469752","0.0-12.0-1.0-1.6","D67CD316F6AD4CCCB1EC9A7C37307B54","D67CD316F6AD4CCCB1EC9A7C37307B54","b77d5d07-393c-4587-b325-ee6e7e7ee025","9076ac92-be42-43a2-9634-8b67c7fe93a7","{""num_scrambled_semantic"":""8"",""num_scrambled_causal"":""4"",""num_scrambled_schematic"":""4"",""participantId"":""D67CD316F6AD4CCCB1EC9A7C37307B54"",""assignmentId"":""b77d5d07-393c-4587-b325-ee6e7e7ee025"",""projectId"":""9076ac92-be42-43a2-9634-8b67c7fe93a7""}","https://test12345.live/?num_scrambled_semantic=8&num_scrambled_causal=4&num_scrambled_schematic=4&participantId=D67CD316F6AD4CCCB1EC9A7C37307B54&assignmentId=b77d5d07-393c-4587-b325-ee6e7e7ee025&projectId=9076ac92-be42-43a2-9634-8b67c7fe93a7","D67CD316F6AD4CCCB1EC9A7C37307B54-2025-05-22-19-44-43","","968","","images/semantic_sequence/physical_activity_semantic/physical_activity_semantic_8.png","0","",""
"","","","","","image-button-response","77","1471565","0.0-12.0-1.0-2.6","D67CD316F6AD4CCCB1EC9A7C37307B54","D67CD316F6AD4CCCB1EC9A7C37307B54","b77d5d07-393c-4587-b325-ee6e7e7ee025","9076ac92-be42-43a2-9634-8b67c7fe93a7","{""num_scrambled_semantic"":""8"",""num_scrambled_causal"":""4"",""num_scrambled_schematic"":""4"",""participantId"":""D67CD316F6AD4CCCB1EC9A7C37307B54"",""assignmentId"":""b77d5d07-393c-4587-b325-ee6e7e7ee025"",""projectId"":""9076ac92-be42-43a2-9634-8b67c7fe93a7""}","https://test12345.live/?num_scrambled_semantic=8&num_scrambled_causal=4&num_scrambled_schematic=4&participantId=D67CD316F6AD4CCCB1EC9A7C37307B54&assignmentId=b77d5d07-393c-4587-b325-ee6e7e7ee025&projectId=9076ac92-be42-43a2-9634-8b67c7fe93a7","D67CD316F6AD4CCCB1EC9A7C37307B54-2025-05-22-19-44-43","","null","","[]","null","",""
"","","","","","image-button-response","78","1476078","0.0-12.0-1.0-0.7","D67CD316F6AD4CCCB1EC9A7C37307B54","D67CD316F6AD4CCCB1EC9A7C37307B54","b77d5d07-393c-4587-b325-ee6e7e7ee025","9076ac92-be42-43a2-9634-8b67c7fe93a7","{""num_scrambled_semantic"":""8"",""num_scrambled_causal"":""4"",""num_scrambled_schematic"":""4"",""participantId"":""D67CD316F6AD4CCCB1EC9A7C37307B54"",""assignmentId"":""b77d5d07-393c-4587-b325-ee6e7e7ee025"",""projectId"":""9076ac92-be42-43a2-9634-8b67c7fe93a7""}","https://test12345.live/?num_scrambled_semantic=8&num_scrambled_causal=4&num_scrambled_schematic=4&participantId=D67CD316F6AD4CCCB1EC9A7C37307B54&assignmentId=b77d5d07-393c-4587-b325-ee6e7e7ee025&projectId=9076ac92-be42-43a2-9634-8b67c7fe93a7","D67CD316F6AD4CCCB1EC9A7C37307B54-2025-05-22-19-44-43","","null","","images/semantic_sequence/physical_activity_semantic/physical_activity_semantic_5.png","null","",""
"","","","","","image-button-response","79","1477216","0.0-12.0-1.0-1.7","D67CD316F6AD4CCCB1EC9A7C37307B54","D67CD316F6AD4CCCB1EC9A7C37307B54","b77d5d07-393c-4587-b325-ee6e7e7ee025","9076ac92-be42-43a2-9634-8b67c7fe93a7","{""num_scrambled_semantic"":""8"",""num_scrambled_causal"":""4"",""num_scrambled_schematic"":""4"",""participantId"":""D67CD316F6AD4CCCB1EC9A7C37307B54"",""assignmentId"":""b77d5d07-393c-4587-b325-ee6e7e7ee025"",""projectId"":""9076ac92-be42-43a2-9634-8b67c7fe93a7""}","https://test12345.live/?num_scrambled_semantic=8&num_scrambled_causal=4&num_scrambled_schematic=4&participantId=D67CD316F6AD4CCCB1EC9A7C37307B54&assignmentId=b77d5d07-393c-4587-b325-ee6e7e7ee025&projectId=9076ac92-be42-43a2-9634-8b67c7fe93a7","D67CD316F6AD4CCCB1EC9A7C37307B54-2025-05-22-19-44-43","","1138","","images/semantic_sequence/physical_activity_semantic/physical_activity_semantic_5.png","0","",""
"","","","","","image-button-response","80","1479028","0.0-12.0-1.0-2.7","D67CD316F6AD4CCCB1EC9A7C37307B54","D67CD316F6AD4CCCB1EC9A7C37307B54","b77d5d07-393c-4587-b325-ee6e7e7ee025","9076ac92-be42-43a2-9634-8b67c7fe93a7","{""num_scrambled_semantic"":""8"",""num_scrambled_causal"":""4"",""num_scrambled_schematic"":""4"",""participantId"":""D67CD316F6AD4CCCB1EC9A7C37307B54"",""assignmentId"":""b77d5d07-393c-4587-b325-ee6e7e7ee025"",""projectId"":""9076ac92-be42-43a2-9634-8b67c7fe93a7""}","https://test12345.live/?num_scrambled_semantic=8&num_scrambled_causal=4&num_scrambled_schematic=4&participantId=D67CD316F6AD4CCCB1EC9A7C37307B54&assignmentId=b77d5d07-393c-4587-b325-ee6e7e7ee025&projectId=9076ac92-be42-43a2-9634-8b67c7fe93a7","D67CD316F6AD4CCCB1EC9A7C37307B54-2025-05-22-19-44-43","","null","","[]","null","",""
"","","","","","image-button-response","81","1483541","0.0-12.0-1.0-0.8","D67CD316F6AD4CCCB1EC9A7C37307B54","D67CD316F6AD4CCCB1EC9A7C37307B54","b77d5d07-393c-4587-b325-ee6e7e7ee025","9076ac92-be42-43a2-9634-8b67c7fe93a7","{""num_scrambled_semantic"":""8"",""num_scrambled_causal"":""4"",""num_scrambled_schematic"":""4"",""participantId"":""D67CD316F6AD4CCCB1EC9A7C37307B54"",""assignmentId"":""b77d5d07-393c-4587-b325-ee6e7e7ee025"",""projectId"":""9076ac92-be42-43a2-9634-8b67c7fe93a7""}","https://test12345.live/?num_scrambled_semantic=8&num_scrambled_causal=4&num_scrambled_schematic=4&participantId=D67CD316F6AD4CCCB1EC9A7C37307B54&assignmentId=b77d5d07-393c-4587-b325-ee6e7e7ee025&projectId=9076ac92-be42-43a2-9634-8b67c7fe93a7","D67CD316F6AD4CCCB1EC9A7C37307B54-2025-05-22-19-44-43","","null","","images/semantic_sequence/physical_activity_semantic/physical_activity_semantic_1.png","null","",""
"","","","","","image-button-response","82","1484104","0.0-12.0-1.0-1.8","D67CD316F6AD4CCCB1EC9A7C37307B54","D67CD316F6AD4CCCB1EC9A7C37307B54","b77d5d07-393c-4587-b325-ee6e7e7ee025","9076ac92-be42-43a2-9634-8b67c7fe93a7","{""num_scrambled_semantic"":""8"",""num_scrambled_causal"":""4"",""num_scrambled_schematic"":""4"",""participantId"":""D67CD316F6AD4CCCB1EC9A7C37307B54"",""assignmentId"":""b77d5d07-393c-4587-b325-ee6e7e7ee025"",""projectId"":""9076ac92-be42-43a2-9634-8b67c7fe93a7""}","https://test12345.live/?num_scrambled_semantic=8&num_scrambled_causal=4&num_scrambled_schematic=4&participantId=D67CD316F6AD4CCCB1EC9A7C37307B54&assignmentId=b77d5d07-393c-4587-b325-ee6e7e7ee025&projectId=9076ac92-be42-43a2-9634-8b67c7fe93a7","D67CD316F6AD4CCCB1EC9A7C37307B54-2025-05-22-19-44-43","","563","","images/semantic_sequence/physical_activity_semantic/physical_activity_semantic_1.png","0","",""
"","","","","","image-button-response","83","1485916","0.0-12.0-1.0-2.8","D67CD316F6AD4CCCB1EC9A7C37307B54","D67CD316F6AD4CCCB1EC9A7C37307B54","b77d5d07-393c-4587-b325-ee6e7e7ee025","9076ac92-be42-43a2-9634-8b67c7fe93a7","{""num_scrambled_semantic"":""8"",""num_scrambled_causal"":""4"",""num_scrambled_schematic"":""4"",""participantId"":""D67CD316F6AD4CCCB1EC9A7C37307B54"",""assignmentId"":""b77d5d07-393c-4587-b325-ee6e7e7ee025"",""projectId"":""9076ac92-be42-43a2-9634-8b67c7fe93a7""}","https://test12345.live/?num_scrambled_semantic=8&num_scrambled_causal=4&num_scrambled_schematic=4&participantId=D67CD316F6AD4CCCB1EC9A7C37307B54&assignmentId=b77d5d07-393c-4587-b325-ee6e7e7ee025&projectId=9076ac92-be42-43a2-9634-8b67c7fe93a7","D67CD316F6AD4CCCB1EC9A7C37307B54-2025-05-22-19-44-43","","null","","[]","null","",""
"","","","","","image-button-response","84","1490421","0.0-12.0-1.0-0.9","D67CD316F6AD4CCCB1EC9A7C37307B54","D67CD316F6AD4CCCB1EC9A7C37307B54","b77d5d07-393c-4587-b325-ee6e7e7ee025","9076ac92-be42-43a2-9634-8b67c7fe93a7","{""num_scrambled_semantic"":""8"",""num_scrambled_causal"":""4"",""num_scrambled_schematic"":""4"",""participantId"":""D67CD316F6AD4CCCB1EC9A7C37307B54"",""assignmentId"":""b77d5d07-393c-4587-b325-ee6e7e7ee025"",""projectId"":""9076ac92-be42-43a2-9634-8b67c7fe93a7""}","https://test12345.live/?num_scrambled_semantic=8&num_scrambled_causal=4&num_scrambled_schematic=4&participantId=D67CD316F6AD4CCCB1EC9A7C37307B54&assignmentId=b77d5d07-393c-4587-b325-ee6e7e7ee025&projectId=9076ac92-be42-43a2-9634-8b67c7fe93a7","D67CD316F6AD4CCCB1EC9A7C37307B54-2025-05-22-19-44-43","","null","","images/semantic_sequence/physical_activity_semantic/physical_activity_semantic_4.png","null","",""
"","","","","","image-button-response","85","1491640","0.0-12.0-1.0-1.9","D67CD316F6AD4CCCB1EC9A7C37307B54","D67CD316F6AD4CCCB1EC9A7C37307B54","b77d5d07-393c-4587-b325-ee6e7e7ee025","9076ac92-be42-43a2-9634-8b67c7fe93a7","{""num_scrambled_semantic"":""8"",""num_scrambled_causal"":""4"",""num_scrambled_schematic"":""4"",""participantId"":""D67CD316F6AD4CCCB1EC9A7C37307B54"",""assignmentId"":""b77d5d07-393c-4587-b325-ee6e7e7ee025"",""projectId"":""9076ac92-be42-43a2-9634-8b67c7fe93a7""}","https://test12345.live/?num_scrambled_semantic=8&num_scrambled_causal=4&num_scrambled_schematic=4&participantId=D67CD316F6AD4CCCB1EC9A7C37307B54&assignmentId=b77d5d07-393c-4587-b325-ee6e7e7ee025&projectId=9076ac92-be42-43a2-9634-8b67c7fe93a7","D67CD316F6AD4CCCB1EC9A7C37307B54-2025-05-22-19-44-43","","1219","","images/semantic_sequence/physical_activity_semantic/physical_activity_semantic_4.png","0","",""
"","","","","","image-button-response","86","1493441","0.0-12.0-1.0-2.9","D67CD316F6AD4CCCB1EC9A7C37307B54","D67CD316F6AD4CCCB1EC9A7C37307B54","b77d5d07-393c-4587-b325-ee6e7e7ee025","9076ac92-be42-43a2-9634-8b67c7fe93a7","{""num_scrambled_semantic"":""8"",""num_scrambled_causal"":""4"",""num_scrambled_schematic"":""4"",""participantId"":""D67CD316F6AD4CCCB1EC9A7C37307B54"",""assignmentId"":""b77d5d07-393c-4587-b325-ee6e7e7ee025"",""projectId"":""9076ac92-be42-43a2-9634-8b67c7fe93a7""}","https://test12345.live/?num_scrambled_semantic=8&num_scrambled_causal=4&num_scrambled_schematic=4&participantId=D67CD316F6AD4CCCB1EC9A7C37307B54&assignmentId=b77d5d07-393c-4587-b325-ee6e7e7ee025&projectId=9076ac92-be42-43a2-9634-8b67c7fe93a7","D67CD316F6AD4CCCB1EC9A7C37307B54-2025-05-22-19-44-43","","null","","[]","null","",""
"","","","","","html-audio-response","87","1541208","0.0-13.0","D67CD316F6AD4CCCB1EC9A7C37307B54","D67CD316F6AD4CCCB1EC9A7C37307B54","b77d5d07-393c-4587-b325-ee6e7e7ee025","9076ac92-be42-43a2-9634-8b67c7fe93a7","{""num_scrambled_semantic"":""8"",""num_scrambled_causal"":""4"",""num_scrambled_schematic"":""4"",""participantId"":""D67CD316F6AD4CCCB1EC9A7C37307B54"",""assignmentId"":""b77d5d07-393c-4587-b325-ee6e7e7ee025"",""projectId"":""9076ac92-be42-43a2-9634-8b67c7fe93a7""}","https://test12345.live/?num_scrambled_semantic=8&num_scrambled_causal=4&num_scrambled_schematic=4&participantId=D67CD316F6AD4CCCB1EC9A7C37307B54&assignmentId=b77d5d07-393c-4587-b325-ee6e7e7ee025&projectId=9076ac92-be42-43a2-9634-8b67c7fe93a7","D67CD316F6AD4CCCB1EC9A7C37307B54-2025-05-22-19-44-43","","35499","","[""<span style=\""color: red; font-size: 24px\""> NOW RECORDING</span><p>Please say out loud all the images you saw, in the exact order you saw them. Try to recall as many images as you can, but remember: getting the order right is more important than the number of images you recall.</p>""]","","1","physical_activity_semantic"
"","","","","","image-button-response","88","1547224","0.0-14.0-0.0","D67CD316F6AD4CCCB1EC9A7C37307B54","D67CD316F6AD4CCCB1EC9A7C37307B54","b77d5d07-393c-4587-b325-ee6e7e7ee025","9076ac92-be42-43a2-9634-8b67c7fe93a7","{""num_scrambled_semantic"":""8"",""num_scrambled_causal"":""4"",""num_scrambled_schematic"":""4"",""participantId"":""D67CD316F6AD4CCCB1EC9A7C37307B54"",""assignmentId"":""b77d5d07-393c-4587-b325-ee6e7e7ee025"",""projectId"":""9076ac92-be42-43a2-9634-8b67c7fe93a7""}","https://test12345.live/?num_scrambled_semantic=8&num_scrambled_causal=4&num_scrambled_schematic=4&participantId=D67CD316F6AD4CCCB1EC9A7C37307B54&assignmentId=b77d5d07-393c-4587-b325-ee6e7e7ee025&projectId=9076ac92-be42-43a2-9634-8b67c7fe93a7","D67CD316F6AD4CCCB1EC9A7C37307B54-2025-05-22-19-44-43","","null","","images/causal_sequence/saving_a_cat_causal/saving_a_cat_causal_0.png","null","",""
"","","","","","image-button-response","89","1551726","0.0-14.0-1.0-0.0","D67CD316F6AD4CCCB1EC9A7C37307B54","D67CD316F6AD4CCCB1EC9A7C37307B54","b77d5d07-393c-4587-b325-ee6e7e7ee025","9076ac92-be42-43a2-9634-8b67c7fe93a7","{""num_scrambled_semantic"":""8"",""num_scrambled_causal"":""4"",""num_scrambled_schematic"":""4"",""participantId"":""D67CD316F6AD4CCCB1EC9A7C37307B54"",""assignmentId"":""b77d5d07-393c-4587-b325-ee6e7e7ee025"",""projectId"":""9076ac92-be42-43a2-9634-8b67c7fe93a7""}","https://test12345.live/?num_scrambled_semantic=8&num_scrambled_causal=4&num_scrambled_schematic=4&participantId=D67CD316F6AD4CCCB1EC9A7C37307B54&assignmentId=b77d5d07-393c-4587-b325-ee6e7e7ee025&projectId=9076ac92-be42-43a2-9634-8b67c7fe93a7","D67CD316F6AD4CCCB1EC9A7C37307B54-2025-05-22-19-44-43","","null","","images/causal_sequence/saving_a_cat_causal/saving_a_cat_causal_1.png","null","",""
"","","","","","image-button-response","90","1553408","0.0-14.0-1.0-1.0","D67CD316F6AD4CCCB1EC9A7C37307B54","D67CD316F6AD4CCCB1EC9A7C37307B54","b77d5d07-393c-4587-b325-ee6e7e7ee025","9076ac92-be42-43a2-9634-8b67c7fe93a7","{""num_scrambled_semantic"":""8"",""num_scrambled_causal"":""4"",""num_scrambled_schematic"":""4"",""participantId"":""D67CD316F6AD4CCCB1EC9A7C37307B54"",""assignmentId"":""b77d5d07-393c-4587-b325-ee6e7e7ee025"",""projectId"":""9076ac92-be42-43a2-9634-8b67c7fe93a7""}","https://test12345.live/?num_scrambled_semantic=8&num_scrambled_causal=4&num_scrambled_schematic=4&participantId=D67CD316F6AD4CCCB1EC9A7C37307B54&assignmentId=b77d5d07-393c-4587-b325-ee6e7e7ee025&projectId=9076ac92-be42-43a2-9634-8b67c7fe93a7","D67CD316F6AD4CCCB1EC9A7C37307B54-2025-05-22-19-44-43","","1681","","images/causal_sequence/saving_a_cat_causal/saving_a_cat_causal_1.png","0","",""
"","","","","","image-button-response","91","1555218","0.0-14.0-1.0-2.0","D67CD316F6AD4CCCB1EC9A7C37307B54","D67CD316F6AD4CCCB1EC9A7C37307B54","b77d5d07-393c-4587-b325-ee6e7e7ee025","9076ac92-be42-43a2-9634-8b67c7fe93a7","{""num_scrambled_semantic"":""8"",""num_scrambled_causal"":""4"",""num_scrambled_schematic"":""4"",""participantId"":""D67CD316F6AD4CCCB1EC9A7C37307B54"",""assignmentId"":""b77d5d07-393c-4587-b325-ee6e7e7ee025"",""projectId"":""9076ac92-be42-43a2-9634-8b67c7fe93a7""}","https://test12345.live/?num_scrambled_semantic=8&num_scrambled_causal=4&num_scrambled_schematic=4&participantId=D67CD316F6AD4CCCB1EC9A7C37307B54&assignmentId=b77d5d07-393c-4587-b325-ee6e7e7ee025&projectId=9076ac92-be42-43a2-9634-8b67c7fe93a7","D67CD316F6AD4CCCB1EC9A7C37307B54-2025-05-22-19-44-43","","null","","[]","null","",""
"","","","","","image-button-response","92","1559729","0.0-14.0-1.0-0.1","D67CD316F6AD4CCCB1EC9A7C37307B54","D67CD316F6AD4CCCB1EC9A7C37307B54","b77d5d07-393c-4587-b325-ee6e7e7ee025","9076ac92-be42-43a2-9634-8b67c7fe93a7","{""num_scrambled_semantic"":""8"",""num_scrambled_causal"":""4"",""num_scrambled_schematic"":""4"",""participantId"":""D67CD316F6AD4CCCB1EC9A7C37307B54"",""assignmentId"":""b77d5d07-393c-4587-b325-ee6e7e7ee025"",""projectId"":""9076ac92-be42-43a2-9634-8b67c7fe93a7""}","https://test12345.live/?num_scrambled_semantic=8&num_scrambled_causal=4&num_scrambled_schematic=4&participantId=D67CD316F6AD4CCCB1EC9A7C37307B54&assignmentId=b77d5d07-393c-4587-b325-ee6e7e7ee025&projectId=9076ac92-be42-43a2-9634-8b67c7fe93a7","D67CD316F6AD4CCCB1EC9A7C37307B54-2025-05-22-19-44-43","","null","","images/causal_sequence/saving_a_cat_causal/saving_a_cat_causal_2.png","null","",""
"","","","","","image-button-response","93","1560360","0.0-14.0-1.0-1.1","D67CD316F6AD4CCCB1EC9A7C37307B54","D67CD316F6AD4CCCB1EC9A7C37307B54","b77d5d07-393c-4587-b325-ee6e7e7ee025","9076ac92-be42-43a2-9634-8b67c7fe93a7","{""num_scrambled_semantic"":""8"",""num_scrambled_causal"":""4"",""num_scrambled_schematic"":""4"",""participantId"":""D67CD316F6AD4CCCB1EC9A7C37307B54"",""assignmentId"":""b77d5d07-393c-4587-b325-ee6e7e7ee025"",""projectId"":""9076ac92-be42-43a2-9634-8b67c7fe93a7""}","https://test12345.live/?num_scrambled_semantic=8&num_scrambled_causal=4&num_scrambled_schematic=4&participantId=D67CD316F6AD4CCCB1EC9A7C37307B54&assignmentId=b77d5d07-393c-4587-b325-ee6e7e7ee025&projectId=9076ac92-be42-43a2-9634-8b67c7fe93a7","D67CD316F6AD4CCCB1EC9A7C37307B54-2025-05-22-19-44-43","","631","","images/causal_sequence/saving_a_cat_causal/saving_a_cat_causal_2.png","0","",""
"","","","","","image-button-response","94","1562166","0.0-14.0-1.0-2.1","D67CD316F6AD4CCCB1EC9A7C37307B54","D67CD316F6AD4CCCB1EC9A7C37307B54","b77d5d07-393c-4587-b325-ee6e7e7ee025","9076ac92-be42-43a2-9634-8b67c7fe93a7","{""num_scrambled_semantic"":""8"",""num_scrambled_causal"":""4"",""num_scrambled_schematic"":""4"",""participantId"":""D67CD316F6AD4CCCB1EC9A7C37307B54"",""assignmentId"":""b77d5d07-393c-4587-b325-ee6e7e7ee025"",""projectId"":""9076ac92-be42-43a2-9634-8b67c7fe93a7""}","https://test12345.live/?num_scrambled_semantic=8&num_scrambled_causal=4&num_scrambled_schematic=4&participantId=D67CD316F6AD4CCCB1EC9A7C37307B54&assignmentId=b77d5d07-393c-4587-b325-ee6e7e7ee025&projectId=9076ac92-be42-43a2-9634-8b67c7fe93a7","D67CD316F6AD4CCCB1EC9A7C37307B54-2025-05-22-19-44-43","","null","","[]","null","",""
"","","","","","image-button-response","95","1566680","0.0-14.0-1.0-0.2","D67CD316F6AD4CCCB1EC9A7C37307B54","D67CD316F6AD4CCCB1EC9A7C37307B54","b77d5d07-393c-4587-b325-ee6e7e7ee025","9076ac92-be42-43a2-9634-8b67c7fe93a7","{""num_scrambled_semantic"":""8"",""num_scrambled_causal"":""4"",""num_scrambled_schematic"":""4"",""participantId"":""D67CD316F6AD4CCCB1EC9A7C37307B54"",""assignmentId"":""b77d5d07-393c-4587-b325-ee6e7e7ee025"",""projectId"":""9076ac92-be42-43a2-9634-8b67c7fe93a7""}","https://test12345.live/?num_scrambled_semantic=8&num_scrambled_causal=4&num_scrambled_schematic=4&participantId=D67CD316F6AD4CCCB1EC9A7C37307B54&assignmentId=b77d5d07-393c-4587-b325-ee6e7e7ee025&projectId=9076ac92-be42-43a2-9634-8b67c7fe93a7","D67CD316F6AD4CCCB1EC9A7C37307B54-2025-05-22-19-44-43","","null","","images/causal_sequence/saving_a_cat_causal/saving_a_cat_causal_3.png","null","",""
"","","","","","image-button-response","96","1567240","0.0-14.0-1.0-1.2","D67CD316F6AD4CCCB1EC9A7C37307B54","D67CD316F6AD4CCCB1EC9A7C37307B54","b77d5d07-393c-4587-b325-ee6e7e7ee025","9076ac92-be42-43a2-9634-8b67c7fe93a7","{""num_scrambled_semantic"":""8"",""num_scrambled_causal"":""4"",""num_scrambled_schematic"":""4"",""participantId"":""D67CD316F6AD4CCCB1EC9A7C37307B54"",""assignmentId"":""b77d5d07-393c-4587-b325-ee6e7e7ee025"",""projectId"":""9076ac92-be42-43a2-9634-8b67c7fe93a7""}","https://test12345.live/?num_scrambled_semantic=8&num_scrambled_causal=4&num_scrambled_schematic=4&participantId=D67CD316F6AD4CCCB1EC9A7C37307B54&assignmentId=b77d5d07-393c-4587-b325-ee6e7e7ee025&projectId=9076ac92-be42-43a2-9634-8b67c7fe93a7","D67CD316F6AD4CCCB1EC9A7C37307B54-2025-05-22-19-44-43","","559","","images/causal_sequence/saving_a_cat_causal/saving_a_cat_causal_3.png","0","",""
"","","","","","image-button-response","97","1569052","0.0-14.0-1.0-2.2","D67CD316F6AD4CCCB1EC9A7C37307B54","D67CD316F6AD4CCCB1EC9A7C37307B54","b77d5d07-393c-4587-b325-ee6e7e7ee025","9076ac92-be42-43a2-9634-8b67c7fe93a7","{""num_scrambled_semantic"":""8"",""num_scrambled_causal"":""4"",""num_scrambled_schematic"":""4"",""participantId"":""D67CD316F6AD4CCCB1EC9A7C37307B54"",""assignmentId"":""b77d5d07-393c-4587-b325-ee6e7e7ee025"",""projectId"":""9076ac92-be42-43a2-9634-8b67c7fe93a7""}","https://test12345.live/?num_scrambled_semantic=8&num_scrambled_causal=4&num_scrambled_schematic=4&participantId=D67CD316F6AD4CCCB1EC9A7C37307B54&assignmentId=b77d5d07-393c-4587-b325-ee6e7e7ee025&projectId=9076ac92-be42-43a2-9634-8b67c7fe93a7","D67CD316F6AD4CCCB1EC9A7C37307B54-2025-05-22-19-44-43","","null","","[]","null","",""
"","","","","","image-button-response","98","1573564","0.0-14.0-1.0-0.3","D67CD316F6AD4CCCB1EC9A7C37307B54","D67CD316F6AD4CCCB1EC9A7C37307B54","b77d5d07-393c-4587-b325-ee6e7e7ee025","9076ac92-be42-43a2-9634-8b67c7fe93a7","{""num_scrambled_semantic"":""8"",""num_scrambled_causal"":""4"",""num_scrambled_schematic"":""4"",""participantId"":""D67CD316F6AD4CCCB1EC9A7C37307B54"",""assignmentId"":""b77d5d07-393c-4587-b325-ee6e7e7ee025"",""projectId"":""9076ac92-be42-43a2-9634-8b67c7fe93a7""}","https://test12345.live/?num_scrambled_semantic=8&num_scrambled_causal=4&num_scrambled_schematic=4&participantId=D67CD316F6AD4CCCB1EC9A7C37307B54&assignmentId=b77d5d07-393c-4587-b325-ee6e7e7ee025&projectId=9076ac92-be42-43a2-9634-8b67c7fe93a7","D67CD316F6AD4CCCB1EC9A7C37307B54-2025-05-22-19-44-43","","null","","images/causal_sequence/saving_a_cat_causal/saving_a_cat_causal_4.png","null","",""
"","","","","","image-button-response","99","1574432","0.0-14.0-1.0-1.3","D67CD316F6AD4CCCB1EC9A7C37307B54","D67CD316F6AD4CCCB1EC9A7C37307B54","b77d5d07-393c-4587-b325-ee6e7e7ee025","9076ac92-be42-43a2-9634-8b67c7fe93a7","{""num_scrambled_semantic"":""8"",""num_scrambled_causal"":""4"",""num_scrambled_schematic"":""4"",""participantId"":""D67CD316F6AD4CCCB1EC9A7C37307B54"",""assignmentId"":""b77d5d07-393c-4587-b325-ee6e7e7ee025"",""projectId"":""9076ac92-be42-43a2-9634-8b67c7fe93a7""}","https://test12345.live/?num_scrambled_semantic=8&num_scrambled_causal=4&num_scrambled_schematic=4&participantId=D67CD316F6AD4CCCB1EC9A7C37307B54&assignmentId=b77d5d07-393c-4587-b325-ee6e7e7ee025&projectId=9076ac92-be42-43a2-9634-8b67c7fe93a7","D67CD316F6AD4CCCB1EC9A7C37307B54-2025-05-22-19-44-43","","867","","images/causal_sequence/saving_a_cat_causal/saving_a_cat_causal_4.png","0","",""
"","","","","","image-button-response","100","1576235","0.0-14.0-1.0-2.3","D67CD316F6AD4CCCB1EC9A7C37307B54","D67CD316F6AD4CCCB1EC9A7C37307B54","b77d5d07-393c-4587-b325-ee6e7e7ee025","9076ac92-be42-43a2-9634-8b67c7fe93a7","{""num_scrambled_semantic"":""8"",""num_scrambled_causal"":""4"",""num_scrambled_schematic"":""4"",""participantId"":""D67CD316F6AD4CCCB1EC9A7C37307B54"",""assignmentId"":""b77d5d07-393c-4587-b325-ee6e7e7ee025"",""projectId"":""9076ac92-be42-43a2-9634-8b67c7fe93a7""}","https://test12345.live/?num_scrambled_semantic=8&num_scrambled_causal=4&num_scrambled_schematic=4&participantId=D67CD316F6AD4CCCB1EC9A7C37307B54&assignmentId=b77d5d07-393c-4587-b325-ee6e7e7ee025&projectId=9076ac92-be42-43a2-9634-8b67c7fe93a7","D67CD316F6AD4CCCB1EC9A7C37307B54-2025-05-22-19-44-43","","null","","[]","null","",""
"","","","","","image-button-response","101","1580736","0.0-14.0-1.0-0.4","D67CD316F6AD4CCCB1EC9A7C37307B54","D67CD316F6AD4CCCB1EC9A7C37307B54","b77d5d07-393c-4587-b325-ee6e7e7ee025","9076ac92-be42-43a2-9634-8b67c7fe93a7","{""num_scrambled_semantic"":""8"",""num_scrambled_causal"":""4"",""num_scrambled_schematic"":""4"",""participantId"":""D67CD316F6AD4CCCB1EC9A7C37307B54"",""assignmentId"":""b77d5d07-393c-4587-b325-ee6e7e7ee025"",""projectId"":""9076ac92-be42-43a2-9634-8b67c7fe93a7""}","https://test12345.live/?num_scrambled_semantic=8&num_scrambled_causal=4&num_scrambled_schematic=4&participantId=D67CD316F6AD4CCCB1EC9A7C37307B54&assignmentId=b77d5d07-393c-4587-b325-ee6e7e7ee025&projectId=9076ac92-be42-43a2-9634-8b67c7fe93a7","D67CD316F6AD4CCCB1EC9A7C37307B54-2025-05-22-19-44-43","","null","","images/causal_sequence/saving_a_cat_causal/saving_a_cat_causal_5.png","null","",""
"","","","","","image-button-response","102","1581296","0.0-14.0-1.0-1.4","D67CD316F6AD4CCCB1EC9A7C37307B54","D67CD316F6AD4CCCB1EC9A7C37307B54","b77d5d07-393c-4587-b325-ee6e7e7ee025","9076ac92-be42-43a2-9634-8b67c7fe93a7","{""num_scrambled_semantic"":""8"",""num_scrambled_causal"":""4"",""num_scrambled_schematic"":""4"",""participantId"":""D67CD316F6AD4CCCB1EC9A7C37307B54"",""assignmentId"":""b77d5d07-393c-4587-b325-ee6e7e7ee025"",""projectId"":""9076ac92-be42-43a2-9634-8b67c7fe93a7""}","https://test12345.live/?num_scrambled_semantic=8&num_scrambled_causal=4&num_scrambled_schematic=4&participantId=D67CD316F6AD4CCCB1EC9A7C37307B54&assignmentId=b77d5d07-393c-4587-b325-ee6e7e7ee025&projectId=9076ac92-be42-43a2-9634-8b67c7fe93a7","D67CD316F6AD4CCCB1EC9A7C37307B54-2025-05-22-19-44-43","","559","","images/causal_sequence/saving_a_cat_causal/saving_a_cat_causal_5.png","0","",""
"","","","","","image-button-response","103","1583101","0.0-14.0-1.0-2.4","D67CD316F6AD4CCCB1EC9A7C37307B54","D67CD316F6AD4CCCB1EC9A7C37307B54","b77d5d07-393c-4587-b325-ee6e7e7ee025","9076ac92-be42-43a2-9634-8b67c7fe93a7","{""num_scrambled_semantic"":""8"",""num_scrambled_causal"":""4"",""num_scrambled_schematic"":""4"",""participantId"":""D67CD316F6AD4CCCB1EC9A7C37307B54"",""assignmentId"":""b77d5d07-393c-4587-b325-ee6e7e7ee025"",""projectId"":""9076ac92-be42-43a2-9634-8b67c7fe93a7""}","https://test12345.live/?num_scrambled_semantic=8&num_scrambled_causal=4&num_scrambled_schematic=4&participantId=D67CD316F6AD4CCCB1EC9A7C37307B54&assignmentId=b77d5d07-393c-4587-b325-ee6e7e7ee025&projectId=9076ac92-be42-43a2-9634-8b67c7fe93a7","D67CD316F6AD4CCCB1EC9A7C37307B54-2025-05-22-19-44-43","","null","","[]","null","",""
"","","","","","image-button-response","104","1587604","0.0-14.0-1.0-0.5","D67CD316F6AD4CCCB1EC9A7C37307B54","D67CD316F6AD4CCCB1EC9A7C37307B54","b77d5d07-393c-4587-b325-ee6e7e7ee025","9076ac92-be42-43a2-9634-8b67c7fe93a7","{""num_scrambled_semantic"":""8"",""num_scrambled_causal"":""4"",""num_scrambled_schematic"":""4"",""participantId"":""D67CD316F6AD4CCCB1EC9A7C37307B54"",""assignmentId"":""b77d5d07-393c-4587-b325-ee6e7e7ee025"",""projectId"":""9076ac92-be42-43a2-9634-8b67c7fe93a7""}","https://test12345.live/?num_scrambled_semantic=8&num_scrambled_causal=4&num_scrambled_schematic=4&participantId=D67CD316F6AD4CCCB1EC9A7C37307B54&assignmentId=b77d5d07-393c-4587-b325-ee6e7e7ee025&projectId=9076ac92-be42-43a2-9634-8b67c7fe93a7","D67CD316F6AD4CCCB1EC9A7C37307B54-2025-05-22-19-44-43","","null","","images/causal_sequence/saving_a_cat_causal/saving_a_cat_causal_6.png","null","",""
"","","","","","image-button-response","105","1588344","0.0-14.0-1.0-1.5","D67CD316F6AD4CCCB1EC9A7C37307B54","D67CD316F6AD4CCCB1EC9A7C37307B54","b77d5d07-393c-4587-b325-ee6e7e7ee025","9076ac92-be42-43a2-9634-8b67c7fe93a7","{""num_scrambled_semantic"":""8"",""num_scrambled_causal"":""4"",""num_scrambled_schematic"":""4"",""participantId"":""D67CD316F6AD4CCCB1EC9A7C37307B54"",""assignmentId"":""b77d5d07-393c-4587-b325-ee6e7e7ee025"",""projectId"":""9076ac92-be42-43a2-9634-8b67c7fe93a7""}","https://test12345.live/?num_scrambled_semantic=8&num_scrambled_causal=4&num_scrambled_schematic=4&participantId=D67CD316F6AD4CCCB1EC9A7C37307B54&assignmentId=b77d5d07-393c-4587-b325-ee6e7e7ee025&projectId=9076ac92-be42-43a2-9634-8b67c7fe93a7","D67CD316F6AD4CCCB1EC9A7C37307B54-2025-05-22-19-44-43","","740","","images/causal_sequence/saving_a_cat_causal/saving_a_cat_causal_6.png","0","",""
"","","","","","image-button-response","106","1590145","0.0-14.0-1.0-2.5","D67CD316F6AD4CCCB1EC9A7C37307B54","D67CD316F6AD4CCCB1EC9A7C37307B54","b77d5d07-393c-4587-b325-ee6e7e7ee025","9076ac92-be42-43a2-9634-8b67c7fe93a7","{""num_scrambled_semantic"":""8"",""num_scrambled_causal"":""4"",""num_scrambled_schematic"":""4"",""participantId"":""D67CD316F6AD4CCCB1EC9A7C37307B54"",""assignmentId"":""b77d5d07-393c-4587-b325-ee6e7e7ee025"",""projectId"":""9076ac92-be42-43a2-9634-8b67c7fe93a7""}","https://test12345.live/?num_scrambled_semantic=8&num_scrambled_causal=4&num_scrambled_schematic=4&participantId=D67CD316F6AD4CCCB1EC9A7C37307B54&assignmentId=b77d5d07-393c-4587-b325-ee6e7e7ee025&projectId=9076ac92-be42-43a2-9634-8b67c7fe93a7","D67CD316F6AD4CCCB1EC9A7C37307B54-2025-05-22-19-44-43","","null","","[]","null","",""
"","","","","","image-button-response","107","1594658","0.0-14.0-1.0-0.6","D67CD316F6AD4CCCB1EC9A7C37307B54","D67CD316F6AD4CCCB1EC9A7C37307B54","b77d5d07-393c-4587-b325-ee6e7e7ee025","9076ac92-be42-43a2-9634-8b67c7fe93a7","{""num_scrambled_semantic"":""8"",""num_scrambled_causal"":""4"",""num_scrambled_schematic"":""4"",""participantId"":""D67CD316F6AD4CCCB1EC9A7C37307B54"",""assignmentId"":""b77d5d07-393c-4587-b325-ee6e7e7ee025"",""projectId"":""9076ac92-be42-43a2-9634-8b67c7fe93a7""}","https://test12345.live/?num_scrambled_semantic=8&num_scrambled_causal=4&num_scrambled_schematic=4&participantId=D67CD316F6AD4CCCB1EC9A7C37307B54&assignmentId=b77d5d07-393c-4587-b325-ee6e7e7ee025&projectId=9076ac92-be42-43a2-9634-8b67c7fe93a7","D67CD316F6AD4CCCB1EC9A7C37307B54-2025-05-22-19-44-43","","null","","images/causal_sequence/saving_a_cat_causal/saving_a_cat_causal_7.png","null","",""
"","","","","","image-button-response","108","1595512","0.0-14.0-1.0-1.6","D67CD316F6AD4CCCB1EC9A7C37307B54","D67CD316F6AD4CCCB1EC9A7C37307B54","b77d5d07-393c-4587-b325-ee6e7e7ee025","9076ac92-be42-43a2-9634-8b67c7fe93a7","{""num_scrambled_semantic"":""8"",""num_scrambled_causal"":""4"",""num_scrambled_schematic"":""4"",""participantId"":""D67CD316F6AD4CCCB1EC9A7C37307B54"",""assignmentId"":""b77d5d07-393c-4587-b325-ee6e7e7ee025"",""projectId"":""9076ac92-be42-43a2-9634-8b67c7fe93a7""}","https://test12345.live/?num_scrambled_semantic=8&num_scrambled_causal=4&num_scrambled_schematic=4&participantId=D67CD316F6AD4CCCB1EC9A7C37307B54&assignmentId=b77d5d07-393c-4587-b325-ee6e7e7ee025&projectId=9076ac92-be42-43a2-9634-8b67c7fe93a7","D67CD316F6AD4CCCB1EC9A7C37307B54-2025-05-22-19-44-43","","853","","images/causal_sequence/saving_a_cat_causal/saving_a_cat_causal_7.png","0","",""
"","","","","","image-button-response","109","1597316","0.0-14.0-1.0-2.6","D67CD316F6AD4CCCB1EC9A7C37307B54","D67CD316F6AD4CCCB1EC9A7C37307B54","b77d5d07-393c-4587-b325-ee6e7e7ee025","9076ac92-be42-43a2-9634-8b67c7fe93a7","{""num_scrambled_semantic"":""8"",""num_scrambled_causal"":""4"",""num_scrambled_schematic"":""4"",""participantId"":""D67CD316F6AD4CCCB1EC9A7C37307B54"",""assignmentId"":""b77d5d07-393c-4587-b325-ee6e7e7ee025"",""projectId"":""9076ac92-be42-43a2-9634-8b67c7fe93a7""}","https://test12345.live/?num_scrambled_semantic=8&num_scrambled_causal=4&num_scrambled_schematic=4&participantId=D67CD316F6AD4CCCB1EC9A7C37307B54&assignmentId=b77d5d07-393c-4587-b325-ee6e7e7ee025&projectId=9076ac92-be42-43a2-9634-8b67c7fe93a7","D67CD316F6AD4CCCB1EC9A7C37307B54-2025-05-22-19-44-43","","null","","[]","null","",""
"","","","","","image-button-response","110","1601831","0.0-14.0-1.0-0.7","D67CD316F6AD4CCCB1EC9A7C37307B54","D67CD316F6AD4CCCB1EC9A7C37307B54","b77d5d07-393c-4587-b325-ee6e7e7ee025","9076ac92-be42-43a2-9634-8b67c7fe93a7","{""num_scrambled_semantic"":""8"",""num_scrambled_causal"":""4"",""num_scrambled_schematic"":""4"",""participantId"":""D67CD316F6AD4CCCB1EC9A7C37307B54"",""assignmentId"":""b77d5d07-393c-4587-b325-ee6e7e7ee025"",""projectId"":""9076ac92-be42-43a2-9634-8b67c7fe93a7""}","https://test12345.live/?num_scrambled_semantic=8&num_scrambled_causal=4&num_scrambled_schematic=4&participantId=D67CD316F6AD4CCCB1EC9A7C37307B54&assignmentId=b77d5d07-393c-4587-b325-ee6e7e7ee025&projectId=9076ac92-be42-43a2-9634-8b67c7fe93a7","D67CD316F6AD4CCCB1EC9A7C37307B54-2025-05-22-19-44-43","","null","","images/causal_sequence/saving_a_cat_causal/saving_a_cat_causal_8.png","null","",""
"","","","","","image-button-response","111","1602600","0.0-14.0-1.0-1.7","D67CD316F6AD4CCCB1EC9A7C37307B54","D67CD316F6AD4CCCB1EC9A7C37307B54","b77d5d07-393c-4587-b325-ee6e7e7ee025","9076ac92-be42-43a2-9634-8b67c7fe93a7","{""num_scrambled_semantic"":""8"",""num_scrambled_causal"":""4"",""num_scrambled_schematic"":""4"",""participantId"":""D67CD316F6AD4CCCB1EC9A7C37307B54"",""assignmentId"":""b77d5d07-393c-4587-b325-ee6e7e7ee025"",""projectId"":""9076ac92-be42-43a2-9634-8b67c7fe93a7""}","https://test12345.live/?num_scrambled_semantic=8&num_scrambled_causal=4&num_scrambled_schematic=4&participantId=D67CD316F6AD4CCCB1EC9A7C37307B54&assignmentId=b77d5d07-393c-4587-b325-ee6e7e7ee025&projectId=9076ac92-be42-43a2-9634-8b67c7fe93a7","D67CD316F6AD4CCCB1EC9A7C37307B54-2025-05-22-19-44-43","","768","","images/causal_sequence/saving_a_cat_causal/saving_a_cat_causal_8.png","0","",""
"","","","","","image-button-response","112","1604416","0.0-14.0-1.0-2.7","D67CD316F6AD4CCCB1EC9A7C37307B54","D67CD316F6AD4CCCB1EC9A7C37307B54","b77d5d07-393c-4587-b325-ee6e7e7ee025","9076ac92-be42-43a2-9634-8b67c7fe93a7","{""num_scrambled_semantic"":""8"",""num_scrambled_causal"":""4"",""num_scrambled_schematic"":""4"",""participantId"":""D67CD316F6AD4CCCB1EC9A7C37307B54"",""assignmentId"":""b77d5d07-393c-4587-b325-ee6e7e7ee025"",""projectId"":""9076ac92-be42-43a2-9634-8b67c7fe93a7""}","https://test12345.live/?num_scrambled_semantic=8&num_scrambled_causal=4&num_scrambled_schematic=4&participantId=D67CD316F6AD4CCCB1EC9A7C37307B54&assignmentId=b77d5d07-393c-4587-b325-ee6e7e7ee025&projectId=9076ac92-be42-43a2-9634-8b67c7fe93a7","D67CD316F6AD4CCCB1EC9A7C37307B54-2025-05-22-19-44-43","","null","","[]","null","",""
"","","","","","image-button-response","113","1608928","0.0-14.0-1.0-0.8","D67CD316F6AD4CCCB1EC9A7C37307B54","D67CD316F6AD4CCCB1EC9A7C37307B54","b77d5d07-393c-4587-b325-ee6e7e7ee025","9076ac92-be42-43a2-9634-8b67c7fe93a7","{""num_scrambled_semantic"":""8"",""num_scrambled_causal"":""4"",""num_scrambled_schematic"":""4"",""participantId"":""D67CD316F6AD4CCCB1EC9A7C37307B54"",""assignmentId"":""b77d5d07-393c-4587-b325-ee6e7e7ee025"",""projectId"":""9076ac92-be42-43a2-9634-8b67c7fe93a7""}","https://test12345.live/?num_scrambled_semantic=8&num_scrambled_causal=4&num_scrambled_schematic=4&participantId=D67CD316F6AD4CCCB1EC9A7C37307B54&assignmentId=b77d5d07-393c-4587-b325-ee6e7e7ee025&projectId=9076ac92-be42-43a2-9634-8b67c7fe93a7","D67CD316F6AD4CCCB1EC9A7C37307B54-2025-05-22-19-44-43","","null","","images/causal_sequence/saving_a_cat_causal/saving_a_cat_causal_9.png","null","",""
