"success","timeout","failed_images","failed_audio","failed_video","trial_type","trial_index","time_elapsed","internal_node_id","subject","subject_id","study_id","session_id","urlvar","current_url","audio_id","view_history","rt","device_id","stimulus","response","estimated_stimulus_onset","seq_name"
"true","false","[]","[]","[]","preload","0","18922","0.0-0.0","D73F5F2C54C942A895B3930808944593","D73F5F2C54C942A895B3930808944593","0198ed31-b706-77d4-becc-53a7d3011d29","0198ed26-a6a7-793d-982a-8940a71ab262","{""num_scrambled_semantic"":""8"",""num_scrambled_causal"":""4"",""num_scrambled_schematic"":""4"",""participantId"":""D73F5F2C54C942A895B3930808944593"",""assignmentId"":""0198ed31-b706-77d4-becc-53a7d3011d29"",""projectId"":""0198ed26-a6a7-793d-982a-8940a71ab262""}","https://test12345.live/?num_scrambled_semantic=8&num_scrambled_causal=4&num_scrambled_schematic=4&participantId=D73F5F2C54C942A895B3930808944593&assignmentId=0198ed31-b706-77d4-becc-53a7d3011d29&projectId=0198ed26-a6a7-793d-982a-8940a71ab262","D73F5F2C54C942A895B3930808944593-2025-08-27-21-29-54","","","","","","",""
"","","","","","instructions","1","42035","0.0-1.0","D73F5F2C54C942A895B3930808944593","D73F5F2C54C942A895B3930808944593","0198ed31-b706-77d4-becc-53a7d3011d29","0198ed26-a6a7-793d-982a-8940a71ab262","{""num_scrambled_semantic"":""8"",""num_scrambled_causal"":""4"",""num_scrambled_schematic"":""4"",""participantId"":""D73F5F2C54C942A895B3930808944593"",""assignmentId"":""0198ed31-b706-77d4-becc-53a7d3011d29"",""projectId"":""0198ed26-a6a7-793d-982a-8940a71ab262""}","https://test12345.live/?num_scrambled_semantic=8&num_scrambled_causal=4&num_scrambled_schematic=4&participantId=D73F5F2C54C942A895B3930808944593&assignmentId=0198ed31-b706-77d4-becc-53a7d3011d29&projectId=0198ed26-a6a7-793d-982a-8940a71ab262","D73F5F2C54C942A895B3930808944593-2025-08-27-21-29-54","[{""page_index"":0,""viewing_time"":23112}]","23112","","","","",""
"","","","","","instructions","2","50464","0.0-2.0","D73F5F2C54C942A895B3930808944593","D73F5F2C54C942A895B3930808944593","0198ed31-b706-77d4-becc-53a7d3011d29","0198ed26-a6a7-793d-982a-8940a71ab262","{""num_scrambled_semantic"":""8"",""num_scrambled_causal"":""4"",""num_scrambled_schematic"":""4"",""participantId"":""D73F5F2C54C942A895B3930808944593"",""assignmentId"":""0198ed31-b706-77d4-becc-53a7d3011d29"",""projectId"":""0198ed26-a6a7-793d-982a-8940a71ab262""}","https://test12345.live/?num_scrambled_semantic=8&num_scrambled_causal=4&num_scrambled_schematic=4&participantId=D73F5F2C54C942A895B3930808944593&assignmentId=0198ed31-b706-77d4-becc-53a7d3011d29&projectId=0198ed26-a6a7-793d-982a-8940a71ab262","D73F5F2C54C942A895B3930808944593-2025-08-27-21-29-54","[{""page_index"":0,""viewing_time"":8428}]","8428","","","","",""
"true","","","","","fullscreen","3","52895","0.0-3.0","D73F5F2C54C942A895B3930808944593","D73F5F2C54C942A895B3930808944593","0198ed31-b706-77d4-becc-53a7d3011d29","0198ed26-a6a7-793d-982a-8940a71ab262","{""num_scrambled_semantic"":""8"",""num_scrambled_causal"":""4"",""num_scrambled_schematic"":""4"",""participantId"":""D73F5F2C54C942A895B3930808944593"",""assignmentId"":""0198ed31-b706-77d4-becc-53a7d3011d29"",""projectId"":""0198ed26-a6a7-793d-982a-8940a71ab262""}","https://test12345.live/?num_scrambled_semantic=8&num_scrambled_causal=4&num_scrambled_schematic=4&participantId=D73F5F2C54C942A895B3930808944593&assignmentId=0198ed31-b706-77d4-becc-53a7d3011d29&projectId=0198ed26-a6a7-793d-982a-8940a71ab262","D73F5F2C54C942A895B3930808944593-2025-08-27-21-29-54","","1421","","","","",""
"","","","","","initialize-microphone","4","58860","0.0-4.0-0.0","D73F5F2C54C942A895B3930808944593","D73F5F2C54C942A895B3930808944593","0198ed31-b706-77d4-becc-53a7d3011d29","0198ed26-a6a7-793d-982a-8940a71ab262","{""num_scrambled_semantic"":""8"",""num_scrambled_causal"":""4"",""num_scrambled_schematic"":""4"",""participantId"":""D73F5F2C54C942A895B3930808944593"",""assignmentId"":""0198ed31-b706-77d4-becc-53a7d3011d29"",""projectId"":""0198ed26-a6a7-793d-982a-8940a71ab262""}","https://test12345.live/?num_scrambled_semantic=8&num_scrambled_causal=4&num_scrambled_schematic=4&participantId=D73F5F2C54C942A895B3930808944593&assignmentId=0198ed31-b706-77d4-becc-53a7d3011d29&projectId=0198ed26-a6a7-793d-982a-8940a71ab262","D73F5F2C54C942A895B3930808944593-2025-08-27-21-29-54","","","1e6b000a1e483818c671995e518275c630c09853ed08822911e584ecf53d83dd","","","",""
"","","","","","html-audio-response","5","71869","0.0-4.0-1.0","D73F5F2C54C942A895B3930808944593","D73F5F2C54C942A895B3930808944593","0198ed31-b706-77d4-becc-53a7d3011d29","0198ed26-a6a7-793d-982a-8940a71ab262","{""num_scrambled_semantic"":""8"",""num_scrambled_causal"":""4"",""num_scrambled_schematic"":""4"",""participantId"":""D73F5F2C54C942A895B3930808944593"",""assignmentId"":""0198ed31-b706-77d4-becc-53a7d3011d29"",""projectId"":""0198ed26-a6a7-793d-982a-8940a71ab262""}","https://test12345.live/?num_scrambled_semantic=8&num_scrambled_causal=4&num_scrambled_schematic=4&participantId=D73F5F2C54C942A895B3930808944593&assignmentId=0198ed31-b706-77d4-becc-53a7d3011d29&projectId=0198ed26-a6a7-793d-982a-8940a71ab262","D73F5F2C54C942A895B3930808944593-2025-08-27-21-29-54","","6474","","<span style=""color: red; font-size: 24px""> NOW RECORDING</span>
        <p>Please test Microphone</p>","","3",""
"","","","","","html-button-response","6","73460","0.0-4.0-2.0","D73F5F2C54C942A895B3930808944593","D73F5F2C54C942A895B3930808944593","0198ed31-b706-77d4-becc-53a7d3011d29","0198ed26-a6a7-793d-982a-8940a71ab262","{""num_scrambled_semantic"":""8"",""num_scrambled_causal"":""4"",""num_scrambled_schematic"":""4"",""participantId"":""D73F5F2C54C942A895B3930808944593"",""assignmentId"":""0198ed31-b706-77d4-becc-53a7d3011d29"",""projectId"":""0198ed26-a6a7-793d-982a-8940a71ab262""}","https://test12345.live/?num_scrambled_semantic=8&num_scrambled_causal=4&num_scrambled_schematic=4&participantId=D73F5F2C54C942A895B3930808944593&assignmentId=0198ed31-b706-77d4-becc-53a7d3011d29&projectId=0198ed26-a6a7-793d-982a-8940a71ab262","D73F5F2C54C942A895B3930808944593-2025-08-27-21-29-54","","1590","","<p style=""font-size:48px; color:red;"">Is Microphone OK?</p>","1","",""
"","","","","","instructions","7","82784","0.0-5.0","D73F5F2C54C942A895B3930808944593","D73F5F2C54C942A895B3930808944593","0198ed31-b706-77d4-becc-53a7d3011d29","0198ed26-a6a7-793d-982a-8940a71ab262","{""num_scrambled_semantic"":""8"",""num_scrambled_causal"":""4"",""num_scrambled_schematic"":""4"",""participantId"":""D73F5F2C54C942A895B3930808944593"",""assignmentId"":""0198ed31-b706-77d4-becc-53a7d3011d29"",""projectId"":""0198ed26-a6a7-793d-982a-8940a71ab262""}","https://test12345.live/?num_scrambled_semantic=8&num_scrambled_causal=4&num_scrambled_schematic=4&participantId=D73F5F2C54C942A895B3930808944593&assignmentId=0198ed31-b706-77d4-becc-53a7d3011d29&projectId=0198ed26-a6a7-793d-982a-8940a71ab262","D73F5F2C54C942A895B3930808944593-2025-08-27-21-29-54","[{""page_index"":0,""viewing_time"":4317},{""page_index"":1,""viewing_time"":5006}]","9323","","","","",""
"","","","","","image-button-response","8","88794","0.0-6.0-0.0","D73F5F2C54C942A895B3930808944593","D73F5F2C54C942A895B3930808944593","0198ed31-b706-77d4-becc-53a7d3011d29","0198ed26-a6a7-793d-982a-8940a71ab262","{""num_scrambled_semantic"":""8"",""num_scrambled_causal"":""4"",""num_scrambled_schematic"":""4"",""participantId"":""D73F5F2C54C942A895B3930808944593"",""assignmentId"":""0198ed31-b706-77d4-becc-53a7d3011d29"",""projectId"":""0198ed26-a6a7-793d-982a-8940a71ab262""}","https://test12345.live/?num_scrambled_semantic=8&num_scrambled_causal=4&num_scrambled_schematic=4&participantId=D73F5F2C54C942A895B3930808944593&assignmentId=0198ed31-b706-77d4-becc-53a7d3011d29&projectId=0198ed26-a6a7-793d-982a-8940a71ab262","D73F5F2C54C942A895B3930808944593-2025-08-27-21-29-54","","null","","images/instructions/movie_0.png","null","",""
"","","","","","image-button-response","9","93298","0.0-6.0-1.0-0.0","D73F5F2C54C942A895B3930808944593","D73F5F2C54C942A895B3930808944593","0198ed31-b706-77d4-becc-53a7d3011d29","0198ed26-a6a7-793d-982a-8940a71ab262","{""num_scrambled_semantic"":""8"",""num_scrambled_causal"":""4"",""num_scrambled_schematic"":""4"",""participantId"":""D73F5F2C54C942A895B3930808944593"",""assignmentId"":""0198ed31-b706-77d4-becc-53a7d3011d29"",""projectId"":""0198ed26-a6a7-793d-982a-8940a71ab262""}","https://test12345.live/?num_scrambled_semantic=8&num_scrambled_causal=4&num_scrambled_schematic=4&participantId=D73F5F2C54C942A895B3930808944593&assignmentId=0198ed31-b706-77d4-becc-53a7d3011d29&projectId=0198ed26-a6a7-793d-982a-8940a71ab262","D73F5F2C54C942A895B3930808944593-2025-08-27-21-29-54","","null","","images/instructions/movie_1.png","null","",""
"","","","","","image-button-response","10","96434","0.0-6.0-1.0-1.0","D73F5F2C54C942A895B3930808944593","D73F5F2C54C942A895B3930808944593","0198ed31-b706-77d4-becc-53a7d3011d29","0198ed26-a6a7-793d-982a-8940a71ab262","{""num_scrambled_semantic"":""8"",""num_scrambled_causal"":""4"",""num_scrambled_schematic"":""4"",""participantId"":""D73F5F2C54C942A895B3930808944593"",""assignmentId"":""0198ed31-b706-77d4-becc-53a7d3011d29"",""projectId"":""0198ed26-a6a7-793d-982a-8940a71ab262""}","https://test12345.live/?num_scrambled_semantic=8&num_scrambled_causal=4&num_scrambled_schematic=4&participantId=D73F5F2C54C942A895B3930808944593&assignmentId=0198ed31-b706-77d4-becc-53a7d3011d29&projectId=0198ed26-a6a7-793d-982a-8940a71ab262","D73F5F2C54C942A895B3930808944593-2025-08-27-21-29-54","","3136","","images/instructions/movie_1.png","0","",""
"","","","","","image-button-response","11","98250","0.0-6.0-1.0-2.0","D73F5F2C54C942A895B3930808944593","D73F5F2C54C942A895B3930808944593","0198ed31-b706-77d4-becc-53a7d3011d29","0198ed26-a6a7-793d-982a-8940a71ab262","{""num_scrambled_semantic"":""8"",""num_scrambled_causal"":""4"",""num_scrambled_schematic"":""4"",""participantId"":""D73F5F2C54C942A895B3930808944593"",""assignmentId"":""0198ed31-b706-77d4-becc-53a7d3011d29"",""projectId"":""0198ed26-a6a7-793d-982a-8940a71ab262""}","https://test12345.live/?num_scrambled_semantic=8&num_scrambled_causal=4&num_scrambled_schematic=4&participantId=D73F5F2C54C942A895B3930808944593&assignmentId=0198ed31-b706-77d4-becc-53a7d3011d29&projectId=0198ed26-a6a7-793d-982a-8940a71ab262","D73F5F2C54C942A895B3930808944593-2025-08-27-21-29-54","","null","","[]","null","",""
"","","","","","image-button-response","12","102751","0.0-6.0-1.0-0.1","D73F5F2C54C942A895B3930808944593","D73F5F2C54C942A895B3930808944593","0198ed31-b706-77d4-becc-53a7d3011d29","0198ed26-a6a7-793d-982a-8940a71ab262","{""num_scrambled_semantic"":""8"",""num_scrambled_causal"":""4"",""num_scrambled_schematic"":""4"",""participantId"":""D73F5F2C54C942A895B3930808944593"",""assignmentId"":""0198ed31-b706-77d4-becc-53a7d3011d29"",""projectId"":""0198ed26-a6a7-793d-982a-8940a71ab262""}","https://test12345.live/?num_scrambled_semantic=8&num_scrambled_causal=4&num_scrambled_schematic=4&participantId=D73F5F2C54C942A895B3930808944593&assignmentId=0198ed31-b706-77d4-becc-53a7d3011d29&projectId=0198ed26-a6a7-793d-982a-8940a71ab262","D73F5F2C54C942A895B3930808944593-2025-08-27-21-29-54","","null","","images/instructions/movie_2.png","null","",""
"","","","","","image-button-response","13","106309","0.0-6.0-1.0-1.1","D73F5F2C54C942A895B3930808944593","D73F5F2C54C942A895B3930808944593","0198ed31-b706-77d4-becc-53a7d3011d29","0198ed26-a6a7-793d-982a-8940a71ab262","{""num_scrambled_semantic"":""8"",""num_scrambled_causal"":""4"",""num_scrambled_schematic"":""4"",""participantId"":""D73F5F2C54C942A895B3930808944593"",""assignmentId"":""0198ed31-b706-77d4-becc-53a7d3011d29"",""projectId"":""0198ed26-a6a7-793d-982a-8940a71ab262""}","https://test12345.live/?num_scrambled_semantic=8&num_scrambled_causal=4&num_scrambled_schematic=4&participantId=D73F5F2C54C942A895B3930808944593&assignmentId=0198ed31-b706-77d4-becc-53a7d3011d29&projectId=0198ed26-a6a7-793d-982a-8940a71ab262","D73F5F2C54C942A895B3930808944593-2025-08-27-21-29-54","","3557","","images/instructions/movie_2.png","1","",""
"","","","","","image-button-response","14","108113","0.0-6.0-1.0-2.1","D73F5F2C54C942A895B3930808944593","D73F5F2C54C942A895B3930808944593","0198ed31-b706-77d4-becc-53a7d3011d29","0198ed26-a6a7-793d-982a-8940a71ab262","{""num_scrambled_semantic"":""8"",""num_scrambled_causal"":""4"",""num_scrambled_schematic"":""4"",""participantId"":""D73F5F2C54C942A895B3930808944593"",""assignmentId"":""0198ed31-b706-77d4-becc-53a7d3011d29"",""projectId"":""0198ed26-a6a7-793d-982a-8940a71ab262""}","https://test12345.live/?num_scrambled_semantic=8&num_scrambled_causal=4&num_scrambled_schematic=4&participantId=D73F5F2C54C942A895B3930808944593&assignmentId=0198ed31-b706-77d4-becc-53a7d3011d29&projectId=0198ed26-a6a7-793d-982a-8940a71ab262","D73F5F2C54C942A895B3930808944593-2025-08-27-21-29-54","","null","","[]","null","",""
"","","","","","image-button-response","15","112618","0.0-6.0-1.0-0.2","D73F5F2C54C942A895B3930808944593","D73F5F2C54C942A895B3930808944593","0198ed31-b706-77d4-becc-53a7d3011d29","0198ed26-a6a7-793d-982a-8940a71ab262","{""num_scrambled_semantic"":""8"",""num_scrambled_causal"":""4"",""num_scrambled_schematic"":""4"",""participantId"":""D73F5F2C54C942A895B3930808944593"",""assignmentId"":""0198ed31-b706-77d4-becc-53a7d3011d29"",""projectId"":""0198ed26-a6a7-793d-982a-8940a71ab262""}","https://test12345.live/?num_scrambled_semantic=8&num_scrambled_causal=4&num_scrambled_schematic=4&participantId=D73F5F2C54C942A895B3930808944593&assignmentId=0198ed31-b706-77d4-becc-53a7d3011d29&projectId=0198ed26-a6a7-793d-982a-8940a71ab262","D73F5F2C54C942A895B3930808944593-2025-08-27-21-29-54","","null","","images/instructions/movie_3.png","null","",""
"","","","","","image-button-response","16","116620","0.0-6.0-1.0-1.2","D73F5F2C54C942A895B3930808944593","D73F5F2C54C942A895B3930808944593","0198ed31-b706-77d4-becc-53a7d3011d29","0198ed26-a6a7-793d-982a-8940a71ab262","{""num_scrambled_semantic"":""8"",""num_scrambled_causal"":""4"",""num_scrambled_schematic"":""4"",""participantId"":""D73F5F2C54C942A895B3930808944593"",""assignmentId"":""0198ed31-b706-77d4-becc-53a7d3011d29"",""projectId"":""0198ed26-a6a7-793d-982a-8940a71ab262""}","https://test12345.live/?num_scrambled_semantic=8&num_scrambled_causal=4&num_scrambled_schematic=4&participantId=D73F5F2C54C942A895B3930808944593&assignmentId=0198ed31-b706-77d4-becc-53a7d3011d29&projectId=0198ed26-a6a7-793d-982a-8940a71ab262","D73F5F2C54C942A895B3930808944593-2025-08-27-21-29-54","","null","","images/instructions/movie_3.png","null","",""
"","","","","","image-button-response","17","118423","0.0-6.0-1.0-2.2","D73F5F2C54C942A895B3930808944593","D73F5F2C54C942A895B3930808944593","0198ed31-b706-77d4-becc-53a7d3011d29","0198ed26-a6a7-793d-982a-8940a71ab262","{""num_scrambled_semantic"":""8"",""num_scrambled_causal"":""4"",""num_scrambled_schematic"":""4"",""participantId"":""D73F5F2C54C942A895B3930808944593"",""assignmentId"":""0198ed31-b706-77d4-becc-53a7d3011d29"",""projectId"":""0198ed26-a6a7-793d-982a-8940a71ab262""}","https://test12345.live/?num_scrambled_semantic=8&num_scrambled_causal=4&num_scrambled_schematic=4&participantId=D73F5F2C54C942A895B3930808944593&assignmentId=0198ed31-b706-77d4-becc-53a7d3011d29&projectId=0198ed26-a6a7-793d-982a-8940a71ab262","D73F5F2C54C942A895B3930808944593-2025-08-27-21-29-54","","null","","[]","null","",""
"","","","","","image-button-response","18","122933","0.0-6.0-1.0-0.3","D73F5F2C54C942A895B3930808944593","D73F5F2C54C942A895B3930808944593","0198ed31-b706-77d4-becc-53a7d3011d29","0198ed26-a6a7-793d-982a-8940a71ab262","{""num_scrambled_semantic"":""8"",""num_scrambled_causal"":""4"",""num_scrambled_schematic"":""4"",""participantId"":""D73F5F2C54C942A895B3930808944593"",""assignmentId"":""0198ed31-b706-77d4-becc-53a7d3011d29"",""projectId"":""0198ed26-a6a7-793d-982a-8940a71ab262""}","https://test12345.live/?num_scrambled_semantic=8&num_scrambled_causal=4&num_scrambled_schematic=4&participantId=D73F5F2C54C942A895B3930808944593&assignmentId=0198ed31-b706-77d4-becc-53a7d3011d29&projectId=0198ed26-a6a7-793d-982a-8940a71ab262","D73F5F2C54C942A895B3930808944593-2025-08-27-21-29-54","","null","","images/instructions/movie_4.png","null","",""
"","","","","","image-button-response","19","123757","0.0-6.0-1.0-1.3","D73F5F2C54C942A895B3930808944593","D73F5F2C54C942A895B3930808944593","0198ed31-b706-77d4-becc-53a7d3011d29","0198ed26-a6a7-793d-982a-8940a71ab262","{""num_scrambled_semantic"":""8"",""num_scrambled_causal"":""4"",""num_scrambled_schematic"":""4"",""participantId"":""D73F5F2C54C942A895B3930808944593"",""assignmentId"":""0198ed31-b706-77d4-becc-53a7d3011d29"",""projectId"":""0198ed26-a6a7-793d-982a-8940a71ab262""}","https://test12345.live/?num_scrambled_semantic=8&num_scrambled_causal=4&num_scrambled_schematic=4&participantId=D73F5F2C54C942A895B3930808944593&assignmentId=0198ed31-b706-77d4-becc-53a7d3011d29&projectId=0198ed26-a6a7-793d-982a-8940a71ab262","D73F5F2C54C942A895B3930808944593-2025-08-27-21-29-54","","823","","images/instructions/movie_4.png","0","",""
"","","","","","image-button-response","20","125567","0.0-6.0-1.0-2.3","D73F5F2C54C942A895B3930808944593","D73F5F2C54C942A895B3930808944593","0198ed31-b706-77d4-becc-53a7d3011d29","0198ed26-a6a7-793d-982a-8940a71ab262","{""num_scrambled_semantic"":""8"",""num_scrambled_causal"":""4"",""num_scrambled_schematic"":""4"",""participantId"":""D73F5F2C54C942A895B3930808944593"",""assignmentId"":""0198ed31-b706-77d4-becc-53a7d3011d29"",""projectId"":""0198ed26-a6a7-793d-982a-8940a71ab262""}","https://test12345.live/?num_scrambled_semantic=8&num_scrambled_causal=4&num_scrambled_schematic=4&participantId=D73F5F2C54C942A895B3930808944593&assignmentId=0198ed31-b706-77d4-becc-53a7d3011d29&projectId=0198ed26-a6a7-793d-982a-8940a71ab262","D73F5F2C54C942A895B3930808944593-2025-08-27-21-29-54","","null","","[]","null","",""
"","","","","","instructions","21","143420","0.0-7.0","D73F5F2C54C942A895B3930808944593","D73F5F2C54C942A895B3930808944593","0198ed31-b706-77d4-becc-53a7d3011d29","0198ed26-a6a7-793d-982a-8940a71ab262","{""num_scrambled_semantic"":""8"",""num_scrambled_causal"":""4"",""num_scrambled_schematic"":""4"",""participantId"":""D73F5F2C54C942A895B3930808944593"",""assignmentId"":""0198ed31-b706-77d4-becc-53a7d3011d29"",""projectId"":""0198ed26-a6a7-793d-982a-8940a71ab262""}","https://test12345.live/?num_scrambled_semantic=8&num_scrambled_causal=4&num_scrambled_schematic=4&participantId=D73F5F2C54C942A895B3930808944593&assignmentId=0198ed31-b706-77d4-becc-53a7d3011d29&projectId=0198ed26-a6a7-793d-982a-8940a71ab262","D73F5F2C54C942A895B3930808944593-2025-08-27-21-29-54","[{""page_index"":0,""viewing_time"":17853}]","17853","","","","",""
"","","","","","html-audio-response","22","164971","0.0-8.0","D73F5F2C54C942A895B3930808944593","D73F5F2C54C942A895B3930808944593","0198ed31-b706-77d4-becc-53a7d3011d29","0198ed26-a6a7-793d-982a-8940a71ab262","{""num_scrambled_semantic"":""8"",""num_scrambled_causal"":""4"",""num_scrambled_schematic"":""4"",""participantId"":""D73F5F2C54C942A895B3930808944593"",""assignmentId"":""0198ed31-b706-77d4-becc-53a7d3011d29"",""projectId"":""0198ed26-a6a7-793d-982a-8940a71ab262""}","https://test12345.live/?num_scrambled_semantic=8&num_scrambled_causal=4&num_scrambled_schematic=4&participantId=D73F5F2C54C942A895B3930808944593&assignmentId=0198ed31-b706-77d4-becc-53a7d3011d29&projectId=0198ed26-a6a7-793d-982a-8940a71ab262","D73F5F2C54C942A895B3930808944593-2025-08-27-21-29-54","","5835","","[""<span style=\""color: red; font-size: 24px\""> NOW RECORDING</span><p>Please say out loud all the images you saw, in the order of the story they create. Try to recall the sequence of events as they appeared in the story, not necessarily the order they were presented on the screen.</p>""]","","9",""
"","","","","","instructions","23","166562","0.0-9.0","D73F5F2C54C942A895B3930808944593","D73F5F2C54C942A895B3930808944593","0198ed31-b706-77d4-becc-53a7d3011d29","0198ed26-a6a7-793d-982a-8940a71ab262","{""num_scrambled_semantic"":""8"",""num_scrambled_causal"":""4"",""num_scrambled_schematic"":""4"",""participantId"":""D73F5F2C54C942A895B3930808944593"",""assignmentId"":""0198ed31-b706-77d4-becc-53a7d3011d29"",""projectId"":""0198ed26-a6a7-793d-982a-8940a71ab262""}","https://test12345.live/?num_scrambled_semantic=8&num_scrambled_causal=4&num_scrambled_schematic=4&participantId=D73F5F2C54C942A895B3930808944593&assignmentId=0198ed31-b706-77d4-becc-53a7d3011d29&projectId=0198ed26-a6a7-793d-982a-8940a71ab262","D73F5F2C54C942A895B3930808944593-2025-08-27-21-29-54","[{""page_index"":0,""viewing_time"":1589}]","1589","","","","",""
"","","","","","image-button-response","24","172571","0.0-10.0-0.0","D73F5F2C54C942A895B3930808944593","D73F5F2C54C942A895B3930808944593","0198ed31-b706-77d4-becc-53a7d3011d29","0198ed26-a6a7-793d-982a-8940a71ab262","{""num_scrambled_semantic"":""8"",""num_scrambled_causal"":""4"",""num_scrambled_schematic"":""4"",""participantId"":""D73F5F2C54C942A895B3930808944593"",""assignmentId"":""0198ed31-b706-77d4-becc-53a7d3011d29"",""projectId"":""0198ed26-a6a7-793d-982a-8940a71ab262""}","https://test12345.live/?num_scrambled_semantic=8&num_scrambled_causal=4&num_scrambled_schematic=4&participantId=D73F5F2C54C942A895B3930808944593&assignmentId=0198ed31-b706-77d4-becc-53a7d3011d29&projectId=0198ed26-a6a7-793d-982a-8940a71ab262","D73F5F2C54C942A895B3930808944593-2025-08-27-21-29-54","","null","","images/semantic_sequence/physical_activity_semantic/physical_activity_semantic_0.png","null","",""
"","","","","","image-button-response","25","177087","0.0-10.0-1.0-0.0","D73F5F2C54C942A895B3930808944593","D73F5F2C54C942A895B3930808944593","0198ed31-b706-77d4-becc-53a7d3011d29","0198ed26-a6a7-793d-982a-8940a71ab262","{""num_scrambled_semantic"":""8"",""num_scrambled_causal"":""4"",""num_scrambled_schematic"":""4"",""participantId"":""D73F5F2C54C942A895B3930808944593"",""assignmentId"":""0198ed31-b706-77d4-becc-53a7d3011d29"",""projectId"":""0198ed26-a6a7-793d-982a-8940a71ab262""}","https://test12345.live/?num_scrambled_semantic=8&num_scrambled_causal=4&num_scrambled_schematic=4&participantId=D73F5F2C54C942A895B3930808944593&assignmentId=0198ed31-b706-77d4-becc-53a7d3011d29&projectId=0198ed26-a6a7-793d-982a-8940a71ab262","D73F5F2C54C942A895B3930808944593-2025-08-27-21-29-54","","null","","images/semantic_sequence/physical_activity_semantic/physical_activity_semantic_1.png","null","",""
"","","","","","image-button-response","26","178085","0.0-10.0-1.0-1.0","D73F5F2C54C942A895B3930808944593","D73F5F2C54C942A895B3930808944593","0198ed31-b706-77d4-becc-53a7d3011d29","0198ed26-a6a7-793d-982a-8940a71ab262","{""num_scrambled_semantic"":""8"",""num_scrambled_causal"":""4"",""num_scrambled_schematic"":""4"",""participantId"":""D73F5F2C54C942A895B3930808944593"",""assignmentId"":""0198ed31-b706-77d4-becc-53a7d3011d29"",""projectId"":""0198ed26-a6a7-793d-982a-8940a71ab262""}","https://test12345.live/?num_scrambled_semantic=8&num_scrambled_causal=4&num_scrambled_schematic=4&participantId=D73F5F2C54C942A895B3930808944593&assignmentId=0198ed31-b706-77d4-becc-53a7d3011d29&projectId=0198ed26-a6a7-793d-982a-8940a71ab262","D73F5F2C54C942A895B3930808944593-2025-08-27-21-29-54","","998","","images/semantic_sequence/physical_activity_semantic/physical_activity_semantic_1.png","0","",""
"","","","","","image-button-response","27","179887","0.0-10.0-1.0-2.0","D73F5F2C54C942A895B3930808944593","D73F5F2C54C942A895B3930808944593","0198ed31-b706-77d4-becc-53a7d3011d29","0198ed26-a6a7-793d-982a-8940a71ab262","{""num_scrambled_semantic"":""8"",""num_scrambled_causal"":""4"",""num_scrambled_schematic"":""4"",""participantId"":""D73F5F2C54C942A895B3930808944593"",""assignmentId"":""0198ed31-b706-77d4-becc-53a7d3011d29"",""projectId"":""0198ed26-a6a7-793d-982a-8940a71ab262""}","https://test12345.live/?num_scrambled_semantic=8&num_scrambled_causal=4&num_scrambled_schematic=4&participantId=D73F5F2C54C942A895B3930808944593&assignmentId=0198ed31-b706-77d4-becc-53a7d3011d29&projectId=0198ed26-a6a7-793d-982a-8940a71ab262","D73F5F2C54C942A895B3930808944593-2025-08-27-21-29-54","","null","","[]","null","",""
"","","","","","image-button-response","28","184389","0.0-10.0-1.0-0.1","D73F5F2C54C942A895B3930808944593","D73F5F2C54C942A895B3930808944593","0198ed31-b706-77d4-becc-53a7d3011d29","0198ed26-a6a7-793d-982a-8940a71ab262","{""num_scrambled_semantic"":""8"",""num_scrambled_causal"":""4"",""num_scrambled_schematic"":""4"",""participantId"":""D73F5F2C54C942A895B3930808944593"",""assignmentId"":""0198ed31-b706-77d4-becc-53a7d3011d29"",""projectId"":""0198ed26-a6a7-793d-982a-8940a71ab262""}","https://test12345.live/?num_scrambled_semantic=8&num_scrambled_causal=4&num_scrambled_schematic=4&participantId=D73F5F2C54C942A895B3930808944593&assignmentId=0198ed31-b706-77d4-becc-53a7d3011d29&projectId=0198ed26-a6a7-793d-982a-8940a71ab262","D73F5F2C54C942A895B3930808944593-2025-08-27-21-29-54","","null","","images/semantic_sequence/physical_activity_semantic/physical_activity_semantic_2.png","null","",""
"","","","","","image-button-response","29","185361","0.0-10.0-1.0-1.1","D73F5F2C54C942A895B3930808944593","D73F5F2C54C942A895B3930808944593","0198ed31-b706-77d4-becc-53a7d3011d29","0198ed26-a6a7-793d-982a-8940a71ab262","{""num_scrambled_semantic"":""8"",""num_scrambled_causal"":""4"",""num_scrambled_schematic"":""4"",""participantId"":""D73F5F2C54C942A895B3930808944593"",""assignmentId"":""0198ed31-b706-77d4-becc-53a7d3011d29"",""projectId"":""0198ed26-a6a7-793d-982a-8940a71ab262""}","https://test12345.live/?num_scrambled_semantic=8&num_scrambled_causal=4&num_scrambled_schematic=4&participantId=D73F5F2C54C942A895B3930808944593&assignmentId=0198ed31-b706-77d4-becc-53a7d3011d29&projectId=0198ed26-a6a7-793d-982a-8940a71ab262","D73F5F2C54C942A895B3930808944593-2025-08-27-21-29-54","","971","","images/semantic_sequence/physical_activity_semantic/physical_activity_semantic_2.png","0","",""
"","","","","","image-button-response","30","187176","0.0-10.0-1.0-2.1","D73F5F2C54C942A895B3930808944593","D73F5F2C54C942A895B3930808944593","0198ed31-b706-77d4-becc-53a7d3011d29","0198ed26-a6a7-793d-982a-8940a71ab262","{""num_scrambled_semantic"":""8"",""num_scrambled_causal"":""4"",""num_scrambled_schematic"":""4"",""participantId"":""D73F5F2C54C942A895B3930808944593"",""assignmentId"":""0198ed31-b706-77d4-becc-53a7d3011d29"",""projectId"":""0198ed26-a6a7-793d-982a-8940a71ab262""}","https://test12345.live/?num_scrambled_semantic=8&num_scrambled_causal=4&num_scrambled_schematic=4&participantId=D73F5F2C54C942A895B3930808944593&assignmentId=0198ed31-b706-77d4-becc-53a7d3011d29&projectId=0198ed26-a6a7-793d-982a-8940a71ab262","D73F5F2C54C942A895B3930808944593-2025-08-27-21-29-54","","null","","[]","null","",""
"","","","","","image-button-response","31","191682","0.0-10.0-1.0-0.2","D73F5F2C54C942A895B3930808944593","D73F5F2C54C942A895B3930808944593","0198ed31-b706-77d4-becc-53a7d3011d29","0198ed26-a6a7-793d-982a-8940a71ab262","{""num_scrambled_semantic"":""8"",""num_scrambled_causal"":""4"",""num_scrambled_schematic"":""4"",""participantId"":""D73F5F2C54C942A895B3930808944593"",""assignmentId"":""0198ed31-b706-77d4-becc-53a7d3011d29"",""projectId"":""0198ed26-a6a7-793d-982a-8940a71ab262""}","https://test12345.live/?num_scrambled_semantic=8&num_scrambled_causal=4&num_scrambled_schematic=4&participantId=D73F5F2C54C942A895B3930808944593&assignmentId=0198ed31-b706-77d4-becc-53a7d3011d29&projectId=0198ed26-a6a7-793d-982a-8940a71ab262","D73F5F2C54C942A895B3930808944593-2025-08-27-21-29-54","","null","","images/semantic_sequence/physical_activity_semantic/physical_activity_semantic_3.png","null","",""
"","","","","","image-button-response","32","192590","0.0-10.0-1.0-1.2","D73F5F2C54C942A895B3930808944593","D73F5F2C54C942A895B3930808944593","0198ed31-b706-77d4-becc-53a7d3011d29","0198ed26-a6a7-793d-982a-8940a71ab262","{""num_scrambled_semantic"":""8"",""num_scrambled_causal"":""4"",""num_scrambled_schematic"":""4"",""participantId"":""D73F5F2C54C942A895B3930808944593"",""assignmentId"":""0198ed31-b706-77d4-becc-53a7d3011d29"",""projectId"":""0198ed26-a6a7-793d-982a-8940a71ab262""}","https://test12345.live/?num_scrambled_semantic=8&num_scrambled_causal=4&num_scrambled_schematic=4&participantId=D73F5F2C54C942A895B3930808944593&assignmentId=0198ed31-b706-77d4-becc-53a7d3011d29&projectId=0198ed26-a6a7-793d-982a-8940a71ab262","D73F5F2C54C942A895B3930808944593-2025-08-27-21-29-54","","907","","images/semantic_sequence/physical_activity_semantic/physical_activity_semantic_3.png","0","",""
"","","","","","image-button-response","33","194405","0.0-10.0-1.0-2.2","D73F5F2C54C942A895B3930808944593","D73F5F2C54C942A895B3930808944593","0198ed31-b706-77d4-becc-53a7d3011d29","0198ed26-a6a7-793d-982a-8940a71ab262","{""num_scrambled_semantic"":""8"",""num_scrambled_causal"":""4"",""num_scrambled_schematic"":""4"",""participantId"":""D73F5F2C54C942A895B3930808944593"",""assignmentId"":""0198ed31-b706-77d4-becc-53a7d3011d29"",""projectId"":""0198ed26-a6a7-793d-982a-8940a71ab262""}","https://test12345.live/?num_scrambled_semantic=8&num_scrambled_causal=4&num_scrambled_schematic=4&participantId=D73F5F2C54C942A895B3930808944593&assignmentId=0198ed31-b706-77d4-becc-53a7d3011d29&projectId=0198ed26-a6a7-793d-982a-8940a71ab262","D73F5F2C54C942A895B3930808944593-2025-08-27-21-29-54","","null","","[]","null","",""
"","","","","","image-button-response","34","198912","0.0-10.0-1.0-0.3","D73F5F2C54C942A895B3930808944593","D73F5F2C54C942A895B3930808944593","0198ed31-b706-77d4-becc-53a7d3011d29","0198ed26-a6a7-793d-982a-8940a71ab262","{""num_scrambled_semantic"":""8"",""num_scrambled_causal"":""4"",""num_scrambled_schematic"":""4"",""participantId"":""D73F5F2C54C942A895B3930808944593"",""assignmentId"":""0198ed31-b706-77d4-becc-53a7d3011d29"",""projectId"":""0198ed26-a6a7-793d-982a-8940a71ab262""}","https://test12345.live/?num_scrambled_semantic=8&num_scrambled_causal=4&num_scrambled_schematic=4&participantId=D73F5F2C54C942A895B3930808944593&assignmentId=0198ed31-b706-77d4-becc-53a7d3011d29&projectId=0198ed26-a6a7-793d-982a-8940a71ab262","D73F5F2C54C942A895B3930808944593-2025-08-27-21-29-54","","null","","images/semantic_sequence/physical_activity_semantic/physical_activity_semantic_4.png","null","",""
"","","","","","image-button-response","35","199795","0.0-10.0-1.0-1.3","D73F5F2C54C942A895B3930808944593","D73F5F2C54C942A895B3930808944593","0198ed31-b706-77d4-becc-53a7d3011d29","0198ed26-a6a7-793d-982a-8940a71ab262","{""num_scrambled_semantic"":""8"",""num_scrambled_causal"":""4"",""num_scrambled_schematic"":""4"",""participantId"":""D73F5F2C54C942A895B3930808944593"",""assignmentId"":""0198ed31-b706-77d4-becc-53a7d3011d29"",""projectId"":""0198ed26-a6a7-793d-982a-8940a71ab262""}","https://test12345.live/?num_scrambled_semantic=8&num_scrambled_causal=4&num_scrambled_schematic=4&participantId=D73F5F2C54C942A895B3930808944593&assignmentId=0198ed31-b706-77d4-becc-53a7d3011d29&projectId=0198ed26-a6a7-793d-982a-8940a71ab262","D73F5F2C54C942A895B3930808944593-2025-08-27-21-29-54","","883","","images/semantic_sequence/physical_activity_semantic/physical_activity_semantic_4.png","0","",""
"","","","","","image-button-response","36","201607","0.0-10.0-1.0-2.3","D73F5F2C54C942A895B3930808944593","D73F5F2C54C942A895B3930808944593","0198ed31-b706-77d4-becc-53a7d3011d29","0198ed26-a6a7-793d-982a-8940a71ab262","{""num_scrambled_semantic"":""8"",""num_scrambled_causal"":""4"",""num_scrambled_schematic"":""4"",""participantId"":""D73F5F2C54C942A895B3930808944593"",""assignmentId"":""0198ed31-b706-77d4-becc-53a7d3011d29"",""projectId"":""0198ed26-a6a7-793d-982a-8940a71ab262""}","https://test12345.live/?num_scrambled_semantic=8&num_scrambled_causal=4&num_scrambled_schematic=4&participantId=D73F5F2C54C942A895B3930808944593&assignmentId=0198ed31-b706-77d4-becc-53a7d3011d29&projectId=0198ed26-a6a7-793d-982a-8940a71ab262","D73F5F2C54C942A895B3930808944593-2025-08-27-21-29-54","","null","","[]","null","",""
"","","","","","image-button-response","37","206121","0.0-10.0-1.0-0.4","D73F5F2C54C942A895B3930808944593","D73F5F2C54C942A895B3930808944593","0198ed31-b706-77d4-becc-53a7d3011d29","0198ed26-a6a7-793d-982a-8940a71ab262","{""num_scrambled_semantic"":""8"",""num_scrambled_causal"":""4"",""num_scrambled_schematic"":""4"",""participantId"":""D73F5F2C54C942A895B3930808944593"",""assignmentId"":""0198ed31-b706-77d4-becc-53a7d3011d29"",""projectId"":""0198ed26-a6a7-793d-982a-8940a71ab262""}","https://test12345.live/?num_scrambled_semantic=8&num_scrambled_causal=4&num_scrambled_schematic=4&participantId=D73F5F2C54C942A895B3930808944593&assignmentId=0198ed31-b706-77d4-becc-53a7d3011d29&projectId=0198ed26-a6a7-793d-982a-8940a71ab262","D73F5F2C54C942A895B3930808944593-2025-08-27-21-29-54","","null","","images/semantic_sequence/physical_activity_semantic/physical_activity_semantic_5.png","null","",""
"","","","","","image-button-response","38","207255","0.0-10.0-1.0-1.4","D73F5F2C54C942A895B3930808944593","D73F5F2C54C942A895B3930808944593","0198ed31-b706-77d4-becc-53a7d3011d29","0198ed26-a6a7-793d-982a-8940a71ab262","{""num_scrambled_semantic"":""8"",""num_scrambled_causal"":""4"",""num_scrambled_schematic"":""4"",""participantId"":""D73F5F2C54C942A895B3930808944593"",""assignmentId"":""0198ed31-b706-77d4-becc-53a7d3011d29"",""projectId"":""0198ed26-a6a7-793d-982a-8940a71ab262""}","https://test12345.live/?num_scrambled_semantic=8&num_scrambled_causal=4&num_scrambled_schematic=4&participantId=D73F5F2C54C942A895B3930808944593&assignmentId=0198ed31-b706-77d4-becc-53a7d3011d29&projectId=0198ed26-a6a7-793d-982a-8940a71ab262","D73F5F2C54C942A895B3930808944593-2025-08-27-21-29-54","","1133","","images/semantic_sequence/physical_activity_semantic/physical_activity_semantic_5.png","0","",""
"","","","","","image-button-response","39","209062","0.0-10.0-1.0-2.4","D73F5F2C54C942A895B3930808944593","D73F5F2C54C942A895B3930808944593","0198ed31-b706-77d4-becc-53a7d3011d29","0198ed26-a6a7-793d-982a-8940a71ab262","{""num_scrambled_semantic"":""8"",""num_scrambled_causal"":""4"",""num_scrambled_schematic"":""4"",""participantId"":""D73F5F2C54C942A895B3930808944593"",""assignmentId"":""0198ed31-b706-77d4-becc-53a7d3011d29"",""projectId"":""0198ed26-a6a7-793d-982a-8940a71ab262""}","https://test12345.live/?num_scrambled_semantic=8&num_scrambled_causal=4&num_scrambled_schematic=4&participantId=D73F5F2C54C942A895B3930808944593&assignmentId=0198ed31-b706-77d4-becc-53a7d3011d29&projectId=0198ed26-a6a7-793d-982a-8940a71ab262","D73F5F2C54C942A895B3930808944593-2025-08-27-21-29-54","","null","","[]","null","",""
"","","","","","image-button-response","40","213566","0.0-10.0-1.0-0.5","D73F5F2C54C942A895B3930808944593","D73F5F2C54C942A895B3930808944593","0198ed31-b706-77d4-becc-53a7d3011d29","0198ed26-a6a7-793d-982a-8940a71ab262","{""num_scrambled_semantic"":""8"",""num_scrambled_causal"":""4"",""num_scrambled_schematic"":""4"",""participantId"":""D73F5F2C54C942A895B3930808944593"",""assignmentId"":""0198ed31-b706-77d4-becc-53a7d3011d29"",""projectId"":""0198ed26-a6a7-793d-982a-8940a71ab262""}","https://test12345.live/?num_scrambled_semantic=8&num_scrambled_causal=4&num_scrambled_schematic=4&participantId=D73F5F2C54C942A895B3930808944593&assignmentId=0198ed31-b706-77d4-becc-53a7d3011d29&projectId=0198ed26-a6a7-793d-982a-8940a71ab262","D73F5F2C54C942A895B3930808944593-2025-08-27-21-29-54","","null","","images/semantic_sequence/physical_activity_semantic/physical_activity_semantic_6.png","null","",""
"","","","","","image-button-response","41","214396","0.0-10.0-1.0-1.5","D73F5F2C54C942A895B3930808944593","D73F5F2C54C942A895B3930808944593","0198ed31-b706-77d4-becc-53a7d3011d29","0198ed26-a6a7-793d-982a-8940a71ab262","{""num_scrambled_semantic"":""8"",""num_scrambled_causal"":""4"",""num_scrambled_schematic"":""4"",""participantId"":""D73F5F2C54C942A895B3930808944593"",""assignmentId"":""0198ed31-b706-77d4-becc-53a7d3011d29"",""projectId"":""0198ed26-a6a7-793d-982a-8940a71ab262""}","https://test12345.live/?num_scrambled_semantic=8&num_scrambled_causal=4&num_scrambled_schematic=4&participantId=D73F5F2C54C942A895B3930808944593&assignmentId=0198ed31-b706-77d4-becc-53a7d3011d29&projectId=0198ed26-a6a7-793d-982a-8940a71ab262","D73F5F2C54C942A895B3930808944593-2025-08-27-21-29-54","","829","","images/semantic_sequence/physical_activity_semantic/physical_activity_semantic_6.png","0","",""
"","","","","","image-button-response","42","216197","0.0-10.0-1.0-2.5","D73F5F2C54C942A895B3930808944593","D73F5F2C54C942A895B3930808944593","0198ed31-b706-77d4-becc-53a7d3011d29","0198ed26-a6a7-793d-982a-8940a71ab262","{""num_scrambled_semantic"":""8"",""num_scrambled_causal"":""4"",""num_scrambled_schematic"":""4"",""participantId"":""D73F5F2C54C942A895B3930808944593"",""assignmentId"":""0198ed31-b706-77d4-becc-53a7d3011d29"",""projectId"":""0198ed26-a6a7-793d-982a-8940a71ab262""}","https://test12345.live/?num_scrambled_semantic=8&num_scrambled_causal=4&num_scrambled_schematic=4&participantId=D73F5F2C54C942A895B3930808944593&assignmentId=0198ed31-b706-77d4-becc-53a7d3011d29&projectId=0198ed26-a6a7-793d-982a-8940a71ab262","D73F5F2C54C942A895B3930808944593-2025-08-27-21-29-54","","null","","[]","null","",""
"","","","","","image-button-response","43","220711","0.0-10.0-1.0-0.6","D73F5F2C54C942A895B3930808944593","D73F5F2C54C942A895B3930808944593","0198ed31-b706-77d4-becc-53a7d3011d29","0198ed26-a6a7-793d-982a-8940a71ab262","{""num_scrambled_semantic"":""8"",""num_scrambled_causal"":""4"",""num_scrambled_schematic"":""4"",""participantId"":""D73F5F2C54C942A895B3930808944593"",""assignmentId"":""0198ed31-b706-77d4-becc-53a7d3011d29"",""projectId"":""0198ed26-a6a7-793d-982a-8940a71ab262""}","https://test12345.live/?num_scrambled_semantic=8&num_scrambled_causal=4&num_scrambled_schematic=4&participantId=D73F5F2C54C942A895B3930808944593&assignmentId=0198ed31-b706-77d4-becc-53a7d3011d29&projectId=0198ed26-a6a7-793d-982a-8940a71ab262","D73F5F2C54C942A895B3930808944593-2025-08-27-21-29-54","","null","","images/semantic_sequence/physical_activity_semantic/physical_activity_semantic_7.png","null","",""
"","","","","","image-button-response","44","221657","0.0-10.0-1.0-1.6","D73F5F2C54C942A895B3930808944593","D73F5F2C54C942A895B3930808944593","0198ed31-b706-77d4-becc-53a7d3011d29","0198ed26-a6a7-793d-982a-8940a71ab262","{""num_scrambled_semantic"":""8"",""num_scrambled_causal"":""4"",""num_scrambled_schematic"":""4"",""participantId"":""D73F5F2C54C942A895B3930808944593"",""assignmentId"":""0198ed31-b706-77d4-becc-53a7d3011d29"",""projectId"":""0198ed26-a6a7-793d-982a-8940a71ab262""}","https://test12345.live/?num_scrambled_semantic=8&num_scrambled_causal=4&num_scrambled_schematic=4&participantId=D73F5F2C54C942A895B3930808944593&assignmentId=0198ed31-b706-77d4-becc-53a7d3011d29&projectId=0198ed26-a6a7-793d-982a-8940a71ab262","D73F5F2C54C942A895B3930808944593-2025-08-27-21-29-54","","946","","images/semantic_sequence/physical_activity_semantic/physical_activity_semantic_7.png","0","",""
"","","","","","image-button-response","45","223470","0.0-10.0-1.0-2.6","D73F5F2C54C942A895B3930808944593","D73F5F2C54C942A895B3930808944593","0198ed31-b706-77d4-becc-53a7d3011d29","0198ed26-a6a7-793d-982a-8940a71ab262","{""num_scrambled_semantic"":""8"",""num_scrambled_causal"":""4"",""num_scrambled_schematic"":""4"",""participantId"":""D73F5F2C54C942A895B3930808944593"",""assignmentId"":""0198ed31-b706-77d4-becc-53a7d3011d29"",""projectId"":""0198ed26-a6a7-793d-982a-8940a71ab262""}","https://test12345.live/?num_scrambled_semantic=8&num_scrambled_causal=4&num_scrambled_schematic=4&participantId=D73F5F2C54C942A895B3930808944593&assignmentId=0198ed31-b706-77d4-becc-53a7d3011d29&projectId=0198ed26-a6a7-793d-982a-8940a71ab262","D73F5F2C54C942A895B3930808944593-2025-08-27-21-29-54","","null","","[]","null","",""
"","","","","","image-button-response","46","227982","0.0-10.0-1.0-0.7","D73F5F2C54C942A895B3930808944593","D73F5F2C54C942A895B3930808944593","0198ed31-b706-77d4-becc-53a7d3011d29","0198ed26-a6a7-793d-982a-8940a71ab262","{""num_scrambled_semantic"":""8"",""num_scrambled_causal"":""4"",""num_scrambled_schematic"":""4"",""participantId"":""D73F5F2C54C942A895B3930808944593"",""assignmentId"":""0198ed31-b706-77d4-becc-53a7d3011d29"",""projectId"":""0198ed26-a6a7-793d-982a-8940a71ab262""}","https://test12345.live/?num_scrambled_semantic=8&num_scrambled_causal=4&num_scrambled_schematic=4&participantId=D73F5F2C54C942A895B3930808944593&assignmentId=0198ed31-b706-77d4-becc-53a7d3011d29&projectId=0198ed26-a6a7-793d-982a-8940a71ab262","D73F5F2C54C942A895B3930808944593-2025-08-27-21-29-54","","null","","images/semantic_sequence/physical_activity_semantic/physical_activity_semantic_8.png","null","",""
"","","","","","image-button-response","47","228846","0.0-10.0-1.0-1.7","D73F5F2C54C942A895B3930808944593","D73F5F2C54C942A895B3930808944593","0198ed31-b706-77d4-becc-53a7d3011d29","0198ed26-a6a7-793d-982a-8940a71ab262","{""num_scrambled_semantic"":""8"",""num_scrambled_causal"":""4"",""num_scrambled_schematic"":""4"",""participantId"":""D73F5F2C54C942A895B3930808944593"",""assignmentId"":""0198ed31-b706-77d4-becc-53a7d3011d29"",""projectId"":""0198ed26-a6a7-793d-982a-8940a71ab262""}","https://test12345.live/?num_scrambled_semantic=8&num_scrambled_causal=4&num_scrambled_schematic=4&participantId=D73F5F2C54C942A895B3930808944593&assignmentId=0198ed31-b706-77d4-becc-53a7d3011d29&projectId=0198ed26-a6a7-793d-982a-8940a71ab262","D73F5F2C54C942A895B3930808944593-2025-08-27-21-29-54","","864","","images/semantic_sequence/physical_activity_semantic/physical_activity_semantic_8.png","0","",""
"","","","","","image-button-response","48","230660","0.0-10.0-1.0-2.7","D73F5F2C54C942A895B3930808944593","D73F5F2C54C942A895B3930808944593","0198ed31-b706-77d4-becc-53a7d3011d29","0198ed26-a6a7-793d-982a-8940a71ab262","{""num_scrambled_semantic"":""8"",""num_scrambled_causal"":""4"",""num_scrambled_schematic"":""4"",""participantId"":""D73F5F2C54C942A895B3930808944593"",""assignmentId"":""0198ed31-b706-77d4-becc-53a7d3011d29"",""projectId"":""0198ed26-a6a7-793d-982a-8940a71ab262""}","https://test12345.live/?num_scrambled_semantic=8&num_scrambled_causal=4&num_scrambled_schematic=4&participantId=D73F5F2C54C942A895B3930808944593&assignmentId=0198ed31-b706-77d4-becc-53a7d3011d29&projectId=0198ed26-a6a7-793d-982a-8940a71ab262","D73F5F2C54C942A895B3930808944593-2025-08-27-21-29-54","","null","","[]","null","",""
"","","","","","image-button-response","49","235173","0.0-10.0-1.0-0.8","D73F5F2C54C942A895B3930808944593","D73F5F2C54C942A895B3930808944593","0198ed31-b706-77d4-becc-53a7d3011d29","0198ed26-a6a7-793d-982a-8940a71ab262","{""num_scrambled_semantic"":""8"",""num_scrambled_causal"":""4"",""num_scrambled_schematic"":""4"",""participantId"":""D73F5F2C54C942A895B3930808944593"",""assignmentId"":""0198ed31-b706-77d4-becc-53a7d3011d29"",""projectId"":""0198ed26-a6a7-793d-982a-8940a71ab262""}","https://test12345.live/?num_scrambled_semantic=8&num_scrambled_causal=4&num_scrambled_schematic=4&participantId=D73F5F2C54C942A895B3930808944593&assignmentId=0198ed31-b706-77d4-becc-53a7d3011d29&projectId=0198ed26-a6a7-793d-982a-8940a71ab262","D73F5F2C54C942A895B3930808944593-2025-08-27-21-29-54","","null","","images/semantic_sequence/physical_activity_semantic/physical_activity_semantic_9.png","null","",""
"","","","","","image-button-response","50","236154","0.0-10.0-1.0-1.8","D73F5F2C54C942A895B3930808944593","D73F5F2C54C942A895B3930808944593","0198ed31-b706-77d4-becc-53a7d3011d29","0198ed26-a6a7-793d-982a-8940a71ab262","{""num_scrambled_semantic"":""8"",""num_scrambled_causal"":""4"",""num_scrambled_schematic"":""4"",""participantId"":""D73F5F2C54C942A895B3930808944593"",""assignmentId"":""0198ed31-b706-77d4-becc-53a7d3011d29"",""projectId"":""0198ed26-a6a7-793d-982a-8940a71ab262""}","https://test12345.live/?num_scrambled_semantic=8&num_scrambled_causal=4&num_scrambled_schematic=4&participantId=D73F5F2C54C942A895B3930808944593&assignmentId=0198ed31-b706-77d4-becc-53a7d3011d29&projectId=0198ed26-a6a7-793d-982a-8940a71ab262","D73F5F2C54C942A895B3930808944593-2025-08-27-21-29-54","","980","","images/semantic_sequence/physical_activity_semantic/physical_activity_semantic_9.png","0","",""
"","","","","","image-button-response","51","237963","0.0-10.0-1.0-2.8","D73F5F2C54C942A895B3930808944593","D73F5F2C54C942A895B3930808944593","0198ed31-b706-77d4-becc-53a7d3011d29","0198ed26-a6a7-793d-982a-8940a71ab262","{""num_scrambled_semantic"":""8"",""num_scrambled_causal"":""4"",""num_scrambled_schematic"":""4"",""participantId"":""D73F5F2C54C942A895B3930808944593"",""assignmentId"":""0198ed31-b706-77d4-becc-53a7d3011d29"",""projectId"":""0198ed26-a6a7-793d-982a-8940a71ab262""}","https://test12345.live/?num_scrambled_semantic=8&num_scrambled_causal=4&num_scrambled_schematic=4&participantId=D73F5F2C54C942A895B3930808944593&assignmentId=0198ed31-b706-77d4-becc-53a7d3011d29&projectId=0198ed26-a6a7-793d-982a-8940a71ab262","D73F5F2C54C942A895B3930808944593-2025-08-27-21-29-54","","null","","[]","null","",""
"","","","","","image-button-response","52","242473","0.0-10.0-1.0-0.9","D73F5F2C54C942A895B3930808944593","D73F5F2C54C942A895B3930808944593","0198ed31-b706-77d4-becc-53a7d3011d29","0198ed26-a6a7-793d-982a-8940a71ab262","{""num_scrambled_semantic"":""8"",""num_scrambled_causal"":""4"",""num_scrambled_schematic"":""4"",""participantId"":""D73F5F2C54C942A895B3930808944593"",""assignmentId"":""0198ed31-b706-77d4-becc-53a7d3011d29"",""projectId"":""0198ed26-a6a7-793d-982a-8940a71ab262""}","https://test12345.live/?num_scrambled_semantic=8&num_scrambled_causal=4&num_scrambled_schematic=4&participantId=D73F5F2C54C942A895B3930808944593&assignmentId=0198ed31-b706-77d4-becc-53a7d3011d29&projectId=0198ed26-a6a7-793d-982a-8940a71ab262","D73F5F2C54C942A895B3930808944593-2025-08-27-21-29-54","","null","","images/semantic_sequence/physical_activity_semantic/physical_activity_semantic_ten.png","null","",""
"","","","","","image-button-response","53","243311","0.0-10.0-1.0-1.9","D73F5F2C54C942A895B3930808944593","D73F5F2C54C942A895B3930808944593","0198ed31-b706-77d4-becc-53a7d3011d29","0198ed26-a6a7-793d-982a-8940a71ab262","{""num_scrambled_semantic"":""8"",""num_scrambled_causal"":""4"",""num_scrambled_schematic"":""4"",""participantId"":""D73F5F2C54C942A895B3930808944593"",""assignmentId"":""0198ed31-b706-77d4-becc-53a7d3011d29"",""projectId"":""0198ed26-a6a7-793d-982a-8940a71ab262""}","https://test12345.live/?num_scrambled_semantic=8&num_scrambled_causal=4&num_scrambled_schematic=4&participantId=D73F5F2C54C942A895B3930808944593&assignmentId=0198ed31-b706-77d4-becc-53a7d3011d29&projectId=0198ed26-a6a7-793d-982a-8940a71ab262","D73F5F2C54C942A895B3930808944593-2025-08-27-21-29-54","","837","","images/semantic_sequence/physical_activity_semantic/physical_activity_semantic_ten.png","0","",""
"","","","","","image-button-response","54","245126","0.0-10.0-1.0-2.9","D73F5F2C54C942A895B3930808944593","D73F5F2C54C942A895B3930808944593","0198ed31-b706-77d4-becc-53a7d3011d29","0198ed26-a6a7-793d-982a-8940a71ab262","{""num_scrambled_semantic"":""8"",""num_scrambled_causal"":""4"",""num_scrambled_schematic"":""4"",""participantId"":""D73F5F2C54C942A895B3930808944593"",""assignmentId"":""0198ed31-b706-77d4-becc-53a7d3011d29"",""projectId"":""0198ed26-a6a7-793d-982a-8940a71ab262""}","https://test12345.live/?num_scrambled_semantic=8&num_scrambled_causal=4&num_scrambled_schematic=4&participantId=D73F5F2C54C942A895B3930808944593&assignmentId=0198ed31-b706-77d4-becc-53a7d3011d29&projectId=0198ed26-a6a7-793d-982a-8940a71ab262","D73F5F2C54C942A895B3930808944593-2025-08-27-21-29-54","","null","","[]","null","",""
"","","","","","html-audio-response","55","297518","0.0-11.0","D73F5F2C54C942A895B3930808944593","D73F5F2C54C942A895B3930808944593","0198ed31-b706-77d4-becc-53a7d3011d29","0198ed26-a6a7-793d-982a-8940a71ab262","{""num_scrambled_semantic"":""8"",""num_scrambled_causal"":""4"",""num_scrambled_schematic"":""4"",""participantId"":""D73F5F2C54C942A895B3930808944593"",""assignmentId"":""0198ed31-b706-77d4-becc-53a7d3011d29"",""projectId"":""0198ed26-a6a7-793d-982a-8940a71ab262""}","https://test12345.live/?num_scrambled_semantic=8&num_scrambled_causal=4&num_scrambled_schematic=4&participantId=D73F5F2C54C942A895B3930808944593&assignmentId=0198ed31-b706-77d4-becc-53a7d3011d29&projectId=0198ed26-a6a7-793d-982a-8940a71ab262","D73F5F2C54C942A895B3930808944593-2025-08-27-21-29-54","","19597","","[""<span style=\""color: red; font-size: 24px\""> NOW RECORDING</span><p>Please say out loud all the images you saw, in the order of the story they create. Try to recall the sequence of events as they appeared in the story, not necessarily the order they were presented on the screen.</p>""]","","1","physical_activity_semantic"
"","","","","","image-button-response","56","303531","0.0-12.0-0.0","D73F5F2C54C942A895B3930808944593","D73F5F2C54C942A895B3930808944593","0198ed31-b706-77d4-becc-53a7d3011d29","0198ed26-a6a7-793d-982a-8940a71ab262","{""num_scrambled_semantic"":""8"",""num_scrambled_causal"":""4"",""num_scrambled_schematic"":""4"",""participantId"":""D73F5F2C54C942A895B3930808944593"",""assignmentId"":""0198ed31-b706-77d4-becc-53a7d3011d29"",""projectId"":""0198ed26-a6a7-793d-982a-8940a71ab262""}","https://test12345.live/?num_scrambled_semantic=8&num_scrambled_causal=4&num_scrambled_schematic=4&participantId=D73F5F2C54C942A895B3930808944593&assignmentId=0198ed31-b706-77d4-becc-53a7d3011d29&projectId=0198ed26-a6a7-793d-982a-8940a71ab262","D73F5F2C54C942A895B3930808944593-2025-08-27-21-29-54","","null","","images/semantic_sequence/creative_activities_semantic/creative_activities_semantic_0.png","null","",""
"","","","","","image-button-response","57","308035","0.0-12.0-1.0-0.0","D73F5F2C54C942A895B3930808944593","D73F5F2C54C942A895B3930808944593","0198ed31-b706-77d4-becc-53a7d3011d29","0198ed26-a6a7-793d-982a-8940a71ab262","{""num_scrambled_semantic"":""8"",""num_scrambled_causal"":""4"",""num_scrambled_schematic"":""4"",""participantId"":""D73F5F2C54C942A895B3930808944593"",""assignmentId"":""0198ed31-b706-77d4-becc-53a7d3011d29"",""projectId"":""0198ed26-a6a7-793d-982a-8940a71ab262""}","https://test12345.live/?num_scrambled_semantic=8&num_scrambled_causal=4&num_scrambled_schematic=4&participantId=D73F5F2C54C942A895B3930808944593&assignmentId=0198ed31-b706-77d4-becc-53a7d3011d29&projectId=0198ed26-a6a7-793d-982a-8940a71ab262","D73F5F2C54C942A895B3930808944593-2025-08-27-21-29-54","","null","","images/semantic_sequence/creative_activities_semantic/creative_activities_semantic_1.png","null","",""
"","","","","","image-button-response","58","308801","0.0-12.0-1.0-1.0","D73F5F2C54C942A895B3930808944593","D73F5F2C54C942A895B3930808944593","0198ed31-b706-77d4-becc-53a7d3011d29","0198ed26-a6a7-793d-982a-8940a71ab262","{""num_scrambled_semantic"":""8"",""num_scrambled_causal"":""4"",""num_scrambled_schematic"":""4"",""participantId"":""D73F5F2C54C942A895B3930808944593"",""assignmentId"":""0198ed31-b706-77d4-becc-53a7d3011d29"",""projectId"":""0198ed26-a6a7-793d-982a-8940a71ab262""}","https://test12345.live/?num_scrambled_semantic=8&num_scrambled_causal=4&num_scrambled_schematic=4&participantId=D73F5F2C54C942A895B3930808944593&assignmentId=0198ed31-b706-77d4-becc-53a7d3011d29&projectId=0198ed26-a6a7-793d-982a-8940a71ab262","D73F5F2C54C942A895B3930808944593-2025-08-27-21-29-54","","765","","images/semantic_sequence/creative_activities_semantic/creative_activities_semantic_1.png","0","",""
"","","","","","image-button-response","59","310607","0.0-12.0-1.0-2.0","D73F5F2C54C942A895B3930808944593","D73F5F2C54C942A895B3930808944593","0198ed31-b706-77d4-becc-53a7d3011d29","0198ed26-a6a7-793d-982a-8940a71ab262","{""num_scrambled_semantic"":""8"",""num_scrambled_causal"":""4"",""num_scrambled_schematic"":""4"",""participantId"":""D73F5F2C54C942A895B3930808944593"",""assignmentId"":""0198ed31-b706-77d4-becc-53a7d3011d29"",""projectId"":""0198ed26-a6a7-793d-982a-8940a71ab262""}","https://test12345.live/?num_scrambled_semantic=8&num_scrambled_causal=4&num_scrambled_schematic=4&participantId=D73F5F2C54C942A895B3930808944593&assignmentId=0198ed31-b706-77d4-becc-53a7d3011d29&projectId=0198ed26-a6a7-793d-982a-8940a71ab262","D73F5F2C54C942A895B3930808944593-2025-08-27-21-29-54","","null","","[]","null","",""
"","","","","","image-button-response","60","315114","0.0-12.0-1.0-0.1","D73F5F2C54C942A895B3930808944593","D73F5F2C54C942A895B3930808944593","0198ed31-b706-77d4-becc-53a7d3011d29","0198ed26-a6a7-793d-982a-8940a71ab262","{""num_scrambled_semantic"":""8"",""num_scrambled_causal"":""4"",""num_scrambled_schematic"":""4"",""participantId"":""D73F5F2C54C942A895B3930808944593"",""assignmentId"":""0198ed31-b706-77d4-becc-53a7d3011d29"",""projectId"":""0198ed26-a6a7-793d-982a-8940a71ab262""}","https://test12345.live/?num_scrambled_semantic=8&num_scrambled_causal=4&num_scrambled_schematic=4&participantId=D73F5F2C54C942A895B3930808944593&assignmentId=0198ed31-b706-77d4-becc-53a7d3011d29&projectId=0198ed26-a6a7-793d-982a-8940a71ab262","D73F5F2C54C942A895B3930808944593-2025-08-27-21-29-54","","null","","images/semantic_sequence/creative_activities_semantic/creative_activities_semantic_2.png","null","",""
"","","","","","image-button-response","61","316454","0.0-12.0-1.0-1.1","D73F5F2C54C942A895B3930808944593","D73F5F2C54C942A895B3930808944593","0198ed31-b706-77d4-becc-53a7d3011d29","0198ed26-a6a7-793d-982a-8940a71ab262","{""num_scrambled_semantic"":""8"",""num_scrambled_causal"":""4"",""num_scrambled_schematic"":""4"",""participantId"":""D73F5F2C54C942A895B3930808944593"",""assignmentId"":""0198ed31-b706-77d4-becc-53a7d3011d29"",""projectId"":""0198ed26-a6a7-793d-982a-8940a71ab262""}","https://test12345.live/?num_scrambled_semantic=8&num_scrambled_causal=4&num_scrambled_schematic=4&participantId=D73F5F2C54C942A895B3930808944593&assignmentId=0198ed31-b706-77d4-becc-53a7d3011d29&projectId=0198ed26-a6a7-793d-982a-8940a71ab262","D73F5F2C54C942A895B3930808944593-2025-08-27-21-29-54","","1339","","images/semantic_sequence/creative_activities_semantic/creative_activities_semantic_2.png","0","",""
"","","","","","image-button-response","62","318263","0.0-12.0-1.0-2.1","D73F5F2C54C942A895B3930808944593","D73F5F2C54C942A895B3930808944593","0198ed31-b706-77d4-becc-53a7d3011d29","0198ed26-a6a7-793d-982a-8940a71ab262","{""num_scrambled_semantic"":""8"",""num_scrambled_causal"":""4"",""num_scrambled_schematic"":""4"",""participantId"":""D73F5F2C54C942A895B3930808944593"",""assignmentId"":""0198ed31-b706-77d4-becc-53a7d3011d29"",""projectId"":""0198ed26-a6a7-793d-982a-8940a71ab262""}","https://test12345.live/?num_scrambled_semantic=8&num_scrambled_causal=4&num_scrambled_schematic=4&participantId=D73F5F2C54C942A895B3930808944593&assignmentId=0198ed31-b706-77d4-becc-53a7d3011d29&projectId=0198ed26-a6a7-793d-982a-8940a71ab262","D73F5F2C54C942A895B3930808944593-2025-08-27-21-29-54","","null","","[]","null","",""
"","","","","","image-button-response","63","322770","0.0-12.0-1.0-0.2","D73F5F2C54C942A895B3930808944593","D73F5F2C54C942A895B3930808944593","0198ed31-b706-77d4-becc-53a7d3011d29","0198ed26-a6a7-793d-982a-8940a71ab262","{""num_scrambled_semantic"":""8"",""num_scrambled_causal"":""4"",""num_scrambled_schematic"":""4"",""participantId"":""D73F5F2C54C942A895B3930808944593"",""assignmentId"":""0198ed31-b706-77d4-becc-53a7d3011d29"",""projectId"":""0198ed26-a6a7-793d-982a-8940a71ab262""}","https://test12345.live/?num_scrambled_semantic=8&num_scrambled_causal=4&num_scrambled_schematic=4&participantId=D73F5F2C54C942A895B3930808944593&assignmentId=0198ed31-b706-77d4-becc-53a7d3011d29&projectId=0198ed26-a6a7-793d-982a-8940a71ab262","D73F5F2C54C942A895B3930808944593-2025-08-27-21-29-54","","null","","images/semantic_sequence/creative_activities_semantic/creative_activities_semantic_3.png","null","",""
"","","","","","image-button-response","64","323562","0.0-12.0-1.0-1.2","D73F5F2C54C942A895B3930808944593","D73F5F2C54C942A895B3930808944593","0198ed31-b706-77d4-becc-53a7d3011d29","0198ed26-a6a7-793d-982a-8940a71ab262","{""num_scrambled_semantic"":""8"",""num_scrambled_causal"":""4"",""num_scrambled_schematic"":""4"",""participantId"":""D73F5F2C54C942A895B3930808944593"",""assignmentId"":""0198ed31-b706-77d4-becc-53a7d3011d29"",""projectId"":""0198ed26-a6a7-793d-982a-8940a71ab262""}","https://test12345.live/?num_scrambled_semantic=8&num_scrambled_causal=4&num_scrambled_schematic=4&participantId=D73F5F2C54C942A895B3930808944593&assignmentId=0198ed31-b706-77d4-becc-53a7d3011d29&projectId=0198ed26-a6a7-793d-982a-8940a71ab262","D73F5F2C54C942A895B3930808944593-2025-08-27-21-29-54","","791","","images/semantic_sequence/creative_activities_semantic/creative_activities_semantic_3.png","0","",""
"","","","","","image-button-response","65","325374","0.0-12.0-1.0-2.2","D73F5F2C54C942A895B3930808944593","D73F5F2C54C942A895B3930808944593","0198ed31-b706-77d4-becc-53a7d3011d29","0198ed26-a6a7-793d-982a-8940a71ab262","{""num_scrambled_semantic"":""8"",""num_scrambled_causal"":""4"",""num_scrambled_schematic"":""4"",""participantId"":""D73F5F2C54C942A895B3930808944593"",""assignmentId"":""0198ed31-b706-77d4-becc-53a7d3011d29"",""projectId"":""0198ed26-a6a7-793d-982a-8940a71ab262""}","https://test12345.live/?num_scrambled_semantic=8&num_scrambled_causal=4&num_scrambled_schematic=4&participantId=D73F5F2C54C942A895B3930808944593&assignmentId=0198ed31-b706-77d4-becc-53a7d3011d29&projectId=0198ed26-a6a7-793d-982a-8940a71ab262","D73F5F2C54C942A895B3930808944593-2025-08-27-21-29-54","","null","","[]","null","",""
"","","","","","image-button-response","66","329876","0.0-12.0-1.0-0.3","D73F5F2C54C942A895B3930808944593","D73F5F2C54C942A895B3930808944593","0198ed31-b706-77d4-becc-53a7d3011d29","0198ed26-a6a7-793d-982a-8940a71ab262","{""num_scrambled_semantic"":""8"",""num_scrambled_causal"":""4"",""num_scrambled_schematic"":""4"",""participantId"":""D73F5F2C54C942A895B3930808944593"",""assignmentId"":""0198ed31-b706-77d4-becc-53a7d3011d29"",""projectId"":""0198ed26-a6a7-793d-982a-8940a71ab262""}","https://test12345.live/?num_scrambled_semantic=8&num_scrambled_causal=4&num_scrambled_schematic=4&participantId=D73F5F2C54C942A895B3930808944593&assignmentId=0198ed31-b706-77d4-becc-53a7d3011d29&projectId=0198ed26-a6a7-793d-982a-8940a71ab262","D73F5F2C54C942A895B3930808944593-2025-08-27-21-29-54","","null","","images/semantic_sequence/creative_activities_semantic/creative_activities_semantic_4.png","null","",""
"","","","","","image-button-response","67","330839","0.0-12.0-1.0-1.3","D73F5F2C54C942A895B3930808944593","D73F5F2C54C942A895B3930808944593","0198ed31-b706-77d4-becc-53a7d3011d29","0198ed26-a6a7-793d-982a-8940a71ab262","{""num_scrambled_semantic"":""8"",""num_scrambled_causal"":""4"",""num_scrambled_schematic"":""4"",""participantId"":""D73F5F2C54C942A895B3930808944593"",""assignmentId"":""0198ed31-b706-77d4-becc-53a7d3011d29"",""projectId"":""0198ed26-a6a7-793d-982a-8940a71ab262""}","https://test12345.live/?num_scrambled_semantic=8&num_scrambled_causal=4&num_scrambled_schematic=4&participantId=D73F5F2C54C942A895B3930808944593&assignmentId=0198ed31-b706-77d4-becc-53a7d3011d29&projectId=0198ed26-a6a7-793d-982a-8940a71ab262","D73F5F2C54C942A895B3930808944593-2025-08-27-21-29-54","","962","","images/semantic_sequence/creative_activities_semantic/creative_activities_semantic_4.png","0","",""
"","","","","","image-button-response","68","332649","0.0-12.0-1.0-2.3","D73F5F2C54C942A895B3930808944593","D73F5F2C54C942A895B3930808944593","0198ed31-b706-77d4-becc-53a7d3011d29","0198ed26-a6a7-793d-982a-8940a71ab262","{""num_scrambled_semantic"":""8"",""num_scrambled_causal"":""4"",""num_scrambled_schematic"":""4"",""participantId"":""D73F5F2C54C942A895B3930808944593"",""assignmentId"":""0198ed31-b706-77d4-becc-53a7d3011d29"",""projectId"":""0198ed26-a6a7-793d-982a-8940a71ab262""}","https://test12345.live/?num_scrambled_semantic=8&num_scrambled_causal=4&num_scrambled_schematic=4&participantId=D73F5F2C54C942A895B3930808944593&assignmentId=0198ed31-b706-77d4-becc-53a7d3011d29&projectId=0198ed26-a6a7-793d-982a-8940a71ab262","D73F5F2C54C942A895B3930808944593-2025-08-27-21-29-54","","null","","[]","null","",""
"","","","","","image-button-response","69","337156","0.0-12.0-1.0-0.4","D73F5F2C54C942A895B3930808944593","D73F5F2C54C942A895B3930808944593","0198ed31-b706-77d4-becc-53a7d3011d29","0198ed26-a6a7-793d-982a-8940a71ab262","{""num_scrambled_semantic"":""8"",""num_scrambled_causal"":""4"",""num_scrambled_schematic"":""4"",""participantId"":""D73F5F2C54C942A895B3930808944593"",""assignmentId"":""0198ed31-b706-77d4-becc-53a7d3011d29"",""projectId"":""0198ed26-a6a7-793d-982a-8940a71ab262""}","https://test12345.live/?num_scrambled_semantic=8&num_scrambled_causal=4&num_scrambled_schematic=4&participantId=D73F5F2C54C942A895B3930808944593&assignmentId=0198ed31-b706-77d4-becc-53a7d3011d29&projectId=0198ed26-a6a7-793d-982a-8940a71ab262","D73F5F2C54C942A895B3930808944593-2025-08-27-21-29-54","","null","","images/semantic_sequence/creative_activities_semantic/creative_activities_semantic_5.png","null","",""
"","","","","","image-button-response","70","338076","0.0-12.0-1.0-1.4","D73F5F2C54C942A895B3930808944593","D73F5F2C54C942A895B3930808944593","0198ed31-b706-77d4-becc-53a7d3011d29","0198ed26-a6a7-793d-982a-8940a71ab262","{""num_scrambled_semantic"":""8"",""num_scrambled_causal"":""4"",""num_scrambled_schematic"":""4"",""participantId"":""D73F5F2C54C942A895B3930808944593"",""assignmentId"":""0198ed31-b706-77d4-becc-53a7d3011d29"",""projectId"":""0198ed26-a6a7-793d-982a-8940a71ab262""}","https://test12345.live/?num_scrambled_semantic=8&num_scrambled_causal=4&num_scrambled_schematic=4&participantId=D73F5F2C54C942A895B3930808944593&assignmentId=0198ed31-b706-77d4-becc-53a7d3011d29&projectId=0198ed26-a6a7-793d-982a-8940a71ab262","D73F5F2C54C942A895B3930808944593-2025-08-27-21-29-54","","919","","images/semantic_sequence/creative_activities_semantic/creative_activities_semantic_5.png","0","",""
"","","","","","image-button-response","71","339891","0.0-12.0-1.0-2.4","D73F5F2C54C942A895B3930808944593","D73F5F2C54C942A895B3930808944593","0198ed31-b706-77d4-becc-53a7d3011d29","0198ed26-a6a7-793d-982a-8940a71ab262","{""num_scrambled_semantic"":""8"",""num_scrambled_causal"":""4"",""num_scrambled_schematic"":""4"",""participantId"":""D73F5F2C54C942A895B3930808944593"",""assignmentId"":""0198ed31-b706-77d4-becc-53a7d3011d29"",""projectId"":""0198ed26-a6a7-793d-982a-8940a71ab262""}","https://test12345.live/?num_scrambled_semantic=8&num_scrambled_causal=4&num_scrambled_schematic=4&participantId=D73F5F2C54C942A895B3930808944593&assignmentId=0198ed31-b706-77d4-becc-53a7d3011d29&projectId=0198ed26-a6a7-793d-982a-8940a71ab262","D73F5F2C54C942A895B3930808944593-2025-08-27-21-29-54","","null","","[]","null","",""
"","","","","","image-button-response","72","344394","0.0-12.0-1.0-0.5","D73F5F2C54C942A895B3930808944593","D73F5F2C54C942A895B3930808944593","0198ed31-b706-77d4-becc-53a7d3011d29","0198ed26-a6a7-793d-982a-8940a71ab262","{""num_scrambled_semantic"":""8"",""num_scrambled_causal"":""4"",""num_scrambled_schematic"":""4"",""participantId"":""D73F5F2C54C942A895B3930808944593"",""assignmentId"":""0198ed31-b706-77d4-becc-53a7d3011d29"",""projectId"":""0198ed26-a6a7-793d-982a-8940a71ab262""}","https://test12345.live/?num_scrambled_semantic=8&num_scrambled_causal=4&num_scrambled_schematic=4&participantId=D73F5F2C54C942A895B3930808944593&assignmentId=0198ed31-b706-77d4-becc-53a7d3011d29&projectId=0198ed26-a6a7-793d-982a-8940a71ab262","D73F5F2C54C942A895B3930808944593-2025-08-27-21-29-54","","null","","images/semantic_sequence/creative_activities_semantic/creative_activities_semantic_6.png","null","",""
"","","","","","image-button-response","73","345384","0.0-12.0-1.0-1.5","D73F5F2C54C942A895B3930808944593","D73F5F2C54C942A895B3930808944593","0198ed31-b706-77d4-becc-53a7d3011d29","0198ed26-a6a7-793d-982a-8940a71ab262","{""num_scrambled_semantic"":""8"",""num_scrambled_causal"":""4"",""num_scrambled_schematic"":""4"",""participantId"":""D73F5F2C54C942A895B3930808944593"",""assignmentId"":""0198ed31-b706-77d4-becc-53a7d3011d29"",""projectId"":""0198ed26-a6a7-793d-982a-8940a71ab262""}","https://test12345.live/?num_scrambled_semantic=8&num_scrambled_causal=4&num_scrambled_schematic=4&participantId=D73F5F2C54C942A895B3930808944593&assignmentId=0198ed31-b706-77d4-becc-53a7d3011d29&projectId=0198ed26-a6a7-793d-982a-8940a71ab262","D73F5F2C54C942A895B3930808944593-2025-08-27-21-29-54","","990","","images/semantic_sequence/creative_activities_semantic/creative_activities_semantic_6.png","0","",""
"","","","","","image-button-response","74","347196","0.0-12.0-1.0-2.5","D73F5F2C54C942A895B3930808944593","D73F5F2C54C942A895B3930808944593","0198ed31-b706-77d4-becc-53a7d3011d29","0198ed26-a6a7-793d-982a-8940a71ab262","{""num_scrambled_semantic"":""8"",""num_scrambled_causal"":""4"",""num_scrambled_schematic"":""4"",""participantId"":""D73F5F2C54C942A895B3930808944593"",""assignmentId"":""0198ed31-b706-77d4-becc-53a7d3011d29"",""projectId"":""0198ed26-a6a7-793d-982a-8940a71ab262""}","https://test12345.live/?num_scrambled_semantic=8&num_scrambled_causal=4&num_scrambled_schematic=4&participantId=D73F5F2C54C942A895B3930808944593&assignmentId=0198ed31-b706-77d4-becc-53a7d3011d29&projectId=0198ed26-a6a7-793d-982a-8940a71ab262","D73F5F2C54C942A895B3930808944593-2025-08-27-21-29-54","","null","","[]","null","",""
"","","","","","image-button-response","75","351705","0.0-12.0-1.0-0.6","D73F5F2C54C942A895B3930808944593","D73F5F2C54C942A895B3930808944593","0198ed31-b706-77d4-becc-53a7d3011d29","0198ed26-a6a7-793d-982a-8940a71ab262","{""num_scrambled_semantic"":""8"",""num_scrambled_causal"":""4"",""num_scrambled_schematic"":""4"",""participantId"":""D73F5F2C54C942A895B3930808944593"",""assignmentId"":""0198ed31-b706-77d4-becc-53a7d3011d29"",""projectId"":""0198ed26-a6a7-793d-982a-8940a71ab262""}","https://test12345.live/?num_scrambled_semantic=8&num_scrambled_causal=4&num_scrambled_schematic=4&participantId=D73F5F2C54C942A895B3930808944593&assignmentId=0198ed31-b706-77d4-becc-53a7d3011d29&projectId=0198ed26-a6a7-793d-982a-8940a71ab262","D73F5F2C54C942A895B3930808944593-2025-08-27-21-29-54","","null","","images/semantic_sequence/creative_activities_semantic/creative_activities_semantic_7.png","null","",""
"","","","","","image-button-response","76","352813","0.0-12.0-1.0-1.6","D73F5F2C54C942A895B3930808944593","D73F5F2C54C942A895B3930808944593","0198ed31-b706-77d4-becc-53a7d3011d29","0198ed26-a6a7-793d-982a-8940a71ab262","{""num_scrambled_semantic"":""8"",""num_scrambled_causal"":""4"",""num_scrambled_schematic"":""4"",""participantId"":""D73F5F2C54C942A895B3930808944593"",""assignmentId"":""0198ed31-b706-77d4-becc-53a7d3011d29"",""projectId"":""0198ed26-a6a7-793d-982a-8940a71ab262""}","https://test12345.live/?num_scrambled_semantic=8&num_scrambled_causal=4&num_scrambled_schematic=4&participantId=D73F5F2C54C942A895B3930808944593&assignmentId=0198ed31-b706-77d4-becc-53a7d3011d29&projectId=0198ed26-a6a7-793d-982a-8940a71ab262","D73F5F2C54C942A895B3930808944593-2025-08-27-21-29-54","","1107","","images/semantic_sequence/creative_activities_semantic/creative_activities_semantic_7.png","0","",""
"","","","","","image-button-response","77","354615","0.0-12.0-1.0-2.6","D73F5F2C54C942A895B3930808944593","D73F5F2C54C942A895B3930808944593","0198ed31-b706-77d4-becc-53a7d3011d29","0198ed26-a6a7-793d-982a-8940a71ab262","{""num_scrambled_semantic"":""8"",""num_scrambled_causal"":""4"",""num_scrambled_schematic"":""4"",""participantId"":""D73F5F2C54C942A895B3930808944593"",""assignmentId"":""0198ed31-b706-77d4-becc-53a7d3011d29"",""projectId"":""0198ed26-a6a7-793d-982a-8940a71ab262""}","https://test12345.live/?num_scrambled_semantic=8&num_scrambled_causal=4&num_scrambled_schematic=4&participantId=D73F5F2C54C942A895B3930808944593&assignmentId=0198ed31-b706-77d4-becc-53a7d3011d29&projectId=0198ed26-a6a7-793d-982a-8940a71ab262","D73F5F2C54C942A895B3930808944593-2025-08-27-21-29-54","","null","","[]","null","",""
"","","","","","image-button-response","78","359119","0.0-12.0-1.0-0.7","D73F5F2C54C942A895B3930808944593","D73F5F2C54C942A895B3930808944593","0198ed31-b706-77d4-becc-53a7d3011d29","0198ed26-a6a7-793d-982a-8940a71ab262","{""num_scrambled_semantic"":""8"",""num_scrambled_causal"":""4"",""num_scrambled_schematic"":""4"",""participantId"":""D73F5F2C54C942A895B3930808944593"",""assignmentId"":""0198ed31-b706-77d4-becc-53a7d3011d29"",""projectId"":""0198ed26-a6a7-793d-982a-8940a71ab262""}","https://test12345.live/?num_scrambled_semantic=8&num_scrambled_causal=4&num_scrambled_schematic=4&participantId=D73F5F2C54C942A895B3930808944593&assignmentId=0198ed31-b706-77d4-becc-53a7d3011d29&projectId=0198ed26-a6a7-793d-982a-8940a71ab262","D73F5F2C54C942A895B3930808944593-2025-08-27-21-29-54","","null","","images/semantic_sequence/creative_activities_semantic/creative_activities_semantic_8.png","null","",""
"","","","","","image-button-response","79","360058","0.0-12.0-1.0-1.7","D73F5F2C54C942A895B3930808944593","D73F5F2C54C942A895B3930808944593","0198ed31-b706-77d4-becc-53a7d3011d29","0198ed26-a6a7-793d-982a-8940a71ab262","{""num_scrambled_semantic"":""8"",""num_scrambled_causal"":""4"",""num_scrambled_schematic"":""4"",""participantId"":""D73F5F2C54C942A895B3930808944593"",""assignmentId"":""0198ed31-b706-77d4-becc-53a7d3011d29"",""projectId"":""0198ed26-a6a7-793d-982a-8940a71ab262""}","https://test12345.live/?num_scrambled_semantic=8&num_scrambled_causal=4&num_scrambled_schematic=4&participantId=D73F5F2C54C942A895B3930808944593&assignmentId=0198ed31-b706-77d4-becc-53a7d3011d29&projectId=0198ed26-a6a7-793d-982a-8940a71ab262","D73F5F2C54C942A895B3930808944593-2025-08-27-21-29-54","","938","","images/semantic_sequence/creative_activities_semantic/creative_activities_semantic_8.png","0","",""
"","","","","","image-button-response","80","361866","0.0-12.0-1.0-2.7","D73F5F2C54C942A895B3930808944593","D73F5F2C54C942A895B3930808944593","0198ed31-b706-77d4-becc-53a7d3011d29","0198ed26-a6a7-793d-982a-8940a71ab262","{""num_scrambled_semantic"":""8"",""num_scrambled_causal"":""4"",""num_scrambled_schematic"":""4"",""participantId"":""D73F5F2C54C942A895B3930808944593"",""assignmentId"":""0198ed31-b706-77d4-becc-53a7d3011d29"",""projectId"":""0198ed26-a6a7-793d-982a-8940a71ab262""}","https://test12345.live/?num_scrambled_semantic=8&num_scrambled_causal=4&num_scrambled_schematic=4&participantId=D73F5F2C54C942A895B3930808944593&assignmentId=0198ed31-b706-77d4-becc-53a7d3011d29&projectId=0198ed26-a6a7-793d-982a-8940a71ab262","D73F5F2C54C942A895B3930808944593-2025-08-27-21-29-54","","null","","[]","null","",""
"","","","","","image-button-response","81","366368","0.0-12.0-1.0-0.8","D73F5F2C54C942A895B3930808944593","D73F5F2C54C942A895B3930808944593","0198ed31-b706-77d4-becc-53a7d3011d29","0198ed26-a6a7-793d-982a-8940a71ab262","{""num_scrambled_semantic"":""8"",""num_scrambled_causal"":""4"",""num_scrambled_schematic"":""4"",""participantId"":""D73F5F2C54C942A895B3930808944593"",""assignmentId"":""0198ed31-b706-77d4-becc-53a7d3011d29"",""projectId"":""0198ed26-a6a7-793d-982a-8940a71ab262""}","https://test12345.live/?num_scrambled_semantic=8&num_scrambled_causal=4&num_scrambled_schematic=4&participantId=D73F5F2C54C942A895B3930808944593&assignmentId=0198ed31-b706-77d4-becc-53a7d3011d29&projectId=0198ed26-a6a7-793d-982a-8940a71ab262","D73F5F2C54C942A895B3930808944593-2025-08-27-21-29-54","","null","","images/semantic_sequence/creative_activities_semantic/creative_activities_semantic_9.png","null","",""
"","","","","","image-button-response","82","368750","0.0-12.0-1.0-1.8","D73F5F2C54C942A895B3930808944593","D73F5F2C54C942A895B3930808944593","0198ed31-b706-77d4-becc-53a7d3011d29","0198ed26-a6a7-793d-982a-8940a71ab262","{""num_scrambled_semantic"":""8"",""num_scrambled_causal"":""4"",""num_scrambled_schematic"":""4"",""participantId"":""D73F5F2C54C942A895B3930808944593"",""assignmentId"":""0198ed31-b706-77d4-becc-53a7d3011d29"",""projectId"":""0198ed26-a6a7-793d-982a-8940a71ab262""}","https://test12345.live/?num_scrambled_semantic=8&num_scrambled_causal=4&num_scrambled_schematic=4&participantId=D73F5F2C54C942A895B3930808944593&assignmentId=0198ed31-b706-77d4-becc-53a7d3011d29&projectId=0198ed26-a6a7-793d-982a-8940a71ab262","D73F5F2C54C942A895B3930808944593-2025-08-27-21-29-54","","2381","","images/semantic_sequence/creative_activities_semantic/creative_activities_semantic_9.png","0","",""
"","","","","","image-button-response","83","370565","0.0-12.0-1.0-2.8","D73F5F2C54C942A895B3930808944593","D73F5F2C54C942A895B3930808944593","0198ed31-b706-77d4-becc-53a7d3011d29","0198ed26-a6a7-793d-982a-8940a71ab262","{""num_scrambled_semantic"":""8"",""num_scrambled_causal"":""4"",""num_scrambled_schematic"":""4"",""participantId"":""D73F5F2C54C942A895B3930808944593"",""assignmentId"":""0198ed31-b706-77d4-becc-53a7d3011d29"",""projectId"":""0198ed26-a6a7-793d-982a-8940a71ab262""}","https://test12345.live/?num_scrambled_semantic=8&num_scrambled_causal=4&num_scrambled_schematic=4&participantId=D73F5F2C54C942A895B3930808944593&assignmentId=0198ed31-b706-77d4-becc-53a7d3011d29&projectId=0198ed26-a6a7-793d-982a-8940a71ab262","D73F5F2C54C942A895B3930808944593-2025-08-27-21-29-54","","null","","[]","null","",""
"","","","","","image-button-response","84","375079","0.0-12.0-1.0-0.9","D73F5F2C54C942A895B3930808944593","D73F5F2C54C942A895B3930808944593","0198ed31-b706-77d4-becc-53a7d3011d29","0198ed26-a6a7-793d-982a-8940a71ab262","{""num_scrambled_semantic"":""8"",""num_scrambled_causal"":""4"",""num_scrambled_schematic"":""4"",""participantId"":""D73F5F2C54C942A895B3930808944593"",""assignmentId"":""0198ed31-b706-77d4-becc-53a7d3011d29"",""projectId"":""0198ed26-a6a7-793d-982a-8940a71ab262""}","https://test12345.live/?num_scrambled_semantic=8&num_scrambled_causal=4&num_scrambled_schematic=4&participantId=D73F5F2C54C942A895B3930808944593&assignmentId=0198ed31-b706-77d4-becc-53a7d3011d29&projectId=0198ed26-a6a7-793d-982a-8940a71ab262","D73F5F2C54C942A895B3930808944593-2025-08-27-21-29-54","","null","","images/semantic_sequence/creative_activities_semantic/creative_activities_semantic_ten.png","null","",""
"","","","","","image-button-response","85","375834","0.0-12.0-1.0-1.9","D73F5F2C54C942A895B3930808944593","D73F5F2C54C942A895B3930808944593","0198ed31-b706-77d4-becc-53a7d3011d29","0198ed26-a6a7-793d-982a-8940a71ab262","{""num_scrambled_semantic"":""8"",""num_scrambled_causal"":""4"",""num_scrambled_schematic"":""4"",""participantId"":""D73F5F2C54C942A895B3930808944593"",""assignmentId"":""0198ed31-b706-77d4-becc-53a7d3011d29"",""projectId"":""0198ed26-a6a7-793d-982a-8940a71ab262""}","https://test12345.live/?num_scrambled_semantic=8&num_scrambled_causal=4&num_scrambled_schematic=4&participantId=D73F5F2C54C942A895B3930808944593&assignmentId=0198ed31-b706-77d4-becc-53a7d3011d29&projectId=0198ed26-a6a7-793d-982a-8940a71ab262","D73F5F2C54C942A895B3930808944593-2025-08-27-21-29-54","","754","","images/semantic_sequence/creative_activities_semantic/creative_activities_semantic_ten.png","0","",""
"","","","","","image-button-response","86","377640","0.0-12.0-1.0-2.9","D73F5F2C54C942A895B3930808944593","D73F5F2C54C942A895B3930808944593","0198ed31-b706-77d4-becc-53a7d3011d29","0198ed26-a6a7-793d-982a-8940a71ab262","{""num_scrambled_semantic"":""8"",""num_scrambled_causal"":""4"",""num_scrambled_schematic"":""4"",""participantId"":""D73F5F2C54C942A895B3930808944593"",""assignmentId"":""0198ed31-b706-77d4-becc-53a7d3011d29"",""projectId"":""0198ed26-a6a7-793d-982a-8940a71ab262""}","https://test12345.live/?num_scrambled_semantic=8&num_scrambled_causal=4&num_scrambled_schematic=4&participantId=D73F5F2C54C942A895B3930808944593&assignmentId=0198ed31-b706-77d4-becc-53a7d3011d29&projectId=0198ed26-a6a7-793d-982a-8940a71ab262","D73F5F2C54C942A895B3930808944593-2025-08-27-21-29-54","","null","","[]","null","",""
"","","","","","html-audio-response","87","416393","0.0-13.0","D73F5F2C54C942A895B3930808944593","D73F5F2C54C942A895B3930808944593","0198ed31-b706-77d4-becc-53a7d3011d29","0198ed26-a6a7-793d-982a-8940a71ab262","{""num_scrambled_semantic"":""8"",""num_scrambled_causal"":""4"",""num_scrambled_schematic"":""4"",""participantId"":""D73F5F2C54C942A895B3930808944593"",""assignmentId"":""0198ed31-b706-77d4-becc-53a7d3011d29"",""projectId"":""0198ed26-a6a7-793d-982a-8940a71ab262""}","https://test12345.live/?num_scrambled_semantic=8&num_scrambled_causal=4&num_scrambled_schematic=4&participantId=D73F5F2C54C942A895B3930808944593&assignmentId=0198ed31-b706-77d4-becc-53a7d3011d29&projectId=0198ed26-a6a7-793d-982a-8940a71ab262","D73F5F2C54C942A895B3930808944593-2025-08-27-21-29-54","","12888","","[""<span style=\""color: red; font-size: 24px\""> NOW RECORDING</span><p>Please say out loud all the images you saw, in the order of the story they create. Try to recall the sequence of events as they appeared in the story, not necessarily the order they were presented on the screen.</p>""]","","1","creative_activities_semantic"
"","","","","","image-button-response","88","422397","0.0-14.0-0.0","D73F5F2C54C942A895B3930808944593","D73F5F2C54C942A895B3930808944593","0198ed31-b706-77d4-becc-53a7d3011d29","0198ed26-a6a7-793d-982a-8940a71ab262","{""num_scrambled_semantic"":""8"",""num_scrambled_causal"":""4"",""num_scrambled_schematic"":""4"",""participantId"":""D73F5F2C54C942A895B3930808944593"",""assignmentId"":""0198ed31-b706-77d4-becc-53a7d3011d29"",""projectId"":""0198ed26-a6a7-793d-982a-8940a71ab262""}","https://test12345.live/?num_scrambled_semantic=8&num_scrambled_causal=4&num_scrambled_schematic=4&participantId=D73F5F2C54C942A895B3930808944593&assignmentId=0198ed31-b706-77d4-becc-53a7d3011d29&projectId=0198ed26-a6a7-793d-982a-8940a71ab262","D73F5F2C54C942A895B3930808944593-2025-08-27-21-29-54","","null","","images/semantic_sequence/market_semantic/market_semantic_0.png","null","",""
"","","","","","image-button-response","89","426898","0.0-14.0-1.0-0.0","D73F5F2C54C942A895B3930808944593","D73F5F2C54C942A895B3930808944593","0198ed31-b706-77d4-becc-53a7d3011d29","0198ed26-a6a7-793d-982a-8940a71ab262","{""num_scrambled_semantic"":""8"",""num_scrambled_causal"":""4"",""num_scrambled_schematic"":""4"",""participantId"":""D73F5F2C54C942A895B3930808944593"",""assignmentId"":""0198ed31-b706-77d4-becc-53a7d3011d29"",""projectId"":""0198ed26-a6a7-793d-982a-8940a71ab262""}","https://test12345.live/?num_scrambled_semantic=8&num_scrambled_causal=4&num_scrambled_schematic=4&participantId=D73F5F2C54C942A895B3930808944593&assignmentId=0198ed31-b706-77d4-becc-53a7d3011d29&projectId=0198ed26-a6a7-793d-982a-8940a71ab262","D73F5F2C54C942A895B3930808944593-2025-08-27-21-29-54","","null","","images/semantic_sequence/market_semantic/market_semantic_3.png","null","",""
"","","","","","image-button-response","90","427891","0.0-14.0-1.0-1.0","D73F5F2C54C942A895B3930808944593","D73F5F2C54C942A895B3930808944593","0198ed31-b706-77d4-becc-53a7d3011d29","0198ed26-a6a7-793d-982a-8940a71ab262","{""num_scrambled_semantic"":""8"",""num_scrambled_causal"":""4"",""num_scrambled_schematic"":""4"",""participantId"":""D73F5F2C54C942A895B3930808944593"",""assignmentId"":""0198ed31-b706-77d4-becc-53a7d3011d29"",""projectId"":""0198ed26-a6a7-793d-982a-8940a71ab262""}","https://test12345.live/?num_scrambled_semantic=8&num_scrambled_causal=4&num_scrambled_schematic=4&participantId=D73F5F2C54C942A895B3930808944593&assignmentId=0198ed31-b706-77d4-becc-53a7d3011d29&projectId=0198ed26-a6a7-793d-982a-8940a71ab262","D73F5F2C54C942A895B3930808944593-2025-08-27-21-29-54","","992","","images/semantic_sequence/market_semantic/market_semantic_3.png","1","",""
"","","","","","image-button-response","91","429699","0.0-14.0-1.0-2.0","D73F5F2C54C942A895B3930808944593","D73F5F2C54C942A895B3930808944593","0198ed31-b706-77d4-becc-53a7d3011d29","0198ed26-a6a7-793d-982a-8940a71ab262","{""num_scrambled_semantic"":""8"",""num_scrambled_causal"":""4"",""num_scrambled_schematic"":""4"",""participantId"":""D73F5F2C54C942A895B3930808944593"",""assignmentId"":""0198ed31-b706-77d4-becc-53a7d3011d29"",""projectId"":""0198ed26-a6a7-793d-982a-8940a71ab262""}","https://test12345.live/?num_scrambled_semantic=8&num_scrambled_causal=4&num_scrambled_schematic=4&participantId=D73F5F2C54C942A895B3930808944593&assignmentId=0198ed31-b706-77d4-becc-53a7d3011d29&projectId=0198ed26-a6a7-793d-982a-8940a71ab262","D73F5F2C54C942A895B3930808944593-2025-08-27-21-29-54","","null","","[]","null","",""
"","","","","","image-button-response","92","434200","0.0-14.0-1.0-0.1","D73F5F2C54C942A895B3930808944593","D73F5F2C54C942A895B3930808944593","0198ed31-b706-77d4-becc-53a7d3011d29","0198ed26-a6a7-793d-982a-8940a71ab262","{""num_scrambled_semantic"":""8"",""num_scrambled_causal"":""4"",""num_scrambled_schematic"":""4"",""participantId"":""D73F5F2C54C942A895B3930808944593"",""assignmentId"":""0198ed31-b706-77d4-becc-53a7d3011d29"",""projectId"":""0198ed26-a6a7-793d-982a-8940a71ab262""}","https://test12345.live/?num_scrambled_semantic=8&num_scrambled_causal=4&num_scrambled_schematic=4&participantId=D73F5F2C54C942A895B3930808944593&assignmentId=0198ed31-b706-77d4-becc-53a7d3011d29&projectId=0198ed26-a6a7-793d-982a-8940a71ab262","D73F5F2C54C942A895B3930808944593-2025-08-27-21-29-54","","null","","images/semantic_sequence/market_semantic/market_semantic_2.png","null","",""
"","","","","","image-button-response","93","435071","0.0-14.0-1.0-1.1","D73F5F2C54C942A895B3930808944593","D73F5F2C54C942A895B3930808944593","0198ed31-b706-77d4-becc-53a7d3011d29","0198ed26-a6a7-793d-982a-8940a71ab262","{""num_scrambled_semantic"":""8"",""num_scrambled_causal"":""4"",""num_scrambled_schematic"":""4"",""participantId"":""D73F5F2C54C942A895B3930808944593"",""assignmentId"":""0198ed31-b706-77d4-becc-53a7d3011d29"",""projectId"":""0198ed26-a6a7-793d-982a-8940a71ab262""}","https://test12345.live/?num_scrambled_semantic=8&num_scrambled_causal=4&num_scrambled_schematic=4&participantId=D73F5F2C54C942A895B3930808944593&assignmentId=0198ed31-b706-77d4-becc-53a7d3011d29&projectId=0198ed26-a6a7-793d-982a-8940a71ab262","D73F5F2C54C942A895B3930808944593-2025-08-27-21-29-54","","870","","images/semantic_sequence/market_semantic/market_semantic_2.png","1","",""
"","","","","","image-button-response","94","436880","0.0-14.0-1.0-2.1","D73F5F2C54C942A895B3930808944593","D73F5F2C54C942A895B3930808944593","0198ed31-b706-77d4-becc-53a7d3011d29","0198ed26-a6a7-793d-982a-8940a71ab262","{""num_scrambled_semantic"":""8"",""num_scrambled_causal"":""4"",""num_scrambled_schematic"":""4"",""participantId"":""D73F5F2C54C942A895B3930808944593"",""assignmentId"":""0198ed31-b706-77d4-becc-53a7d3011d29"",""projectId"":""0198ed26-a6a7-793d-982a-8940a71ab262""}","https://test12345.live/?num_scrambled_semantic=8&num_scrambled_causal=4&num_scrambled_schematic=4&participantId=D73F5F2C54C942A895B3930808944593&assignmentId=0198ed31-b706-77d4-becc-53a7d3011d29&projectId=0198ed26-a6a7-793d-982a-8940a71ab262","D73F5F2C54C942A895B3930808944593-2025-08-27-21-29-54","","null","","[]","null","",""
"","","","","","image-button-response","95","441391","0.0-14.0-1.0-0.2","D73F5F2C54C942A895B3930808944593","D73F5F2C54C942A895B3930808944593","0198ed31-b706-77d4-becc-53a7d3011d29","0198ed26-a6a7-793d-982a-8940a71ab262","{""num_scrambled_semantic"":""8"",""num_scrambled_causal"":""4"",""num_scrambled_schematic"":""4"",""participantId"":""D73F5F2C54C942A895B3930808944593"",""assignmentId"":""0198ed31-b706-77d4-becc-53a7d3011d29"",""projectId"":""0198ed26-a6a7-793d-982a-8940a71ab262""}","https://test12345.live/?num_scrambled_semantic=8&num_scrambled_causal=4&num_scrambled_schematic=4&participantId=D73F5F2C54C942A895B3930808944593&assignmentId=0198ed31-b706-77d4-becc-53a7d3011d29&projectId=0198ed26-a6a7-793d-982a-8940a71ab262","D73F5F2C54C942A895B3930808944593-2025-08-27-21-29-54","","null","","images/semantic_sequence/market_semantic/market_semantic_4.png","null","",""
"","","","","","image-button-response","96","442252","0.0-14.0-1.0-1.2","D73F5F2C54C942A895B3930808944593","D73F5F2C54C942A895B3930808944593","0198ed31-b706-77d4-becc-53a7d3011d29","0198ed26-a6a7-793d-982a-8940a71ab262","{""num_scrambled_semantic"":""8"",""num_scrambled_causal"":""4"",""num_scrambled_schematic"":""4"",""participantId"":""D73F5F2C54C942A895B3930808944593"",""assignmentId"":""0198ed31-b706-77d4-becc-53a7d3011d29"",""projectId"":""0198ed26-a6a7-793d-982a-8940a71ab262""}","https://test12345.live/?num_scrambled_semantic=8&num_scrambled_causal=4&num_scrambled_schematic=4&participantId=D73F5F2C54C942A895B3930808944593&assignmentId=0198ed31-b706-77d4-becc-53a7d3011d29&projectId=0198ed26-a6a7-793d-982a-8940a71ab262","D73F5F2C54C942A895B3930808944593-2025-08-27-21-29-54","","861","","images/semantic_sequence/market_semantic/market_semantic_4.png","0","",""
"","","","","","image-button-response","97","444065","0.0-14.0-1.0-2.2","D73F5F2C54C942A895B3930808944593","D73F5F2C54C942A895B3930808944593","0198ed31-b706-77d4-becc-53a7d3011d29","0198ed26-a6a7-793d-982a-8940a71ab262","{""num_scrambled_semantic"":""8"",""num_scrambled_causal"":""4"",""num_scrambled_schematic"":""4"",""participantId"":""D73F5F2C54C942A895B3930808944593"",""assignmentId"":""0198ed31-b706-77d4-becc-53a7d3011d29"",""projectId"":""0198ed26-a6a7-793d-982a-8940a71ab262""}","https://test12345.live/?num_scrambled_semantic=8&num_scrambled_causal=4&num_scrambled_schematic=4&participantId=D73F5F2C54C942A895B3930808944593&assignmentId=0198ed31-b706-77d4-becc-53a7d3011d29&projectId=0198ed26-a6a7-793d-982a-8940a71ab262","D73F5F2C54C942A895B3930808944593-2025-08-27-21-29-54","","null","","[]","null","",""
"","","","","","image-button-response","98","448566","0.0-14.0-1.0-0.3","D73F5F2C54C942A895B3930808944593","D73F5F2C54C942A895B3930808944593","0198ed31-b706-77d4-becc-53a7d3011d29","0198ed26-a6a7-793d-982a-8940a71ab262","{""num_scrambled_semantic"":""8"",""num_scrambled_causal"":""4"",""num_scrambled_schematic"":""4"",""participantId"":""D73F5F2C54C942A895B3930808944593"",""assignmentId"":""0198ed31-b706-77d4-becc-53a7d3011d29"",""projectId"":""0198ed26-a6a7-793d-982a-8940a71ab262""}","https://test12345.live/?num_scrambled_semantic=8&num_scrambled_causal=4&num_scrambled_schematic=4&participantId=D73F5F2C54C942A895B3930808944593&assignmentId=0198ed31-b706-77d4-becc-53a7d3011d29&projectId=0198ed26-a6a7-793d-982a-8940a71ab262","D73F5F2C54C942A895B3930808944593-2025-08-27-21-29-54","","null","","images/semantic_sequence/market_semantic/market_semantic_7.png","null","",""
"","","","","","image-button-response","99","449441","0.0-14.0-1.0-1.3","D73F5F2C54C942A895B3930808944593","D73F5F2C54C942A895B3930808944593","0198ed31-b706-77d4-becc-53a7d3011d29","0198ed26-a6a7-793d-982a-8940a71ab262","{""num_scrambled_semantic"":""8"",""num_scrambled_causal"":""4"",""num_scrambled_schematic"":""4"",""participantId"":""D73F5F2C54C942A895B3930808944593"",""assignmentId"":""0198ed31-b706-77d4-becc-53a7d3011d29"",""projectId"":""0198ed26-a6a7-793d-982a-8940a71ab262""}","https://test12345.live/?num_scrambled_semantic=8&num_scrambled_causal=4&num_scrambled_schematic=4&participantId=D73F5F2C54C942A895B3930808944593&assignmentId=0198ed31-b706-77d4-becc-53a7d3011d29&projectId=0198ed26-a6a7-793d-982a-8940a71ab262","D73F5F2C54C942A895B3930808944593-2025-08-27-21-29-54","","875","","images/semantic_sequence/market_semantic/market_semantic_7.png","0","",""
"","","","","","image-button-response","100","451249","0.0-14.0-1.0-2.3","D73F5F2C54C942A895B3930808944593","D73F5F2C54C942A895B3930808944593","0198ed31-b706-77d4-becc-53a7d3011d29","0198ed26-a6a7-793d-982a-8940a71ab262","{""num_scrambled_semantic"":""8"",""num_scrambled_causal"":""4"",""num_scrambled_schematic"":""4"",""participantId"":""D73F5F2C54C942A895B3930808944593"",""assignmentId"":""0198ed31-b706-77d4-becc-53a7d3011d29"",""projectId"":""0198ed26-a6a7-793d-982a-8940a71ab262""}","https://test12345.live/?num_scrambled_semantic=8&num_scrambled_causal=4&num_scrambled_schematic=4&participantId=D73F5F2C54C942A895B3930808944593&assignmentId=0198ed31-b706-77d4-becc-53a7d3011d29&projectId=0198ed26-a6a7-793d-982a-8940a71ab262","D73F5F2C54C942A895B3930808944593-2025-08-27-21-29-54","","null","","[]","null","",""
"","","","","","image-button-response","101","455757","0.0-14.0-1.0-0.4","D73F5F2C54C942A895B3930808944593","D73F5F2C54C942A895B3930808944593","0198ed31-b706-77d4-becc-53a7d3011d29","0198ed26-a6a7-793d-982a-8940a71ab262","{""num_scrambled_semantic"":""8"",""num_scrambled_causal"":""4"",""num_scrambled_schematic"":""4"",""participantId"":""D73F5F2C54C942A895B3930808944593"",""assignmentId"":""0198ed31-b706-77d4-becc-53a7d3011d29"",""projectId"":""0198ed26-a6a7-793d-982a-8940a71ab262""}","https://test12345.live/?num_scrambled_semantic=8&num_scrambled_causal=4&num_scrambled_schematic=4&participantId=D73F5F2C54C942A895B3930808944593&assignmentId=0198ed31-b706-77d4-becc-53a7d3011d29&projectId=0198ed26-a6a7-793d-982a-8940a71ab262","D73F5F2C54C942A895B3930808944593-2025-08-27-21-29-54","","null","","images/semantic_sequence/market_semantic/market_semantic_5.png","null","",""
"","","","","","image-button-response","102","456901","0.0-14.0-1.0-1.4","D73F5F2C54C942A895B3930808944593","D73F5F2C54C942A895B3930808944593","0198ed31-b706-77d4-becc-53a7d3011d29","0198ed26-a6a7-793d-982a-8940a71ab262","{""num_scrambled_semantic"":""8"",""num_scrambled_causal"":""4"",""num_scrambled_schematic"":""4"",""participantId"":""D73F5F2C54C942A895B3930808944593"",""assignmentId"":""0198ed31-b706-77d4-becc-53a7d3011d29"",""projectId"":""0198ed26-a6a7-793d-982a-8940a71ab262""}","https://test12345.live/?num_scrambled_semantic=8&num_scrambled_causal=4&num_scrambled_schematic=4&participantId=D73F5F2C54C942A895B3930808944593&assignmentId=0198ed31-b706-77d4-becc-53a7d3011d29&projectId=0198ed26-a6a7-793d-982a-8940a71ab262","D73F5F2C54C942A895B3930808944593-2025-08-27-21-29-54","","1143","","images/semantic_sequence/market_semantic/market_semantic_5.png","1","",""
"","","","","","image-button-response","103","458707","0.0-14.0-1.0-2.4","D73F5F2C54C942A895B3930808944593","D73F5F2C54C942A895B3930808944593","0198ed31-b706-77d4-becc-53a7d3011d29","0198ed26-a6a7-793d-982a-8940a71ab262","{""num_scrambled_semantic"":""8"",""num_scrambled_causal"":""4"",""num_scrambled_schematic"":""4"",""participantId"":""D73F5F2C54C942A895B3930808944593"",""assignmentId"":""0198ed31-b706-77d4-becc-53a7d3011d29"",""projectId"":""0198ed26-a6a7-793d-982a-8940a71ab262""}","https://test12345.live/?num_scrambled_semantic=8&num_scrambled_causal=4&num_scrambled_schematic=4&participantId=D73F5F2C54C942A895B3930808944593&assignmentId=0198ed31-b706-77d4-becc-53a7d3011d29&projectId=0198ed26-a6a7-793d-982a-8940a71ab262","D73F5F2C54C942A895B3930808944593-2025-08-27-21-29-54","","null","","[]","null","",""
"","","","","","image-button-response","104","463207","0.0-14.0-1.0-0.5","D73F5F2C54C942A895B3930808944593","D73F5F2C54C942A895B3930808944593","0198ed31-b706-77d4-becc-53a7d3011d29","0198ed26-a6a7-793d-982a-8940a71ab262","{""num_scrambled_semantic"":""8"",""num_scrambled_causal"":""4"",""num_scrambled_schematic"":""4"",""participantId"":""D73F5F2C54C942A895B3930808944593"",""assignmentId"":""0198ed31-b706-77d4-becc-53a7d3011d29"",""projectId"":""0198ed26-a6a7-793d-982a-8940a71ab262""}","https://test12345.live/?num_scrambled_semantic=8&num_scrambled_causal=4&num_scrambled_schematic=4&participantId=D73F5F2C54C942A895B3930808944593&assignmentId=0198ed31-b706-77d4-becc-53a7d3011d29&projectId=0198ed26-a6a7-793d-982a-8940a71ab262","D73F5F2C54C942A895B3930808944593-2025-08-27-21-29-54","","null","","images/semantic_sequence/market_semantic/market_semantic_9.png","null","",""
"","","","","","image-button-response","105","464290","0.0-14.0-1.0-1.5","D73F5F2C54C942A895B3930808944593","D73F5F2C54C942A895B3930808944593","0198ed31-b706-77d4-becc-53a7d3011d29","0198ed26-a6a7-793d-982a-8940a71ab262","{""num_scrambled_semantic"":""8"",""num_scrambled_causal"":""4"",""num_scrambled_schematic"":""4"",""participantId"":""D73F5F2C54C942A895B3930808944593"",""assignmentId"":""0198ed31-b706-77d4-becc-53a7d3011d29"",""projectId"":""0198ed26-a6a7-793d-982a-8940a71ab262""}","https://test12345.live/?num_scrambled_semantic=8&num_scrambled_causal=4&num_scrambled_schematic=4&participantId=D73F5F2C54C942A895B3930808944593&assignmentId=0198ed31-b706-77d4-becc-53a7d3011d29&projectId=0198ed26-a6a7-793d-982a-8940a71ab262","D73F5F2C54C942A895B3930808944593-2025-08-27-21-29-54","","1082","","images/semantic_sequence/market_semantic/market_semantic_9.png","1","",""
"","","","","","image-button-response","106","466094","0.0-14.0-1.0-2.5","D73F5F2C54C942A895B3930808944593","D73F5F2C54C942A895B3930808944593","0198ed31-b706-77d4-becc-53a7d3011d29","0198ed26-a6a7-793d-982a-8940a71ab262","{""num_scrambled_semantic"":""8"",""num_scrambled_causal"":""4"",""num_scrambled_schematic"":""4"",""participantId"":""D73F5F2C54C942A895B3930808944593"",""assignmentId"":""0198ed31-b706-77d4-becc-53a7d3011d29"",""projectId"":""0198ed26-a6a7-793d-982a-8940a71ab262""}","https://test12345.live/?num_scrambled_semantic=8&num_scrambled_causal=4&num_scrambled_schematic=4&participantId=D73F5F2C54C942A895B3930808944593&assignmentId=0198ed31-b706-77d4-becc-53a7d3011d29&projectId=0198ed26-a6a7-793d-982a-8940a71ab262","D73F5F2C54C942A895B3930808944593-2025-08-27-21-29-54","","null","","[]","null","",""
"","","","","","image-button-response","107","470601","0.0-14.0-1.0-0.6","D73F5F2C54C942A895B3930808944593","D73F5F2C54C942A895B3930808944593","0198ed31-b706-77d4-becc-53a7d3011d29","0198ed26-a6a7-793d-982a-8940a71ab262","{""num_scrambled_semantic"":""8"",""num_scrambled_causal"":""4"",""num_scrambled_schematic"":""4"",""participantId"":""D73F5F2C54C942A895B3930808944593"",""assignmentId"":""0198ed31-b706-77d4-becc-53a7d3011d29"",""projectId"":""0198ed26-a6a7-793d-982a-8940a71ab262""}","https://test12345.live/?num_scrambled_semantic=8&num_scrambled_causal=4&num_scrambled_schematic=4&participantId=D73F5F2C54C942A895B3930808944593&assignmentId=0198ed31-b706-77d4-becc-53a7d3011d29&projectId=0198ed26-a6a7-793d-982a-8940a71ab262","D73F5F2C54C942A895B3930808944593-2025-08-27-21-29-54","","null","","images/semantic_sequence/market_semantic/market_semantic_6.png","null","",""
"","","","","","image-button-response","108","471527","0.0-14.0-1.0-1.6","D73F5F2C54C942A895B3930808944593","D73F5F2C54C942A895B3930808944593","0198ed31-b706-77d4-becc-53a7d3011d29","0198ed26-a6a7-793d-982a-8940a71ab262","{""num_scrambled_semantic"":""8"",""num_scrambled_causal"":""4"",""num_scrambled_schematic"":""4"",""participantId"":""D73F5F2C54C942A895B3930808944593"",""assignmentId"":""0198ed31-b706-77d4-becc-53a7d3011d29"",""projectId"":""0198ed26-a6a7-793d-982a-8940a71ab262""}","https://test12345.live/?num_scrambled_semantic=8&num_scrambled_causal=4&num_scrambled_schematic=4&participantId=D73F5F2C54C942A895B3930808944593&assignmentId=0198ed31-b706-77d4-becc-53a7d3011d29&projectId=0198ed26-a6a7-793d-982a-8940a71ab262","D73F5F2C54C942A895B3930808944593-2025-08-27-21-29-54","","926","","images/semantic_sequence/market_semantic/market_semantic_6.png","1","",""
"","","","","","image-button-response","109","473336","0.0-14.0-1.0-2.6","D73F5F2C54C942A895B3930808944593","D73F5F2C54C942A895B3930808944593","0198ed31-b706-77d4-becc-53a7d3011d29","0198ed26-a6a7-793d-982a-8940a71ab262","{""num_scrambled_semantic"":""8"",""num_scrambled_causal"":""4"",""num_scrambled_schematic"":""4"",""participantId"":""D73F5F2C54C942A895B3930808944593"",""assignmentId"":""0198ed31-b706-77d4-becc-53a7d3011d29"",""projectId"":""0198ed26-a6a7-793d-982a-8940a71ab262""}","https://test12345.live/?num_scrambled_semantic=8&num_scrambled_causal=4&num_scrambled_schematic=4&participantId=D73F5F2C54C942A895B3930808944593&assignmentId=0198ed31-b706-77d4-becc-53a7d3011d29&projectId=0198ed26-a6a7-793d-982a-8940a71ab262","D73F5F2C54C942A895B3930808944593-2025-08-27-21-29-54","","null","","[]","null","",""
"","","","","","image-button-response","110","477847","0.0-14.0-1.0-0.7","D73F5F2C54C942A895B3930808944593","D73F5F2C54C942A895B3930808944593","0198ed31-b706-77d4-becc-53a7d3011d29","0198ed26-a6a7-793d-982a-8940a71ab262","{""num_scrambled_semantic"":""8"",""num_scrambled_causal"":""4"",""num_scrambled_schematic"":""4"",""participantId"":""D73F5F2C54C942A895B3930808944593"",""assignmentId"":""0198ed31-b706-77d4-becc-53a7d3011d29"",""projectId"":""0198ed26-a6a7-793d-982a-8940a71ab262""}","https://test12345.live/?num_scrambled_semantic=8&num_scrambled_causal=4&num_scrambled_schematic=4&participantId=D73F5F2C54C942A895B3930808944593&assignmentId=0198ed31-b706-77d4-becc-53a7d3011d29&projectId=0198ed26-a6a7-793d-982a-8940a71ab262","D73F5F2C54C942A895B3930808944593-2025-08-27-21-29-54","","null","","images/semantic_sequence/market_semantic/market_semantic_8.png","null","",""
"","","","","","image-button-response","111","478891","0.0-14.0-1.0-1.7","D73F5F2C54C942A895B3930808944593","D73F5F2C54C942A895B3930808944593","0198ed31-b706-77d4-becc-53a7d3011d29","0198ed26-a6a7-793d-982a-8940a71ab262","{""num_scrambled_semantic"":""8"",""num_scrambled_causal"":""4"",""num_scrambled_schematic"":""4"",""participantId"":""D73F5F2C54C942A895B3930808944593"",""assignmentId"":""0198ed31-b706-77d4-becc-53a7d3011d29"",""projectId"":""0198ed26-a6a7-793d-982a-8940a71ab262""}","https://test12345.live/?num_scrambled_semantic=8&num_scrambled_causal=4&num_scrambled_schematic=4&participantId=D73F5F2C54C942A895B3930808944593&assignmentId=0198ed31-b706-77d4-becc-53a7d3011d29&projectId=0198ed26-a6a7-793d-982a-8940a71ab262","D73F5F2C54C942A895B3930808944593-2025-08-27-21-29-54","","1043","","images/semantic_sequence/market_semantic/market_semantic_8.png","1","",""
"","","","","","image-button-response","112","480704","0.0-14.0-1.0-2.7","D73F5F2C54C942A895B3930808944593","D73F5F2C54C942A895B3930808944593","0198ed31-b706-77d4-becc-53a7d3011d29","0198ed26-a6a7-793d-982a-8940a71ab262","{""num_scrambled_semantic"":""8"",""num_scrambled_causal"":""4"",""num_scrambled_schematic"":""4"",""participantId"":""D73F5F2C54C942A895B3930808944593"",""assignmentId"":""0198ed31-b706-77d4-becc-53a7d3011d29"",""projectId"":""0198ed26-a6a7-793d-982a-8940a71ab262""}","https://test12345.live/?num_scrambled_semantic=8&num_scrambled_causal=4&num_scrambled_schematic=4&participantId=D73F5F2C54C942A895B3930808944593&assignmentId=0198ed31-b706-77d4-becc-53a7d3011d29&projectId=0198ed26-a6a7-793d-982a-8940a71ab262","D73F5F2C54C942A895B3930808944593-2025-08-27-21-29-54","","null","","[]","null","",""
"","","","","","image-button-response","113","485205","0.0-14.0-1.0-0.8","D73F5F2C54C942A895B3930808944593","D73F5F2C54C942A895B3930808944593","0198ed31-b706-77d4-becc-53a7d3011d29","0198ed26-a6a7-793d-982a-8940a71ab262","{""num_scrambled_semantic"":""8"",""num_scrambled_causal"":""4"",""num_scrambled_schematic"":""4"",""participantId"":""D73F5F2C54C942A895B3930808944593"",""assignmentId"":""0198ed31-b706-77d4-becc-53a7d3011d29"",""projectId"":""0198ed26-a6a7-793d-982a-8940a71ab262""}","https://test12345.live/?num_scrambled_semantic=8&num_scrambled_causal=4&num_scrambled_schematic=4&participantId=D73F5F2C54C942A895B3930808944593&assignmentId=0198ed31-b706-77d4-becc-53a7d3011d29&projectId=0198ed26-a6a7-793d-982a-8940a71ab262","D73F5F2C54C942A895B3930808944593-2025-08-27-21-29-54","","null","","images/semantic_sequence/market_semantic/market_semantic_ten.png","null","",""
