"success","timeout","failed_images","failed_audio","failed_video","trial_type","trial_index","time_elapsed","internal_node_id","subject","subject_id","study_id","session_id","urlvar","current_url","audio_id","view_history","rt","device_id","stimulus","response","estimated_stimulus_onset","seq_name"
"true","false","[]","[]","[]","preload","0","91201","0.0-0.0","DA26FAFAC2C34B7F9116B67333EC3F47","DA26FAFAC2C34B7F9116B67333EC3F47","aff0cce6-ddc1-4772-a184-d9b646f93a1e","a0a8f18c-a66e-4ba7-a170-23efbdc67501","{""participantId"":""DA26FAFAC2C34B7F9116B67333EC3F47"",""assignmentId"":""aff0cce6-ddc1-4772-a184-d9b646f93a1e"",""projectId"":""a0a8f18c-a66e-4ba7-a170-23efbdc67501""}","https://test12345.live/?participantId=DA26FAFAC2C34B7F9116B67333EC3F47&assignmentId=aff0cce6-ddc1-4772-a184-d9b646f93a1e&projectId=a0a8f18c-a66e-4ba7-a170-23efbdc67501","DA26FAFAC2C34B7F9116B67333EC3F47-2024-11-24-19-01-10","","","","","","",""
"","","","","","instructions","1","467456","0.0-1.0","DA26FAFAC2C34B7F9116B67333EC3F47","DA26FAFAC2C34B7F9116B67333EC3F47","aff0cce6-ddc1-4772-a184-d9b646f93a1e","a0a8f18c-a66e-4ba7-a170-23efbdc67501","{""participantId"":""DA26FAFAC2C34B7F9116B67333EC3F47"",""assignmentId"":""aff0cce6-ddc1-4772-a184-d9b646f93a1e"",""projectId"":""a0a8f18c-a66e-4ba7-a170-23efbdc67501""}","https://test12345.live/?participantId=DA26FAFAC2C34B7F9116B67333EC3F47&assignmentId=aff0cce6-ddc1-4772-a184-d9b646f93a1e&projectId=a0a8f18c-a66e-4ba7-a170-23efbdc67501","DA26FAFAC2C34B7F9116B67333EC3F47-2024-11-24-19-01-10","[{""page_index"":0,""viewing_time"":376243}]","376243","","","","",""
"","","","","","instructions","2","477999","0.0-2.0","DA26FAFAC2C34B7F9116B67333EC3F47","DA26FAFAC2C34B7F9116B67333EC3F47","aff0cce6-ddc1-4772-a184-d9b646f93a1e","a0a8f18c-a66e-4ba7-a170-23efbdc67501","{""participantId"":""DA26FAFAC2C34B7F9116B67333EC3F47"",""assignmentId"":""aff0cce6-ddc1-4772-a184-d9b646f93a1e"",""projectId"":""a0a8f18c-a66e-4ba7-a170-23efbdc67501""}","https://test12345.live/?participantId=DA26FAFAC2C34B7F9116B67333EC3F47&assignmentId=aff0cce6-ddc1-4772-a184-d9b646f93a1e&projectId=a0a8f18c-a66e-4ba7-a170-23efbdc67501","DA26FAFAC2C34B7F9116B67333EC3F47-2024-11-24-19-01-10","[{""page_index"":0,""viewing_time"":10542}]","10542","","","","",""
"true","","","","","fullscreen","3","483374","0.0-3.0","DA26FAFAC2C34B7F9116B67333EC3F47","DA26FAFAC2C34B7F9116B67333EC3F47","aff0cce6-ddc1-4772-a184-d9b646f93a1e","a0a8f18c-a66e-4ba7-a170-23efbdc67501","{""participantId"":""DA26FAFAC2C34B7F9116B67333EC3F47"",""assignmentId"":""aff0cce6-ddc1-4772-a184-d9b646f93a1e"",""projectId"":""a0a8f18c-a66e-4ba7-a170-23efbdc67501""}","https://test12345.live/?participantId=DA26FAFAC2C34B7F9116B67333EC3F47&assignmentId=aff0cce6-ddc1-4772-a184-d9b646f93a1e&projectId=a0a8f18c-a66e-4ba7-a170-23efbdc67501","DA26FAFAC2C34B7F9116B67333EC3F47-2024-11-24-19-01-10","","4309","","","","",""
"","","","","","initialize-microphone","4","504723","0.0-4.0-0.0","DA26FAFAC2C34B7F9116B67333EC3F47","DA26FAFAC2C34B7F9116B67333EC3F47","aff0cce6-ddc1-4772-a184-d9b646f93a1e","a0a8f18c-a66e-4ba7-a170-23efbdc67501","{""participantId"":""DA26FAFAC2C34B7F9116B67333EC3F47"",""assignmentId"":""aff0cce6-ddc1-4772-a184-d9b646f93a1e"",""projectId"":""a0a8f18c-a66e-4ba7-a170-23efbdc67501""}","https://test12345.live/?participantId=DA26FAFAC2C34B7F9116B67333EC3F47&assignmentId=aff0cce6-ddc1-4772-a184-d9b646f93a1e&projectId=a0a8f18c-a66e-4ba7-a170-23efbdc67501","DA26FAFAC2C34B7F9116B67333EC3F47-2024-11-24-19-01-10","","","41daf7390504ca2f0d79b2fe0ea71230091a56be80fb51fd02225770c18af908","","","",""
"","","","","","html-audio-response","5","537674","0.0-4.0-1.0","DA26FAFAC2C34B7F9116B67333EC3F47","DA26FAFAC2C34B7F9116B67333EC3F47","aff0cce6-ddc1-4772-a184-d9b646f93a1e","a0a8f18c-a66e-4ba7-a170-23efbdc67501","{""participantId"":""DA26FAFAC2C34B7F9116B67333EC3F47"",""assignmentId"":""aff0cce6-ddc1-4772-a184-d9b646f93a1e"",""projectId"":""a0a8f18c-a66e-4ba7-a170-23efbdc67501""}","https://test12345.live/?participantId=DA26FAFAC2C34B7F9116B67333EC3F47&assignmentId=aff0cce6-ddc1-4772-a184-d9b646f93a1e&projectId=a0a8f18c-a66e-4ba7-a170-23efbdc67501","DA26FAFAC2C34B7F9116B67333EC3F47-2024-11-24-19-01-10","","1055","","<span style=""color: red; font-size: 24px""> NOW RECORDING</span>
        <p>Please test Microphone</p>","","10",""
"","","","","","html-button-response","6","543778","0.0-4.0-2.0","DA26FAFAC2C34B7F9116B67333EC3F47","DA26FAFAC2C34B7F9116B67333EC3F47","aff0cce6-ddc1-4772-a184-d9b646f93a1e","a0a8f18c-a66e-4ba7-a170-23efbdc67501","{""participantId"":""DA26FAFAC2C34B7F9116B67333EC3F47"",""assignmentId"":""aff0cce6-ddc1-4772-a184-d9b646f93a1e"",""projectId"":""a0a8f18c-a66e-4ba7-a170-23efbdc67501""}","https://test12345.live/?participantId=DA26FAFAC2C34B7F9116B67333EC3F47&assignmentId=aff0cce6-ddc1-4772-a184-d9b646f93a1e&projectId=a0a8f18c-a66e-4ba7-a170-23efbdc67501","DA26FAFAC2C34B7F9116B67333EC3F47-2024-11-24-19-01-10","","6103","","<p style=""font-size:48px; color:red;"">Is Microphone OK?</p>","0","",""
"","","","","","initialize-microphone","7","551112","0.0-4.1-0.1","DA26FAFAC2C34B7F9116B67333EC3F47","DA26FAFAC2C34B7F9116B67333EC3F47","aff0cce6-ddc1-4772-a184-d9b646f93a1e","a0a8f18c-a66e-4ba7-a170-23efbdc67501","{""participantId"":""DA26FAFAC2C34B7F9116B67333EC3F47"",""assignmentId"":""aff0cce6-ddc1-4772-a184-d9b646f93a1e"",""projectId"":""a0a8f18c-a66e-4ba7-a170-23efbdc67501""}","https://test12345.live/?participantId=DA26FAFAC2C34B7F9116B67333EC3F47&assignmentId=aff0cce6-ddc1-4772-a184-d9b646f93a1e&projectId=a0a8f18c-a66e-4ba7-a170-23efbdc67501","DA26FAFAC2C34B7F9116B67333EC3F47-2024-11-24-19-01-10","","","41daf7390504ca2f0d79b2fe0ea71230091a56be80fb51fd02225770c18af908","","","",""
"","","","","","html-audio-response","8","556351","0.0-4.1-1.1","DA26FAFAC2C34B7F9116B67333EC3F47","DA26FAFAC2C34B7F9116B67333EC3F47","aff0cce6-ddc1-4772-a184-d9b646f93a1e","a0a8f18c-a66e-4ba7-a170-23efbdc67501","{""participantId"":""DA26FAFAC2C34B7F9116B67333EC3F47"",""assignmentId"":""aff0cce6-ddc1-4772-a184-d9b646f93a1e"",""projectId"":""a0a8f18c-a66e-4ba7-a170-23efbdc67501""}","https://test12345.live/?participantId=DA26FAFAC2C34B7F9116B67333EC3F47&assignmentId=aff0cce6-ddc1-4772-a184-d9b646f93a1e&projectId=a0a8f18c-a66e-4ba7-a170-23efbdc67501","DA26FAFAC2C34B7F9116B67333EC3F47-2024-11-24-19-01-10","","1411","","<span style=""color: red; font-size: 24px""> NOW RECORDING</span>
        <p>Please test Microphone</p>","","2",""
"","","","","","html-button-response","9","557740","0.0-4.1-2.1","DA26FAFAC2C34B7F9116B67333EC3F47","DA26FAFAC2C34B7F9116B67333EC3F47","aff0cce6-ddc1-4772-a184-d9b646f93a1e","a0a8f18c-a66e-4ba7-a170-23efbdc67501","{""participantId"":""DA26FAFAC2C34B7F9116B67333EC3F47"",""assignmentId"":""aff0cce6-ddc1-4772-a184-d9b646f93a1e"",""projectId"":""a0a8f18c-a66e-4ba7-a170-23efbdc67501""}","https://test12345.live/?participantId=DA26FAFAC2C34B7F9116B67333EC3F47&assignmentId=aff0cce6-ddc1-4772-a184-d9b646f93a1e&projectId=a0a8f18c-a66e-4ba7-a170-23efbdc67501","DA26FAFAC2C34B7F9116B67333EC3F47-2024-11-24-19-01-10","","1387","","<p style=""font-size:48px; color:red;"">Is Microphone OK?</p>","1","",""
"","","","","","instructions","10","572796","0.0-5.0","DA26FAFAC2C34B7F9116B67333EC3F47","DA26FAFAC2C34B7F9116B67333EC3F47","aff0cce6-ddc1-4772-a184-d9b646f93a1e","a0a8f18c-a66e-4ba7-a170-23efbdc67501","{""participantId"":""DA26FAFAC2C34B7F9116B67333EC3F47"",""assignmentId"":""aff0cce6-ddc1-4772-a184-d9b646f93a1e"",""projectId"":""a0a8f18c-a66e-4ba7-a170-23efbdc67501""}","https://test12345.live/?participantId=DA26FAFAC2C34B7F9116B67333EC3F47&assignmentId=aff0cce6-ddc1-4772-a184-d9b646f93a1e&projectId=a0a8f18c-a66e-4ba7-a170-23efbdc67501","DA26FAFAC2C34B7F9116B67333EC3F47-2024-11-24-19-01-10","[{""page_index"":0,""viewing_time"":7542},{""page_index"":1,""viewing_time"":7513}]","15055","","","","",""
"","","","","","image-button-response","11","578959","0.0-6.0-0.0","DA26FAFAC2C34B7F9116B67333EC3F47","DA26FAFAC2C34B7F9116B67333EC3F47","aff0cce6-ddc1-4772-a184-d9b646f93a1e","a0a8f18c-a66e-4ba7-a170-23efbdc67501","{""participantId"":""DA26FAFAC2C34B7F9116B67333EC3F47"",""assignmentId"":""aff0cce6-ddc1-4772-a184-d9b646f93a1e"",""projectId"":""a0a8f18c-a66e-4ba7-a170-23efbdc67501""}","https://test12345.live/?participantId=DA26FAFAC2C34B7F9116B67333EC3F47&assignmentId=aff0cce6-ddc1-4772-a184-d9b646f93a1e&projectId=a0a8f18c-a66e-4ba7-a170-23efbdc67501","DA26FAFAC2C34B7F9116B67333EC3F47-2024-11-24-19-01-10","","null","","images/instructions/movie_0.png","null","",""
"","","","","","image-button-response","12","583479","0.0-6.0-1.0-0.0","DA26FAFAC2C34B7F9116B67333EC3F47","DA26FAFAC2C34B7F9116B67333EC3F47","aff0cce6-ddc1-4772-a184-d9b646f93a1e","a0a8f18c-a66e-4ba7-a170-23efbdc67501","{""participantId"":""DA26FAFAC2C34B7F9116B67333EC3F47"",""assignmentId"":""aff0cce6-ddc1-4772-a184-d9b646f93a1e"",""projectId"":""a0a8f18c-a66e-4ba7-a170-23efbdc67501""}","https://test12345.live/?participantId=DA26FAFAC2C34B7F9116B67333EC3F47&assignmentId=aff0cce6-ddc1-4772-a184-d9b646f93a1e&projectId=a0a8f18c-a66e-4ba7-a170-23efbdc67501","DA26FAFAC2C34B7F9116B67333EC3F47-2024-11-24-19-01-10","","null","","images/instructions/movie_1.png","null","",""
"","","","","","image-button-response","13","587489","0.0-6.0-1.0-1.0","DA26FAFAC2C34B7F9116B67333EC3F47","DA26FAFAC2C34B7F9116B67333EC3F47","aff0cce6-ddc1-4772-a184-d9b646f93a1e","a0a8f18c-a66e-4ba7-a170-23efbdc67501","{""participantId"":""DA26FAFAC2C34B7F9116B67333EC3F47"",""assignmentId"":""aff0cce6-ddc1-4772-a184-d9b646f93a1e"",""projectId"":""a0a8f18c-a66e-4ba7-a170-23efbdc67501""}","https://test12345.live/?participantId=DA26FAFAC2C34B7F9116B67333EC3F47&assignmentId=aff0cce6-ddc1-4772-a184-d9b646f93a1e&projectId=a0a8f18c-a66e-4ba7-a170-23efbdc67501","DA26FAFAC2C34B7F9116B67333EC3F47-2024-11-24-19-01-10","","null","","images/instructions/movie_1.png","null","",""
"","","","","","image-button-response","14","589312","0.0-6.0-1.0-2.0","DA26FAFAC2C34B7F9116B67333EC3F47","DA26FAFAC2C34B7F9116B67333EC3F47","aff0cce6-ddc1-4772-a184-d9b646f93a1e","a0a8f18c-a66e-4ba7-a170-23efbdc67501","{""participantId"":""DA26FAFAC2C34B7F9116B67333EC3F47"",""assignmentId"":""aff0cce6-ddc1-4772-a184-d9b646f93a1e"",""projectId"":""a0a8f18c-a66e-4ba7-a170-23efbdc67501""}","https://test12345.live/?participantId=DA26FAFAC2C34B7F9116B67333EC3F47&assignmentId=aff0cce6-ddc1-4772-a184-d9b646f93a1e&projectId=a0a8f18c-a66e-4ba7-a170-23efbdc67501","DA26FAFAC2C34B7F9116B67333EC3F47-2024-11-24-19-01-10","","null","","[]","null","",""
"","","","","","image-button-response","15","593824","0.0-6.0-1.0-0.1","DA26FAFAC2C34B7F9116B67333EC3F47","DA26FAFAC2C34B7F9116B67333EC3F47","aff0cce6-ddc1-4772-a184-d9b646f93a1e","a0a8f18c-a66e-4ba7-a170-23efbdc67501","{""participantId"":""DA26FAFAC2C34B7F9116B67333EC3F47"",""assignmentId"":""aff0cce6-ddc1-4772-a184-d9b646f93a1e"",""projectId"":""a0a8f18c-a66e-4ba7-a170-23efbdc67501""}","https://test12345.live/?participantId=DA26FAFAC2C34B7F9116B67333EC3F47&assignmentId=aff0cce6-ddc1-4772-a184-d9b646f93a1e&projectId=a0a8f18c-a66e-4ba7-a170-23efbdc67501","DA26FAFAC2C34B7F9116B67333EC3F47-2024-11-24-19-01-10","","null","","images/instructions/movie_2.png","null","",""
"","","","","","image-button-response","16","597839","0.0-6.0-1.0-1.1","DA26FAFAC2C34B7F9116B67333EC3F47","DA26FAFAC2C34B7F9116B67333EC3F47","aff0cce6-ddc1-4772-a184-d9b646f93a1e","a0a8f18c-a66e-4ba7-a170-23efbdc67501","{""participantId"":""DA26FAFAC2C34B7F9116B67333EC3F47"",""assignmentId"":""aff0cce6-ddc1-4772-a184-d9b646f93a1e"",""projectId"":""a0a8f18c-a66e-4ba7-a170-23efbdc67501""}","https://test12345.live/?participantId=DA26FAFAC2C34B7F9116B67333EC3F47&assignmentId=aff0cce6-ddc1-4772-a184-d9b646f93a1e&projectId=a0a8f18c-a66e-4ba7-a170-23efbdc67501","DA26FAFAC2C34B7F9116B67333EC3F47-2024-11-24-19-01-10","","null","","images/instructions/movie_2.png","null","",""
"","","","","","image-button-response","17","599644","0.0-6.0-1.0-2.1","DA26FAFAC2C34B7F9116B67333EC3F47","DA26FAFAC2C34B7F9116B67333EC3F47","aff0cce6-ddc1-4772-a184-d9b646f93a1e","a0a8f18c-a66e-4ba7-a170-23efbdc67501","{""participantId"":""DA26FAFAC2C34B7F9116B67333EC3F47"",""assignmentId"":""aff0cce6-ddc1-4772-a184-d9b646f93a1e"",""projectId"":""a0a8f18c-a66e-4ba7-a170-23efbdc67501""}","https://test12345.live/?participantId=DA26FAFAC2C34B7F9116B67333EC3F47&assignmentId=aff0cce6-ddc1-4772-a184-d9b646f93a1e&projectId=a0a8f18c-a66e-4ba7-a170-23efbdc67501","DA26FAFAC2C34B7F9116B67333EC3F47-2024-11-24-19-01-10","","null","","[]","null","",""
"","","","","","image-button-response","18","604159","0.0-6.0-1.0-0.2","DA26FAFAC2C34B7F9116B67333EC3F47","DA26FAFAC2C34B7F9116B67333EC3F47","aff0cce6-ddc1-4772-a184-d9b646f93a1e","a0a8f18c-a66e-4ba7-a170-23efbdc67501","{""participantId"":""DA26FAFAC2C34B7F9116B67333EC3F47"",""assignmentId"":""aff0cce6-ddc1-4772-a184-d9b646f93a1e"",""projectId"":""a0a8f18c-a66e-4ba7-a170-23efbdc67501""}","https://test12345.live/?participantId=DA26FAFAC2C34B7F9116B67333EC3F47&assignmentId=aff0cce6-ddc1-4772-a184-d9b646f93a1e&projectId=a0a8f18c-a66e-4ba7-a170-23efbdc67501","DA26FAFAC2C34B7F9116B67333EC3F47-2024-11-24-19-01-10","","null","","images/instructions/movie_3.png","null","",""
"","","","","","image-button-response","19","605648","0.0-6.0-1.0-1.2","DA26FAFAC2C34B7F9116B67333EC3F47","DA26FAFAC2C34B7F9116B67333EC3F47","aff0cce6-ddc1-4772-a184-d9b646f93a1e","a0a8f18c-a66e-4ba7-a170-23efbdc67501","{""participantId"":""DA26FAFAC2C34B7F9116B67333EC3F47"",""assignmentId"":""aff0cce6-ddc1-4772-a184-d9b646f93a1e"",""projectId"":""a0a8f18c-a66e-4ba7-a170-23efbdc67501""}","https://test12345.live/?participantId=DA26FAFAC2C34B7F9116B67333EC3F47&assignmentId=aff0cce6-ddc1-4772-a184-d9b646f93a1e&projectId=a0a8f18c-a66e-4ba7-a170-23efbdc67501","DA26FAFAC2C34B7F9116B67333EC3F47-2024-11-24-19-01-10","","1485","","images/instructions/movie_3.png","0","",""
"","","","","","image-button-response","20","607470","0.0-6.0-1.0-2.2","DA26FAFAC2C34B7F9116B67333EC3F47","DA26FAFAC2C34B7F9116B67333EC3F47","aff0cce6-ddc1-4772-a184-d9b646f93a1e","a0a8f18c-a66e-4ba7-a170-23efbdc67501","{""participantId"":""DA26FAFAC2C34B7F9116B67333EC3F47"",""assignmentId"":""aff0cce6-ddc1-4772-a184-d9b646f93a1e"",""projectId"":""a0a8f18c-a66e-4ba7-a170-23efbdc67501""}","https://test12345.live/?participantId=DA26FAFAC2C34B7F9116B67333EC3F47&assignmentId=aff0cce6-ddc1-4772-a184-d9b646f93a1e&projectId=a0a8f18c-a66e-4ba7-a170-23efbdc67501","DA26FAFAC2C34B7F9116B67333EC3F47-2024-11-24-19-01-10","","null","","[]","null","",""
"","","","","","image-button-response","21","611985","0.0-6.0-1.0-0.3","DA26FAFAC2C34B7F9116B67333EC3F47","DA26FAFAC2C34B7F9116B67333EC3F47","aff0cce6-ddc1-4772-a184-d9b646f93a1e","a0a8f18c-a66e-4ba7-a170-23efbdc67501","{""participantId"":""DA26FAFAC2C34B7F9116B67333EC3F47"",""assignmentId"":""aff0cce6-ddc1-4772-a184-d9b646f93a1e"",""projectId"":""a0a8f18c-a66e-4ba7-a170-23efbdc67501""}","https://test12345.live/?participantId=DA26FAFAC2C34B7F9116B67333EC3F47&assignmentId=aff0cce6-ddc1-4772-a184-d9b646f93a1e&projectId=a0a8f18c-a66e-4ba7-a170-23efbdc67501","DA26FAFAC2C34B7F9116B67333EC3F47-2024-11-24-19-01-10","","null","","images/instructions/movie_4.png","null","",""
"","","","","","image-button-response","22","613332","0.0-6.0-1.0-1.3","DA26FAFAC2C34B7F9116B67333EC3F47","DA26FAFAC2C34B7F9116B67333EC3F47","aff0cce6-ddc1-4772-a184-d9b646f93a1e","a0a8f18c-a66e-4ba7-a170-23efbdc67501","{""participantId"":""DA26FAFAC2C34B7F9116B67333EC3F47"",""assignmentId"":""aff0cce6-ddc1-4772-a184-d9b646f93a1e"",""projectId"":""a0a8f18c-a66e-4ba7-a170-23efbdc67501""}","https://test12345.live/?participantId=DA26FAFAC2C34B7F9116B67333EC3F47&assignmentId=aff0cce6-ddc1-4772-a184-d9b646f93a1e&projectId=a0a8f18c-a66e-4ba7-a170-23efbdc67501","DA26FAFAC2C34B7F9116B67333EC3F47-2024-11-24-19-01-10","","1344","","images/instructions/movie_4.png","0","",""
"","","","","","image-button-response","23","615134","0.0-6.0-1.0-2.3","DA26FAFAC2C34B7F9116B67333EC3F47","DA26FAFAC2C34B7F9116B67333EC3F47","aff0cce6-ddc1-4772-a184-d9b646f93a1e","a0a8f18c-a66e-4ba7-a170-23efbdc67501","{""participantId"":""DA26FAFAC2C34B7F9116B67333EC3F47"",""assignmentId"":""aff0cce6-ddc1-4772-a184-d9b646f93a1e"",""projectId"":""a0a8f18c-a66e-4ba7-a170-23efbdc67501""}","https://test12345.live/?participantId=DA26FAFAC2C34B7F9116B67333EC3F47&assignmentId=aff0cce6-ddc1-4772-a184-d9b646f93a1e&projectId=a0a8f18c-a66e-4ba7-a170-23efbdc67501","DA26FAFAC2C34B7F9116B67333EC3F47-2024-11-24-19-01-10","","null","","[]","null","",""
"","","","","","instructions","24","643607","0.0-7.0","DA26FAFAC2C34B7F9116B67333EC3F47","DA26FAFAC2C34B7F9116B67333EC3F47","aff0cce6-ddc1-4772-a184-d9b646f93a1e","a0a8f18c-a66e-4ba7-a170-23efbdc67501","{""participantId"":""DA26FAFAC2C34B7F9116B67333EC3F47"",""assignmentId"":""aff0cce6-ddc1-4772-a184-d9b646f93a1e"",""projectId"":""a0a8f18c-a66e-4ba7-a170-23efbdc67501""}","https://test12345.live/?participantId=DA26FAFAC2C34B7F9116B67333EC3F47&assignmentId=aff0cce6-ddc1-4772-a184-d9b646f93a1e&projectId=a0a8f18c-a66e-4ba7-a170-23efbdc67501","DA26FAFAC2C34B7F9116B67333EC3F47-2024-11-24-19-01-10","[{""page_index"":0,""viewing_time"":6155},{""page_index"":1,""viewing_time"":22317}]","28472","","","","",""
"","","","","","html-audio-response","25","656452","0.0-8.0","DA26FAFAC2C34B7F9116B67333EC3F47","DA26FAFAC2C34B7F9116B67333EC3F47","aff0cce6-ddc1-4772-a184-d9b646f93a1e","a0a8f18c-a66e-4ba7-a170-23efbdc67501","{""participantId"":""DA26FAFAC2C34B7F9116B67333EC3F47"",""assignmentId"":""aff0cce6-ddc1-4772-a184-d9b646f93a1e"",""projectId"":""a0a8f18c-a66e-4ba7-a170-23efbdc67501""}","https://test12345.live/?participantId=DA26FAFAC2C34B7F9116B67333EC3F47&assignmentId=aff0cce6-ddc1-4772-a184-d9b646f93a1e&projectId=a0a8f18c-a66e-4ba7-a170-23efbdc67501","DA26FAFAC2C34B7F9116B67333EC3F47-2024-11-24-19-01-10","","2976","","[""<span style=\""color: red; font-size: 24px\""> NOW RECORDING</span><p>Please say out loud all the images you saw, as many as you can remember. The images can be said in any order.</p>""]","","2",""
"","","","","","instructions","26","658957","0.0-9.0","DA26FAFAC2C34B7F9116B67333EC3F47","DA26FAFAC2C34B7F9116B67333EC3F47","aff0cce6-ddc1-4772-a184-d9b646f93a1e","a0a8f18c-a66e-4ba7-a170-23efbdc67501","{""participantId"":""DA26FAFAC2C34B7F9116B67333EC3F47"",""assignmentId"":""aff0cce6-ddc1-4772-a184-d9b646f93a1e"",""projectId"":""a0a8f18c-a66e-4ba7-a170-23efbdc67501""}","https://test12345.live/?participantId=DA26FAFAC2C34B7F9116B67333EC3F47&assignmentId=aff0cce6-ddc1-4772-a184-d9b646f93a1e&projectId=a0a8f18c-a66e-4ba7-a170-23efbdc67501","DA26FAFAC2C34B7F9116B67333EC3F47-2024-11-24-19-01-10","[{""page_index"":0,""viewing_time"":2502}]","2502","","","","",""
"","","","","","image-button-response","27","664970","0.0-10.0-0.0","DA26FAFAC2C34B7F9116B67333EC3F47","DA26FAFAC2C34B7F9116B67333EC3F47","aff0cce6-ddc1-4772-a184-d9b646f93a1e","a0a8f18c-a66e-4ba7-a170-23efbdc67501","{""participantId"":""DA26FAFAC2C34B7F9116B67333EC3F47"",""assignmentId"":""aff0cce6-ddc1-4772-a184-d9b646f93a1e"",""projectId"":""a0a8f18c-a66e-4ba7-a170-23efbdc67501""}","https://test12345.live/?participantId=DA26FAFAC2C34B7F9116B67333EC3F47&assignmentId=aff0cce6-ddc1-4772-a184-d9b646f93a1e&projectId=a0a8f18c-a66e-4ba7-a170-23efbdc67501","DA26FAFAC2C34B7F9116B67333EC3F47-2024-11-24-19-01-10","","null","","images/schematic_sequence/flight_scheme/flight_scheme_0.png","null","",""
"","","","","","image-button-response","28","669489","0.0-10.0-1.0-0.0","DA26FAFAC2C34B7F9116B67333EC3F47","DA26FAFAC2C34B7F9116B67333EC3F47","aff0cce6-ddc1-4772-a184-d9b646f93a1e","a0a8f18c-a66e-4ba7-a170-23efbdc67501","{""participantId"":""DA26FAFAC2C34B7F9116B67333EC3F47"",""assignmentId"":""aff0cce6-ddc1-4772-a184-d9b646f93a1e"",""projectId"":""a0a8f18c-a66e-4ba7-a170-23efbdc67501""}","https://test12345.live/?participantId=DA26FAFAC2C34B7F9116B67333EC3F47&assignmentId=aff0cce6-ddc1-4772-a184-d9b646f93a1e&projectId=a0a8f18c-a66e-4ba7-a170-23efbdc67501","DA26FAFAC2C34B7F9116B67333EC3F47-2024-11-24-19-01-10","","null","","images/schematic_sequence/flight_scheme/flight_scheme_1.png","null","",""
"","","","","","image-button-response","29","671945","0.0-10.0-1.0-1.0","DA26FAFAC2C34B7F9116B67333EC3F47","DA26FAFAC2C34B7F9116B67333EC3F47","aff0cce6-ddc1-4772-a184-d9b646f93a1e","a0a8f18c-a66e-4ba7-a170-23efbdc67501","{""participantId"":""DA26FAFAC2C34B7F9116B67333EC3F47"",""assignmentId"":""aff0cce6-ddc1-4772-a184-d9b646f93a1e"",""projectId"":""a0a8f18c-a66e-4ba7-a170-23efbdc67501""}","https://test12345.live/?participantId=DA26FAFAC2C34B7F9116B67333EC3F47&assignmentId=aff0cce6-ddc1-4772-a184-d9b646f93a1e&projectId=a0a8f18c-a66e-4ba7-a170-23efbdc67501","DA26FAFAC2C34B7F9116B67333EC3F47-2024-11-24-19-01-10","","2453","","images/schematic_sequence/flight_scheme/flight_scheme_1.png","0","",""
"","","","","","image-button-response","30","673749","0.0-10.0-1.0-2.0","DA26FAFAC2C34B7F9116B67333EC3F47","DA26FAFAC2C34B7F9116B67333EC3F47","aff0cce6-ddc1-4772-a184-d9b646f93a1e","a0a8f18c-a66e-4ba7-a170-23efbdc67501","{""participantId"":""DA26FAFAC2C34B7F9116B67333EC3F47"",""assignmentId"":""aff0cce6-ddc1-4772-a184-d9b646f93a1e"",""projectId"":""a0a8f18c-a66e-4ba7-a170-23efbdc67501""}","https://test12345.live/?participantId=DA26FAFAC2C34B7F9116B67333EC3F47&assignmentId=aff0cce6-ddc1-4772-a184-d9b646f93a1e&projectId=a0a8f18c-a66e-4ba7-a170-23efbdc67501","DA26FAFAC2C34B7F9116B67333EC3F47-2024-11-24-19-01-10","","null","","[]","null","",""
"","","","","","image-button-response","31","678254","0.0-10.0-1.0-0.1","DA26FAFAC2C34B7F9116B67333EC3F47","DA26FAFAC2C34B7F9116B67333EC3F47","aff0cce6-ddc1-4772-a184-d9b646f93a1e","a0a8f18c-a66e-4ba7-a170-23efbdc67501","{""participantId"":""DA26FAFAC2C34B7F9116B67333EC3F47"",""assignmentId"":""aff0cce6-ddc1-4772-a184-d9b646f93a1e"",""projectId"":""a0a8f18c-a66e-4ba7-a170-23efbdc67501""}","https://test12345.live/?participantId=DA26FAFAC2C34B7F9116B67333EC3F47&assignmentId=aff0cce6-ddc1-4772-a184-d9b646f93a1e&projectId=a0a8f18c-a66e-4ba7-a170-23efbdc67501","DA26FAFAC2C34B7F9116B67333EC3F47-2024-11-24-19-01-10","","null","","images/schematic_sequence/flight_scheme/flight_scheme_2.png","null","",""
"","","","","","image-button-response","32","679194","0.0-10.0-1.0-1.1","DA26FAFAC2C34B7F9116B67333EC3F47","DA26FAFAC2C34B7F9116B67333EC3F47","aff0cce6-ddc1-4772-a184-d9b646f93a1e","a0a8f18c-a66e-4ba7-a170-23efbdc67501","{""participantId"":""DA26FAFAC2C34B7F9116B67333EC3F47"",""assignmentId"":""aff0cce6-ddc1-4772-a184-d9b646f93a1e"",""projectId"":""a0a8f18c-a66e-4ba7-a170-23efbdc67501""}","https://test12345.live/?participantId=DA26FAFAC2C34B7F9116B67333EC3F47&assignmentId=aff0cce6-ddc1-4772-a184-d9b646f93a1e&projectId=a0a8f18c-a66e-4ba7-a170-23efbdc67501","DA26FAFAC2C34B7F9116B67333EC3F47-2024-11-24-19-01-10","","938","","images/schematic_sequence/flight_scheme/flight_scheme_2.png","0","",""
"","","","","","image-button-response","33","680999","0.0-10.0-1.0-2.1","DA26FAFAC2C34B7F9116B67333EC3F47","DA26FAFAC2C34B7F9116B67333EC3F47","aff0cce6-ddc1-4772-a184-d9b646f93a1e","a0a8f18c-a66e-4ba7-a170-23efbdc67501","{""participantId"":""DA26FAFAC2C34B7F9116B67333EC3F47"",""assignmentId"":""aff0cce6-ddc1-4772-a184-d9b646f93a1e"",""projectId"":""a0a8f18c-a66e-4ba7-a170-23efbdc67501""}","https://test12345.live/?participantId=DA26FAFAC2C34B7F9116B67333EC3F47&assignmentId=aff0cce6-ddc1-4772-a184-d9b646f93a1e&projectId=a0a8f18c-a66e-4ba7-a170-23efbdc67501","DA26FAFAC2C34B7F9116B67333EC3F47-2024-11-24-19-01-10","","null","","[]","null","",""
"","","","","","image-button-response","34","685519","0.0-10.0-1.0-0.2","DA26FAFAC2C34B7F9116B67333EC3F47","DA26FAFAC2C34B7F9116B67333EC3F47","aff0cce6-ddc1-4772-a184-d9b646f93a1e","a0a8f18c-a66e-4ba7-a170-23efbdc67501","{""participantId"":""DA26FAFAC2C34B7F9116B67333EC3F47"",""assignmentId"":""aff0cce6-ddc1-4772-a184-d9b646f93a1e"",""projectId"":""a0a8f18c-a66e-4ba7-a170-23efbdc67501""}","https://test12345.live/?participantId=DA26FAFAC2C34B7F9116B67333EC3F47&assignmentId=aff0cce6-ddc1-4772-a184-d9b646f93a1e&projectId=a0a8f18c-a66e-4ba7-a170-23efbdc67501","DA26FAFAC2C34B7F9116B67333EC3F47-2024-11-24-19-01-10","","null","","images/schematic_sequence/flight_scheme/flight_scheme_3.png","null","",""
"","","","","","image-button-response","35","686819","0.0-10.0-1.0-1.2","DA26FAFAC2C34B7F9116B67333EC3F47","DA26FAFAC2C34B7F9116B67333EC3F47","aff0cce6-ddc1-4772-a184-d9b646f93a1e","a0a8f18c-a66e-4ba7-a170-23efbdc67501","{""participantId"":""DA26FAFAC2C34B7F9116B67333EC3F47"",""assignmentId"":""aff0cce6-ddc1-4772-a184-d9b646f93a1e"",""projectId"":""a0a8f18c-a66e-4ba7-a170-23efbdc67501""}","https://test12345.live/?participantId=DA26FAFAC2C34B7F9116B67333EC3F47&assignmentId=aff0cce6-ddc1-4772-a184-d9b646f93a1e&projectId=a0a8f18c-a66e-4ba7-a170-23efbdc67501","DA26FAFAC2C34B7F9116B67333EC3F47-2024-11-24-19-01-10","","1297","","images/schematic_sequence/flight_scheme/flight_scheme_3.png","0","",""
"","","","","","image-button-response","36","688629","0.0-10.0-1.0-2.2","DA26FAFAC2C34B7F9116B67333EC3F47","DA26FAFAC2C34B7F9116B67333EC3F47","aff0cce6-ddc1-4772-a184-d9b646f93a1e","a0a8f18c-a66e-4ba7-a170-23efbdc67501","{""participantId"":""DA26FAFAC2C34B7F9116B67333EC3F47"",""assignmentId"":""aff0cce6-ddc1-4772-a184-d9b646f93a1e"",""projectId"":""a0a8f18c-a66e-4ba7-a170-23efbdc67501""}","https://test12345.live/?participantId=DA26FAFAC2C34B7F9116B67333EC3F47&assignmentId=aff0cce6-ddc1-4772-a184-d9b646f93a1e&projectId=a0a8f18c-a66e-4ba7-a170-23efbdc67501","DA26FAFAC2C34B7F9116B67333EC3F47-2024-11-24-19-01-10","","null","","[]","null","",""
"","","","","","image-button-response","37","693137","0.0-10.0-1.0-0.3","DA26FAFAC2C34B7F9116B67333EC3F47","DA26FAFAC2C34B7F9116B67333EC3F47","aff0cce6-ddc1-4772-a184-d9b646f93a1e","a0a8f18c-a66e-4ba7-a170-23efbdc67501","{""participantId"":""DA26FAFAC2C34B7F9116B67333EC3F47"",""assignmentId"":""aff0cce6-ddc1-4772-a184-d9b646f93a1e"",""projectId"":""a0a8f18c-a66e-4ba7-a170-23efbdc67501""}","https://test12345.live/?participantId=DA26FAFAC2C34B7F9116B67333EC3F47&assignmentId=aff0cce6-ddc1-4772-a184-d9b646f93a1e&projectId=a0a8f18c-a66e-4ba7-a170-23efbdc67501","DA26FAFAC2C34B7F9116B67333EC3F47-2024-11-24-19-01-10","","null","","images/schematic_sequence/flight_scheme/flight_scheme_4.png","null","",""
"","","","","","image-button-response","38","694564","0.0-10.0-1.0-1.3","DA26FAFAC2C34B7F9116B67333EC3F47","DA26FAFAC2C34B7F9116B67333EC3F47","aff0cce6-ddc1-4772-a184-d9b646f93a1e","a0a8f18c-a66e-4ba7-a170-23efbdc67501","{""participantId"":""DA26FAFAC2C34B7F9116B67333EC3F47"",""assignmentId"":""aff0cce6-ddc1-4772-a184-d9b646f93a1e"",""projectId"":""a0a8f18c-a66e-4ba7-a170-23efbdc67501""}","https://test12345.live/?participantId=DA26FAFAC2C34B7F9116B67333EC3F47&assignmentId=aff0cce6-ddc1-4772-a184-d9b646f93a1e&projectId=a0a8f18c-a66e-4ba7-a170-23efbdc67501","DA26FAFAC2C34B7F9116B67333EC3F47-2024-11-24-19-01-10","","1425","","images/schematic_sequence/flight_scheme/flight_scheme_4.png","0","",""
"","","","","","image-button-response","39","696369","0.0-10.0-1.0-2.3","DA26FAFAC2C34B7F9116B67333EC3F47","DA26FAFAC2C34B7F9116B67333EC3F47","aff0cce6-ddc1-4772-a184-d9b646f93a1e","a0a8f18c-a66e-4ba7-a170-23efbdc67501","{""participantId"":""DA26FAFAC2C34B7F9116B67333EC3F47"",""assignmentId"":""aff0cce6-ddc1-4772-a184-d9b646f93a1e"",""projectId"":""a0a8f18c-a66e-4ba7-a170-23efbdc67501""}","https://test12345.live/?participantId=DA26FAFAC2C34B7F9116B67333EC3F47&assignmentId=aff0cce6-ddc1-4772-a184-d9b646f93a1e&projectId=a0a8f18c-a66e-4ba7-a170-23efbdc67501","DA26FAFAC2C34B7F9116B67333EC3F47-2024-11-24-19-01-10","","null","","[]","null","",""
"","","","","","image-button-response","40","700889","0.0-10.0-1.0-0.4","DA26FAFAC2C34B7F9116B67333EC3F47","DA26FAFAC2C34B7F9116B67333EC3F47","aff0cce6-ddc1-4772-a184-d9b646f93a1e","a0a8f18c-a66e-4ba7-a170-23efbdc67501","{""participantId"":""DA26FAFAC2C34B7F9116B67333EC3F47"",""assignmentId"":""aff0cce6-ddc1-4772-a184-d9b646f93a1e"",""projectId"":""a0a8f18c-a66e-4ba7-a170-23efbdc67501""}","https://test12345.live/?participantId=DA26FAFAC2C34B7F9116B67333EC3F47&assignmentId=aff0cce6-ddc1-4772-a184-d9b646f93a1e&projectId=a0a8f18c-a66e-4ba7-a170-23efbdc67501","DA26FAFAC2C34B7F9116B67333EC3F47-2024-11-24-19-01-10","","null","","images/schematic_sequence/flight_scheme/flight_scheme_5.png","null","",""
"","","","","","image-button-response","41","701712","0.0-10.0-1.0-1.4","DA26FAFAC2C34B7F9116B67333EC3F47","DA26FAFAC2C34B7F9116B67333EC3F47","aff0cce6-ddc1-4772-a184-d9b646f93a1e","a0a8f18c-a66e-4ba7-a170-23efbdc67501","{""participantId"":""DA26FAFAC2C34B7F9116B67333EC3F47"",""assignmentId"":""aff0cce6-ddc1-4772-a184-d9b646f93a1e"",""projectId"":""a0a8f18c-a66e-4ba7-a170-23efbdc67501""}","https://test12345.live/?participantId=DA26FAFAC2C34B7F9116B67333EC3F47&assignmentId=aff0cce6-ddc1-4772-a184-d9b646f93a1e&projectId=a0a8f18c-a66e-4ba7-a170-23efbdc67501","DA26FAFAC2C34B7F9116B67333EC3F47-2024-11-24-19-01-10","","820","","images/schematic_sequence/flight_scheme/flight_scheme_5.png","0","",""
"","","","","","image-button-response","42","703514","0.0-10.0-1.0-2.4","DA26FAFAC2C34B7F9116B67333EC3F47","DA26FAFAC2C34B7F9116B67333EC3F47","aff0cce6-ddc1-4772-a184-d9b646f93a1e","a0a8f18c-a66e-4ba7-a170-23efbdc67501","{""participantId"":""DA26FAFAC2C34B7F9116B67333EC3F47"",""assignmentId"":""aff0cce6-ddc1-4772-a184-d9b646f93a1e"",""projectId"":""a0a8f18c-a66e-4ba7-a170-23efbdc67501""}","https://test12345.live/?participantId=DA26FAFAC2C34B7F9116B67333EC3F47&assignmentId=aff0cce6-ddc1-4772-a184-d9b646f93a1e&projectId=a0a8f18c-a66e-4ba7-a170-23efbdc67501","DA26FAFAC2C34B7F9116B67333EC3F47-2024-11-24-19-01-10","","null","","[]","null","",""
"","","","","","image-button-response","43","708019","0.0-10.0-1.0-0.5","DA26FAFAC2C34B7F9116B67333EC3F47","DA26FAFAC2C34B7F9116B67333EC3F47","aff0cce6-ddc1-4772-a184-d9b646f93a1e","a0a8f18c-a66e-4ba7-a170-23efbdc67501","{""participantId"":""DA26FAFAC2C34B7F9116B67333EC3F47"",""assignmentId"":""aff0cce6-ddc1-4772-a184-d9b646f93a1e"",""projectId"":""a0a8f18c-a66e-4ba7-a170-23efbdc67501""}","https://test12345.live/?participantId=DA26FAFAC2C34B7F9116B67333EC3F47&assignmentId=aff0cce6-ddc1-4772-a184-d9b646f93a1e&projectId=a0a8f18c-a66e-4ba7-a170-23efbdc67501","DA26FAFAC2C34B7F9116B67333EC3F47-2024-11-24-19-01-10","","null","","images/schematic_sequence/flight_scheme/flight_scheme_6.png","null","",""
"","","","","","image-button-response","44","712029","0.0-10.0-1.0-1.5","DA26FAFAC2C34B7F9116B67333EC3F47","DA26FAFAC2C34B7F9116B67333EC3F47","aff0cce6-ddc1-4772-a184-d9b646f93a1e","a0a8f18c-a66e-4ba7-a170-23efbdc67501","{""participantId"":""DA26FAFAC2C34B7F9116B67333EC3F47"",""assignmentId"":""aff0cce6-ddc1-4772-a184-d9b646f93a1e"",""projectId"":""a0a8f18c-a66e-4ba7-a170-23efbdc67501""}","https://test12345.live/?participantId=DA26FAFAC2C34B7F9116B67333EC3F47&assignmentId=aff0cce6-ddc1-4772-a184-d9b646f93a1e&projectId=a0a8f18c-a66e-4ba7-a170-23efbdc67501","DA26FAFAC2C34B7F9116B67333EC3F47-2024-11-24-19-01-10","","null","","images/schematic_sequence/flight_scheme/flight_scheme_6.png","null","",""
"","","","","","image-button-response","45","713839","0.0-10.0-1.0-2.5","DA26FAFAC2C34B7F9116B67333EC3F47","DA26FAFAC2C34B7F9116B67333EC3F47","aff0cce6-ddc1-4772-a184-d9b646f93a1e","a0a8f18c-a66e-4ba7-a170-23efbdc67501","{""participantId"":""DA26FAFAC2C34B7F9116B67333EC3F47"",""assignmentId"":""aff0cce6-ddc1-4772-a184-d9b646f93a1e"",""projectId"":""a0a8f18c-a66e-4ba7-a170-23efbdc67501""}","https://test12345.live/?participantId=DA26FAFAC2C34B7F9116B67333EC3F47&assignmentId=aff0cce6-ddc1-4772-a184-d9b646f93a1e&projectId=a0a8f18c-a66e-4ba7-a170-23efbdc67501","DA26FAFAC2C34B7F9116B67333EC3F47-2024-11-24-19-01-10","","null","","[]","null","",""
"","","","","","image-button-response","46","718350","0.0-10.0-1.0-0.6","DA26FAFAC2C34B7F9116B67333EC3F47","DA26FAFAC2C34B7F9116B67333EC3F47","aff0cce6-ddc1-4772-a184-d9b646f93a1e","a0a8f18c-a66e-4ba7-a170-23efbdc67501","{""participantId"":""DA26FAFAC2C34B7F9116B67333EC3F47"",""assignmentId"":""aff0cce6-ddc1-4772-a184-d9b646f93a1e"",""projectId"":""a0a8f18c-a66e-4ba7-a170-23efbdc67501""}","https://test12345.live/?participantId=DA26FAFAC2C34B7F9116B67333EC3F47&assignmentId=aff0cce6-ddc1-4772-a184-d9b646f93a1e&projectId=a0a8f18c-a66e-4ba7-a170-23efbdc67501","DA26FAFAC2C34B7F9116B67333EC3F47-2024-11-24-19-01-10","","null","","images/schematic_sequence/flight_scheme/flight_scheme_7.png","null","",""
"","","","","","image-button-response","47","720214","0.0-10.0-1.0-1.6","DA26FAFAC2C34B7F9116B67333EC3F47","DA26FAFAC2C34B7F9116B67333EC3F47","aff0cce6-ddc1-4772-a184-d9b646f93a1e","a0a8f18c-a66e-4ba7-a170-23efbdc67501","{""participantId"":""DA26FAFAC2C34B7F9116B67333EC3F47"",""assignmentId"":""aff0cce6-ddc1-4772-a184-d9b646f93a1e"",""projectId"":""a0a8f18c-a66e-4ba7-a170-23efbdc67501""}","https://test12345.live/?participantId=DA26FAFAC2C34B7F9116B67333EC3F47&assignmentId=aff0cce6-ddc1-4772-a184-d9b646f93a1e&projectId=a0a8f18c-a66e-4ba7-a170-23efbdc67501","DA26FAFAC2C34B7F9116B67333EC3F47-2024-11-24-19-01-10","","1862","","images/schematic_sequence/flight_scheme/flight_scheme_7.png","0","",""
"","","","","","image-button-response","48","722018","0.0-10.0-1.0-2.6","DA26FAFAC2C34B7F9116B67333EC3F47","DA26FAFAC2C34B7F9116B67333EC3F47","aff0cce6-ddc1-4772-a184-d9b646f93a1e","a0a8f18c-a66e-4ba7-a170-23efbdc67501","{""participantId"":""DA26FAFAC2C34B7F9116B67333EC3F47"",""assignmentId"":""aff0cce6-ddc1-4772-a184-d9b646f93a1e"",""projectId"":""a0a8f18c-a66e-4ba7-a170-23efbdc67501""}","https://test12345.live/?participantId=DA26FAFAC2C34B7F9116B67333EC3F47&assignmentId=aff0cce6-ddc1-4772-a184-d9b646f93a1e&projectId=a0a8f18c-a66e-4ba7-a170-23efbdc67501","DA26FAFAC2C34B7F9116B67333EC3F47-2024-11-24-19-01-10","","null","","[]","null","",""
"","","","","","image-button-response","49","726540","0.0-10.0-1.0-0.7","DA26FAFAC2C34B7F9116B67333EC3F47","DA26FAFAC2C34B7F9116B67333EC3F47","aff0cce6-ddc1-4772-a184-d9b646f93a1e","a0a8f18c-a66e-4ba7-a170-23efbdc67501","{""participantId"":""DA26FAFAC2C34B7F9116B67333EC3F47"",""assignmentId"":""aff0cce6-ddc1-4772-a184-d9b646f93a1e"",""projectId"":""a0a8f18c-a66e-4ba7-a170-23efbdc67501""}","https://test12345.live/?participantId=DA26FAFAC2C34B7F9116B67333EC3F47&assignmentId=aff0cce6-ddc1-4772-a184-d9b646f93a1e&projectId=a0a8f18c-a66e-4ba7-a170-23efbdc67501","DA26FAFAC2C34B7F9116B67333EC3F47-2024-11-24-19-01-10","","null","","images/schematic_sequence/flight_scheme/flight_scheme_8.png","null","",""
"","","","","","image-button-response","50","728010","0.0-10.0-1.0-1.7","DA26FAFAC2C34B7F9116B67333EC3F47","DA26FAFAC2C34B7F9116B67333EC3F47","aff0cce6-ddc1-4772-a184-d9b646f93a1e","a0a8f18c-a66e-4ba7-a170-23efbdc67501","{""participantId"":""DA26FAFAC2C34B7F9116B67333EC3F47"",""assignmentId"":""aff0cce6-ddc1-4772-a184-d9b646f93a1e"",""projectId"":""a0a8f18c-a66e-4ba7-a170-23efbdc67501""}","https://test12345.live/?participantId=DA26FAFAC2C34B7F9116B67333EC3F47&assignmentId=aff0cce6-ddc1-4772-a184-d9b646f93a1e&projectId=a0a8f18c-a66e-4ba7-a170-23efbdc67501","DA26FAFAC2C34B7F9116B67333EC3F47-2024-11-24-19-01-10","","1468","","images/schematic_sequence/flight_scheme/flight_scheme_8.png","0","",""
"","","","","","image-button-response","51","729819","0.0-10.0-1.0-2.7","DA26FAFAC2C34B7F9116B67333EC3F47","DA26FAFAC2C34B7F9116B67333EC3F47","aff0cce6-ddc1-4772-a184-d9b646f93a1e","a0a8f18c-a66e-4ba7-a170-23efbdc67501","{""participantId"":""DA26FAFAC2C34B7F9116B67333EC3F47"",""assignmentId"":""aff0cce6-ddc1-4772-a184-d9b646f93a1e"",""projectId"":""a0a8f18c-a66e-4ba7-a170-23efbdc67501""}","https://test12345.live/?participantId=DA26FAFAC2C34B7F9116B67333EC3F47&assignmentId=aff0cce6-ddc1-4772-a184-d9b646f93a1e&projectId=a0a8f18c-a66e-4ba7-a170-23efbdc67501","DA26FAFAC2C34B7F9116B67333EC3F47-2024-11-24-19-01-10","","null","","[]","null","",""
"","","","","","image-button-response","52","734328","0.0-10.0-1.0-0.8","DA26FAFAC2C34B7F9116B67333EC3F47","DA26FAFAC2C34B7F9116B67333EC3F47","aff0cce6-ddc1-4772-a184-d9b646f93a1e","a0a8f18c-a66e-4ba7-a170-23efbdc67501","{""participantId"":""DA26FAFAC2C34B7F9116B67333EC3F47"",""assignmentId"":""aff0cce6-ddc1-4772-a184-d9b646f93a1e"",""projectId"":""a0a8f18c-a66e-4ba7-a170-23efbdc67501""}","https://test12345.live/?participantId=DA26FAFAC2C34B7F9116B67333EC3F47&assignmentId=aff0cce6-ddc1-4772-a184-d9b646f93a1e&projectId=a0a8f18c-a66e-4ba7-a170-23efbdc67501","DA26FAFAC2C34B7F9116B67333EC3F47-2024-11-24-19-01-10","","null","","images/schematic_sequence/flight_scheme/flight_scheme_9.png","null","",""
"","","","","","image-button-response","53","736881","0.0-10.0-1.0-1.8","DA26FAFAC2C34B7F9116B67333EC3F47","DA26FAFAC2C34B7F9116B67333EC3F47","aff0cce6-ddc1-4772-a184-d9b646f93a1e","a0a8f18c-a66e-4ba7-a170-23efbdc67501","{""participantId"":""DA26FAFAC2C34B7F9116B67333EC3F47"",""assignmentId"":""aff0cce6-ddc1-4772-a184-d9b646f93a1e"",""projectId"":""a0a8f18c-a66e-4ba7-a170-23efbdc67501""}","https://test12345.live/?participantId=DA26FAFAC2C34B7F9116B67333EC3F47&assignmentId=aff0cce6-ddc1-4772-a184-d9b646f93a1e&projectId=a0a8f18c-a66e-4ba7-a170-23efbdc67501","DA26FAFAC2C34B7F9116B67333EC3F47-2024-11-24-19-01-10","","2551","","images/schematic_sequence/flight_scheme/flight_scheme_9.png","0","",""
"","","","","","image-button-response","54","738689","0.0-10.0-1.0-2.8","DA26FAFAC2C34B7F9116B67333EC3F47","DA26FAFAC2C34B7F9116B67333EC3F47","aff0cce6-ddc1-4772-a184-d9b646f93a1e","a0a8f18c-a66e-4ba7-a170-23efbdc67501","{""participantId"":""DA26FAFAC2C34B7F9116B67333EC3F47"",""assignmentId"":""aff0cce6-ddc1-4772-a184-d9b646f93a1e"",""projectId"":""a0a8f18c-a66e-4ba7-a170-23efbdc67501""}","https://test12345.live/?participantId=DA26FAFAC2C34B7F9116B67333EC3F47&assignmentId=aff0cce6-ddc1-4772-a184-d9b646f93a1e&projectId=a0a8f18c-a66e-4ba7-a170-23efbdc67501","DA26FAFAC2C34B7F9116B67333EC3F47-2024-11-24-19-01-10","","null","","[]","null","",""
"","","","","","image-button-response","55","743205","0.0-10.0-1.0-0.9","DA26FAFAC2C34B7F9116B67333EC3F47","DA26FAFAC2C34B7F9116B67333EC3F47","aff0cce6-ddc1-4772-a184-d9b646f93a1e","a0a8f18c-a66e-4ba7-a170-23efbdc67501","{""participantId"":""DA26FAFAC2C34B7F9116B67333EC3F47"",""assignmentId"":""aff0cce6-ddc1-4772-a184-d9b646f93a1e"",""projectId"":""a0a8f18c-a66e-4ba7-a170-23efbdc67501""}","https://test12345.live/?participantId=DA26FAFAC2C34B7F9116B67333EC3F47&assignmentId=aff0cce6-ddc1-4772-a184-d9b646f93a1e&projectId=a0a8f18c-a66e-4ba7-a170-23efbdc67501","DA26FAFAC2C34B7F9116B67333EC3F47-2024-11-24-19-01-10","","null","","images/schematic_sequence/flight_scheme/flight_scheme_ten.png","null","",""
"","","","","","image-button-response","56","744190","0.0-10.0-1.0-1.9","DA26FAFAC2C34B7F9116B67333EC3F47","DA26FAFAC2C34B7F9116B67333EC3F47","aff0cce6-ddc1-4772-a184-d9b646f93a1e","a0a8f18c-a66e-4ba7-a170-23efbdc67501","{""participantId"":""DA26FAFAC2C34B7F9116B67333EC3F47"",""assignmentId"":""aff0cce6-ddc1-4772-a184-d9b646f93a1e"",""projectId"":""a0a8f18c-a66e-4ba7-a170-23efbdc67501""}","https://test12345.live/?participantId=DA26FAFAC2C34B7F9116B67333EC3F47&assignmentId=aff0cce6-ddc1-4772-a184-d9b646f93a1e&projectId=a0a8f18c-a66e-4ba7-a170-23efbdc67501","DA26FAFAC2C34B7F9116B67333EC3F47-2024-11-24-19-01-10","","983","","images/schematic_sequence/flight_scheme/flight_scheme_ten.png","0","",""
"","","","","","image-button-response","57","745998","0.0-10.0-1.0-2.9","DA26FAFAC2C34B7F9116B67333EC3F47","DA26FAFAC2C34B7F9116B67333EC3F47","aff0cce6-ddc1-4772-a184-d9b646f93a1e","a0a8f18c-a66e-4ba7-a170-23efbdc67501","{""participantId"":""DA26FAFAC2C34B7F9116B67333EC3F47"",""assignmentId"":""aff0cce6-ddc1-4772-a184-d9b646f93a1e"",""projectId"":""a0a8f18c-a66e-4ba7-a170-23efbdc67501""}","https://test12345.live/?participantId=DA26FAFAC2C34B7F9116B67333EC3F47&assignmentId=aff0cce6-ddc1-4772-a184-d9b646f93a1e&projectId=a0a8f18c-a66e-4ba7-a170-23efbdc67501","DA26FAFAC2C34B7F9116B67333EC3F47-2024-11-24-19-01-10","","null","","[]","null","",""
"","","","","","html-audio-response","58","846352","0.0-11.0","DA26FAFAC2C34B7F9116B67333EC3F47","DA26FAFAC2C34B7F9116B67333EC3F47","aff0cce6-ddc1-4772-a184-d9b646f93a1e","a0a8f18c-a66e-4ba7-a170-23efbdc67501","{""participantId"":""DA26FAFAC2C34B7F9116B67333EC3F47"",""assignmentId"":""aff0cce6-ddc1-4772-a184-d9b646f93a1e"",""projectId"":""a0a8f18c-a66e-4ba7-a170-23efbdc67501""}","https://test12345.live/?participantId=DA26FAFAC2C34B7F9116B67333EC3F47&assignmentId=aff0cce6-ddc1-4772-a184-d9b646f93a1e&projectId=a0a8f18c-a66e-4ba7-a170-23efbdc67501","DA26FAFAC2C34B7F9116B67333EC3F47-2024-11-24-19-01-10","","6425","","[""<span style=\""color: red; font-size: 24px\""> NOW RECORDING</span><p>Please say out loud all the images you saw, as many as you can remember. The images can be said in any order.</p>""]","","3","flight_scheme"
"","","","","","image-button-response","59","852367","0.0-12.0-0.0","DA26FAFAC2C34B7F9116B67333EC3F47","DA26FAFAC2C34B7F9116B67333EC3F47","aff0cce6-ddc1-4772-a184-d9b646f93a1e","a0a8f18c-a66e-4ba7-a170-23efbdc67501","{""participantId"":""DA26FAFAC2C34B7F9116B67333EC3F47"",""assignmentId"":""aff0cce6-ddc1-4772-a184-d9b646f93a1e"",""projectId"":""a0a8f18c-a66e-4ba7-a170-23efbdc67501""}","https://test12345.live/?participantId=DA26FAFAC2C34B7F9116B67333EC3F47&assignmentId=aff0cce6-ddc1-4772-a184-d9b646f93a1e&projectId=a0a8f18c-a66e-4ba7-a170-23efbdc67501","DA26FAFAC2C34B7F9116B67333EC3F47-2024-11-24-19-01-10","","null","","images/causal_sequence/museum_causal/museum_causal_0.png","null","",""
"","","","","","image-button-response","60","856877","0.0-12.0-1.0-0.0","DA26FAFAC2C34B7F9116B67333EC3F47","DA26FAFAC2C34B7F9116B67333EC3F47","aff0cce6-ddc1-4772-a184-d9b646f93a1e","a0a8f18c-a66e-4ba7-a170-23efbdc67501","{""participantId"":""DA26FAFAC2C34B7F9116B67333EC3F47"",""assignmentId"":""aff0cce6-ddc1-4772-a184-d9b646f93a1e"",""projectId"":""a0a8f18c-a66e-4ba7-a170-23efbdc67501""}","https://test12345.live/?participantId=DA26FAFAC2C34B7F9116B67333EC3F47&assignmentId=aff0cce6-ddc1-4772-a184-d9b646f93a1e&projectId=a0a8f18c-a66e-4ba7-a170-23efbdc67501","DA26FAFAC2C34B7F9116B67333EC3F47-2024-11-24-19-01-10","","null","","images/causal_sequence/museum_causal/museum_causal_1.png","null","",""
"","","","","","image-button-response","61","860492","0.0-12.0-1.0-1.0","DA26FAFAC2C34B7F9116B67333EC3F47","DA26FAFAC2C34B7F9116B67333EC3F47","aff0cce6-ddc1-4772-a184-d9b646f93a1e","a0a8f18c-a66e-4ba7-a170-23efbdc67501","{""participantId"":""DA26FAFAC2C34B7F9116B67333EC3F47"",""assignmentId"":""aff0cce6-ddc1-4772-a184-d9b646f93a1e"",""projectId"":""a0a8f18c-a66e-4ba7-a170-23efbdc67501""}","https://test12345.live/?participantId=DA26FAFAC2C34B7F9116B67333EC3F47&assignmentId=aff0cce6-ddc1-4772-a184-d9b646f93a1e&projectId=a0a8f18c-a66e-4ba7-a170-23efbdc67501","DA26FAFAC2C34B7F9116B67333EC3F47-2024-11-24-19-01-10","","3612","","images/causal_sequence/museum_causal/museum_causal_1.png","0","",""
"","","","","","image-button-response","62","862307","0.0-12.0-1.0-2.0","DA26FAFAC2C34B7F9116B67333EC3F47","DA26FAFAC2C34B7F9116B67333EC3F47","aff0cce6-ddc1-4772-a184-d9b646f93a1e","a0a8f18c-a66e-4ba7-a170-23efbdc67501","{""participantId"":""DA26FAFAC2C34B7F9116B67333EC3F47"",""assignmentId"":""aff0cce6-ddc1-4772-a184-d9b646f93a1e"",""projectId"":""a0a8f18c-a66e-4ba7-a170-23efbdc67501""}","https://test12345.live/?participantId=DA26FAFAC2C34B7F9116B67333EC3F47&assignmentId=aff0cce6-ddc1-4772-a184-d9b646f93a1e&projectId=a0a8f18c-a66e-4ba7-a170-23efbdc67501","DA26FAFAC2C34B7F9116B67333EC3F47-2024-11-24-19-01-10","","null","","[]","null","",""
"","","","","","image-button-response","63","866819","0.0-12.0-1.0-0.1","DA26FAFAC2C34B7F9116B67333EC3F47","DA26FAFAC2C34B7F9116B67333EC3F47","aff0cce6-ddc1-4772-a184-d9b646f93a1e","a0a8f18c-a66e-4ba7-a170-23efbdc67501","{""participantId"":""DA26FAFAC2C34B7F9116B67333EC3F47"",""assignmentId"":""aff0cce6-ddc1-4772-a184-d9b646f93a1e"",""projectId"":""a0a8f18c-a66e-4ba7-a170-23efbdc67501""}","https://test12345.live/?participantId=DA26FAFAC2C34B7F9116B67333EC3F47&assignmentId=aff0cce6-ddc1-4772-a184-d9b646f93a1e&projectId=a0a8f18c-a66e-4ba7-a170-23efbdc67501","DA26FAFAC2C34B7F9116B67333EC3F47-2024-11-24-19-01-10","","null","","images/causal_sequence/museum_causal/museum_causal_2.png","null","",""
"","","","","","image-button-response","64","868816","0.0-12.0-1.0-1.1","DA26FAFAC2C34B7F9116B67333EC3F47","DA26FAFAC2C34B7F9116B67333EC3F47","aff0cce6-ddc1-4772-a184-d9b646f93a1e","a0a8f18c-a66e-4ba7-a170-23efbdc67501","{""participantId"":""DA26FAFAC2C34B7F9116B67333EC3F47"",""assignmentId"":""aff0cce6-ddc1-4772-a184-d9b646f93a1e"",""projectId"":""a0a8f18c-a66e-4ba7-a170-23efbdc67501""}","https://test12345.live/?participantId=DA26FAFAC2C34B7F9116B67333EC3F47&assignmentId=aff0cce6-ddc1-4772-a184-d9b646f93a1e&projectId=a0a8f18c-a66e-4ba7-a170-23efbdc67501","DA26FAFAC2C34B7F9116B67333EC3F47-2024-11-24-19-01-10","","1996","","images/causal_sequence/museum_causal/museum_causal_2.png","0","",""
"","","","","","image-button-response","65","870637","0.0-12.0-1.0-2.1","DA26FAFAC2C34B7F9116B67333EC3F47","DA26FAFAC2C34B7F9116B67333EC3F47","aff0cce6-ddc1-4772-a184-d9b646f93a1e","a0a8f18c-a66e-4ba7-a170-23efbdc67501","{""participantId"":""DA26FAFAC2C34B7F9116B67333EC3F47"",""assignmentId"":""aff0cce6-ddc1-4772-a184-d9b646f93a1e"",""projectId"":""a0a8f18c-a66e-4ba7-a170-23efbdc67501""}","https://test12345.live/?participantId=DA26FAFAC2C34B7F9116B67333EC3F47&assignmentId=aff0cce6-ddc1-4772-a184-d9b646f93a1e&projectId=a0a8f18c-a66e-4ba7-a170-23efbdc67501","DA26FAFAC2C34B7F9116B67333EC3F47-2024-11-24-19-01-10","","null","","[]","null","",""
"","","","","","image-button-response","66","875158","0.0-12.0-1.0-0.2","DA26FAFAC2C34B7F9116B67333EC3F47","DA26FAFAC2C34B7F9116B67333EC3F47","aff0cce6-ddc1-4772-a184-d9b646f93a1e","a0a8f18c-a66e-4ba7-a170-23efbdc67501","{""participantId"":""DA26FAFAC2C34B7F9116B67333EC3F47"",""assignmentId"":""aff0cce6-ddc1-4772-a184-d9b646f93a1e"",""projectId"":""a0a8f18c-a66e-4ba7-a170-23efbdc67501""}","https://test12345.live/?participantId=DA26FAFAC2C34B7F9116B67333EC3F47&assignmentId=aff0cce6-ddc1-4772-a184-d9b646f93a1e&projectId=a0a8f18c-a66e-4ba7-a170-23efbdc67501","DA26FAFAC2C34B7F9116B67333EC3F47-2024-11-24-19-01-10","","null","","images/causal_sequence/museum_causal/museum_causal_3.png","null","",""
"","","","","","image-button-response","67","876205","0.0-12.0-1.0-1.2","DA26FAFAC2C34B7F9116B67333EC3F47","DA26FAFAC2C34B7F9116B67333EC3F47","aff0cce6-ddc1-4772-a184-d9b646f93a1e","a0a8f18c-a66e-4ba7-a170-23efbdc67501","{""participantId"":""DA26FAFAC2C34B7F9116B67333EC3F47"",""assignmentId"":""aff0cce6-ddc1-4772-a184-d9b646f93a1e"",""projectId"":""a0a8f18c-a66e-4ba7-a170-23efbdc67501""}","https://test12345.live/?participantId=DA26FAFAC2C34B7F9116B67333EC3F47&assignmentId=aff0cce6-ddc1-4772-a184-d9b646f93a1e&projectId=a0a8f18c-a66e-4ba7-a170-23efbdc67501","DA26FAFAC2C34B7F9116B67333EC3F47-2024-11-24-19-01-10","","1042","","images/causal_sequence/museum_causal/museum_causal_3.png","0","",""
"","","","","","image-button-response","68","878018","0.0-12.0-1.0-2.2","DA26FAFAC2C34B7F9116B67333EC3F47","DA26FAFAC2C34B7F9116B67333EC3F47","aff0cce6-ddc1-4772-a184-d9b646f93a1e","a0a8f18c-a66e-4ba7-a170-23efbdc67501","{""participantId"":""DA26FAFAC2C34B7F9116B67333EC3F47"",""assignmentId"":""aff0cce6-ddc1-4772-a184-d9b646f93a1e"",""projectId"":""a0a8f18c-a66e-4ba7-a170-23efbdc67501""}","https://test12345.live/?participantId=DA26FAFAC2C34B7F9116B67333EC3F47&assignmentId=aff0cce6-ddc1-4772-a184-d9b646f93a1e&projectId=a0a8f18c-a66e-4ba7-a170-23efbdc67501","DA26FAFAC2C34B7F9116B67333EC3F47-2024-11-24-19-01-10","","null","","[]","null","",""
"","","","","","image-button-response","69","882524","0.0-12.0-1.0-0.3","DA26FAFAC2C34B7F9116B67333EC3F47","DA26FAFAC2C34B7F9116B67333EC3F47","aff0cce6-ddc1-4772-a184-d9b646f93a1e","a0a8f18c-a66e-4ba7-a170-23efbdc67501","{""participantId"":""DA26FAFAC2C34B7F9116B67333EC3F47"",""assignmentId"":""aff0cce6-ddc1-4772-a184-d9b646f93a1e"",""projectId"":""a0a8f18c-a66e-4ba7-a170-23efbdc67501""}","https://test12345.live/?participantId=DA26FAFAC2C34B7F9116B67333EC3F47&assignmentId=aff0cce6-ddc1-4772-a184-d9b646f93a1e&projectId=a0a8f18c-a66e-4ba7-a170-23efbdc67501","DA26FAFAC2C34B7F9116B67333EC3F47-2024-11-24-19-01-10","","null","","images/causal_sequence/museum_causal/museum_causal_4.png","null","",""
"","","","","","image-button-response","70","883453","0.0-12.0-1.0-1.3","DA26FAFAC2C34B7F9116B67333EC3F47","DA26FAFAC2C34B7F9116B67333EC3F47","aff0cce6-ddc1-4772-a184-d9b646f93a1e","a0a8f18c-a66e-4ba7-a170-23efbdc67501","{""participantId"":""DA26FAFAC2C34B7F9116B67333EC3F47"",""assignmentId"":""aff0cce6-ddc1-4772-a184-d9b646f93a1e"",""projectId"":""a0a8f18c-a66e-4ba7-a170-23efbdc67501""}","https://test12345.live/?participantId=DA26FAFAC2C34B7F9116B67333EC3F47&assignmentId=aff0cce6-ddc1-4772-a184-d9b646f93a1e&projectId=a0a8f18c-a66e-4ba7-a170-23efbdc67501","DA26FAFAC2C34B7F9116B67333EC3F47-2024-11-24-19-01-10","","924","","images/causal_sequence/museum_causal/museum_causal_4.png","0","",""
"","","","","","image-button-response","71","885268","0.0-12.0-1.0-2.3","DA26FAFAC2C34B7F9116B67333EC3F47","DA26FAFAC2C34B7F9116B67333EC3F47","aff0cce6-ddc1-4772-a184-d9b646f93a1e","a0a8f18c-a66e-4ba7-a170-23efbdc67501","{""participantId"":""DA26FAFAC2C34B7F9116B67333EC3F47"",""assignmentId"":""aff0cce6-ddc1-4772-a184-d9b646f93a1e"",""projectId"":""a0a8f18c-a66e-4ba7-a170-23efbdc67501""}","https://test12345.live/?participantId=DA26FAFAC2C34B7F9116B67333EC3F47&assignmentId=aff0cce6-ddc1-4772-a184-d9b646f93a1e&projectId=a0a8f18c-a66e-4ba7-a170-23efbdc67501","DA26FAFAC2C34B7F9116B67333EC3F47-2024-11-24-19-01-10","","null","","[]","null","",""
"","","","","","image-button-response","72","889774","0.0-12.0-1.0-0.4","DA26FAFAC2C34B7F9116B67333EC3F47","DA26FAFAC2C34B7F9116B67333EC3F47","aff0cce6-ddc1-4772-a184-d9b646f93a1e","a0a8f18c-a66e-4ba7-a170-23efbdc67501","{""participantId"":""DA26FAFAC2C34B7F9116B67333EC3F47"",""assignmentId"":""aff0cce6-ddc1-4772-a184-d9b646f93a1e"",""projectId"":""a0a8f18c-a66e-4ba7-a170-23efbdc67501""}","https://test12345.live/?participantId=DA26FAFAC2C34B7F9116B67333EC3F47&assignmentId=aff0cce6-ddc1-4772-a184-d9b646f93a1e&projectId=a0a8f18c-a66e-4ba7-a170-23efbdc67501","DA26FAFAC2C34B7F9116B67333EC3F47-2024-11-24-19-01-10","","null","","images/causal_sequence/museum_causal/museum_causal_5.png","null","",""
"","","","","","image-button-response","73","891067","0.0-12.0-1.0-1.4","DA26FAFAC2C34B7F9116B67333EC3F47","DA26FAFAC2C34B7F9116B67333EC3F47","aff0cce6-ddc1-4772-a184-d9b646f93a1e","a0a8f18c-a66e-4ba7-a170-23efbdc67501","{""participantId"":""DA26FAFAC2C34B7F9116B67333EC3F47"",""assignmentId"":""aff0cce6-ddc1-4772-a184-d9b646f93a1e"",""projectId"":""a0a8f18c-a66e-4ba7-a170-23efbdc67501""}","https://test12345.live/?participantId=DA26FAFAC2C34B7F9116B67333EC3F47&assignmentId=aff0cce6-ddc1-4772-a184-d9b646f93a1e&projectId=a0a8f18c-a66e-4ba7-a170-23efbdc67501","DA26FAFAC2C34B7F9116B67333EC3F47-2024-11-24-19-01-10","","1291","","images/causal_sequence/museum_causal/museum_causal_5.png","0","",""
"","","","","","image-button-response","74","892886","0.0-12.0-1.0-2.4","DA26FAFAC2C34B7F9116B67333EC3F47","DA26FAFAC2C34B7F9116B67333EC3F47","aff0cce6-ddc1-4772-a184-d9b646f93a1e","a0a8f18c-a66e-4ba7-a170-23efbdc67501","{""participantId"":""DA26FAFAC2C34B7F9116B67333EC3F47"",""assignmentId"":""aff0cce6-ddc1-4772-a184-d9b646f93a1e"",""projectId"":""a0a8f18c-a66e-4ba7-a170-23efbdc67501""}","https://test12345.live/?participantId=DA26FAFAC2C34B7F9116B67333EC3F47&assignmentId=aff0cce6-ddc1-4772-a184-d9b646f93a1e&projectId=a0a8f18c-a66e-4ba7-a170-23efbdc67501","DA26FAFAC2C34B7F9116B67333EC3F47-2024-11-24-19-01-10","","null","","[]","null","",""
"","","","","","image-button-response","75","897397","0.0-12.0-1.0-0.5","DA26FAFAC2C34B7F9116B67333EC3F47","DA26FAFAC2C34B7F9116B67333EC3F47","aff0cce6-ddc1-4772-a184-d9b646f93a1e","a0a8f18c-a66e-4ba7-a170-23efbdc67501","{""participantId"":""DA26FAFAC2C34B7F9116B67333EC3F47"",""assignmentId"":""aff0cce6-ddc1-4772-a184-d9b646f93a1e"",""projectId"":""a0a8f18c-a66e-4ba7-a170-23efbdc67501""}","https://test12345.live/?participantId=DA26FAFAC2C34B7F9116B67333EC3F47&assignmentId=aff0cce6-ddc1-4772-a184-d9b646f93a1e&projectId=a0a8f18c-a66e-4ba7-a170-23efbdc67501","DA26FAFAC2C34B7F9116B67333EC3F47-2024-11-24-19-01-10","","null","","images/causal_sequence/museum_causal/museum_causal_6.png","null","",""
"","","","","","image-button-response","76","900555","0.0-12.0-1.0-1.5","DA26FAFAC2C34B7F9116B67333EC3F47","DA26FAFAC2C34B7F9116B67333EC3F47","aff0cce6-ddc1-4772-a184-d9b646f93a1e","a0a8f18c-a66e-4ba7-a170-23efbdc67501","{""participantId"":""DA26FAFAC2C34B7F9116B67333EC3F47"",""assignmentId"":""aff0cce6-ddc1-4772-a184-d9b646f93a1e"",""projectId"":""a0a8f18c-a66e-4ba7-a170-23efbdc67501""}","https://test12345.live/?participantId=DA26FAFAC2C34B7F9116B67333EC3F47&assignmentId=aff0cce6-ddc1-4772-a184-d9b646f93a1e&projectId=a0a8f18c-a66e-4ba7-a170-23efbdc67501","DA26FAFAC2C34B7F9116B67333EC3F47-2024-11-24-19-01-10","","3156","","images/causal_sequence/museum_causal/museum_causal_6.png","0","",""
"","","","","","image-button-response","77","902366","0.0-12.0-1.0-2.5","DA26FAFAC2C34B7F9116B67333EC3F47","DA26FAFAC2C34B7F9116B67333EC3F47","aff0cce6-ddc1-4772-a184-d9b646f93a1e","a0a8f18c-a66e-4ba7-a170-23efbdc67501","{""participantId"":""DA26FAFAC2C34B7F9116B67333EC3F47"",""assignmentId"":""aff0cce6-ddc1-4772-a184-d9b646f93a1e"",""projectId"":""a0a8f18c-a66e-4ba7-a170-23efbdc67501""}","https://test12345.live/?participantId=DA26FAFAC2C34B7F9116B67333EC3F47&assignmentId=aff0cce6-ddc1-4772-a184-d9b646f93a1e&projectId=a0a8f18c-a66e-4ba7-a170-23efbdc67501","DA26FAFAC2C34B7F9116B67333EC3F47-2024-11-24-19-01-10","","null","","[]","null","",""
"","","","","","image-button-response","78","906881","0.0-12.0-1.0-0.6","DA26FAFAC2C34B7F9116B67333EC3F47","DA26FAFAC2C34B7F9116B67333EC3F47","aff0cce6-ddc1-4772-a184-d9b646f93a1e","a0a8f18c-a66e-4ba7-a170-23efbdc67501","{""participantId"":""DA26FAFAC2C34B7F9116B67333EC3F47"",""assignmentId"":""aff0cce6-ddc1-4772-a184-d9b646f93a1e"",""projectId"":""a0a8f18c-a66e-4ba7-a170-23efbdc67501""}","https://test12345.live/?participantId=DA26FAFAC2C34B7F9116B67333EC3F47&assignmentId=aff0cce6-ddc1-4772-a184-d9b646f93a1e&projectId=a0a8f18c-a66e-4ba7-a170-23efbdc67501","DA26FAFAC2C34B7F9116B67333EC3F47-2024-11-24-19-01-10","","null","","images/causal_sequence/museum_causal/museum_causal_7.png","null","",""
"","","","","","image-button-response","79","909455","0.0-12.0-1.0-1.6","DA26FAFAC2C34B7F9116B67333EC3F47","DA26FAFAC2C34B7F9116B67333EC3F47","aff0cce6-ddc1-4772-a184-d9b646f93a1e","a0a8f18c-a66e-4ba7-a170-23efbdc67501","{""participantId"":""DA26FAFAC2C34B7F9116B67333EC3F47"",""assignmentId"":""aff0cce6-ddc1-4772-a184-d9b646f93a1e"",""projectId"":""a0a8f18c-a66e-4ba7-a170-23efbdc67501""}","https://test12345.live/?participantId=DA26FAFAC2C34B7F9116B67333EC3F47&assignmentId=aff0cce6-ddc1-4772-a184-d9b646f93a1e&projectId=a0a8f18c-a66e-4ba7-a170-23efbdc67501","DA26FAFAC2C34B7F9116B67333EC3F47-2024-11-24-19-01-10","","2572","","images/causal_sequence/museum_causal/museum_causal_7.png","0","",""
"","","","","","image-button-response","80","911271","0.0-12.0-1.0-2.6","DA26FAFAC2C34B7F9116B67333EC3F47","DA26FAFAC2C34B7F9116B67333EC3F47","aff0cce6-ddc1-4772-a184-d9b646f93a1e","a0a8f18c-a66e-4ba7-a170-23efbdc67501","{""participantId"":""DA26FAFAC2C34B7F9116B67333EC3F47"",""assignmentId"":""aff0cce6-ddc1-4772-a184-d9b646f93a1e"",""projectId"":""a0a8f18c-a66e-4ba7-a170-23efbdc67501""}","https://test12345.live/?participantId=DA26FAFAC2C34B7F9116B67333EC3F47&assignmentId=aff0cce6-ddc1-4772-a184-d9b646f93a1e&projectId=a0a8f18c-a66e-4ba7-a170-23efbdc67501","DA26FAFAC2C34B7F9116B67333EC3F47-2024-11-24-19-01-10","","null","","[]","null","",""
"","","","","","image-button-response","81","915776","0.0-12.0-1.0-0.7","DA26FAFAC2C34B7F9116B67333EC3F47","DA26FAFAC2C34B7F9116B67333EC3F47","aff0cce6-ddc1-4772-a184-d9b646f93a1e","a0a8f18c-a66e-4ba7-a170-23efbdc67501","{""participantId"":""DA26FAFAC2C34B7F9116B67333EC3F47"",""assignmentId"":""aff0cce6-ddc1-4772-a184-d9b646f93a1e"",""projectId"":""a0a8f18c-a66e-4ba7-a170-23efbdc67501""}","https://test12345.live/?participantId=DA26FAFAC2C34B7F9116B67333EC3F47&assignmentId=aff0cce6-ddc1-4772-a184-d9b646f93a1e&projectId=a0a8f18c-a66e-4ba7-a170-23efbdc67501","DA26FAFAC2C34B7F9116B67333EC3F47-2024-11-24-19-01-10","","null","","images/causal_sequence/museum_causal/museum_causal_8.png","null","",""
"","","","","","image-button-response","82","916957","0.0-12.0-1.0-1.7","DA26FAFAC2C34B7F9116B67333EC3F47","DA26FAFAC2C34B7F9116B67333EC3F47","aff0cce6-ddc1-4772-a184-d9b646f93a1e","a0a8f18c-a66e-4ba7-a170-23efbdc67501","{""participantId"":""DA26FAFAC2C34B7F9116B67333EC3F47"",""assignmentId"":""aff0cce6-ddc1-4772-a184-d9b646f93a1e"",""projectId"":""a0a8f18c-a66e-4ba7-a170-23efbdc67501""}","https://test12345.live/?participantId=DA26FAFAC2C34B7F9116B67333EC3F47&assignmentId=aff0cce6-ddc1-4772-a184-d9b646f93a1e&projectId=a0a8f18c-a66e-4ba7-a170-23efbdc67501","DA26FAFAC2C34B7F9116B67333EC3F47-2024-11-24-19-01-10","","1178","","images/causal_sequence/museum_causal/museum_causal_8.png","0","",""
"","","","","","image-button-response","83","918775","0.0-12.0-1.0-2.7","DA26FAFAC2C34B7F9116B67333EC3F47","DA26FAFAC2C34B7F9116B67333EC3F47","aff0cce6-ddc1-4772-a184-d9b646f93a1e","a0a8f18c-a66e-4ba7-a170-23efbdc67501","{""participantId"":""DA26FAFAC2C34B7F9116B67333EC3F47"",""assignmentId"":""aff0cce6-ddc1-4772-a184-d9b646f93a1e"",""projectId"":""a0a8f18c-a66e-4ba7-a170-23efbdc67501""}","https://test12345.live/?participantId=DA26FAFAC2C34B7F9116B67333EC3F47&assignmentId=aff0cce6-ddc1-4772-a184-d9b646f93a1e&projectId=a0a8f18c-a66e-4ba7-a170-23efbdc67501","DA26FAFAC2C34B7F9116B67333EC3F47-2024-11-24-19-01-10","","null","","[]","null","",""
"","","","","","image-button-response","84","923287","0.0-12.0-1.0-0.8","DA26FAFAC2C34B7F9116B67333EC3F47","DA26FAFAC2C34B7F9116B67333EC3F47","aff0cce6-ddc1-4772-a184-d9b646f93a1e","a0a8f18c-a66e-4ba7-a170-23efbdc67501","{""participantId"":""DA26FAFAC2C34B7F9116B67333EC3F47"",""assignmentId"":""aff0cce6-ddc1-4772-a184-d9b646f93a1e"",""projectId"":""a0a8f18c-a66e-4ba7-a170-23efbdc67501""}","https://test12345.live/?participantId=DA26FAFAC2C34B7F9116B67333EC3F47&assignmentId=aff0cce6-ddc1-4772-a184-d9b646f93a1e&projectId=a0a8f18c-a66e-4ba7-a170-23efbdc67501","DA26FAFAC2C34B7F9116B67333EC3F47-2024-11-24-19-01-10","","null","","images/causal_sequence/museum_causal/museum_causal_9.png","null","",""
"","","","","","image-button-response","85","927297","0.0-12.0-1.0-1.8","DA26FAFAC2C34B7F9116B67333EC3F47","DA26FAFAC2C34B7F9116B67333EC3F47","aff0cce6-ddc1-4772-a184-d9b646f93a1e","a0a8f18c-a66e-4ba7-a170-23efbdc67501","{""participantId"":""DA26FAFAC2C34B7F9116B67333EC3F47"",""assignmentId"":""aff0cce6-ddc1-4772-a184-d9b646f93a1e"",""projectId"":""a0a8f18c-a66e-4ba7-a170-23efbdc67501""}","https://test12345.live/?participantId=DA26FAFAC2C34B7F9116B67333EC3F47&assignmentId=aff0cce6-ddc1-4772-a184-d9b646f93a1e&projectId=a0a8f18c-a66e-4ba7-a170-23efbdc67501","DA26FAFAC2C34B7F9116B67333EC3F47-2024-11-24-19-01-10","","null","","images/causal_sequence/museum_causal/museum_causal_9.png","null","",""
"","","","","","image-button-response","86","929117","0.0-12.0-1.0-2.8","DA26FAFAC2C34B7F9116B67333EC3F47","DA26FAFAC2C34B7F9116B67333EC3F47","aff0cce6-ddc1-4772-a184-d9b646f93a1e","a0a8f18c-a66e-4ba7-a170-23efbdc67501","{""participantId"":""DA26FAFAC2C34B7F9116B67333EC3F47"",""assignmentId"":""aff0cce6-ddc1-4772-a184-d9b646f93a1e"",""projectId"":""a0a8f18c-a66e-4ba7-a170-23efbdc67501""}","https://test12345.live/?participantId=DA26FAFAC2C34B7F9116B67333EC3F47&assignmentId=aff0cce6-ddc1-4772-a184-d9b646f93a1e&projectId=a0a8f18c-a66e-4ba7-a170-23efbdc67501","DA26FAFAC2C34B7F9116B67333EC3F47-2024-11-24-19-01-10","","null","","[]","null","",""
"","","","","","image-button-response","87","933625","0.0-12.0-1.0-0.9","DA26FAFAC2C34B7F9116B67333EC3F47","DA26FAFAC2C34B7F9116B67333EC3F47","aff0cce6-ddc1-4772-a184-d9b646f93a1e","a0a8f18c-a66e-4ba7-a170-23efbdc67501","{""participantId"":""DA26FAFAC2C34B7F9116B67333EC3F47"",""assignmentId"":""aff0cce6-ddc1-4772-a184-d9b646f93a1e"",""projectId"":""a0a8f18c-a66e-4ba7-a170-23efbdc67501""}","https://test12345.live/?participantId=DA26FAFAC2C34B7F9116B67333EC3F47&assignmentId=aff0cce6-ddc1-4772-a184-d9b646f93a1e&projectId=a0a8f18c-a66e-4ba7-a170-23efbdc67501","DA26FAFAC2C34B7F9116B67333EC3F47-2024-11-24-19-01-10","","null","","images/causal_sequence/museum_causal/museum_causal_ten.png","null","",""
"","","","","","image-button-response","88","937633","0.0-12.0-1.0-1.9","DA26FAFAC2C34B7F9116B67333EC3F47","DA26FAFAC2C34B7F9116B67333EC3F47","aff0cce6-ddc1-4772-a184-d9b646f93a1e","a0a8f18c-a66e-4ba7-a170-23efbdc67501","{""participantId"":""DA26FAFAC2C34B7F9116B67333EC3F47"",""assignmentId"":""aff0cce6-ddc1-4772-a184-d9b646f93a1e"",""projectId"":""a0a8f18c-a66e-4ba7-a170-23efbdc67501""}","https://test12345.live/?participantId=DA26FAFAC2C34B7F9116B67333EC3F47&assignmentId=aff0cce6-ddc1-4772-a184-d9b646f93a1e&projectId=a0a8f18c-a66e-4ba7-a170-23efbdc67501","DA26FAFAC2C34B7F9116B67333EC3F47-2024-11-24-19-01-10","","null","","images/causal_sequence/museum_causal/museum_causal_ten.png","null","",""
"","","","","","image-button-response","89","939436","0.0-12.0-1.0-2.9","DA26FAFAC2C34B7F9116B67333EC3F47","DA26FAFAC2C34B7F9116B67333EC3F47","aff0cce6-ddc1-4772-a184-d9b646f93a1e","a0a8f18c-a66e-4ba7-a170-23efbdc67501","{""participantId"":""DA26FAFAC2C34B7F9116B67333EC3F47"",""assignmentId"":""aff0cce6-ddc1-4772-a184-d9b646f93a1e"",""projectId"":""a0a8f18c-a66e-4ba7-a170-23efbdc67501""}","https://test12345.live/?participantId=DA26FAFAC2C34B7F9116B67333EC3F47&assignmentId=aff0cce6-ddc1-4772-a184-d9b646f93a1e&projectId=a0a8f18c-a66e-4ba7-a170-23efbdc67501","DA26FAFAC2C34B7F9116B67333EC3F47-2024-11-24-19-01-10","","null","","[]","null","",""
"","","","","","html-audio-response","90","1059660","0.0-13.0","DA26FAFAC2C34B7F9116B67333EC3F47","DA26FAFAC2C34B7F9116B67333EC3F47","aff0cce6-ddc1-4772-a184-d9b646f93a1e","a0a8f18c-a66e-4ba7-a170-23efbdc67501","{""participantId"":""DA26FAFAC2C34B7F9116B67333EC3F47"",""assignmentId"":""aff0cce6-ddc1-4772-a184-d9b646f93a1e"",""projectId"":""a0a8f18c-a66e-4ba7-a170-23efbdc67501""}","https://test12345.live/?participantId=DA26FAFAC2C34B7F9116B67333EC3F47&assignmentId=aff0cce6-ddc1-4772-a184-d9b646f93a1e&projectId=a0a8f18c-a66e-4ba7-a170-23efbdc67501","DA26FAFAC2C34B7F9116B67333EC3F47-2024-11-24-19-01-10","","8841","","[""<span style=\""color: red; font-size: 24px\""> NOW RECORDING</span><p>Please say out loud all the images you saw, as many as you can remember. The images can be said in any order.</p>""]","","3","museum_causal"
"","","","","","image-button-response","91","1065666","0.0-14.0-0.0","DA26FAFAC2C34B7F9116B67333EC3F47","DA26FAFAC2C34B7F9116B67333EC3F47","aff0cce6-ddc1-4772-a184-d9b646f93a1e","a0a8f18c-a66e-4ba7-a170-23efbdc67501","{""participantId"":""DA26FAFAC2C34B7F9116B67333EC3F47"",""assignmentId"":""aff0cce6-ddc1-4772-a184-d9b646f93a1e"",""projectId"":""a0a8f18c-a66e-4ba7-a170-23efbdc67501""}","https://test12345.live/?participantId=DA26FAFAC2C34B7F9116B67333EC3F47&assignmentId=aff0cce6-ddc1-4772-a184-d9b646f93a1e&projectId=a0a8f18c-a66e-4ba7-a170-23efbdc67501","DA26FAFAC2C34B7F9116B67333EC3F47-2024-11-24-19-01-10","","null","","images/semantic_sequence/physical_activity_semantic/physical_activity_semantic_0.png","null","",""
"","","","","","image-button-response","92","1070176","0.0-14.0-1.0-0.0","DA26FAFAC2C34B7F9116B67333EC3F47","DA26FAFAC2C34B7F9116B67333EC3F47","aff0cce6-ddc1-4772-a184-d9b646f93a1e","a0a8f18c-a66e-4ba7-a170-23efbdc67501","{""participantId"":""DA26FAFAC2C34B7F9116B67333EC3F47"",""assignmentId"":""aff0cce6-ddc1-4772-a184-d9b646f93a1e"",""projectId"":""a0a8f18c-a66e-4ba7-a170-23efbdc67501""}","https://test12345.live/?participantId=DA26FAFAC2C34B7F9116B67333EC3F47&assignmentId=aff0cce6-ddc1-4772-a184-d9b646f93a1e&projectId=a0a8f18c-a66e-4ba7-a170-23efbdc67501","DA26FAFAC2C34B7F9116B67333EC3F47-2024-11-24-19-01-10","","null","","images/semantic_sequence/physical_activity_semantic/physical_activity_semantic_1.png","null","",""
"","","","","","image-button-response","93","1074185","0.0-14.0-1.0-1.0","DA26FAFAC2C34B7F9116B67333EC3F47","DA26FAFAC2C34B7F9116B67333EC3F47","aff0cce6-ddc1-4772-a184-d9b646f93a1e","a0a8f18c-a66e-4ba7-a170-23efbdc67501","{""participantId"":""DA26FAFAC2C34B7F9116B67333EC3F47"",""assignmentId"":""aff0cce6-ddc1-4772-a184-d9b646f93a1e"",""projectId"":""a0a8f18c-a66e-4ba7-a170-23efbdc67501""}","https://test12345.live/?participantId=DA26FAFAC2C34B7F9116B67333EC3F47&assignmentId=aff0cce6-ddc1-4772-a184-d9b646f93a1e&projectId=a0a8f18c-a66e-4ba7-a170-23efbdc67501","DA26FAFAC2C34B7F9116B67333EC3F47-2024-11-24-19-01-10","","null","","images/semantic_sequence/physical_activity_semantic/physical_activity_semantic_1.png","null","",""
"","","","","","image-button-response","94","1076005","0.0-14.0-1.0-2.0","DA26FAFAC2C34B7F9116B67333EC3F47","DA26FAFAC2C34B7F9116B67333EC3F47","aff0cce6-ddc1-4772-a184-d9b646f93a1e","a0a8f18c-a66e-4ba7-a170-23efbdc67501","{""participantId"":""DA26FAFAC2C34B7F9116B67333EC3F47"",""assignmentId"":""aff0cce6-ddc1-4772-a184-d9b646f93a1e"",""projectId"":""a0a8f18c-a66e-4ba7-a170-23efbdc67501""}","https://test12345.live/?participantId=DA26FAFAC2C34B7F9116B67333EC3F47&assignmentId=aff0cce6-ddc1-4772-a184-d9b646f93a1e&projectId=a0a8f18c-a66e-4ba7-a170-23efbdc67501","DA26FAFAC2C34B7F9116B67333EC3F47-2024-11-24-19-01-10","","null","","[]","null","",""
"","","","","","image-button-response","95","1080521","0.0-14.0-1.0-0.1","DA26FAFAC2C34B7F9116B67333EC3F47","DA26FAFAC2C34B7F9116B67333EC3F47","aff0cce6-ddc1-4772-a184-d9b646f93a1e","a0a8f18c-a66e-4ba7-a170-23efbdc67501","{""participantId"":""DA26FAFAC2C34B7F9116B67333EC3F47"",""assignmentId"":""aff0cce6-ddc1-4772-a184-d9b646f93a1e"",""projectId"":""a0a8f18c-a66e-4ba7-a170-23efbdc67501""}","https://test12345.live/?participantId=DA26FAFAC2C34B7F9116B67333EC3F47&assignmentId=aff0cce6-ddc1-4772-a184-d9b646f93a1e&projectId=a0a8f18c-a66e-4ba7-a170-23efbdc67501","DA26FAFAC2C34B7F9116B67333EC3F47-2024-11-24-19-01-10","","null","","images/semantic_sequence/physical_activity_semantic/physical_activity_semantic_2.png","null","",""
"","","","","","image-button-response","96","1082063","0.0-14.0-1.0-1.1","DA26FAFAC2C34B7F9116B67333EC3F47","DA26FAFAC2C34B7F9116B67333EC3F47","aff0cce6-ddc1-4772-a184-d9b646f93a1e","a0a8f18c-a66e-4ba7-a170-23efbdc67501","{""participantId"":""DA26FAFAC2C34B7F9116B67333EC3F47"",""assignmentId"":""aff0cce6-ddc1-4772-a184-d9b646f93a1e"",""projectId"":""a0a8f18c-a66e-4ba7-a170-23efbdc67501""}","https://test12345.live/?participantId=DA26FAFAC2C34B7F9116B67333EC3F47&assignmentId=aff0cce6-ddc1-4772-a184-d9b646f93a1e&projectId=a0a8f18c-a66e-4ba7-a170-23efbdc67501","DA26FAFAC2C34B7F9116B67333EC3F47-2024-11-24-19-01-10","","1539","","images/semantic_sequence/physical_activity_semantic/physical_activity_semantic_2.png","0","",""
"","","","","","image-button-response","97","1083876","0.0-14.0-1.0-2.1","DA26FAFAC2C34B7F9116B67333EC3F47","DA26FAFAC2C34B7F9116B67333EC3F47","aff0cce6-ddc1-4772-a184-d9b646f93a1e","a0a8f18c-a66e-4ba7-a170-23efbdc67501","{""participantId"":""DA26FAFAC2C34B7F9116B67333EC3F47"",""assignmentId"":""aff0cce6-ddc1-4772-a184-d9b646f93a1e"",""projectId"":""a0a8f18c-a66e-4ba7-a170-23efbdc67501""}","https://test12345.live/?participantId=DA26FAFAC2C34B7F9116B67333EC3F47&assignmentId=aff0cce6-ddc1-4772-a184-d9b646f93a1e&projectId=a0a8f18c-a66e-4ba7-a170-23efbdc67501","DA26FAFAC2C34B7F9116B67333EC3F47-2024-11-24-19-01-10","","null","","[]","null","",""
"","","","","","image-button-response","98","1088386","0.0-14.0-1.0-0.2","DA26FAFAC2C34B7F9116B67333EC3F47","DA26FAFAC2C34B7F9116B67333EC3F47","aff0cce6-ddc1-4772-a184-d9b646f93a1e","a0a8f18c-a66e-4ba7-a170-23efbdc67501","{""participantId"":""DA26FAFAC2C34B7F9116B67333EC3F47"",""assignmentId"":""aff0cce6-ddc1-4772-a184-d9b646f93a1e"",""projectId"":""a0a8f18c-a66e-4ba7-a170-23efbdc67501""}","https://test12345.live/?participantId=DA26FAFAC2C34B7F9116B67333EC3F47&assignmentId=aff0cce6-ddc1-4772-a184-d9b646f93a1e&projectId=a0a8f18c-a66e-4ba7-a170-23efbdc67501","DA26FAFAC2C34B7F9116B67333EC3F47-2024-11-24-19-01-10","","null","","images/semantic_sequence/physical_activity_semantic/physical_activity_semantic_3.png","null","",""
"","","","","","image-button-response","99","1089453","0.0-14.0-1.0-1.2","DA26FAFAC2C34B7F9116B67333EC3F47","DA26FAFAC2C34B7F9116B67333EC3F47","aff0cce6-ddc1-4772-a184-d9b646f93a1e","a0a8f18c-a66e-4ba7-a170-23efbdc67501","{""participantId"":""DA26FAFAC2C34B7F9116B67333EC3F47"",""assignmentId"":""aff0cce6-ddc1-4772-a184-d9b646f93a1e"",""projectId"":""a0a8f18c-a66e-4ba7-a170-23efbdc67501""}","https://test12345.live/?participantId=DA26FAFAC2C34B7F9116B67333EC3F47&assignmentId=aff0cce6-ddc1-4772-a184-d9b646f93a1e&projectId=a0a8f18c-a66e-4ba7-a170-23efbdc67501","DA26FAFAC2C34B7F9116B67333EC3F47-2024-11-24-19-01-10","","1064","","images/semantic_sequence/physical_activity_semantic/physical_activity_semantic_3.png","0","",""
"","","","","","image-button-response","100","1091275","0.0-14.0-1.0-2.2","DA26FAFAC2C34B7F9116B67333EC3F47","DA26FAFAC2C34B7F9116B67333EC3F47","aff0cce6-ddc1-4772-a184-d9b646f93a1e","a0a8f18c-a66e-4ba7-a170-23efbdc67501","{""participantId"":""DA26FAFAC2C34B7F9116B67333EC3F47"",""assignmentId"":""aff0cce6-ddc1-4772-a184-d9b646f93a1e"",""projectId"":""a0a8f18c-a66e-4ba7-a170-23efbdc67501""}","https://test12345.live/?participantId=DA26FAFAC2C34B7F9116B67333EC3F47&assignmentId=aff0cce6-ddc1-4772-a184-d9b646f93a1e&projectId=a0a8f18c-a66e-4ba7-a170-23efbdc67501","DA26FAFAC2C34B7F9116B67333EC3F47-2024-11-24-19-01-10","","null","","[]","null","",""
"","","","","","image-button-response","101","1095785","0.0-14.0-1.0-0.3","DA26FAFAC2C34B7F9116B67333EC3F47","DA26FAFAC2C34B7F9116B67333EC3F47","aff0cce6-ddc1-4772-a184-d9b646f93a1e","a0a8f18c-a66e-4ba7-a170-23efbdc67501","{""participantId"":""DA26FAFAC2C34B7F9116B67333EC3F47"",""assignmentId"":""aff0cce6-ddc1-4772-a184-d9b646f93a1e"",""projectId"":""a0a8f18c-a66e-4ba7-a170-23efbdc67501""}","https://test12345.live/?participantId=DA26FAFAC2C34B7F9116B67333EC3F47&assignmentId=aff0cce6-ddc1-4772-a184-d9b646f93a1e&projectId=a0a8f18c-a66e-4ba7-a170-23efbdc67501","DA26FAFAC2C34B7F9116B67333EC3F47-2024-11-24-19-01-10","","null","","images/semantic_sequence/physical_activity_semantic/physical_activity_semantic_4.png","null","",""
"","","","","","image-button-response","102","1096864","0.0-14.0-1.0-1.3","DA26FAFAC2C34B7F9116B67333EC3F47","DA26FAFAC2C34B7F9116B67333EC3F47","aff0cce6-ddc1-4772-a184-d9b646f93a1e","a0a8f18c-a66e-4ba7-a170-23efbdc67501","{""participantId"":""DA26FAFAC2C34B7F9116B67333EC3F47"",""assignmentId"":""aff0cce6-ddc1-4772-a184-d9b646f93a1e"",""projectId"":""a0a8f18c-a66e-4ba7-a170-23efbdc67501""}","https://test12345.live/?participantId=DA26FAFAC2C34B7F9116B67333EC3F47&assignmentId=aff0cce6-ddc1-4772-a184-d9b646f93a1e&projectId=a0a8f18c-a66e-4ba7-a170-23efbdc67501","DA26FAFAC2C34B7F9116B67333EC3F47-2024-11-24-19-01-10","","1076","","images/semantic_sequence/physical_activity_semantic/physical_activity_semantic_4.png","0","",""
"","","","","","image-button-response","103","1098666","0.0-14.0-1.0-2.3","DA26FAFAC2C34B7F9116B67333EC3F47","DA26FAFAC2C34B7F9116B67333EC3F47","aff0cce6-ddc1-4772-a184-d9b646f93a1e","a0a8f18c-a66e-4ba7-a170-23efbdc67501","{""participantId"":""DA26FAFAC2C34B7F9116B67333EC3F47"",""assignmentId"":""aff0cce6-ddc1-4772-a184-d9b646f93a1e"",""projectId"":""a0a8f18c-a66e-4ba7-a170-23efbdc67501""}","https://test12345.live/?participantId=DA26FAFAC2C34B7F9116B67333EC3F47&assignmentId=aff0cce6-ddc1-4772-a184-d9b646f93a1e&projectId=a0a8f18c-a66e-4ba7-a170-23efbdc67501","DA26FAFAC2C34B7F9116B67333EC3F47-2024-11-24-19-01-10","","null","","[]","null","",""
"","","","","","image-button-response","104","1103175","0.0-14.0-1.0-0.4","DA26FAFAC2C34B7F9116B67333EC3F47","DA26FAFAC2C34B7F9116B67333EC3F47","aff0cce6-ddc1-4772-a184-d9b646f93a1e","a0a8f18c-a66e-4ba7-a170-23efbdc67501","{""participantId"":""DA26FAFAC2C34B7F9116B67333EC3F47"",""assignmentId"":""aff0cce6-ddc1-4772-a184-d9b646f93a1e"",""projectId"":""a0a8f18c-a66e-4ba7-a170-23efbdc67501""}","https://test12345.live/?participantId=DA26FAFAC2C34B7F9116B67333EC3F47&assignmentId=aff0cce6-ddc1-4772-a184-d9b646f93a1e&projectId=a0a8f18c-a66e-4ba7-a170-23efbdc67501","DA26FAFAC2C34B7F9116B67333EC3F47-2024-11-24-19-01-10","","null","","images/semantic_sequence/physical_activity_semantic/physical_activity_semantic_5.png","null","",""
"","","","","","image-button-response","105","1104245","0.0-14.0-1.0-1.4","DA26FAFAC2C34B7F9116B67333EC3F47","DA26FAFAC2C34B7F9116B67333EC3F47","aff0cce6-ddc1-4772-a184-d9b646f93a1e","a0a8f18c-a66e-4ba7-a170-23efbdc67501","{""participantId"":""DA26FAFAC2C34B7F9116B67333EC3F47"",""assignmentId"":""aff0cce6-ddc1-4772-a184-d9b646f93a1e"",""projectId"":""a0a8f18c-a66e-4ba7-a170-23efbdc67501""}","https://test12345.live/?participantId=DA26FAFAC2C34B7F9116B67333EC3F47&assignmentId=aff0cce6-ddc1-4772-a184-d9b646f93a1e&projectId=a0a8f18c-a66e-4ba7-a170-23efbdc67501","DA26FAFAC2C34B7F9116B67333EC3F47-2024-11-24-19-01-10","","1067","","images/semantic_sequence/physical_activity_semantic/physical_activity_semantic_5.png","0","",""
"","","","","","image-button-response","106","1106056","0.0-14.0-1.0-2.4","DA26FAFAC2C34B7F9116B67333EC3F47","DA26FAFAC2C34B7F9116B67333EC3F47","aff0cce6-ddc1-4772-a184-d9b646f93a1e","a0a8f18c-a66e-4ba7-a170-23efbdc67501","{""participantId"":""DA26FAFAC2C34B7F9116B67333EC3F47"",""assignmentId"":""aff0cce6-ddc1-4772-a184-d9b646f93a1e"",""projectId"":""a0a8f18c-a66e-4ba7-a170-23efbdc67501""}","https://test12345.live/?participantId=DA26FAFAC2C34B7F9116B67333EC3F47&assignmentId=aff0cce6-ddc1-4772-a184-d9b646f93a1e&projectId=a0a8f18c-a66e-4ba7-a170-23efbdc67501","DA26FAFAC2C34B7F9116B67333EC3F47-2024-11-24-19-01-10","","null","","[]","null","",""
"","","","","","image-button-response","107","1110570","0.0-14.0-1.0-0.5","DA26FAFAC2C34B7F9116B67333EC3F47","DA26FAFAC2C34B7F9116B67333EC3F47","aff0cce6-ddc1-4772-a184-d9b646f93a1e","a0a8f18c-a66e-4ba7-a170-23efbdc67501","{""participantId"":""DA26FAFAC2C34B7F9116B67333EC3F47"",""assignmentId"":""aff0cce6-ddc1-4772-a184-d9b646f93a1e"",""projectId"":""a0a8f18c-a66e-4ba7-a170-23efbdc67501""}","https://test12345.live/?participantId=DA26FAFAC2C34B7F9116B67333EC3F47&assignmentId=aff0cce6-ddc1-4772-a184-d9b646f93a1e&projectId=a0a8f18c-a66e-4ba7-a170-23efbdc67501","DA26FAFAC2C34B7F9116B67333EC3F47-2024-11-24-19-01-10","","null","","images/semantic_sequence/physical_activity_semantic/physical_activity_semantic_6.png","null","",""
"","","","","","image-button-response","108","1111302","0.0-14.0-1.0-1.5","DA26FAFAC2C34B7F9116B67333EC3F47","DA26FAFAC2C34B7F9116B67333EC3F47","aff0cce6-ddc1-4772-a184-d9b646f93a1e","a0a8f18c-a66e-4ba7-a170-23efbdc67501","{""participantId"":""DA26FAFAC2C34B7F9116B67333EC3F47"",""assignmentId"":""aff0cce6-ddc1-4772-a184-d9b646f93a1e"",""projectId"":""a0a8f18c-a66e-4ba7-a170-23efbdc67501""}","https://test12345.live/?participantId=DA26FAFAC2C34B7F9116B67333EC3F47&assignmentId=aff0cce6-ddc1-4772-a184-d9b646f93a1e&projectId=a0a8f18c-a66e-4ba7-a170-23efbdc67501","DA26FAFAC2C34B7F9116B67333EC3F47-2024-11-24-19-01-10","","729","","images/semantic_sequence/physical_activity_semantic/physical_activity_semantic_6.png","0","",""
"","","","","","image-button-response","109","1113105","0.0-14.0-1.0-2.5","DA26FAFAC2C34B7F9116B67333EC3F47","DA26FAFAC2C34B7F9116B67333EC3F47","aff0cce6-ddc1-4772-a184-d9b646f93a1e","a0a8f18c-a66e-4ba7-a170-23efbdc67501","{""participantId"":""DA26FAFAC2C34B7F9116B67333EC3F47"",""assignmentId"":""aff0cce6-ddc1-4772-a184-d9b646f93a1e"",""projectId"":""a0a8f18c-a66e-4ba7-a170-23efbdc67501""}","https://test12345.live/?participantId=DA26FAFAC2C34B7F9116B67333EC3F47&assignmentId=aff0cce6-ddc1-4772-a184-d9b646f93a1e&projectId=a0a8f18c-a66e-4ba7-a170-23efbdc67501","DA26FAFAC2C34B7F9116B67333EC3F47-2024-11-24-19-01-10","","null","","[]","null","",""
"","","","","","image-button-response","110","1117615","0.0-14.0-1.0-0.6","DA26FAFAC2C34B7F9116B67333EC3F47","DA26FAFAC2C34B7F9116B67333EC3F47","aff0cce6-ddc1-4772-a184-d9b646f93a1e","a0a8f18c-a66e-4ba7-a170-23efbdc67501","{""participantId"":""DA26FAFAC2C34B7F9116B67333EC3F47"",""assignmentId"":""aff0cce6-ddc1-4772-a184-d9b646f93a1e"",""projectId"":""a0a8f18c-a66e-4ba7-a170-23efbdc67501""}","https://test12345.live/?participantId=DA26FAFAC2C34B7F9116B67333EC3F47&assignmentId=aff0cce6-ddc1-4772-a184-d9b646f93a1e&projectId=a0a8f18c-a66e-4ba7-a170-23efbdc67501","DA26FAFAC2C34B7F9116B67333EC3F47-2024-11-24-19-01-10","","null","","images/semantic_sequence/physical_activity_semantic/physical_activity_semantic_7.png","null","",""
"","","","","","image-button-response","111","1118592","0.0-14.0-1.0-1.6","DA26FAFAC2C34B7F9116B67333EC3F47","DA26FAFAC2C34B7F9116B67333EC3F47","aff0cce6-ddc1-4772-a184-d9b646f93a1e","a0a8f18c-a66e-4ba7-a170-23efbdc67501","{""participantId"":""DA26FAFAC2C34B7F9116B67333EC3F47"",""assignmentId"":""aff0cce6-ddc1-4772-a184-d9b646f93a1e"",""projectId"":""a0a8f18c-a66e-4ba7-a170-23efbdc67501""}","https://test12345.live/?participantId=DA26FAFAC2C34B7F9116B67333EC3F47&assignmentId=aff0cce6-ddc1-4772-a184-d9b646f93a1e&projectId=a0a8f18c-a66e-4ba7-a170-23efbdc67501","DA26FAFAC2C34B7F9116B67333EC3F47-2024-11-24-19-01-10","","974","","images/semantic_sequence/physical_activity_semantic/physical_activity_semantic_7.png","0","",""
"","","","","","image-button-response","112","1120406","0.0-14.0-1.0-2.6","DA26FAFAC2C34B7F9116B67333EC3F47","DA26FAFAC2C34B7F9116B67333EC3F47","aff0cce6-ddc1-4772-a184-d9b646f93a1e","a0a8f18c-a66e-4ba7-a170-23efbdc67501","{""participantId"":""DA26FAFAC2C34B7F9116B67333EC3F47"",""assignmentId"":""aff0cce6-ddc1-4772-a184-d9b646f93a1e"",""projectId"":""a0a8f18c-a66e-4ba7-a170-23efbdc67501""}","https://test12345.live/?participantId=DA26FAFAC2C34B7F9116B67333EC3F47&assignmentId=aff0cce6-ddc1-4772-a184-d9b646f93a1e&projectId=a0a8f18c-a66e-4ba7-a170-23efbdc67501","DA26FAFAC2C34B7F9116B67333EC3F47-2024-11-24-19-01-10","","null","","[]","null","",""
"","","","","","image-button-response","113","1124916","0.0-14.0-1.0-0.7","DA26FAFAC2C34B7F9116B67333EC3F47","DA26FAFAC2C34B7F9116B67333EC3F47","aff0cce6-ddc1-4772-a184-d9b646f93a1e","a0a8f18c-a66e-4ba7-a170-23efbdc67501","{""participantId"":""DA26FAFAC2C34B7F9116B67333EC3F47"",""assignmentId"":""aff0cce6-ddc1-4772-a184-d9b646f93a1e"",""projectId"":""a0a8f18c-a66e-4ba7-a170-23efbdc67501""}","https://test12345.live/?participantId=DA26FAFAC2C34B7F9116B67333EC3F47&assignmentId=aff0cce6-ddc1-4772-a184-d9b646f93a1e&projectId=a0a8f18c-a66e-4ba7-a170-23efbdc67501","DA26FAFAC2C34B7F9116B67333EC3F47-2024-11-24-19-01-10","","null","","images/semantic_sequence/physical_activity_semantic/physical_activity_semantic_8.png","null","",""
"","","","","","image-button-response","114","1127513","0.0-14.0-1.0-1.7","DA26FAFAC2C34B7F9116B67333EC3F47","DA26FAFAC2C34B7F9116B67333EC3F47","aff0cce6-ddc1-4772-a184-d9b646f93a1e","a0a8f18c-a66e-4ba7-a170-23efbdc67501","{""participantId"":""DA26FAFAC2C34B7F9116B67333EC3F47"",""assignmentId"":""aff0cce6-ddc1-4772-a184-d9b646f93a1e"",""projectId"":""a0a8f18c-a66e-4ba7-a170-23efbdc67501""}","https://test12345.live/?participantId=DA26FAFAC2C34B7F9116B67333EC3F47&assignmentId=aff0cce6-ddc1-4772-a184-d9b646f93a1e&projectId=a0a8f18c-a66e-4ba7-a170-23efbdc67501","DA26FAFAC2C34B7F9116B67333EC3F47-2024-11-24-19-01-10","","2595","","images/semantic_sequence/physical_activity_semantic/physical_activity_semantic_8.png","0","",""
"","","","","","image-button-response","115","1129325","0.0-14.0-1.0-2.7","DA26FAFAC2C34B7F9116B67333EC3F47","DA26FAFAC2C34B7F9116B67333EC3F47","aff0cce6-ddc1-4772-a184-d9b646f93a1e","a0a8f18c-a66e-4ba7-a170-23efbdc67501","{""participantId"":""DA26FAFAC2C34B7F9116B67333EC3F47"",""assignmentId"":""aff0cce6-ddc1-4772-a184-d9b646f93a1e"",""projectId"":""a0a8f18c-a66e-4ba7-a170-23efbdc67501""}","https://test12345.live/?participantId=DA26FAFAC2C34B7F9116B67333EC3F47&assignmentId=aff0cce6-ddc1-4772-a184-d9b646f93a1e&projectId=a0a8f18c-a66e-4ba7-a170-23efbdc67501","DA26FAFAC2C34B7F9116B67333EC3F47-2024-11-24-19-01-10","","null","","[]","null","",""
"","","","","","image-button-response","116","1133830","0.0-14.0-1.0-0.8","DA26FAFAC2C34B7F9116B67333EC3F47","DA26FAFAC2C34B7F9116B67333EC3F47","aff0cce6-ddc1-4772-a184-d9b646f93a1e","a0a8f18c-a66e-4ba7-a170-23efbdc67501","{""participantId"":""DA26FAFAC2C34B7F9116B67333EC3F47"",""assignmentId"":""aff0cce6-ddc1-4772-a184-d9b646f93a1e"",""projectId"":""a0a8f18c-a66e-4ba7-a170-23efbdc67501""}","https://test12345.live/?participantId=DA26FAFAC2C34B7F9116B67333EC3F47&assignmentId=aff0cce6-ddc1-4772-a184-d9b646f93a1e&projectId=a0a8f18c-a66e-4ba7-a170-23efbdc67501","DA26FAFAC2C34B7F9116B67333EC3F47-2024-11-24-19-01-10","","null","","images/semantic_sequence/physical_activity_semantic/physical_activity_semantic_9.png","null","",""
"","","","","","image-button-response","117","1135381","0.0-14.0-1.0-1.8","DA26FAFAC2C34B7F9116B67333EC3F47","DA26FAFAC2C34B7F9116B67333EC3F47","aff0cce6-ddc1-4772-a184-d9b646f93a1e","a0a8f18c-a66e-4ba7-a170-23efbdc67501","{""participantId"":""DA26FAFAC2C34B7F9116B67333EC3F47"",""assignmentId"":""aff0cce6-ddc1-4772-a184-d9b646f93a1e"",""projectId"":""a0a8f18c-a66e-4ba7-a170-23efbdc67501""}","https://test12345.live/?participantId=DA26FAFAC2C34B7F9116B67333EC3F47&assignmentId=aff0cce6-ddc1-4772-a184-d9b646f93a1e&projectId=a0a8f18c-a66e-4ba7-a170-23efbdc67501","DA26FAFAC2C34B7F9116B67333EC3F47-2024-11-24-19-01-10","","1549","","images/semantic_sequence/physical_activity_semantic/physical_activity_semantic_9.png","0","",""
"","","","","","image-button-response","118","1137185","0.0-14.0-1.0-2.8","DA26FAFAC2C34B7F9116B67333EC3F47","DA26FAFAC2C34B7F9116B67333EC3F47","aff0cce6-ddc1-4772-a184-d9b646f93a1e","a0a8f18c-a66e-4ba7-a170-23efbdc67501","{""participantId"":""DA26FAFAC2C34B7F9116B67333EC3F47"",""assignmentId"":""aff0cce6-ddc1-4772-a184-d9b646f93a1e"",""projectId"":""a0a8f18c-a66e-4ba7-a170-23efbdc67501""}","https://test12345.live/?participantId=DA26FAFAC2C34B7F9116B67333EC3F47&assignmentId=aff0cce6-ddc1-4772-a184-d9b646f93a1e&projectId=a0a8f18c-a66e-4ba7-a170-23efbdc67501","DA26FAFAC2C34B7F9116B67333EC3F47-2024-11-24-19-01-10","","null","","[]","null","",""
"","","","","","image-button-response","119","1141695","0.0-14.0-1.0-0.9","DA26FAFAC2C34B7F9116B67333EC3F47","DA26FAFAC2C34B7F9116B67333EC3F47","aff0cce6-ddc1-4772-a184-d9b646f93a1e","a0a8f18c-a66e-4ba7-a170-23efbdc67501","{""participantId"":""DA26FAFAC2C34B7F9116B67333EC3F47"",""assignmentId"":""aff0cce6-ddc1-4772-a184-d9b646f93a1e"",""projectId"":""a0a8f18c-a66e-4ba7-a170-23efbdc67501""}","https://test12345.live/?participantId=DA26FAFAC2C34B7F9116B67333EC3F47&assignmentId=aff0cce6-ddc1-4772-a184-d9b646f93a1e&projectId=a0a8f18c-a66e-4ba7-a170-23efbdc67501","DA26FAFAC2C34B7F9116B67333EC3F47-2024-11-24-19-01-10","","null","","images/semantic_sequence/physical_activity_semantic/physical_activity_semantic_ten.png","null","",""
"","","","","","image-button-response","120","1142801","0.0-14.0-1.0-1.9","DA26FAFAC2C34B7F9116B67333EC3F47","DA26FAFAC2C34B7F9116B67333EC3F47","aff0cce6-ddc1-4772-a184-d9b646f93a1e","a0a8f18c-a66e-4ba7-a170-23efbdc67501","{""participantId"":""DA26FAFAC2C34B7F9116B67333EC3F47"",""assignmentId"":""aff0cce6-ddc1-4772-a184-d9b646f93a1e"",""projectId"":""a0a8f18c-a66e-4ba7-a170-23efbdc67501""}","https://test12345.live/?participantId=DA26FAFAC2C34B7F9116B67333EC3F47&assignmentId=aff0cce6-ddc1-4772-a184-d9b646f93a1e&projectId=a0a8f18c-a66e-4ba7-a170-23efbdc67501","DA26FAFAC2C34B7F9116B67333EC3F47-2024-11-24-19-01-10","","1103","","images/semantic_sequence/physical_activity_semantic/physical_activity_semantic_ten.png","0","",""
"","","","","","image-button-response","121","1144625","0.0-14.0-1.0-2.9","DA26FAFAC2C34B7F9116B67333EC3F47","DA26FAFAC2C34B7F9116B67333EC3F47","aff0cce6-ddc1-4772-a184-d9b646f93a1e","a0a8f18c-a66e-4ba7-a170-23efbdc67501","{""participantId"":""DA26FAFAC2C34B7F9116B67333EC3F47"",""assignmentId"":""aff0cce6-ddc1-4772-a184-d9b646f93a1e"",""projectId"":""a0a8f18c-a66e-4ba7-a170-23efbdc67501""}","https://test12345.live/?participantId=DA26FAFAC2C34B7F9116B67333EC3F47&assignmentId=aff0cce6-ddc1-4772-a184-d9b646f93a1e&projectId=a0a8f18c-a66e-4ba7-a170-23efbdc67501","DA26FAFAC2C34B7F9116B67333EC3F47-2024-11-24-19-01-10","","null","","[]","null","",""
"","","","","","html-audio-response","122","1181595","0.0-15.0","DA26FAFAC2C34B7F9116B67333EC3F47","DA26FAFAC2C34B7F9116B67333EC3F47","aff0cce6-ddc1-4772-a184-d9b646f93a1e","a0a8f18c-a66e-4ba7-a170-23efbdc67501","{""participantId"":""DA26FAFAC2C34B7F9116B67333EC3F47"",""assignmentId"":""aff0cce6-ddc1-4772-a184-d9b646f93a1e"",""projectId"":""a0a8f18c-a66e-4ba7-a170-23efbdc67501""}","https://test12345.live/?participantId=DA26FAFAC2C34B7F9116B67333EC3F47&assignmentId=aff0cce6-ddc1-4772-a184-d9b646f93a1e&projectId=a0a8f18c-a66e-4ba7-a170-23efbdc67501","DA26FAFAC2C34B7F9116B67333EC3F47-2024-11-24-19-01-10","","14404","","[""<span style=\""color: red; font-size: 24px\""> NOW RECORDING</span><p>Please say out loud all the images you saw, as many as you can remember. The images can be said in any order.</p>""]","","3","physical_activity_semantic"
"","","","","","image-button-response","123","1187624","0.0-16.0-0.0","DA26FAFAC2C34B7F9116B67333EC3F47","DA26FAFAC2C34B7F9116B67333EC3F47","aff0cce6-ddc1-4772-a184-d9b646f93a1e","a0a8f18c-a66e-4ba7-a170-23efbdc67501","{""participantId"":""DA26FAFAC2C34B7F9116B67333EC3F47"",""assignmentId"":""aff0cce6-ddc1-4772-a184-d9b646f93a1e"",""projectId"":""a0a8f18c-a66e-4ba7-a170-23efbdc67501""}","https://test12345.live/?participantId=DA26FAFAC2C34B7F9116B67333EC3F47&assignmentId=aff0cce6-ddc1-4772-a184-d9b646f93a1e&projectId=a0a8f18c-a66e-4ba7-a170-23efbdc67501","DA26FAFAC2C34B7F9116B67333EC3F47-2024-11-24-19-01-10","","null","","images/schematic_sequence/restaurant_scheme/restaurant_scheme_0.png","null","",""
"","","","","","image-button-response","124","1192144","0.0-16.0-1.0-0.0","DA26FAFAC2C34B7F9116B67333EC3F47","DA26FAFAC2C34B7F9116B67333EC3F47","aff0cce6-ddc1-4772-a184-d9b646f93a1e","a0a8f18c-a66e-4ba7-a170-23efbdc67501","{""participantId"":""DA26FAFAC2C34B7F9116B67333EC3F47"",""assignmentId"":""aff0cce6-ddc1-4772-a184-d9b646f93a1e"",""projectId"":""a0a8f18c-a66e-4ba7-a170-23efbdc67501""}","https://test12345.live/?participantId=DA26FAFAC2C34B7F9116B67333EC3F47&assignmentId=aff0cce6-ddc1-4772-a184-d9b646f93a1e&projectId=a0a8f18c-a66e-4ba7-a170-23efbdc67501","DA26FAFAC2C34B7F9116B67333EC3F47-2024-11-24-19-01-10","","null","","images/schematic_sequence/restaurant_scheme/restaurant_scheme_3.png","null","",""
"","","","","","image-button-response","125","1193983","0.0-16.0-1.0-1.0","DA26FAFAC2C34B7F9116B67333EC3F47","DA26FAFAC2C34B7F9116B67333EC3F47","aff0cce6-ddc1-4772-a184-d9b646f93a1e","a0a8f18c-a66e-4ba7-a170-23efbdc67501","{""participantId"":""DA26FAFAC2C34B7F9116B67333EC3F47"",""assignmentId"":""aff0cce6-ddc1-4772-a184-d9b646f93a1e"",""projectId"":""a0a8f18c-a66e-4ba7-a170-23efbdc67501""}","https://test12345.live/?participantId=DA26FAFAC2C34B7F9116B67333EC3F47&assignmentId=aff0cce6-ddc1-4772-a184-d9b646f93a1e&projectId=a0a8f18c-a66e-4ba7-a170-23efbdc67501","DA26FAFAC2C34B7F9116B67333EC3F47-2024-11-24-19-01-10","","1837","","images/schematic_sequence/restaurant_scheme/restaurant_scheme_3.png","0","",""
"","","","","","image-button-response","126","1195803","0.0-16.0-1.0-2.0","DA26FAFAC2C34B7F9116B67333EC3F47","DA26FAFAC2C34B7F9116B67333EC3F47","aff0cce6-ddc1-4772-a184-d9b646f93a1e","a0a8f18c-a66e-4ba7-a170-23efbdc67501","{""participantId"":""DA26FAFAC2C34B7F9116B67333EC3F47"",""assignmentId"":""aff0cce6-ddc1-4772-a184-d9b646f93a1e"",""projectId"":""a0a8f18c-a66e-4ba7-a170-23efbdc67501""}","https://test12345.live/?participantId=DA26FAFAC2C34B7F9116B67333EC3F47&assignmentId=aff0cce6-ddc1-4772-a184-d9b646f93a1e&projectId=a0a8f18c-a66e-4ba7-a170-23efbdc67501","DA26FAFAC2C34B7F9116B67333EC3F47-2024-11-24-19-01-10","","null","","[]","null","",""
"","","","","","image-button-response","127","1200323","0.0-16.0-1.0-0.1","DA26FAFAC2C34B7F9116B67333EC3F47","DA26FAFAC2C34B7F9116B67333EC3F47","aff0cce6-ddc1-4772-a184-d9b646f93a1e","a0a8f18c-a66e-4ba7-a170-23efbdc67501","{""participantId"":""DA26FAFAC2C34B7F9116B67333EC3F47"",""assignmentId"":""aff0cce6-ddc1-4772-a184-d9b646f93a1e"",""projectId"":""a0a8f18c-a66e-4ba7-a170-23efbdc67501""}","https://test12345.live/?participantId=DA26FAFAC2C34B7F9116B67333EC3F47&assignmentId=aff0cce6-ddc1-4772-a184-d9b646f93a1e&projectId=a0a8f18c-a66e-4ba7-a170-23efbdc67501","DA26FAFAC2C34B7F9116B67333EC3F47-2024-11-24-19-01-10","","null","","images/schematic_sequence/restaurant_scheme/restaurant_scheme_ten.png","null","",""
"","","","","","image-button-response","128","1201880","0.0-16.0-1.0-1.1","DA26FAFAC2C34B7F9116B67333EC3F47","DA26FAFAC2C34B7F9116B67333EC3F47","aff0cce6-ddc1-4772-a184-d9b646f93a1e","a0a8f18c-a66e-4ba7-a170-23efbdc67501","{""participantId"":""DA26FAFAC2C34B7F9116B67333EC3F47"",""assignmentId"":""aff0cce6-ddc1-4772-a184-d9b646f93a1e"",""projectId"":""a0a8f18c-a66e-4ba7-a170-23efbdc67501""}","https://test12345.live/?participantId=DA26FAFAC2C34B7F9116B67333EC3F47&assignmentId=aff0cce6-ddc1-4772-a184-d9b646f93a1e&projectId=a0a8f18c-a66e-4ba7-a170-23efbdc67501","DA26FAFAC2C34B7F9116B67333EC3F47-2024-11-24-19-01-10","","1553","","images/schematic_sequence/restaurant_scheme/restaurant_scheme_ten.png","0","",""
"","","","","","image-button-response","129","1203683","0.0-16.0-1.0-2.1","DA26FAFAC2C34B7F9116B67333EC3F47","DA26FAFAC2C34B7F9116B67333EC3F47","aff0cce6-ddc1-4772-a184-d9b646f93a1e","a0a8f18c-a66e-4ba7-a170-23efbdc67501","{""participantId"":""DA26FAFAC2C34B7F9116B67333EC3F47"",""assignmentId"":""aff0cce6-ddc1-4772-a184-d9b646f93a1e"",""projectId"":""a0a8f18c-a66e-4ba7-a170-23efbdc67501""}","https://test12345.live/?participantId=DA26FAFAC2C34B7F9116B67333EC3F47&assignmentId=aff0cce6-ddc1-4772-a184-d9b646f93a1e&projectId=a0a8f18c-a66e-4ba7-a170-23efbdc67501","DA26FAFAC2C34B7F9116B67333EC3F47-2024-11-24-19-01-10","","null","","[]","null","",""
"","","","","","image-button-response","130","1208194","0.0-16.0-1.0-0.2","DA26FAFAC2C34B7F9116B67333EC3F47","DA26FAFAC2C34B7F9116B67333EC3F47","aff0cce6-ddc1-4772-a184-d9b646f93a1e","a0a8f18c-a66e-4ba7-a170-23efbdc67501","{""participantId"":""DA26FAFAC2C34B7F9116B67333EC3F47"",""assignmentId"":""aff0cce6-ddc1-4772-a184-d9b646f93a1e"",""projectId"":""a0a8f18c-a66e-4ba7-a170-23efbdc67501""}","https://test12345.live/?participantId=DA26FAFAC2C34B7F9116B67333EC3F47&assignmentId=aff0cce6-ddc1-4772-a184-d9b646f93a1e&projectId=a0a8f18c-a66e-4ba7-a170-23efbdc67501","DA26FAFAC2C34B7F9116B67333EC3F47-2024-11-24-19-01-10","","null","","images/schematic_sequence/restaurant_scheme/restaurant_scheme_8.png","null","",""
"","","","","","image-button-response","131","1209351","0.0-16.0-1.0-1.2","DA26FAFAC2C34B7F9116B67333EC3F47","DA26FAFAC2C34B7F9116B67333EC3F47","aff0cce6-ddc1-4772-a184-d9b646f93a1e","a0a8f18c-a66e-4ba7-a170-23efbdc67501","{""participantId"":""DA26FAFAC2C34B7F9116B67333EC3F47"",""assignmentId"":""aff0cce6-ddc1-4772-a184-d9b646f93a1e"",""projectId"":""a0a8f18c-a66e-4ba7-a170-23efbdc67501""}","https://test12345.live/?participantId=DA26FAFAC2C34B7F9116B67333EC3F47&assignmentId=aff0cce6-ddc1-4772-a184-d9b646f93a1e&projectId=a0a8f18c-a66e-4ba7-a170-23efbdc67501","DA26FAFAC2C34B7F9116B67333EC3F47-2024-11-24-19-01-10","","1154","","images/schematic_sequence/restaurant_scheme/restaurant_scheme_8.png","0","",""
"","","","","","image-button-response","132","1211154","0.0-16.0-1.0-2.2","DA26FAFAC2C34B7F9116B67333EC3F47","DA26FAFAC2C34B7F9116B67333EC3F47","aff0cce6-ddc1-4772-a184-d9b646f93a1e","a0a8f18c-a66e-4ba7-a170-23efbdc67501","{""participantId"":""DA26FAFAC2C34B7F9116B67333EC3F47"",""assignmentId"":""aff0cce6-ddc1-4772-a184-d9b646f93a1e"",""projectId"":""a0a8f18c-a66e-4ba7-a170-23efbdc67501""}","https://test12345.live/?participantId=DA26FAFAC2C34B7F9116B67333EC3F47&assignmentId=aff0cce6-ddc1-4772-a184-d9b646f93a1e&projectId=a0a8f18c-a66e-4ba7-a170-23efbdc67501","DA26FAFAC2C34B7F9116B67333EC3F47-2024-11-24-19-01-10","","null","","[]","null","",""
"","","","","","image-button-response","133","1215669","0.0-16.0-1.0-0.3","DA26FAFAC2C34B7F9116B67333EC3F47","DA26FAFAC2C34B7F9116B67333EC3F47","aff0cce6-ddc1-4772-a184-d9b646f93a1e","a0a8f18c-a66e-4ba7-a170-23efbdc67501","{""participantId"":""DA26FAFAC2C34B7F9116B67333EC3F47"",""assignmentId"":""aff0cce6-ddc1-4772-a184-d9b646f93a1e"",""projectId"":""a0a8f18c-a66e-4ba7-a170-23efbdc67501""}","https://test12345.live/?participantId=DA26FAFAC2C34B7F9116B67333EC3F47&assignmentId=aff0cce6-ddc1-4772-a184-d9b646f93a1e&projectId=a0a8f18c-a66e-4ba7-a170-23efbdc67501","DA26FAFAC2C34B7F9116B67333EC3F47-2024-11-24-19-01-10","","null","","images/schematic_sequence/restaurant_scheme/restaurant_scheme_7.png","null","",""
"","","","","","image-button-response","134","1216660","0.0-16.0-1.0-1.3","DA26FAFAC2C34B7F9116B67333EC3F47","DA26FAFAC2C34B7F9116B67333EC3F47","aff0cce6-ddc1-4772-a184-d9b646f93a1e","a0a8f18c-a66e-4ba7-a170-23efbdc67501","{""participantId"":""DA26FAFAC2C34B7F9116B67333EC3F47"",""assignmentId"":""aff0cce6-ddc1-4772-a184-d9b646f93a1e"",""projectId"":""a0a8f18c-a66e-4ba7-a170-23efbdc67501""}","https://test12345.live/?participantId=DA26FAFAC2C34B7F9116B67333EC3F47&assignmentId=aff0cce6-ddc1-4772-a184-d9b646f93a1e&projectId=a0a8f18c-a66e-4ba7-a170-23efbdc67501","DA26FAFAC2C34B7F9116B67333EC3F47-2024-11-24-19-01-10","","989","","images/schematic_sequence/restaurant_scheme/restaurant_scheme_7.png","0","",""
"","","","","","image-button-response","135","1218463","0.0-16.0-1.0-2.3","DA26FAFAC2C34B7F9116B67333EC3F47","DA26FAFAC2C34B7F9116B67333EC3F47","aff0cce6-ddc1-4772-a184-d9b646f93a1e","a0a8f18c-a66e-4ba7-a170-23efbdc67501","{""participantId"":""DA26FAFAC2C34B7F9116B67333EC3F47"",""assignmentId"":""aff0cce6-ddc1-4772-a184-d9b646f93a1e"",""projectId"":""a0a8f18c-a66e-4ba7-a170-23efbdc67501""}","https://test12345.live/?participantId=DA26FAFAC2C34B7F9116B67333EC3F47&assignmentId=aff0cce6-ddc1-4772-a184-d9b646f93a1e&projectId=a0a8f18c-a66e-4ba7-a170-23efbdc67501","DA26FAFAC2C34B7F9116B67333EC3F47-2024-11-24-19-01-10","","null","","[]","null","",""
"","","","","","image-button-response","136","1222973","0.0-16.0-1.0-0.4","DA26FAFAC2C34B7F9116B67333EC3F47","DA26FAFAC2C34B7F9116B67333EC3F47","aff0cce6-ddc1-4772-a184-d9b646f93a1e","a0a8f18c-a66e-4ba7-a170-23efbdc67501","{""participantId"":""DA26FAFAC2C34B7F9116B67333EC3F47"",""assignmentId"":""aff0cce6-ddc1-4772-a184-d9b646f93a1e"",""projectId"":""a0a8f18c-a66e-4ba7-a170-23efbdc67501""}","https://test12345.live/?participantId=DA26FAFAC2C34B7F9116B67333EC3F47&assignmentId=aff0cce6-ddc1-4772-a184-d9b646f93a1e&projectId=a0a8f18c-a66e-4ba7-a170-23efbdc67501","DA26FAFAC2C34B7F9116B67333EC3F47-2024-11-24-19-01-10","","null","","images/schematic_sequence/restaurant_scheme/restaurant_scheme_5.png","null","",""
"","","","","","image-button-response","137","1224992","0.0-16.0-1.0-1.4","DA26FAFAC2C34B7F9116B67333EC3F47","DA26FAFAC2C34B7F9116B67333EC3F47","aff0cce6-ddc1-4772-a184-d9b646f93a1e","a0a8f18c-a66e-4ba7-a170-23efbdc67501","{""participantId"":""DA26FAFAC2C34B7F9116B67333EC3F47"",""assignmentId"":""aff0cce6-ddc1-4772-a184-d9b646f93a1e"",""projectId"":""a0a8f18c-a66e-4ba7-a170-23efbdc67501""}","https://test12345.live/?participantId=DA26FAFAC2C34B7F9116B67333EC3F47&assignmentId=aff0cce6-ddc1-4772-a184-d9b646f93a1e&projectId=a0a8f18c-a66e-4ba7-a170-23efbdc67501","DA26FAFAC2C34B7F9116B67333EC3F47-2024-11-24-19-01-10","","2016","","images/schematic_sequence/restaurant_scheme/restaurant_scheme_5.png","0","",""
"","","","","","image-button-response","138","1226793","0.0-16.0-1.0-2.4","DA26FAFAC2C34B7F9116B67333EC3F47","DA26FAFAC2C34B7F9116B67333EC3F47","aff0cce6-ddc1-4772-a184-d9b646f93a1e","a0a8f18c-a66e-4ba7-a170-23efbdc67501","{""participantId"":""DA26FAFAC2C34B7F9116B67333EC3F47"",""assignmentId"":""aff0cce6-ddc1-4772-a184-d9b646f93a1e"",""projectId"":""a0a8f18c-a66e-4ba7-a170-23efbdc67501""}","https://test12345.live/?participantId=DA26FAFAC2C34B7F9116B67333EC3F47&assignmentId=aff0cce6-ddc1-4772-a184-d9b646f93a1e&projectId=a0a8f18c-a66e-4ba7-a170-23efbdc67501","DA26FAFAC2C34B7F9116B67333EC3F47-2024-11-24-19-01-10","","null","","[]","null","",""
"","","","","","image-button-response","139","1231304","0.0-16.0-1.0-0.5","DA26FAFAC2C34B7F9116B67333EC3F47","DA26FAFAC2C34B7F9116B67333EC3F47","aff0cce6-ddc1-4772-a184-d9b646f93a1e","a0a8f18c-a66e-4ba7-a170-23efbdc67501","{""participantId"":""DA26FAFAC2C34B7F9116B67333EC3F47"",""assignmentId"":""aff0cce6-ddc1-4772-a184-d9b646f93a1e"",""projectId"":""a0a8f18c-a66e-4ba7-a170-23efbdc67501""}","https://test12345.live/?participantId=DA26FAFAC2C34B7F9116B67333EC3F47&assignmentId=aff0cce6-ddc1-4772-a184-d9b646f93a1e&projectId=a0a8f18c-a66e-4ba7-a170-23efbdc67501","DA26FAFAC2C34B7F9116B67333EC3F47-2024-11-24-19-01-10","","null","","images/schematic_sequence/restaurant_scheme/restaurant_scheme_6.png","null","",""
"","","","","","image-button-response","140","1232259","0.0-16.0-1.0-1.5","DA26FAFAC2C34B7F9116B67333EC3F47","DA26FAFAC2C34B7F9116B67333EC3F47","aff0cce6-ddc1-4772-a184-d9b646f93a1e","a0a8f18c-a66e-4ba7-a170-23efbdc67501","{""participantId"":""DA26FAFAC2C34B7F9116B67333EC3F47"",""assignmentId"":""aff0cce6-ddc1-4772-a184-d9b646f93a1e"",""projectId"":""a0a8f18c-a66e-4ba7-a170-23efbdc67501""}","https://test12345.live/?participantId=DA26FAFAC2C34B7F9116B67333EC3F47&assignmentId=aff0cce6-ddc1-4772-a184-d9b646f93a1e&projectId=a0a8f18c-a66e-4ba7-a170-23efbdc67501","DA26FAFAC2C34B7F9116B67333EC3F47-2024-11-24-19-01-10","","951","","images/schematic_sequence/restaurant_scheme/restaurant_scheme_6.png","0","",""
"","","","","","image-button-response","141","1234083","0.0-16.0-1.0-2.5","DA26FAFAC2C34B7F9116B67333EC3F47","DA26FAFAC2C34B7F9116B67333EC3F47","aff0cce6-ddc1-4772-a184-d9b646f93a1e","a0a8f18c-a66e-4ba7-a170-23efbdc67501","{""participantId"":""DA26FAFAC2C34B7F9116B67333EC3F47"",""assignmentId"":""aff0cce6-ddc1-4772-a184-d9b646f93a1e"",""projectId"":""a0a8f18c-a66e-4ba7-a170-23efbdc67501""}","https://test12345.live/?participantId=DA26FAFAC2C34B7F9116B67333EC3F47&assignmentId=aff0cce6-ddc1-4772-a184-d9b646f93a1e&projectId=a0a8f18c-a66e-4ba7-a170-23efbdc67501","DA26FAFAC2C34B7F9116B67333EC3F47-2024-11-24-19-01-10","","null","","[]","null","",""
"","","","","","image-button-response","142","1238604","0.0-16.0-1.0-0.6","DA26FAFAC2C34B7F9116B67333EC3F47","DA26FAFAC2C34B7F9116B67333EC3F47","aff0cce6-ddc1-4772-a184-d9b646f93a1e","a0a8f18c-a66e-4ba7-a170-23efbdc67501","{""participantId"":""DA26FAFAC2C34B7F9116B67333EC3F47"",""assignmentId"":""aff0cce6-ddc1-4772-a184-d9b646f93a1e"",""projectId"":""a0a8f18c-a66e-4ba7-a170-23efbdc67501""}","https://test12345.live/?participantId=DA26FAFAC2C34B7F9116B67333EC3F47&assignmentId=aff0cce6-ddc1-4772-a184-d9b646f93a1e&projectId=a0a8f18c-a66e-4ba7-a170-23efbdc67501","DA26FAFAC2C34B7F9116B67333EC3F47-2024-11-24-19-01-10","","null","","images/schematic_sequence/restaurant_scheme/restaurant_scheme_2.png","null","",""
