"success","timeout","failed_images","failed_audio","failed_video","trial_type","trial_index","time_elapsed","internal_node_id","subject","subject_id","study_id","session_id","urlvar","current_url","audio_id","view_history","rt","device_id","stimulus","response","estimated_stimulus_onset","seq_name"
"true","false","[]","[]","[]","preload","0","55385","0.0-0.0","DAA689D772864BE38800172C85229DDC","DAA689D772864BE38800172C85229DDC","17a30422-f424-40ad-9374-fc114fb46d99","ba640c14-69c5-453e-80b2-29051492c0e0","{""num_scrambled_semantic"":""8"",""num_scrambled_causal"":""4"",""num_scrambled_schematic"":""4"",""participantId"":""DAA689D772864BE38800172C85229DDC"",""assignmentId"":""17a30422-f424-40ad-9374-fc114fb46d99"",""projectId"":""ba640c14-69c5-453e-80b2-29051492c0e0""}","https://test12345.live/?num_scrambled_semantic=8&num_scrambled_causal=4&num_scrambled_schematic=4&participantId=DAA689D772864BE38800172C85229DDC&assignmentId=17a30422-f424-40ad-9374-fc114fb46d99&projectId=ba640c14-69c5-453e-80b2-29051492c0e0","DAA689D772864BE38800172C85229DDC-2025-05-14-20-53-20","","","","","","",""
"","","","","","instructions","1","188132","0.0-1.0","DAA689D772864BE38800172C85229DDC","DAA689D772864BE38800172C85229DDC","17a30422-f424-40ad-9374-fc114fb46d99","ba640c14-69c5-453e-80b2-29051492c0e0","{""num_scrambled_semantic"":""8"",""num_scrambled_causal"":""4"",""num_scrambled_schematic"":""4"",""participantId"":""DAA689D772864BE38800172C85229DDC"",""assignmentId"":""17a30422-f424-40ad-9374-fc114fb46d99"",""projectId"":""ba640c14-69c5-453e-80b2-29051492c0e0""}","https://test12345.live/?num_scrambled_semantic=8&num_scrambled_causal=4&num_scrambled_schematic=4&participantId=DAA689D772864BE38800172C85229DDC&assignmentId=17a30422-f424-40ad-9374-fc114fb46d99&projectId=ba640c14-69c5-453e-80b2-29051492c0e0","DAA689D772864BE38800172C85229DDC-2025-05-14-20-53-20","[{""page_index"":0,""viewing_time"":132737}]","132740","","","","",""
"","","","","","instructions","2","194035","0.0-2.0","DAA689D772864BE38800172C85229DDC","DAA689D772864BE38800172C85229DDC","17a30422-f424-40ad-9374-fc114fb46d99","ba640c14-69c5-453e-80b2-29051492c0e0","{""num_scrambled_semantic"":""8"",""num_scrambled_causal"":""4"",""num_scrambled_schematic"":""4"",""participantId"":""DAA689D772864BE38800172C85229DDC"",""assignmentId"":""17a30422-f424-40ad-9374-fc114fb46d99"",""projectId"":""ba640c14-69c5-453e-80b2-29051492c0e0""}","https://test12345.live/?num_scrambled_semantic=8&num_scrambled_causal=4&num_scrambled_schematic=4&participantId=DAA689D772864BE38800172C85229DDC&assignmentId=17a30422-f424-40ad-9374-fc114fb46d99&projectId=ba640c14-69c5-453e-80b2-29051492c0e0","DAA689D772864BE38800172C85229DDC-2025-05-14-20-53-20","[{""page_index"":0,""viewing_time"":5897}]","5898","","","","",""
"true","","","","","fullscreen","3","197164","0.0-3.0","DAA689D772864BE38800172C85229DDC","DAA689D772864BE38800172C85229DDC","17a30422-f424-40ad-9374-fc114fb46d99","ba640c14-69c5-453e-80b2-29051492c0e0","{""num_scrambled_semantic"":""8"",""num_scrambled_causal"":""4"",""num_scrambled_schematic"":""4"",""participantId"":""DAA689D772864BE38800172C85229DDC"",""assignmentId"":""17a30422-f424-40ad-9374-fc114fb46d99"",""projectId"":""ba640c14-69c5-453e-80b2-29051492c0e0""}","https://test12345.live/?num_scrambled_semantic=8&num_scrambled_causal=4&num_scrambled_schematic=4&participantId=DAA689D772864BE38800172C85229DDC&assignmentId=17a30422-f424-40ad-9374-fc114fb46d99&projectId=ba640c14-69c5-453e-80b2-29051492c0e0","DAA689D772864BE38800172C85229DDC-2025-05-14-20-53-20","","2106","","","","",""
"","","","","","initialize-microphone","4","207865","0.0-4.0-0.0","DAA689D772864BE38800172C85229DDC","DAA689D772864BE38800172C85229DDC","17a30422-f424-40ad-9374-fc114fb46d99","ba640c14-69c5-453e-80b2-29051492c0e0","{""num_scrambled_semantic"":""8"",""num_scrambled_causal"":""4"",""num_scrambled_schematic"":""4"",""participantId"":""DAA689D772864BE38800172C85229DDC"",""assignmentId"":""17a30422-f424-40ad-9374-fc114fb46d99"",""projectId"":""ba640c14-69c5-453e-80b2-29051492c0e0""}","https://test12345.live/?num_scrambled_semantic=8&num_scrambled_causal=4&num_scrambled_schematic=4&participantId=DAA689D772864BE38800172C85229DDC&assignmentId=17a30422-f424-40ad-9374-fc114fb46d99&projectId=ba640c14-69c5-453e-80b2-29051492c0e0","DAA689D772864BE38800172C85229DDC-2025-05-14-20-53-20","","","c0d80eb44a956a10959d69fd94eb8b0115a1d47479e6836f5e30d50aae7c300d","","","",""
"","","","","","html-audio-response","5","289379","0.0-4.0-1.0","DAA689D772864BE38800172C85229DDC","DAA689D772864BE38800172C85229DDC","17a30422-f424-40ad-9374-fc114fb46d99","ba640c14-69c5-453e-80b2-29051492c0e0","{""num_scrambled_semantic"":""8"",""num_scrambled_causal"":""4"",""num_scrambled_schematic"":""4"",""participantId"":""DAA689D772864BE38800172C85229DDC"",""assignmentId"":""17a30422-f424-40ad-9374-fc114fb46d99"",""projectId"":""ba640c14-69c5-453e-80b2-29051492c0e0""}","https://test12345.live/?num_scrambled_semantic=8&num_scrambled_causal=4&num_scrambled_schematic=4&participantId=DAA689D772864BE38800172C85229DDC&assignmentId=17a30422-f424-40ad-9374-fc114fb46d99&projectId=ba640c14-69c5-453e-80b2-29051492c0e0","DAA689D772864BE38800172C85229DDC-2025-05-14-20-53-20","","4147","","<span style=""color: red; font-size: 24px""> NOW RECORDING</span>
        <p>Please test Microphone</p>","","2",""
"","","","","","html-button-response","6","290604","0.0-4.0-2.0","DAA689D772864BE38800172C85229DDC","DAA689D772864BE38800172C85229DDC","17a30422-f424-40ad-9374-fc114fb46d99","ba640c14-69c5-453e-80b2-29051492c0e0","{""num_scrambled_semantic"":""8"",""num_scrambled_causal"":""4"",""num_scrambled_schematic"":""4"",""participantId"":""DAA689D772864BE38800172C85229DDC"",""assignmentId"":""17a30422-f424-40ad-9374-fc114fb46d99"",""projectId"":""ba640c14-69c5-453e-80b2-29051492c0e0""}","https://test12345.live/?num_scrambled_semantic=8&num_scrambled_causal=4&num_scrambled_schematic=4&participantId=DAA689D772864BE38800172C85229DDC&assignmentId=17a30422-f424-40ad-9374-fc114fb46d99&projectId=ba640c14-69c5-453e-80b2-29051492c0e0","DAA689D772864BE38800172C85229DDC-2025-05-14-20-53-20","","1188","","<p style=""font-size:48px; color:red;"">Is Microphone OK?</p>","1","",""
"","","","","","instructions","7","300063","0.0-5.0","DAA689D772864BE38800172C85229DDC","DAA689D772864BE38800172C85229DDC","17a30422-f424-40ad-9374-fc114fb46d99","ba640c14-69c5-453e-80b2-29051492c0e0","{""num_scrambled_semantic"":""8"",""num_scrambled_causal"":""4"",""num_scrambled_schematic"":""4"",""participantId"":""DAA689D772864BE38800172C85229DDC"",""assignmentId"":""17a30422-f424-40ad-9374-fc114fb46d99"",""projectId"":""ba640c14-69c5-453e-80b2-29051492c0e0""}","https://test12345.live/?num_scrambled_semantic=8&num_scrambled_causal=4&num_scrambled_schematic=4&participantId=DAA689D772864BE38800172C85229DDC&assignmentId=17a30422-f424-40ad-9374-fc114fb46d99&projectId=ba640c14-69c5-453e-80b2-29051492c0e0","DAA689D772864BE38800172C85229DDC-2025-05-14-20-53-20","[{""page_index"":0,""viewing_time"":4918},{""page_index"":1,""viewing_time"":4535}]","9454","","","","",""
"","","","","","image-button-response","8","306093","0.0-6.0-0.0","DAA689D772864BE38800172C85229DDC","DAA689D772864BE38800172C85229DDC","17a30422-f424-40ad-9374-fc114fb46d99","ba640c14-69c5-453e-80b2-29051492c0e0","{""num_scrambled_semantic"":""8"",""num_scrambled_causal"":""4"",""num_scrambled_schematic"":""4"",""participantId"":""DAA689D772864BE38800172C85229DDC"",""assignmentId"":""17a30422-f424-40ad-9374-fc114fb46d99"",""projectId"":""ba640c14-69c5-453e-80b2-29051492c0e0""}","https://test12345.live/?num_scrambled_semantic=8&num_scrambled_causal=4&num_scrambled_schematic=4&participantId=DAA689D772864BE38800172C85229DDC&assignmentId=17a30422-f424-40ad-9374-fc114fb46d99&projectId=ba640c14-69c5-453e-80b2-29051492c0e0","DAA689D772864BE38800172C85229DDC-2025-05-14-20-53-20","","null","","images/instructions/movie_0.png","null","",""
"","","","","","image-button-response","9","310605","0.0-6.0-1.0-0.0","DAA689D772864BE38800172C85229DDC","DAA689D772864BE38800172C85229DDC","17a30422-f424-40ad-9374-fc114fb46d99","ba640c14-69c5-453e-80b2-29051492c0e0","{""num_scrambled_semantic"":""8"",""num_scrambled_causal"":""4"",""num_scrambled_schematic"":""4"",""participantId"":""DAA689D772864BE38800172C85229DDC"",""assignmentId"":""17a30422-f424-40ad-9374-fc114fb46d99"",""projectId"":""ba640c14-69c5-453e-80b2-29051492c0e0""}","https://test12345.live/?num_scrambled_semantic=8&num_scrambled_causal=4&num_scrambled_schematic=4&participantId=DAA689D772864BE38800172C85229DDC&assignmentId=17a30422-f424-40ad-9374-fc114fb46d99&projectId=ba640c14-69c5-453e-80b2-29051492c0e0","DAA689D772864BE38800172C85229DDC-2025-05-14-20-53-20","","null","","images/instructions/movie_1.png","null","",""
"","","","","","image-button-response","10","314471","0.0-6.0-1.0-1.0","DAA689D772864BE38800172C85229DDC","DAA689D772864BE38800172C85229DDC","17a30422-f424-40ad-9374-fc114fb46d99","ba640c14-69c5-453e-80b2-29051492c0e0","{""num_scrambled_semantic"":""8"",""num_scrambled_causal"":""4"",""num_scrambled_schematic"":""4"",""participantId"":""DAA689D772864BE38800172C85229DDC"",""assignmentId"":""17a30422-f424-40ad-9374-fc114fb46d99"",""projectId"":""ba640c14-69c5-453e-80b2-29051492c0e0""}","https://test12345.live/?num_scrambled_semantic=8&num_scrambled_causal=4&num_scrambled_schematic=4&participantId=DAA689D772864BE38800172C85229DDC&assignmentId=17a30422-f424-40ad-9374-fc114fb46d99&projectId=ba640c14-69c5-453e-80b2-29051492c0e0","DAA689D772864BE38800172C85229DDC-2025-05-14-20-53-20","","3857","","images/instructions/movie_1.png","0","",""
"","","","","","image-button-response","11","316289","0.0-6.0-1.0-2.0","DAA689D772864BE38800172C85229DDC","DAA689D772864BE38800172C85229DDC","17a30422-f424-40ad-9374-fc114fb46d99","ba640c14-69c5-453e-80b2-29051492c0e0","{""num_scrambled_semantic"":""8"",""num_scrambled_causal"":""4"",""num_scrambled_schematic"":""4"",""participantId"":""DAA689D772864BE38800172C85229DDC"",""assignmentId"":""17a30422-f424-40ad-9374-fc114fb46d99"",""projectId"":""ba640c14-69c5-453e-80b2-29051492c0e0""}","https://test12345.live/?num_scrambled_semantic=8&num_scrambled_causal=4&num_scrambled_schematic=4&participantId=DAA689D772864BE38800172C85229DDC&assignmentId=17a30422-f424-40ad-9374-fc114fb46d99&projectId=ba640c14-69c5-453e-80b2-29051492c0e0","DAA689D772864BE38800172C85229DDC-2025-05-14-20-53-20","","null","","[]","null","",""
"","","","","","image-button-response","12","320796","0.0-6.0-1.0-0.1","DAA689D772864BE38800172C85229DDC","DAA689D772864BE38800172C85229DDC","17a30422-f424-40ad-9374-fc114fb46d99","ba640c14-69c5-453e-80b2-29051492c0e0","{""num_scrambled_semantic"":""8"",""num_scrambled_causal"":""4"",""num_scrambled_schematic"":""4"",""participantId"":""DAA689D772864BE38800172C85229DDC"",""assignmentId"":""17a30422-f424-40ad-9374-fc114fb46d99"",""projectId"":""ba640c14-69c5-453e-80b2-29051492c0e0""}","https://test12345.live/?num_scrambled_semantic=8&num_scrambled_causal=4&num_scrambled_schematic=4&participantId=DAA689D772864BE38800172C85229DDC&assignmentId=17a30422-f424-40ad-9374-fc114fb46d99&projectId=ba640c14-69c5-453e-80b2-29051492c0e0","DAA689D772864BE38800172C85229DDC-2025-05-14-20-53-20","","null","","images/instructions/movie_2.png","null","",""
"","","","","","image-button-response","13","323679","0.0-6.0-1.0-1.1","DAA689D772864BE38800172C85229DDC","DAA689D772864BE38800172C85229DDC","17a30422-f424-40ad-9374-fc114fb46d99","ba640c14-69c5-453e-80b2-29051492c0e0","{""num_scrambled_semantic"":""8"",""num_scrambled_causal"":""4"",""num_scrambled_schematic"":""4"",""participantId"":""DAA689D772864BE38800172C85229DDC"",""assignmentId"":""17a30422-f424-40ad-9374-fc114fb46d99"",""projectId"":""ba640c14-69c5-453e-80b2-29051492c0e0""}","https://test12345.live/?num_scrambled_semantic=8&num_scrambled_causal=4&num_scrambled_schematic=4&participantId=DAA689D772864BE38800172C85229DDC&assignmentId=17a30422-f424-40ad-9374-fc114fb46d99&projectId=ba640c14-69c5-453e-80b2-29051492c0e0","DAA689D772864BE38800172C85229DDC-2025-05-14-20-53-20","","2879","","images/instructions/movie_2.png","1","",""
"","","","","","image-button-response","14","325487","0.0-6.0-1.0-2.1","DAA689D772864BE38800172C85229DDC","DAA689D772864BE38800172C85229DDC","17a30422-f424-40ad-9374-fc114fb46d99","ba640c14-69c5-453e-80b2-29051492c0e0","{""num_scrambled_semantic"":""8"",""num_scrambled_causal"":""4"",""num_scrambled_schematic"":""4"",""participantId"":""DAA689D772864BE38800172C85229DDC"",""assignmentId"":""17a30422-f424-40ad-9374-fc114fb46d99"",""projectId"":""ba640c14-69c5-453e-80b2-29051492c0e0""}","https://test12345.live/?num_scrambled_semantic=8&num_scrambled_causal=4&num_scrambled_schematic=4&participantId=DAA689D772864BE38800172C85229DDC&assignmentId=17a30422-f424-40ad-9374-fc114fb46d99&projectId=ba640c14-69c5-453e-80b2-29051492c0e0","DAA689D772864BE38800172C85229DDC-2025-05-14-20-53-20","","null","","[]","null","",""
"","","","","","image-button-response","15","330007","0.0-6.0-1.0-0.2","DAA689D772864BE38800172C85229DDC","DAA689D772864BE38800172C85229DDC","17a30422-f424-40ad-9374-fc114fb46d99","ba640c14-69c5-453e-80b2-29051492c0e0","{""num_scrambled_semantic"":""8"",""num_scrambled_causal"":""4"",""num_scrambled_schematic"":""4"",""participantId"":""DAA689D772864BE38800172C85229DDC"",""assignmentId"":""17a30422-f424-40ad-9374-fc114fb46d99"",""projectId"":""ba640c14-69c5-453e-80b2-29051492c0e0""}","https://test12345.live/?num_scrambled_semantic=8&num_scrambled_causal=4&num_scrambled_schematic=4&participantId=DAA689D772864BE38800172C85229DDC&assignmentId=17a30422-f424-40ad-9374-fc114fb46d99&projectId=ba640c14-69c5-453e-80b2-29051492c0e0","DAA689D772864BE38800172C85229DDC-2025-05-14-20-53-20","","null","","images/instructions/movie_3.png","null","",""
"","","","","","image-button-response","16","331195","0.0-6.0-1.0-1.2","DAA689D772864BE38800172C85229DDC","DAA689D772864BE38800172C85229DDC","17a30422-f424-40ad-9374-fc114fb46d99","ba640c14-69c5-453e-80b2-29051492c0e0","{""num_scrambled_semantic"":""8"",""num_scrambled_causal"":""4"",""num_scrambled_schematic"":""4"",""participantId"":""DAA689D772864BE38800172C85229DDC"",""assignmentId"":""17a30422-f424-40ad-9374-fc114fb46d99"",""projectId"":""ba640c14-69c5-453e-80b2-29051492c0e0""}","https://test12345.live/?num_scrambled_semantic=8&num_scrambled_causal=4&num_scrambled_schematic=4&participantId=DAA689D772864BE38800172C85229DDC&assignmentId=17a30422-f424-40ad-9374-fc114fb46d99&projectId=ba640c14-69c5-453e-80b2-29051492c0e0","DAA689D772864BE38800172C85229DDC-2025-05-14-20-53-20","","1166","","images/instructions/movie_3.png","0","",""
"","","","","","image-button-response","17","333004","0.0-6.0-1.0-2.2","DAA689D772864BE38800172C85229DDC","DAA689D772864BE38800172C85229DDC","17a30422-f424-40ad-9374-fc114fb46d99","ba640c14-69c5-453e-80b2-29051492c0e0","{""num_scrambled_semantic"":""8"",""num_scrambled_causal"":""4"",""num_scrambled_schematic"":""4"",""participantId"":""DAA689D772864BE38800172C85229DDC"",""assignmentId"":""17a30422-f424-40ad-9374-fc114fb46d99"",""projectId"":""ba640c14-69c5-453e-80b2-29051492c0e0""}","https://test12345.live/?num_scrambled_semantic=8&num_scrambled_causal=4&num_scrambled_schematic=4&participantId=DAA689D772864BE38800172C85229DDC&assignmentId=17a30422-f424-40ad-9374-fc114fb46d99&projectId=ba640c14-69c5-453e-80b2-29051492c0e0","DAA689D772864BE38800172C85229DDC-2025-05-14-20-53-20","","null","","[]","null","",""
"","","","","","image-button-response","18","337511","0.0-6.0-1.0-0.3","DAA689D772864BE38800172C85229DDC","DAA689D772864BE38800172C85229DDC","17a30422-f424-40ad-9374-fc114fb46d99","ba640c14-69c5-453e-80b2-29051492c0e0","{""num_scrambled_semantic"":""8"",""num_scrambled_causal"":""4"",""num_scrambled_schematic"":""4"",""participantId"":""DAA689D772864BE38800172C85229DDC"",""assignmentId"":""17a30422-f424-40ad-9374-fc114fb46d99"",""projectId"":""ba640c14-69c5-453e-80b2-29051492c0e0""}","https://test12345.live/?num_scrambled_semantic=8&num_scrambled_causal=4&num_scrambled_schematic=4&participantId=DAA689D772864BE38800172C85229DDC&assignmentId=17a30422-f424-40ad-9374-fc114fb46d99&projectId=ba640c14-69c5-453e-80b2-29051492c0e0","DAA689D772864BE38800172C85229DDC-2025-05-14-20-53-20","","null","","images/instructions/movie_4.png","null","",""
"","","","","","image-button-response","19","338717","0.0-6.0-1.0-1.3","DAA689D772864BE38800172C85229DDC","DAA689D772864BE38800172C85229DDC","17a30422-f424-40ad-9374-fc114fb46d99","ba640c14-69c5-453e-80b2-29051492c0e0","{""num_scrambled_semantic"":""8"",""num_scrambled_causal"":""4"",""num_scrambled_schematic"":""4"",""participantId"":""DAA689D772864BE38800172C85229DDC"",""assignmentId"":""17a30422-f424-40ad-9374-fc114fb46d99"",""projectId"":""ba640c14-69c5-453e-80b2-29051492c0e0""}","https://test12345.live/?num_scrambled_semantic=8&num_scrambled_causal=4&num_scrambled_schematic=4&participantId=DAA689D772864BE38800172C85229DDC&assignmentId=17a30422-f424-40ad-9374-fc114fb46d99&projectId=ba640c14-69c5-453e-80b2-29051492c0e0","DAA689D772864BE38800172C85229DDC-2025-05-14-20-53-20","","1197","","images/instructions/movie_4.png","0","",""
"","","","","","image-button-response","20","340534","0.0-6.0-1.0-2.3","DAA689D772864BE38800172C85229DDC","DAA689D772864BE38800172C85229DDC","17a30422-f424-40ad-9374-fc114fb46d99","ba640c14-69c5-453e-80b2-29051492c0e0","{""num_scrambled_semantic"":""8"",""num_scrambled_causal"":""4"",""num_scrambled_schematic"":""4"",""participantId"":""DAA689D772864BE38800172C85229DDC"",""assignmentId"":""17a30422-f424-40ad-9374-fc114fb46d99"",""projectId"":""ba640c14-69c5-453e-80b2-29051492c0e0""}","https://test12345.live/?num_scrambled_semantic=8&num_scrambled_causal=4&num_scrambled_schematic=4&participantId=DAA689D772864BE38800172C85229DDC&assignmentId=17a30422-f424-40ad-9374-fc114fb46d99&projectId=ba640c14-69c5-453e-80b2-29051492c0e0","DAA689D772864BE38800172C85229DDC-2025-05-14-20-53-20","","null","","[]","null","",""
"","","","","","instructions","21","347672","0.0-7.0","DAA689D772864BE38800172C85229DDC","DAA689D772864BE38800172C85229DDC","17a30422-f424-40ad-9374-fc114fb46d99","ba640c14-69c5-453e-80b2-29051492c0e0","{""num_scrambled_semantic"":""8"",""num_scrambled_causal"":""4"",""num_scrambled_schematic"":""4"",""participantId"":""DAA689D772864BE38800172C85229DDC"",""assignmentId"":""17a30422-f424-40ad-9374-fc114fb46d99"",""projectId"":""ba640c14-69c5-453e-80b2-29051492c0e0""}","https://test12345.live/?num_scrambled_semantic=8&num_scrambled_causal=4&num_scrambled_schematic=4&participantId=DAA689D772864BE38800172C85229DDC&assignmentId=17a30422-f424-40ad-9374-fc114fb46d99&projectId=ba640c14-69c5-453e-80b2-29051492c0e0","DAA689D772864BE38800172C85229DDC-2025-05-14-20-53-20","[{""page_index"":0,""viewing_time"":5951},{""page_index"":1,""viewing_time"":1171}]","7123","","","","",""
"","","","","","html-audio-response","22","362350","0.0-8.0","DAA689D772864BE38800172C85229DDC","DAA689D772864BE38800172C85229DDC","17a30422-f424-40ad-9374-fc114fb46d99","ba640c14-69c5-453e-80b2-29051492c0e0","{""num_scrambled_semantic"":""8"",""num_scrambled_causal"":""4"",""num_scrambled_schematic"":""4"",""participantId"":""DAA689D772864BE38800172C85229DDC"",""assignmentId"":""17a30422-f424-40ad-9374-fc114fb46d99"",""projectId"":""ba640c14-69c5-453e-80b2-29051492c0e0""}","https://test12345.live/?num_scrambled_semantic=8&num_scrambled_causal=4&num_scrambled_schematic=4&participantId=DAA689D772864BE38800172C85229DDC&assignmentId=17a30422-f424-40ad-9374-fc114fb46d99&projectId=ba640c14-69c5-453e-80b2-29051492c0e0","DAA689D772864BE38800172C85229DDC-2025-05-14-20-53-20","","6283","","[""<span style=\""color: red; font-size: 24px\""> NOW RECORDING</span><p>Please say out loud all the images you saw, as many as you can remember. The images can be said in any order.</p>""]","","7",""
"","","","","","instructions","23","364416","0.0-9.0","DAA689D772864BE38800172C85229DDC","DAA689D772864BE38800172C85229DDC","17a30422-f424-40ad-9374-fc114fb46d99","ba640c14-69c5-453e-80b2-29051492c0e0","{""num_scrambled_semantic"":""8"",""num_scrambled_causal"":""4"",""num_scrambled_schematic"":""4"",""participantId"":""DAA689D772864BE38800172C85229DDC"",""assignmentId"":""17a30422-f424-40ad-9374-fc114fb46d99"",""projectId"":""ba640c14-69c5-453e-80b2-29051492c0e0""}","https://test12345.live/?num_scrambled_semantic=8&num_scrambled_causal=4&num_scrambled_schematic=4&participantId=DAA689D772864BE38800172C85229DDC&assignmentId=17a30422-f424-40ad-9374-fc114fb46d99&projectId=ba640c14-69c5-453e-80b2-29051492c0e0","DAA689D772864BE38800172C85229DDC-2025-05-14-20-53-20","[{""page_index"":0,""viewing_time"":2056}]","2056","","","","",""
"","","","","","image-button-response","24","370430","0.0-10.0-0.0","DAA689D772864BE38800172C85229DDC","DAA689D772864BE38800172C85229DDC","17a30422-f424-40ad-9374-fc114fb46d99","ba640c14-69c5-453e-80b2-29051492c0e0","{""num_scrambled_semantic"":""8"",""num_scrambled_causal"":""4"",""num_scrambled_schematic"":""4"",""participantId"":""DAA689D772864BE38800172C85229DDC"",""assignmentId"":""17a30422-f424-40ad-9374-fc114fb46d99"",""projectId"":""ba640c14-69c5-453e-80b2-29051492c0e0""}","https://test12345.live/?num_scrambled_semantic=8&num_scrambled_causal=4&num_scrambled_schematic=4&participantId=DAA689D772864BE38800172C85229DDC&assignmentId=17a30422-f424-40ad-9374-fc114fb46d99&projectId=ba640c14-69c5-453e-80b2-29051492c0e0","DAA689D772864BE38800172C85229DDC-2025-05-14-20-53-20","","null","","images/schematic_sequence/flight_scheme/flight_scheme_0.png","null","",""
"","","","","","image-button-response","25","374939","0.0-10.0-1.0-0.0","DAA689D772864BE38800172C85229DDC","DAA689D772864BE38800172C85229DDC","17a30422-f424-40ad-9374-fc114fb46d99","ba640c14-69c5-453e-80b2-29051492c0e0","{""num_scrambled_semantic"":""8"",""num_scrambled_causal"":""4"",""num_scrambled_schematic"":""4"",""participantId"":""DAA689D772864BE38800172C85229DDC"",""assignmentId"":""17a30422-f424-40ad-9374-fc114fb46d99"",""projectId"":""ba640c14-69c5-453e-80b2-29051492c0e0""}","https://test12345.live/?num_scrambled_semantic=8&num_scrambled_causal=4&num_scrambled_schematic=4&participantId=DAA689D772864BE38800172C85229DDC&assignmentId=17a30422-f424-40ad-9374-fc114fb46d99&projectId=ba640c14-69c5-453e-80b2-29051492c0e0","DAA689D772864BE38800172C85229DDC-2025-05-14-20-53-20","","null","","images/schematic_sequence/flight_scheme/flight_scheme_1.png","null","",""
"","","","","","image-button-response","26","376936","0.0-10.0-1.0-1.0","DAA689D772864BE38800172C85229DDC","DAA689D772864BE38800172C85229DDC","17a30422-f424-40ad-9374-fc114fb46d99","ba640c14-69c5-453e-80b2-29051492c0e0","{""num_scrambled_semantic"":""8"",""num_scrambled_causal"":""4"",""num_scrambled_schematic"":""4"",""participantId"":""DAA689D772864BE38800172C85229DDC"",""assignmentId"":""17a30422-f424-40ad-9374-fc114fb46d99"",""projectId"":""ba640c14-69c5-453e-80b2-29051492c0e0""}","https://test12345.live/?num_scrambled_semantic=8&num_scrambled_causal=4&num_scrambled_schematic=4&participantId=DAA689D772864BE38800172C85229DDC&assignmentId=17a30422-f424-40ad-9374-fc114fb46d99&projectId=ba640c14-69c5-453e-80b2-29051492c0e0","DAA689D772864BE38800172C85229DDC-2025-05-14-20-53-20","","1985","","images/schematic_sequence/flight_scheme/flight_scheme_1.png","0","",""
"","","","","","image-button-response","27","378748","0.0-10.0-1.0-2.0","DAA689D772864BE38800172C85229DDC","DAA689D772864BE38800172C85229DDC","17a30422-f424-40ad-9374-fc114fb46d99","ba640c14-69c5-453e-80b2-29051492c0e0","{""num_scrambled_semantic"":""8"",""num_scrambled_causal"":""4"",""num_scrambled_schematic"":""4"",""participantId"":""DAA689D772864BE38800172C85229DDC"",""assignmentId"":""17a30422-f424-40ad-9374-fc114fb46d99"",""projectId"":""ba640c14-69c5-453e-80b2-29051492c0e0""}","https://test12345.live/?num_scrambled_semantic=8&num_scrambled_causal=4&num_scrambled_schematic=4&participantId=DAA689D772864BE38800172C85229DDC&assignmentId=17a30422-f424-40ad-9374-fc114fb46d99&projectId=ba640c14-69c5-453e-80b2-29051492c0e0","DAA689D772864BE38800172C85229DDC-2025-05-14-20-53-20","","null","","[]","null","",""
"","","","","","image-button-response","28","383260","0.0-10.0-1.0-0.1","DAA689D772864BE38800172C85229DDC","DAA689D772864BE38800172C85229DDC","17a30422-f424-40ad-9374-fc114fb46d99","ba640c14-69c5-453e-80b2-29051492c0e0","{""num_scrambled_semantic"":""8"",""num_scrambled_causal"":""4"",""num_scrambled_schematic"":""4"",""participantId"":""DAA689D772864BE38800172C85229DDC"",""assignmentId"":""17a30422-f424-40ad-9374-fc114fb46d99"",""projectId"":""ba640c14-69c5-453e-80b2-29051492c0e0""}","https://test12345.live/?num_scrambled_semantic=8&num_scrambled_causal=4&num_scrambled_schematic=4&participantId=DAA689D772864BE38800172C85229DDC&assignmentId=17a30422-f424-40ad-9374-fc114fb46d99&projectId=ba640c14-69c5-453e-80b2-29051492c0e0","DAA689D772864BE38800172C85229DDC-2025-05-14-20-53-20","","null","","images/schematic_sequence/flight_scheme/flight_scheme_2.png","null","",""
"","","","","","image-button-response","29","385880","0.0-10.0-1.0-1.1","DAA689D772864BE38800172C85229DDC","DAA689D772864BE38800172C85229DDC","17a30422-f424-40ad-9374-fc114fb46d99","ba640c14-69c5-453e-80b2-29051492c0e0","{""num_scrambled_semantic"":""8"",""num_scrambled_causal"":""4"",""num_scrambled_schematic"":""4"",""participantId"":""DAA689D772864BE38800172C85229DDC"",""assignmentId"":""17a30422-f424-40ad-9374-fc114fb46d99"",""projectId"":""ba640c14-69c5-453e-80b2-29051492c0e0""}","https://test12345.live/?num_scrambled_semantic=8&num_scrambled_causal=4&num_scrambled_schematic=4&participantId=DAA689D772864BE38800172C85229DDC&assignmentId=17a30422-f424-40ad-9374-fc114fb46d99&projectId=ba640c14-69c5-453e-80b2-29051492c0e0","DAA689D772864BE38800172C85229DDC-2025-05-14-20-53-20","","2615","","images/schematic_sequence/flight_scheme/flight_scheme_2.png","1","",""
"","","","","","image-button-response","30","387686","0.0-10.0-1.0-2.1","DAA689D772864BE38800172C85229DDC","DAA689D772864BE38800172C85229DDC","17a30422-f424-40ad-9374-fc114fb46d99","ba640c14-69c5-453e-80b2-29051492c0e0","{""num_scrambled_semantic"":""8"",""num_scrambled_causal"":""4"",""num_scrambled_schematic"":""4"",""participantId"":""DAA689D772864BE38800172C85229DDC"",""assignmentId"":""17a30422-f424-40ad-9374-fc114fb46d99"",""projectId"":""ba640c14-69c5-453e-80b2-29051492c0e0""}","https://test12345.live/?num_scrambled_semantic=8&num_scrambled_causal=4&num_scrambled_schematic=4&participantId=DAA689D772864BE38800172C85229DDC&assignmentId=17a30422-f424-40ad-9374-fc114fb46d99&projectId=ba640c14-69c5-453e-80b2-29051492c0e0","DAA689D772864BE38800172C85229DDC-2025-05-14-20-53-20","","null","","[]","null","",""
"","","","","","image-button-response","31","392208","0.0-10.0-1.0-0.2","DAA689D772864BE38800172C85229DDC","DAA689D772864BE38800172C85229DDC","17a30422-f424-40ad-9374-fc114fb46d99","ba640c14-69c5-453e-80b2-29051492c0e0","{""num_scrambled_semantic"":""8"",""num_scrambled_causal"":""4"",""num_scrambled_schematic"":""4"",""participantId"":""DAA689D772864BE38800172C85229DDC"",""assignmentId"":""17a30422-f424-40ad-9374-fc114fb46d99"",""projectId"":""ba640c14-69c5-453e-80b2-29051492c0e0""}","https://test12345.live/?num_scrambled_semantic=8&num_scrambled_causal=4&num_scrambled_schematic=4&participantId=DAA689D772864BE38800172C85229DDC&assignmentId=17a30422-f424-40ad-9374-fc114fb46d99&projectId=ba640c14-69c5-453e-80b2-29051492c0e0","DAA689D772864BE38800172C85229DDC-2025-05-14-20-53-20","","null","","images/schematic_sequence/flight_scheme/flight_scheme_3.png","null","",""
"","","","","","image-button-response","32","393342","0.0-10.0-1.0-1.2","DAA689D772864BE38800172C85229DDC","DAA689D772864BE38800172C85229DDC","17a30422-f424-40ad-9374-fc114fb46d99","ba640c14-69c5-453e-80b2-29051492c0e0","{""num_scrambled_semantic"":""8"",""num_scrambled_causal"":""4"",""num_scrambled_schematic"":""4"",""participantId"":""DAA689D772864BE38800172C85229DDC"",""assignmentId"":""17a30422-f424-40ad-9374-fc114fb46d99"",""projectId"":""ba640c14-69c5-453e-80b2-29051492c0e0""}","https://test12345.live/?num_scrambled_semantic=8&num_scrambled_causal=4&num_scrambled_schematic=4&participantId=DAA689D772864BE38800172C85229DDC&assignmentId=17a30422-f424-40ad-9374-fc114fb46d99&projectId=ba640c14-69c5-453e-80b2-29051492c0e0","DAA689D772864BE38800172C85229DDC-2025-05-14-20-53-20","","1129","","images/schematic_sequence/flight_scheme/flight_scheme_3.png","0","",""
"","","","","","image-button-response","33","395160","0.0-10.0-1.0-2.2","DAA689D772864BE38800172C85229DDC","DAA689D772864BE38800172C85229DDC","17a30422-f424-40ad-9374-fc114fb46d99","ba640c14-69c5-453e-80b2-29051492c0e0","{""num_scrambled_semantic"":""8"",""num_scrambled_causal"":""4"",""num_scrambled_schematic"":""4"",""participantId"":""DAA689D772864BE38800172C85229DDC"",""assignmentId"":""17a30422-f424-40ad-9374-fc114fb46d99"",""projectId"":""ba640c14-69c5-453e-80b2-29051492c0e0""}","https://test12345.live/?num_scrambled_semantic=8&num_scrambled_causal=4&num_scrambled_schematic=4&participantId=DAA689D772864BE38800172C85229DDC&assignmentId=17a30422-f424-40ad-9374-fc114fb46d99&projectId=ba640c14-69c5-453e-80b2-29051492c0e0","DAA689D772864BE38800172C85229DDC-2025-05-14-20-53-20","","null","","[]","null","",""
"","","","","","image-button-response","34","399678","0.0-10.0-1.0-0.3","DAA689D772864BE38800172C85229DDC","DAA689D772864BE38800172C85229DDC","17a30422-f424-40ad-9374-fc114fb46d99","ba640c14-69c5-453e-80b2-29051492c0e0","{""num_scrambled_semantic"":""8"",""num_scrambled_causal"":""4"",""num_scrambled_schematic"":""4"",""participantId"":""DAA689D772864BE38800172C85229DDC"",""assignmentId"":""17a30422-f424-40ad-9374-fc114fb46d99"",""projectId"":""ba640c14-69c5-453e-80b2-29051492c0e0""}","https://test12345.live/?num_scrambled_semantic=8&num_scrambled_causal=4&num_scrambled_schematic=4&participantId=DAA689D772864BE38800172C85229DDC&assignmentId=17a30422-f424-40ad-9374-fc114fb46d99&projectId=ba640c14-69c5-453e-80b2-29051492c0e0","DAA689D772864BE38800172C85229DDC-2025-05-14-20-53-20","","null","","images/schematic_sequence/flight_scheme/flight_scheme_4.png","null","",""
"","","","","","image-button-response","35","400610","0.0-10.0-1.0-1.3","DAA689D772864BE38800172C85229DDC","DAA689D772864BE38800172C85229DDC","17a30422-f424-40ad-9374-fc114fb46d99","ba640c14-69c5-453e-80b2-29051492c0e0","{""num_scrambled_semantic"":""8"",""num_scrambled_causal"":""4"",""num_scrambled_schematic"":""4"",""participantId"":""DAA689D772864BE38800172C85229DDC"",""assignmentId"":""17a30422-f424-40ad-9374-fc114fb46d99"",""projectId"":""ba640c14-69c5-453e-80b2-29051492c0e0""}","https://test12345.live/?num_scrambled_semantic=8&num_scrambled_causal=4&num_scrambled_schematic=4&participantId=DAA689D772864BE38800172C85229DDC&assignmentId=17a30422-f424-40ad-9374-fc114fb46d99&projectId=ba640c14-69c5-453e-80b2-29051492c0e0","DAA689D772864BE38800172C85229DDC-2025-05-14-20-53-20","","928","","images/schematic_sequence/flight_scheme/flight_scheme_4.png","0","",""
"","","","","","image-button-response","36","402419","0.0-10.0-1.0-2.3","DAA689D772864BE38800172C85229DDC","DAA689D772864BE38800172C85229DDC","17a30422-f424-40ad-9374-fc114fb46d99","ba640c14-69c5-453e-80b2-29051492c0e0","{""num_scrambled_semantic"":""8"",""num_scrambled_causal"":""4"",""num_scrambled_schematic"":""4"",""participantId"":""DAA689D772864BE38800172C85229DDC"",""assignmentId"":""17a30422-f424-40ad-9374-fc114fb46d99"",""projectId"":""ba640c14-69c5-453e-80b2-29051492c0e0""}","https://test12345.live/?num_scrambled_semantic=8&num_scrambled_causal=4&num_scrambled_schematic=4&participantId=DAA689D772864BE38800172C85229DDC&assignmentId=17a30422-f424-40ad-9374-fc114fb46d99&projectId=ba640c14-69c5-453e-80b2-29051492c0e0","DAA689D772864BE38800172C85229DDC-2025-05-14-20-53-20","","null","","[]","null","",""
"","","","","","image-button-response","37","406923","0.0-10.0-1.0-0.4","DAA689D772864BE38800172C85229DDC","DAA689D772864BE38800172C85229DDC","17a30422-f424-40ad-9374-fc114fb46d99","ba640c14-69c5-453e-80b2-29051492c0e0","{""num_scrambled_semantic"":""8"",""num_scrambled_causal"":""4"",""num_scrambled_schematic"":""4"",""participantId"":""DAA689D772864BE38800172C85229DDC"",""assignmentId"":""17a30422-f424-40ad-9374-fc114fb46d99"",""projectId"":""ba640c14-69c5-453e-80b2-29051492c0e0""}","https://test12345.live/?num_scrambled_semantic=8&num_scrambled_causal=4&num_scrambled_schematic=4&participantId=DAA689D772864BE38800172C85229DDC&assignmentId=17a30422-f424-40ad-9374-fc114fb46d99&projectId=ba640c14-69c5-453e-80b2-29051492c0e0","DAA689D772864BE38800172C85229DDC-2025-05-14-20-53-20","","null","","images/schematic_sequence/flight_scheme/flight_scheme_5.png","null","",""
"","","","","","image-button-response","38","407539","0.0-10.0-1.0-1.4","DAA689D772864BE38800172C85229DDC","DAA689D772864BE38800172C85229DDC","17a30422-f424-40ad-9374-fc114fb46d99","ba640c14-69c5-453e-80b2-29051492c0e0","{""num_scrambled_semantic"":""8"",""num_scrambled_causal"":""4"",""num_scrambled_schematic"":""4"",""participantId"":""DAA689D772864BE38800172C85229DDC"",""assignmentId"":""17a30422-f424-40ad-9374-fc114fb46d99"",""projectId"":""ba640c14-69c5-453e-80b2-29051492c0e0""}","https://test12345.live/?num_scrambled_semantic=8&num_scrambled_causal=4&num_scrambled_schematic=4&participantId=DAA689D772864BE38800172C85229DDC&assignmentId=17a30422-f424-40ad-9374-fc114fb46d99&projectId=ba640c14-69c5-453e-80b2-29051492c0e0","DAA689D772864BE38800172C85229DDC-2025-05-14-20-53-20","","613","","images/schematic_sequence/flight_scheme/flight_scheme_5.png","0","",""
"","","","","","image-button-response","39","409419","0.0-10.0-1.0-2.4","DAA689D772864BE38800172C85229DDC","DAA689D772864BE38800172C85229DDC","17a30422-f424-40ad-9374-fc114fb46d99","ba640c14-69c5-453e-80b2-29051492c0e0","{""num_scrambled_semantic"":""8"",""num_scrambled_causal"":""4"",""num_scrambled_schematic"":""4"",""participantId"":""DAA689D772864BE38800172C85229DDC"",""assignmentId"":""17a30422-f424-40ad-9374-fc114fb46d99"",""projectId"":""ba640c14-69c5-453e-80b2-29051492c0e0""}","https://test12345.live/?num_scrambled_semantic=8&num_scrambled_causal=4&num_scrambled_schematic=4&participantId=DAA689D772864BE38800172C85229DDC&assignmentId=17a30422-f424-40ad-9374-fc114fb46d99&projectId=ba640c14-69c5-453e-80b2-29051492c0e0","DAA689D772864BE38800172C85229DDC-2025-05-14-20-53-20","","null","","[]","null","",""
"","","","","","image-button-response","40","413928","0.0-10.0-1.0-0.5","DAA689D772864BE38800172C85229DDC","DAA689D772864BE38800172C85229DDC","17a30422-f424-40ad-9374-fc114fb46d99","ba640c14-69c5-453e-80b2-29051492c0e0","{""num_scrambled_semantic"":""8"",""num_scrambled_causal"":""4"",""num_scrambled_schematic"":""4"",""participantId"":""DAA689D772864BE38800172C85229DDC"",""assignmentId"":""17a30422-f424-40ad-9374-fc114fb46d99"",""projectId"":""ba640c14-69c5-453e-80b2-29051492c0e0""}","https://test12345.live/?num_scrambled_semantic=8&num_scrambled_causal=4&num_scrambled_schematic=4&participantId=DAA689D772864BE38800172C85229DDC&assignmentId=17a30422-f424-40ad-9374-fc114fb46d99&projectId=ba640c14-69c5-453e-80b2-29051492c0e0","DAA689D772864BE38800172C85229DDC-2025-05-14-20-53-20","","null","","images/schematic_sequence/flight_scheme/flight_scheme_6.png","null","",""
"","","","","","image-button-response","41","414941","0.0-10.0-1.0-1.5","DAA689D772864BE38800172C85229DDC","DAA689D772864BE38800172C85229DDC","17a30422-f424-40ad-9374-fc114fb46d99","ba640c14-69c5-453e-80b2-29051492c0e0","{""num_scrambled_semantic"":""8"",""num_scrambled_causal"":""4"",""num_scrambled_schematic"":""4"",""participantId"":""DAA689D772864BE38800172C85229DDC"",""assignmentId"":""17a30422-f424-40ad-9374-fc114fb46d99"",""projectId"":""ba640c14-69c5-453e-80b2-29051492c0e0""}","https://test12345.live/?num_scrambled_semantic=8&num_scrambled_causal=4&num_scrambled_schematic=4&participantId=DAA689D772864BE38800172C85229DDC&assignmentId=17a30422-f424-40ad-9374-fc114fb46d99&projectId=ba640c14-69c5-453e-80b2-29051492c0e0","DAA689D772864BE38800172C85229DDC-2025-05-14-20-53-20","","1011","","images/schematic_sequence/flight_scheme/flight_scheme_6.png","1","",""
"","","","","","image-button-response","42","416749","0.0-10.0-1.0-2.5","DAA689D772864BE38800172C85229DDC","DAA689D772864BE38800172C85229DDC","17a30422-f424-40ad-9374-fc114fb46d99","ba640c14-69c5-453e-80b2-29051492c0e0","{""num_scrambled_semantic"":""8"",""num_scrambled_causal"":""4"",""num_scrambled_schematic"":""4"",""participantId"":""DAA689D772864BE38800172C85229DDC"",""assignmentId"":""17a30422-f424-40ad-9374-fc114fb46d99"",""projectId"":""ba640c14-69c5-453e-80b2-29051492c0e0""}","https://test12345.live/?num_scrambled_semantic=8&num_scrambled_causal=4&num_scrambled_schematic=4&participantId=DAA689D772864BE38800172C85229DDC&assignmentId=17a30422-f424-40ad-9374-fc114fb46d99&projectId=ba640c14-69c5-453e-80b2-29051492c0e0","DAA689D772864BE38800172C85229DDC-2025-05-14-20-53-20","","null","","[]","null","",""
"","","","","","image-button-response","43","421261","0.0-10.0-1.0-0.6","DAA689D772864BE38800172C85229DDC","DAA689D772864BE38800172C85229DDC","17a30422-f424-40ad-9374-fc114fb46d99","ba640c14-69c5-453e-80b2-29051492c0e0","{""num_scrambled_semantic"":""8"",""num_scrambled_causal"":""4"",""num_scrambled_schematic"":""4"",""participantId"":""DAA689D772864BE38800172C85229DDC"",""assignmentId"":""17a30422-f424-40ad-9374-fc114fb46d99"",""projectId"":""ba640c14-69c5-453e-80b2-29051492c0e0""}","https://test12345.live/?num_scrambled_semantic=8&num_scrambled_causal=4&num_scrambled_schematic=4&participantId=DAA689D772864BE38800172C85229DDC&assignmentId=17a30422-f424-40ad-9374-fc114fb46d99&projectId=ba640c14-69c5-453e-80b2-29051492c0e0","DAA689D772864BE38800172C85229DDC-2025-05-14-20-53-20","","null","","images/schematic_sequence/flight_scheme/flight_scheme_7.png","null","",""
"","","","","","image-button-response","44","422319","0.0-10.0-1.0-1.6","DAA689D772864BE38800172C85229DDC","DAA689D772864BE38800172C85229DDC","17a30422-f424-40ad-9374-fc114fb46d99","ba640c14-69c5-453e-80b2-29051492c0e0","{""num_scrambled_semantic"":""8"",""num_scrambled_causal"":""4"",""num_scrambled_schematic"":""4"",""participantId"":""DAA689D772864BE38800172C85229DDC"",""assignmentId"":""17a30422-f424-40ad-9374-fc114fb46d99"",""projectId"":""ba640c14-69c5-453e-80b2-29051492c0e0""}","https://test12345.live/?num_scrambled_semantic=8&num_scrambled_causal=4&num_scrambled_schematic=4&participantId=DAA689D772864BE38800172C85229DDC&assignmentId=17a30422-f424-40ad-9374-fc114fb46d99&projectId=ba640c14-69c5-453e-80b2-29051492c0e0","DAA689D772864BE38800172C85229DDC-2025-05-14-20-53-20","","1049","","images/schematic_sequence/flight_scheme/flight_scheme_7.png","1","",""
"","","","","","image-button-response","45","424140","0.0-10.0-1.0-2.6","DAA689D772864BE38800172C85229DDC","DAA689D772864BE38800172C85229DDC","17a30422-f424-40ad-9374-fc114fb46d99","ba640c14-69c5-453e-80b2-29051492c0e0","{""num_scrambled_semantic"":""8"",""num_scrambled_causal"":""4"",""num_scrambled_schematic"":""4"",""participantId"":""DAA689D772864BE38800172C85229DDC"",""assignmentId"":""17a30422-f424-40ad-9374-fc114fb46d99"",""projectId"":""ba640c14-69c5-453e-80b2-29051492c0e0""}","https://test12345.live/?num_scrambled_semantic=8&num_scrambled_causal=4&num_scrambled_schematic=4&participantId=DAA689D772864BE38800172C85229DDC&assignmentId=17a30422-f424-40ad-9374-fc114fb46d99&projectId=ba640c14-69c5-453e-80b2-29051492c0e0","DAA689D772864BE38800172C85229DDC-2025-05-14-20-53-20","","null","","[]","null","",""
"","","","","","image-button-response","46","428653","0.0-10.0-1.0-0.7","DAA689D772864BE38800172C85229DDC","DAA689D772864BE38800172C85229DDC","17a30422-f424-40ad-9374-fc114fb46d99","ba640c14-69c5-453e-80b2-29051492c0e0","{""num_scrambled_semantic"":""8"",""num_scrambled_causal"":""4"",""num_scrambled_schematic"":""4"",""participantId"":""DAA689D772864BE38800172C85229DDC"",""assignmentId"":""17a30422-f424-40ad-9374-fc114fb46d99"",""projectId"":""ba640c14-69c5-453e-80b2-29051492c0e0""}","https://test12345.live/?num_scrambled_semantic=8&num_scrambled_causal=4&num_scrambled_schematic=4&participantId=DAA689D772864BE38800172C85229DDC&assignmentId=17a30422-f424-40ad-9374-fc114fb46d99&projectId=ba640c14-69c5-453e-80b2-29051492c0e0","DAA689D772864BE38800172C85229DDC-2025-05-14-20-53-20","","null","","images/schematic_sequence/flight_scheme/flight_scheme_8.png","null","",""
"","","","","","image-button-response","47","430733","0.0-10.0-1.0-1.7","DAA689D772864BE38800172C85229DDC","DAA689D772864BE38800172C85229DDC","17a30422-f424-40ad-9374-fc114fb46d99","ba640c14-69c5-453e-80b2-29051492c0e0","{""num_scrambled_semantic"":""8"",""num_scrambled_causal"":""4"",""num_scrambled_schematic"":""4"",""participantId"":""DAA689D772864BE38800172C85229DDC"",""assignmentId"":""17a30422-f424-40ad-9374-fc114fb46d99"",""projectId"":""ba640c14-69c5-453e-80b2-29051492c0e0""}","https://test12345.live/?num_scrambled_semantic=8&num_scrambled_causal=4&num_scrambled_schematic=4&participantId=DAA689D772864BE38800172C85229DDC&assignmentId=17a30422-f424-40ad-9374-fc114fb46d99&projectId=ba640c14-69c5-453e-80b2-29051492c0e0","DAA689D772864BE38800172C85229DDC-2025-05-14-20-53-20","","2076","","images/schematic_sequence/flight_scheme/flight_scheme_8.png","1","",""
"","","","","","image-button-response","48","432538","0.0-10.0-1.0-2.7","DAA689D772864BE38800172C85229DDC","DAA689D772864BE38800172C85229DDC","17a30422-f424-40ad-9374-fc114fb46d99","ba640c14-69c5-453e-80b2-29051492c0e0","{""num_scrambled_semantic"":""8"",""num_scrambled_causal"":""4"",""num_scrambled_schematic"":""4"",""participantId"":""DAA689D772864BE38800172C85229DDC"",""assignmentId"":""17a30422-f424-40ad-9374-fc114fb46d99"",""projectId"":""ba640c14-69c5-453e-80b2-29051492c0e0""}","https://test12345.live/?num_scrambled_semantic=8&num_scrambled_causal=4&num_scrambled_schematic=4&participantId=DAA689D772864BE38800172C85229DDC&assignmentId=17a30422-f424-40ad-9374-fc114fb46d99&projectId=ba640c14-69c5-453e-80b2-29051492c0e0","DAA689D772864BE38800172C85229DDC-2025-05-14-20-53-20","","null","","[]","null","",""
"","","","","","image-button-response","49","437049","0.0-10.0-1.0-0.8","DAA689D772864BE38800172C85229DDC","DAA689D772864BE38800172C85229DDC","17a30422-f424-40ad-9374-fc114fb46d99","ba640c14-69c5-453e-80b2-29051492c0e0","{""num_scrambled_semantic"":""8"",""num_scrambled_causal"":""4"",""num_scrambled_schematic"":""4"",""participantId"":""DAA689D772864BE38800172C85229DDC"",""assignmentId"":""17a30422-f424-40ad-9374-fc114fb46d99"",""projectId"":""ba640c14-69c5-453e-80b2-29051492c0e0""}","https://test12345.live/?num_scrambled_semantic=8&num_scrambled_causal=4&num_scrambled_schematic=4&participantId=DAA689D772864BE38800172C85229DDC&assignmentId=17a30422-f424-40ad-9374-fc114fb46d99&projectId=ba640c14-69c5-453e-80b2-29051492c0e0","DAA689D772864BE38800172C85229DDC-2025-05-14-20-53-20","","null","","images/schematic_sequence/flight_scheme/flight_scheme_9.png","null","",""
"","","","","","image-button-response","50","438325","0.0-10.0-1.0-1.8","DAA689D772864BE38800172C85229DDC","DAA689D772864BE38800172C85229DDC","17a30422-f424-40ad-9374-fc114fb46d99","ba640c14-69c5-453e-80b2-29051492c0e0","{""num_scrambled_semantic"":""8"",""num_scrambled_causal"":""4"",""num_scrambled_schematic"":""4"",""participantId"":""DAA689D772864BE38800172C85229DDC"",""assignmentId"":""17a30422-f424-40ad-9374-fc114fb46d99"",""projectId"":""ba640c14-69c5-453e-80b2-29051492c0e0""}","https://test12345.live/?num_scrambled_semantic=8&num_scrambled_causal=4&num_scrambled_schematic=4&participantId=DAA689D772864BE38800172C85229DDC&assignmentId=17a30422-f424-40ad-9374-fc114fb46d99&projectId=ba640c14-69c5-453e-80b2-29051492c0e0","DAA689D772864BE38800172C85229DDC-2025-05-14-20-53-20","","1274","","images/schematic_sequence/flight_scheme/flight_scheme_9.png","0","",""
"","","","","","image-button-response","51","440129","0.0-10.0-1.0-2.8","DAA689D772864BE38800172C85229DDC","DAA689D772864BE38800172C85229DDC","17a30422-f424-40ad-9374-fc114fb46d99","ba640c14-69c5-453e-80b2-29051492c0e0","{""num_scrambled_semantic"":""8"",""num_scrambled_causal"":""4"",""num_scrambled_schematic"":""4"",""participantId"":""DAA689D772864BE38800172C85229DDC"",""assignmentId"":""17a30422-f424-40ad-9374-fc114fb46d99"",""projectId"":""ba640c14-69c5-453e-80b2-29051492c0e0""}","https://test12345.live/?num_scrambled_semantic=8&num_scrambled_causal=4&num_scrambled_schematic=4&participantId=DAA689D772864BE38800172C85229DDC&assignmentId=17a30422-f424-40ad-9374-fc114fb46d99&projectId=ba640c14-69c5-453e-80b2-29051492c0e0","DAA689D772864BE38800172C85229DDC-2025-05-14-20-53-20","","null","","[]","null","",""
"","","","","","image-button-response","52","444648","0.0-10.0-1.0-0.9","DAA689D772864BE38800172C85229DDC","DAA689D772864BE38800172C85229DDC","17a30422-f424-40ad-9374-fc114fb46d99","ba640c14-69c5-453e-80b2-29051492c0e0","{""num_scrambled_semantic"":""8"",""num_scrambled_causal"":""4"",""num_scrambled_schematic"":""4"",""participantId"":""DAA689D772864BE38800172C85229DDC"",""assignmentId"":""17a30422-f424-40ad-9374-fc114fb46d99"",""projectId"":""ba640c14-69c5-453e-80b2-29051492c0e0""}","https://test12345.live/?num_scrambled_semantic=8&num_scrambled_causal=4&num_scrambled_schematic=4&participantId=DAA689D772864BE38800172C85229DDC&assignmentId=17a30422-f424-40ad-9374-fc114fb46d99&projectId=ba640c14-69c5-453e-80b2-29051492c0e0","DAA689D772864BE38800172C85229DDC-2025-05-14-20-53-20","","null","","images/schematic_sequence/flight_scheme/flight_scheme_ten.png","null","",""
"","","","","","image-button-response","53","445469","0.0-10.0-1.0-1.9","DAA689D772864BE38800172C85229DDC","DAA689D772864BE38800172C85229DDC","17a30422-f424-40ad-9374-fc114fb46d99","ba640c14-69c5-453e-80b2-29051492c0e0","{""num_scrambled_semantic"":""8"",""num_scrambled_causal"":""4"",""num_scrambled_schematic"":""4"",""participantId"":""DAA689D772864BE38800172C85229DDC"",""assignmentId"":""17a30422-f424-40ad-9374-fc114fb46d99"",""projectId"":""ba640c14-69c5-453e-80b2-29051492c0e0""}","https://test12345.live/?num_scrambled_semantic=8&num_scrambled_causal=4&num_scrambled_schematic=4&participantId=DAA689D772864BE38800172C85229DDC&assignmentId=17a30422-f424-40ad-9374-fc114fb46d99&projectId=ba640c14-69c5-453e-80b2-29051492c0e0","DAA689D772864BE38800172C85229DDC-2025-05-14-20-53-20","","818","","images/schematic_sequence/flight_scheme/flight_scheme_ten.png","0","",""
"","","","","","image-button-response","54","447278","0.0-10.0-1.0-2.9","DAA689D772864BE38800172C85229DDC","DAA689D772864BE38800172C85229DDC","17a30422-f424-40ad-9374-fc114fb46d99","ba640c14-69c5-453e-80b2-29051492c0e0","{""num_scrambled_semantic"":""8"",""num_scrambled_causal"":""4"",""num_scrambled_schematic"":""4"",""participantId"":""DAA689D772864BE38800172C85229DDC"",""assignmentId"":""17a30422-f424-40ad-9374-fc114fb46d99"",""projectId"":""ba640c14-69c5-453e-80b2-29051492c0e0""}","https://test12345.live/?num_scrambled_semantic=8&num_scrambled_causal=4&num_scrambled_schematic=4&participantId=DAA689D772864BE38800172C85229DDC&assignmentId=17a30422-f424-40ad-9374-fc114fb46d99&projectId=ba640c14-69c5-453e-80b2-29051492c0e0","DAA689D772864BE38800172C85229DDC-2025-05-14-20-53-20","","null","","[]","null","",""
"","","","","","html-audio-response","55","485261","0.0-11.0","DAA689D772864BE38800172C85229DDC","DAA689D772864BE38800172C85229DDC","17a30422-f424-40ad-9374-fc114fb46d99","ba640c14-69c5-453e-80b2-29051492c0e0","{""num_scrambled_semantic"":""8"",""num_scrambled_causal"":""4"",""num_scrambled_schematic"":""4"",""participantId"":""DAA689D772864BE38800172C85229DDC"",""assignmentId"":""17a30422-f424-40ad-9374-fc114fb46d99"",""projectId"":""ba640c14-69c5-453e-80b2-29051492c0e0""}","https://test12345.live/?num_scrambled_semantic=8&num_scrambled_causal=4&num_scrambled_schematic=4&participantId=DAA689D772864BE38800172C85229DDC&assignmentId=17a30422-f424-40ad-9374-fc114fb46d99&projectId=ba640c14-69c5-453e-80b2-29051492c0e0","DAA689D772864BE38800172C85229DDC-2025-05-14-20-53-20","","28541","","[""<span style=\""color: red; font-size: 24px\""> NOW RECORDING</span><p>Please say out loud all the images you saw, as many as you can remember. The images can be said in any order.</p>""]","","7","flight_scheme"
"","","","","","image-button-response","56","491307","0.0-12.0-0.0","DAA689D772864BE38800172C85229DDC","DAA689D772864BE38800172C85229DDC","17a30422-f424-40ad-9374-fc114fb46d99","ba640c14-69c5-453e-80b2-29051492c0e0","{""num_scrambled_semantic"":""8"",""num_scrambled_causal"":""4"",""num_scrambled_schematic"":""4"",""participantId"":""DAA689D772864BE38800172C85229DDC"",""assignmentId"":""17a30422-f424-40ad-9374-fc114fb46d99"",""projectId"":""ba640c14-69c5-453e-80b2-29051492c0e0""}","https://test12345.live/?num_scrambled_semantic=8&num_scrambled_causal=4&num_scrambled_schematic=4&participantId=DAA689D772864BE38800172C85229DDC&assignmentId=17a30422-f424-40ad-9374-fc114fb46d99&projectId=ba640c14-69c5-453e-80b2-29051492c0e0","DAA689D772864BE38800172C85229DDC-2025-05-14-20-53-20","","null","","images/causal_sequence/package_causal/package_causal_0.png","null","",""
"","","","","","image-button-response","57","495841","0.0-12.0-1.0-0.0","DAA689D772864BE38800172C85229DDC","DAA689D772864BE38800172C85229DDC","17a30422-f424-40ad-9374-fc114fb46d99","ba640c14-69c5-453e-80b2-29051492c0e0","{""num_scrambled_semantic"":""8"",""num_scrambled_causal"":""4"",""num_scrambled_schematic"":""4"",""participantId"":""DAA689D772864BE38800172C85229DDC"",""assignmentId"":""17a30422-f424-40ad-9374-fc114fb46d99"",""projectId"":""ba640c14-69c5-453e-80b2-29051492c0e0""}","https://test12345.live/?num_scrambled_semantic=8&num_scrambled_causal=4&num_scrambled_schematic=4&participantId=DAA689D772864BE38800172C85229DDC&assignmentId=17a30422-f424-40ad-9374-fc114fb46d99&projectId=ba640c14-69c5-453e-80b2-29051492c0e0","DAA689D772864BE38800172C85229DDC-2025-05-14-20-53-20","","null","","images/causal_sequence/package_causal/package_causal_ten.png","null","",""
"","","","","","image-button-response","58","497149","0.0-12.0-1.0-1.0","DAA689D772864BE38800172C85229DDC","DAA689D772864BE38800172C85229DDC","17a30422-f424-40ad-9374-fc114fb46d99","ba640c14-69c5-453e-80b2-29051492c0e0","{""num_scrambled_semantic"":""8"",""num_scrambled_causal"":""4"",""num_scrambled_schematic"":""4"",""participantId"":""DAA689D772864BE38800172C85229DDC"",""assignmentId"":""17a30422-f424-40ad-9374-fc114fb46d99"",""projectId"":""ba640c14-69c5-453e-80b2-29051492c0e0""}","https://test12345.live/?num_scrambled_semantic=8&num_scrambled_causal=4&num_scrambled_schematic=4&participantId=DAA689D772864BE38800172C85229DDC&assignmentId=17a30422-f424-40ad-9374-fc114fb46d99&projectId=ba640c14-69c5-453e-80b2-29051492c0e0","DAA689D772864BE38800172C85229DDC-2025-05-14-20-53-20","","1300","","images/causal_sequence/package_causal/package_causal_ten.png","0","",""
"","","","","","image-button-response","59","498958","0.0-12.0-1.0-2.0","DAA689D772864BE38800172C85229DDC","DAA689D772864BE38800172C85229DDC","17a30422-f424-40ad-9374-fc114fb46d99","ba640c14-69c5-453e-80b2-29051492c0e0","{""num_scrambled_semantic"":""8"",""num_scrambled_causal"":""4"",""num_scrambled_schematic"":""4"",""participantId"":""DAA689D772864BE38800172C85229DDC"",""assignmentId"":""17a30422-f424-40ad-9374-fc114fb46d99"",""projectId"":""ba640c14-69c5-453e-80b2-29051492c0e0""}","https://test12345.live/?num_scrambled_semantic=8&num_scrambled_causal=4&num_scrambled_schematic=4&participantId=DAA689D772864BE38800172C85229DDC&assignmentId=17a30422-f424-40ad-9374-fc114fb46d99&projectId=ba640c14-69c5-453e-80b2-29051492c0e0","DAA689D772864BE38800172C85229DDC-2025-05-14-20-53-20","","null","","[]","null","",""
"","","","","","image-button-response","60","503469","0.0-12.0-1.0-0.1","DAA689D772864BE38800172C85229DDC","DAA689D772864BE38800172C85229DDC","17a30422-f424-40ad-9374-fc114fb46d99","ba640c14-69c5-453e-80b2-29051492c0e0","{""num_scrambled_semantic"":""8"",""num_scrambled_causal"":""4"",""num_scrambled_schematic"":""4"",""participantId"":""DAA689D772864BE38800172C85229DDC"",""assignmentId"":""17a30422-f424-40ad-9374-fc114fb46d99"",""projectId"":""ba640c14-69c5-453e-80b2-29051492c0e0""}","https://test12345.live/?num_scrambled_semantic=8&num_scrambled_causal=4&num_scrambled_schematic=4&participantId=DAA689D772864BE38800172C85229DDC&assignmentId=17a30422-f424-40ad-9374-fc114fb46d99&projectId=ba640c14-69c5-453e-80b2-29051492c0e0","DAA689D772864BE38800172C85229DDC-2025-05-14-20-53-20","","null","","images/causal_sequence/package_causal/package_causal_6.png","null","",""
"","","","","","image-button-response","61","504792","0.0-12.0-1.0-1.1","DAA689D772864BE38800172C85229DDC","DAA689D772864BE38800172C85229DDC","17a30422-f424-40ad-9374-fc114fb46d99","ba640c14-69c5-453e-80b2-29051492c0e0","{""num_scrambled_semantic"":""8"",""num_scrambled_causal"":""4"",""num_scrambled_schematic"":""4"",""participantId"":""DAA689D772864BE38800172C85229DDC"",""assignmentId"":""17a30422-f424-40ad-9374-fc114fb46d99"",""projectId"":""ba640c14-69c5-453e-80b2-29051492c0e0""}","https://test12345.live/?num_scrambled_semantic=8&num_scrambled_causal=4&num_scrambled_schematic=4&participantId=DAA689D772864BE38800172C85229DDC&assignmentId=17a30422-f424-40ad-9374-fc114fb46d99&projectId=ba640c14-69c5-453e-80b2-29051492c0e0","DAA689D772864BE38800172C85229DDC-2025-05-14-20-53-20","","1319","","images/causal_sequence/package_causal/package_causal_6.png","0","",""
"","","","","","image-button-response","62","506608","0.0-12.0-1.0-2.1","DAA689D772864BE38800172C85229DDC","DAA689D772864BE38800172C85229DDC","17a30422-f424-40ad-9374-fc114fb46d99","ba640c14-69c5-453e-80b2-29051492c0e0","{""num_scrambled_semantic"":""8"",""num_scrambled_causal"":""4"",""num_scrambled_schematic"":""4"",""participantId"":""DAA689D772864BE38800172C85229DDC"",""assignmentId"":""17a30422-f424-40ad-9374-fc114fb46d99"",""projectId"":""ba640c14-69c5-453e-80b2-29051492c0e0""}","https://test12345.live/?num_scrambled_semantic=8&num_scrambled_causal=4&num_scrambled_schematic=4&participantId=DAA689D772864BE38800172C85229DDC&assignmentId=17a30422-f424-40ad-9374-fc114fb46d99&projectId=ba640c14-69c5-453e-80b2-29051492c0e0","DAA689D772864BE38800172C85229DDC-2025-05-14-20-53-20","","null","","[]","null","",""
"","","","","","image-button-response","63","511118","0.0-12.0-1.0-0.2","DAA689D772864BE38800172C85229DDC","DAA689D772864BE38800172C85229DDC","17a30422-f424-40ad-9374-fc114fb46d99","ba640c14-69c5-453e-80b2-29051492c0e0","{""num_scrambled_semantic"":""8"",""num_scrambled_causal"":""4"",""num_scrambled_schematic"":""4"",""participantId"":""DAA689D772864BE38800172C85229DDC"",""assignmentId"":""17a30422-f424-40ad-9374-fc114fb46d99"",""projectId"":""ba640c14-69c5-453e-80b2-29051492c0e0""}","https://test12345.live/?num_scrambled_semantic=8&num_scrambled_causal=4&num_scrambled_schematic=4&participantId=DAA689D772864BE38800172C85229DDC&assignmentId=17a30422-f424-40ad-9374-fc114fb46d99&projectId=ba640c14-69c5-453e-80b2-29051492c0e0","DAA689D772864BE38800172C85229DDC-2025-05-14-20-53-20","","null","","images/causal_sequence/package_causal/package_causal_3.png","null","",""
"","","","","","image-button-response","64","512609","0.0-12.0-1.0-1.2","DAA689D772864BE38800172C85229DDC","DAA689D772864BE38800172C85229DDC","17a30422-f424-40ad-9374-fc114fb46d99","ba640c14-69c5-453e-80b2-29051492c0e0","{""num_scrambled_semantic"":""8"",""num_scrambled_causal"":""4"",""num_scrambled_schematic"":""4"",""participantId"":""DAA689D772864BE38800172C85229DDC"",""assignmentId"":""17a30422-f424-40ad-9374-fc114fb46d99"",""projectId"":""ba640c14-69c5-453e-80b2-29051492c0e0""}","https://test12345.live/?num_scrambled_semantic=8&num_scrambled_causal=4&num_scrambled_schematic=4&participantId=DAA689D772864BE38800172C85229DDC&assignmentId=17a30422-f424-40ad-9374-fc114fb46d99&projectId=ba640c14-69c5-453e-80b2-29051492c0e0","DAA689D772864BE38800172C85229DDC-2025-05-14-20-53-20","","1481","","images/causal_sequence/package_causal/package_causal_3.png","0","",""
"","","","","","image-button-response","65","514428","0.0-12.0-1.0-2.2","DAA689D772864BE38800172C85229DDC","DAA689D772864BE38800172C85229DDC","17a30422-f424-40ad-9374-fc114fb46d99","ba640c14-69c5-453e-80b2-29051492c0e0","{""num_scrambled_semantic"":""8"",""num_scrambled_causal"":""4"",""num_scrambled_schematic"":""4"",""participantId"":""DAA689D772864BE38800172C85229DDC"",""assignmentId"":""17a30422-f424-40ad-9374-fc114fb46d99"",""projectId"":""ba640c14-69c5-453e-80b2-29051492c0e0""}","https://test12345.live/?num_scrambled_semantic=8&num_scrambled_causal=4&num_scrambled_schematic=4&participantId=DAA689D772864BE38800172C85229DDC&assignmentId=17a30422-f424-40ad-9374-fc114fb46d99&projectId=ba640c14-69c5-453e-80b2-29051492c0e0","DAA689D772864BE38800172C85229DDC-2025-05-14-20-53-20","","null","","[]","null","",""
"","","","","","image-button-response","66","518953","0.0-12.0-1.0-0.3","DAA689D772864BE38800172C85229DDC","DAA689D772864BE38800172C85229DDC","17a30422-f424-40ad-9374-fc114fb46d99","ba640c14-69c5-453e-80b2-29051492c0e0","{""num_scrambled_semantic"":""8"",""num_scrambled_causal"":""4"",""num_scrambled_schematic"":""4"",""participantId"":""DAA689D772864BE38800172C85229DDC"",""assignmentId"":""17a30422-f424-40ad-9374-fc114fb46d99"",""projectId"":""ba640c14-69c5-453e-80b2-29051492c0e0""}","https://test12345.live/?num_scrambled_semantic=8&num_scrambled_causal=4&num_scrambled_schematic=4&participantId=DAA689D772864BE38800172C85229DDC&assignmentId=17a30422-f424-40ad-9374-fc114fb46d99&projectId=ba640c14-69c5-453e-80b2-29051492c0e0","DAA689D772864BE38800172C85229DDC-2025-05-14-20-53-20","","null","","images/causal_sequence/package_causal/package_causal_8.png","null","",""
"","","","","","image-button-response","67","519731","0.0-12.0-1.0-1.3","DAA689D772864BE38800172C85229DDC","DAA689D772864BE38800172C85229DDC","17a30422-f424-40ad-9374-fc114fb46d99","ba640c14-69c5-453e-80b2-29051492c0e0","{""num_scrambled_semantic"":""8"",""num_scrambled_causal"":""4"",""num_scrambled_schematic"":""4"",""participantId"":""DAA689D772864BE38800172C85229DDC"",""assignmentId"":""17a30422-f424-40ad-9374-fc114fb46d99"",""projectId"":""ba640c14-69c5-453e-80b2-29051492c0e0""}","https://test12345.live/?num_scrambled_semantic=8&num_scrambled_causal=4&num_scrambled_schematic=4&participantId=DAA689D772864BE38800172C85229DDC&assignmentId=17a30422-f424-40ad-9374-fc114fb46d99&projectId=ba640c14-69c5-453e-80b2-29051492c0e0","DAA689D772864BE38800172C85229DDC-2025-05-14-20-53-20","","774","","images/causal_sequence/package_causal/package_causal_8.png","0","",""
"","","","","","image-button-response","68","521538","0.0-12.0-1.0-2.3","DAA689D772864BE38800172C85229DDC","DAA689D772864BE38800172C85229DDC","17a30422-f424-40ad-9374-fc114fb46d99","ba640c14-69c5-453e-80b2-29051492c0e0","{""num_scrambled_semantic"":""8"",""num_scrambled_causal"":""4"",""num_scrambled_schematic"":""4"",""participantId"":""DAA689D772864BE38800172C85229DDC"",""assignmentId"":""17a30422-f424-40ad-9374-fc114fb46d99"",""projectId"":""ba640c14-69c5-453e-80b2-29051492c0e0""}","https://test12345.live/?num_scrambled_semantic=8&num_scrambled_causal=4&num_scrambled_schematic=4&participantId=DAA689D772864BE38800172C85229DDC&assignmentId=17a30422-f424-40ad-9374-fc114fb46d99&projectId=ba640c14-69c5-453e-80b2-29051492c0e0","DAA689D772864BE38800172C85229DDC-2025-05-14-20-53-20","","null","","[]","null","",""
"","","","","","image-button-response","69","526188","0.0-12.0-1.0-0.4","DAA689D772864BE38800172C85229DDC","DAA689D772864BE38800172C85229DDC","17a30422-f424-40ad-9374-fc114fb46d99","ba640c14-69c5-453e-80b2-29051492c0e0","{""num_scrambled_semantic"":""8"",""num_scrambled_causal"":""4"",""num_scrambled_schematic"":""4"",""participantId"":""DAA689D772864BE38800172C85229DDC"",""assignmentId"":""17a30422-f424-40ad-9374-fc114fb46d99"",""projectId"":""ba640c14-69c5-453e-80b2-29051492c0e0""}","https://test12345.live/?num_scrambled_semantic=8&num_scrambled_causal=4&num_scrambled_schematic=4&participantId=DAA689D772864BE38800172C85229DDC&assignmentId=17a30422-f424-40ad-9374-fc114fb46d99&projectId=ba640c14-69c5-453e-80b2-29051492c0e0","DAA689D772864BE38800172C85229DDC-2025-05-14-20-53-20","","null","","images/causal_sequence/package_causal/package_causal_5.png","null","",""
"","","","","","image-button-response","70","530197","0.0-12.0-1.0-1.4","DAA689D772864BE38800172C85229DDC","DAA689D772864BE38800172C85229DDC","17a30422-f424-40ad-9374-fc114fb46d99","ba640c14-69c5-453e-80b2-29051492c0e0","{""num_scrambled_semantic"":""8"",""num_scrambled_causal"":""4"",""num_scrambled_schematic"":""4"",""participantId"":""DAA689D772864BE38800172C85229DDC"",""assignmentId"":""17a30422-f424-40ad-9374-fc114fb46d99"",""projectId"":""ba640c14-69c5-453e-80b2-29051492c0e0""}","https://test12345.live/?num_scrambled_semantic=8&num_scrambled_causal=4&num_scrambled_schematic=4&participantId=DAA689D772864BE38800172C85229DDC&assignmentId=17a30422-f424-40ad-9374-fc114fb46d99&projectId=ba640c14-69c5-453e-80b2-29051492c0e0","DAA689D772864BE38800172C85229DDC-2025-05-14-20-53-20","","null","","images/causal_sequence/package_causal/package_causal_5.png","null","",""
"","","","","","image-button-response","71","532018","0.0-12.0-1.0-2.4","DAA689D772864BE38800172C85229DDC","DAA689D772864BE38800172C85229DDC","17a30422-f424-40ad-9374-fc114fb46d99","ba640c14-69c5-453e-80b2-29051492c0e0","{""num_scrambled_semantic"":""8"",""num_scrambled_causal"":""4"",""num_scrambled_schematic"":""4"",""participantId"":""DAA689D772864BE38800172C85229DDC"",""assignmentId"":""17a30422-f424-40ad-9374-fc114fb46d99"",""projectId"":""ba640c14-69c5-453e-80b2-29051492c0e0""}","https://test12345.live/?num_scrambled_semantic=8&num_scrambled_causal=4&num_scrambled_schematic=4&participantId=DAA689D772864BE38800172C85229DDC&assignmentId=17a30422-f424-40ad-9374-fc114fb46d99&projectId=ba640c14-69c5-453e-80b2-29051492c0e0","DAA689D772864BE38800172C85229DDC-2025-05-14-20-53-20","","null","","[]","null","",""
"","","","","","image-button-response","72","536538","0.0-12.0-1.0-0.5","DAA689D772864BE38800172C85229DDC","DAA689D772864BE38800172C85229DDC","17a30422-f424-40ad-9374-fc114fb46d99","ba640c14-69c5-453e-80b2-29051492c0e0","{""num_scrambled_semantic"":""8"",""num_scrambled_causal"":""4"",""num_scrambled_schematic"":""4"",""participantId"":""DAA689D772864BE38800172C85229DDC"",""assignmentId"":""17a30422-f424-40ad-9374-fc114fb46d99"",""projectId"":""ba640c14-69c5-453e-80b2-29051492c0e0""}","https://test12345.live/?num_scrambled_semantic=8&num_scrambled_causal=4&num_scrambled_schematic=4&participantId=DAA689D772864BE38800172C85229DDC&assignmentId=17a30422-f424-40ad-9374-fc114fb46d99&projectId=ba640c14-69c5-453e-80b2-29051492c0e0","DAA689D772864BE38800172C85229DDC-2025-05-14-20-53-20","","null","","images/causal_sequence/package_causal/package_causal_7.png","null","",""
"","","","","","image-button-response","73","540559","0.0-12.0-1.0-1.5","DAA689D772864BE38800172C85229DDC","DAA689D772864BE38800172C85229DDC","17a30422-f424-40ad-9374-fc114fb46d99","ba640c14-69c5-453e-80b2-29051492c0e0","{""num_scrambled_semantic"":""8"",""num_scrambled_causal"":""4"",""num_scrambled_schematic"":""4"",""participantId"":""DAA689D772864BE38800172C85229DDC"",""assignmentId"":""17a30422-f424-40ad-9374-fc114fb46d99"",""projectId"":""ba640c14-69c5-453e-80b2-29051492c0e0""}","https://test12345.live/?num_scrambled_semantic=8&num_scrambled_causal=4&num_scrambled_schematic=4&participantId=DAA689D772864BE38800172C85229DDC&assignmentId=17a30422-f424-40ad-9374-fc114fb46d99&projectId=ba640c14-69c5-453e-80b2-29051492c0e0","DAA689D772864BE38800172C85229DDC-2025-05-14-20-53-20","","null","","images/causal_sequence/package_causal/package_causal_7.png","null","",""
"","","","","","image-button-response","74","542388","0.0-12.0-1.0-2.5","DAA689D772864BE38800172C85229DDC","DAA689D772864BE38800172C85229DDC","17a30422-f424-40ad-9374-fc114fb46d99","ba640c14-69c5-453e-80b2-29051492c0e0","{""num_scrambled_semantic"":""8"",""num_scrambled_causal"":""4"",""num_scrambled_schematic"":""4"",""participantId"":""DAA689D772864BE38800172C85229DDC"",""assignmentId"":""17a30422-f424-40ad-9374-fc114fb46d99"",""projectId"":""ba640c14-69c5-453e-80b2-29051492c0e0""}","https://test12345.live/?num_scrambled_semantic=8&num_scrambled_causal=4&num_scrambled_schematic=4&participantId=DAA689D772864BE38800172C85229DDC&assignmentId=17a30422-f424-40ad-9374-fc114fb46d99&projectId=ba640c14-69c5-453e-80b2-29051492c0e0","DAA689D772864BE38800172C85229DDC-2025-05-14-20-53-20","","null","","[]","null","",""
"","","","","","image-button-response","75","546906","0.0-12.0-1.0-0.6","DAA689D772864BE38800172C85229DDC","DAA689D772864BE38800172C85229DDC","17a30422-f424-40ad-9374-fc114fb46d99","ba640c14-69c5-453e-80b2-29051492c0e0","{""num_scrambled_semantic"":""8"",""num_scrambled_causal"":""4"",""num_scrambled_schematic"":""4"",""participantId"":""DAA689D772864BE38800172C85229DDC"",""assignmentId"":""17a30422-f424-40ad-9374-fc114fb46d99"",""projectId"":""ba640c14-69c5-453e-80b2-29051492c0e0""}","https://test12345.live/?num_scrambled_semantic=8&num_scrambled_causal=4&num_scrambled_schematic=4&participantId=DAA689D772864BE38800172C85229DDC&assignmentId=17a30422-f424-40ad-9374-fc114fb46d99&projectId=ba640c14-69c5-453e-80b2-29051492c0e0","DAA689D772864BE38800172C85229DDC-2025-05-14-20-53-20","","null","","images/causal_sequence/package_causal/package_causal_2.png","null","",""
"","","","","","image-button-response","76","550918","0.0-12.0-1.0-1.6","DAA689D772864BE38800172C85229DDC","DAA689D772864BE38800172C85229DDC","17a30422-f424-40ad-9374-fc114fb46d99","ba640c14-69c5-453e-80b2-29051492c0e0","{""num_scrambled_semantic"":""8"",""num_scrambled_causal"":""4"",""num_scrambled_schematic"":""4"",""participantId"":""DAA689D772864BE38800172C85229DDC"",""assignmentId"":""17a30422-f424-40ad-9374-fc114fb46d99"",""projectId"":""ba640c14-69c5-453e-80b2-29051492c0e0""}","https://test12345.live/?num_scrambled_semantic=8&num_scrambled_causal=4&num_scrambled_schematic=4&participantId=DAA689D772864BE38800172C85229DDC&assignmentId=17a30422-f424-40ad-9374-fc114fb46d99&projectId=ba640c14-69c5-453e-80b2-29051492c0e0","DAA689D772864BE38800172C85229DDC-2025-05-14-20-53-20","","null","","images/causal_sequence/package_causal/package_causal_2.png","null","",""
"","","","","","image-button-response","77","552724","0.0-12.0-1.0-2.6","DAA689D772864BE38800172C85229DDC","DAA689D772864BE38800172C85229DDC","17a30422-f424-40ad-9374-fc114fb46d99","ba640c14-69c5-453e-80b2-29051492c0e0","{""num_scrambled_semantic"":""8"",""num_scrambled_causal"":""4"",""num_scrambled_schematic"":""4"",""participantId"":""DAA689D772864BE38800172C85229DDC"",""assignmentId"":""17a30422-f424-40ad-9374-fc114fb46d99"",""projectId"":""ba640c14-69c5-453e-80b2-29051492c0e0""}","https://test12345.live/?num_scrambled_semantic=8&num_scrambled_causal=4&num_scrambled_schematic=4&participantId=DAA689D772864BE38800172C85229DDC&assignmentId=17a30422-f424-40ad-9374-fc114fb46d99&projectId=ba640c14-69c5-453e-80b2-29051492c0e0","DAA689D772864BE38800172C85229DDC-2025-05-14-20-53-20","","null","","[]","null","",""
"","","","","","image-button-response","78","557229","0.0-12.0-1.0-0.7","DAA689D772864BE38800172C85229DDC","DAA689D772864BE38800172C85229DDC","17a30422-f424-40ad-9374-fc114fb46d99","ba640c14-69c5-453e-80b2-29051492c0e0","{""num_scrambled_semantic"":""8"",""num_scrambled_causal"":""4"",""num_scrambled_schematic"":""4"",""participantId"":""DAA689D772864BE38800172C85229DDC"",""assignmentId"":""17a30422-f424-40ad-9374-fc114fb46d99"",""projectId"":""ba640c14-69c5-453e-80b2-29051492c0e0""}","https://test12345.live/?num_scrambled_semantic=8&num_scrambled_causal=4&num_scrambled_schematic=4&participantId=DAA689D772864BE38800172C85229DDC&assignmentId=17a30422-f424-40ad-9374-fc114fb46d99&projectId=ba640c14-69c5-453e-80b2-29051492c0e0","DAA689D772864BE38800172C85229DDC-2025-05-14-20-53-20","","null","","images/causal_sequence/package_causal/package_causal_4.png","null","",""
"","","","","","image-button-response","79","558122","0.0-12.0-1.0-1.7","DAA689D772864BE38800172C85229DDC","DAA689D772864BE38800172C85229DDC","17a30422-f424-40ad-9374-fc114fb46d99","ba640c14-69c5-453e-80b2-29051492c0e0","{""num_scrambled_semantic"":""8"",""num_scrambled_causal"":""4"",""num_scrambled_schematic"":""4"",""participantId"":""DAA689D772864BE38800172C85229DDC"",""assignmentId"":""17a30422-f424-40ad-9374-fc114fb46d99"",""projectId"":""ba640c14-69c5-453e-80b2-29051492c0e0""}","https://test12345.live/?num_scrambled_semantic=8&num_scrambled_causal=4&num_scrambled_schematic=4&participantId=DAA689D772864BE38800172C85229DDC&assignmentId=17a30422-f424-40ad-9374-fc114fb46d99&projectId=ba640c14-69c5-453e-80b2-29051492c0e0","DAA689D772864BE38800172C85229DDC-2025-05-14-20-53-20","","871","","images/causal_sequence/package_causal/package_causal_4.png","1","",""
"","","","","","image-button-response","80","559939","0.0-12.0-1.0-2.7","DAA689D772864BE38800172C85229DDC","DAA689D772864BE38800172C85229DDC","17a30422-f424-40ad-9374-fc114fb46d99","ba640c14-69c5-453e-80b2-29051492c0e0","{""num_scrambled_semantic"":""8"",""num_scrambled_causal"":""4"",""num_scrambled_schematic"":""4"",""participantId"":""DAA689D772864BE38800172C85229DDC"",""assignmentId"":""17a30422-f424-40ad-9374-fc114fb46d99"",""projectId"":""ba640c14-69c5-453e-80b2-29051492c0e0""}","https://test12345.live/?num_scrambled_semantic=8&num_scrambled_causal=4&num_scrambled_schematic=4&participantId=DAA689D772864BE38800172C85229DDC&assignmentId=17a30422-f424-40ad-9374-fc114fb46d99&projectId=ba640c14-69c5-453e-80b2-29051492c0e0","DAA689D772864BE38800172C85229DDC-2025-05-14-20-53-20","","null","","[]","null","",""
"","","","","","image-button-response","81","564463","0.0-12.0-1.0-0.8","DAA689D772864BE38800172C85229DDC","DAA689D772864BE38800172C85229DDC","17a30422-f424-40ad-9374-fc114fb46d99","ba640c14-69c5-453e-80b2-29051492c0e0","{""num_scrambled_semantic"":""8"",""num_scrambled_causal"":""4"",""num_scrambled_schematic"":""4"",""participantId"":""DAA689D772864BE38800172C85229DDC"",""assignmentId"":""17a30422-f424-40ad-9374-fc114fb46d99"",""projectId"":""ba640c14-69c5-453e-80b2-29051492c0e0""}","https://test12345.live/?num_scrambled_semantic=8&num_scrambled_causal=4&num_scrambled_schematic=4&participantId=DAA689D772864BE38800172C85229DDC&assignmentId=17a30422-f424-40ad-9374-fc114fb46d99&projectId=ba640c14-69c5-453e-80b2-29051492c0e0","DAA689D772864BE38800172C85229DDC-2025-05-14-20-53-20","","null","","images/causal_sequence/package_causal/package_causal_9.png","null","",""
"","","","","","image-button-response","82","565585","0.0-12.0-1.0-1.8","DAA689D772864BE38800172C85229DDC","DAA689D772864BE38800172C85229DDC","17a30422-f424-40ad-9374-fc114fb46d99","ba640c14-69c5-453e-80b2-29051492c0e0","{""num_scrambled_semantic"":""8"",""num_scrambled_causal"":""4"",""num_scrambled_schematic"":""4"",""participantId"":""DAA689D772864BE38800172C85229DDC"",""assignmentId"":""17a30422-f424-40ad-9374-fc114fb46d99"",""projectId"":""ba640c14-69c5-453e-80b2-29051492c0e0""}","https://test12345.live/?num_scrambled_semantic=8&num_scrambled_causal=4&num_scrambled_schematic=4&participantId=DAA689D772864BE38800172C85229DDC&assignmentId=17a30422-f424-40ad-9374-fc114fb46d99&projectId=ba640c14-69c5-453e-80b2-29051492c0e0","DAA689D772864BE38800172C85229DDC-2025-05-14-20-53-20","","1116","","images/causal_sequence/package_causal/package_causal_9.png","0","",""
"","","","","","image-button-response","83","567388","0.0-12.0-1.0-2.8","DAA689D772864BE38800172C85229DDC","DAA689D772864BE38800172C85229DDC","17a30422-f424-40ad-9374-fc114fb46d99","ba640c14-69c5-453e-80b2-29051492c0e0","{""num_scrambled_semantic"":""8"",""num_scrambled_causal"":""4"",""num_scrambled_schematic"":""4"",""participantId"":""DAA689D772864BE38800172C85229DDC"",""assignmentId"":""17a30422-f424-40ad-9374-fc114fb46d99"",""projectId"":""ba640c14-69c5-453e-80b2-29051492c0e0""}","https://test12345.live/?num_scrambled_semantic=8&num_scrambled_causal=4&num_scrambled_schematic=4&participantId=DAA689D772864BE38800172C85229DDC&assignmentId=17a30422-f424-40ad-9374-fc114fb46d99&projectId=ba640c14-69c5-453e-80b2-29051492c0e0","DAA689D772864BE38800172C85229DDC-2025-05-14-20-53-20","","null","","[]","null","",""
"","","","","","image-button-response","84","571896","0.0-12.0-1.0-0.9","DAA689D772864BE38800172C85229DDC","DAA689D772864BE38800172C85229DDC","17a30422-f424-40ad-9374-fc114fb46d99","ba640c14-69c5-453e-80b2-29051492c0e0","{""num_scrambled_semantic"":""8"",""num_scrambled_causal"":""4"",""num_scrambled_schematic"":""4"",""participantId"":""DAA689D772864BE38800172C85229DDC"",""assignmentId"":""17a30422-f424-40ad-9374-fc114fb46d99"",""projectId"":""ba640c14-69c5-453e-80b2-29051492c0e0""}","https://test12345.live/?num_scrambled_semantic=8&num_scrambled_causal=4&num_scrambled_schematic=4&participantId=DAA689D772864BE38800172C85229DDC&assignmentId=17a30422-f424-40ad-9374-fc114fb46d99&projectId=ba640c14-69c5-453e-80b2-29051492c0e0","DAA689D772864BE38800172C85229DDC-2025-05-14-20-53-20","","null","","images/causal_sequence/package_causal/package_causal_1.png","null","",""
"","","","","","image-button-response","85","572440","0.0-12.0-1.0-1.9","DAA689D772864BE38800172C85229DDC","DAA689D772864BE38800172C85229DDC","17a30422-f424-40ad-9374-fc114fb46d99","ba640c14-69c5-453e-80b2-29051492c0e0","{""num_scrambled_semantic"":""8"",""num_scrambled_causal"":""4"",""num_scrambled_schematic"":""4"",""participantId"":""DAA689D772864BE38800172C85229DDC"",""assignmentId"":""17a30422-f424-40ad-9374-fc114fb46d99"",""projectId"":""ba640c14-69c5-453e-80b2-29051492c0e0""}","https://test12345.live/?num_scrambled_semantic=8&num_scrambled_causal=4&num_scrambled_schematic=4&participantId=DAA689D772864BE38800172C85229DDC&assignmentId=17a30422-f424-40ad-9374-fc114fb46d99&projectId=ba640c14-69c5-453e-80b2-29051492c0e0","DAA689D772864BE38800172C85229DDC-2025-05-14-20-53-20","","540","","images/causal_sequence/package_causal/package_causal_1.png","0","",""
"","","","","","image-button-response","86","574248","0.0-12.0-1.0-2.9","DAA689D772864BE38800172C85229DDC","DAA689D772864BE38800172C85229DDC","17a30422-f424-40ad-9374-fc114fb46d99","ba640c14-69c5-453e-80b2-29051492c0e0","{""num_scrambled_semantic"":""8"",""num_scrambled_causal"":""4"",""num_scrambled_schematic"":""4"",""participantId"":""DAA689D772864BE38800172C85229DDC"",""assignmentId"":""17a30422-f424-40ad-9374-fc114fb46d99"",""projectId"":""ba640c14-69c5-453e-80b2-29051492c0e0""}","https://test12345.live/?num_scrambled_semantic=8&num_scrambled_causal=4&num_scrambled_schematic=4&participantId=DAA689D772864BE38800172C85229DDC&assignmentId=17a30422-f424-40ad-9374-fc114fb46d99&projectId=ba640c14-69c5-453e-80b2-29051492c0e0","DAA689D772864BE38800172C85229DDC-2025-05-14-20-53-20","","null","","[]","null","",""
"","","","","","html-audio-response","87","592697","0.0-13.0","DAA689D772864BE38800172C85229DDC","DAA689D772864BE38800172C85229DDC","17a30422-f424-40ad-9374-fc114fb46d99","ba640c14-69c5-453e-80b2-29051492c0e0","{""num_scrambled_semantic"":""8"",""num_scrambled_causal"":""4"",""num_scrambled_schematic"":""4"",""participantId"":""DAA689D772864BE38800172C85229DDC"",""assignmentId"":""17a30422-f424-40ad-9374-fc114fb46d99"",""projectId"":""ba640c14-69c5-453e-80b2-29051492c0e0""}","https://test12345.live/?num_scrambled_semantic=8&num_scrambled_causal=4&num_scrambled_schematic=4&participantId=DAA689D772864BE38800172C85229DDC&assignmentId=17a30422-f424-40ad-9374-fc114fb46d99&projectId=ba640c14-69c5-453e-80b2-29051492c0e0","DAA689D772864BE38800172C85229DDC-2025-05-14-20-53-20","","17043","","[""<span style=\""color: red; font-size: 24px\""> NOW RECORDING</span><p>Please say out loud all the images you saw, as many as you can remember. The images can be said in any order.</p>""]","","13","package_causal"
"","","","","","image-button-response","88","598723","0.0-14.0-0.0","DAA689D772864BE38800172C85229DDC","DAA689D772864BE38800172C85229DDC","17a30422-f424-40ad-9374-fc114fb46d99","ba640c14-69c5-453e-80b2-29051492c0e0","{""num_scrambled_semantic"":""8"",""num_scrambled_causal"":""4"",""num_scrambled_schematic"":""4"",""participantId"":""DAA689D772864BE38800172C85229DDC"",""assignmentId"":""17a30422-f424-40ad-9374-fc114fb46d99"",""projectId"":""ba640c14-69c5-453e-80b2-29051492c0e0""}","https://test12345.live/?num_scrambled_semantic=8&num_scrambled_causal=4&num_scrambled_schematic=4&participantId=DAA689D772864BE38800172C85229DDC&assignmentId=17a30422-f424-40ad-9374-fc114fb46d99&projectId=ba640c14-69c5-453e-80b2-29051492c0e0","DAA689D772864BE38800172C85229DDC-2025-05-14-20-53-20","","null","","images/schematic_sequence/dinner_party_scheme/dinner_party_scheme_0.png","null","",""
"","","","","","image-button-response","89","603232","0.0-14.0-1.0-0.0","DAA689D772864BE38800172C85229DDC","DAA689D772864BE38800172C85229DDC","17a30422-f424-40ad-9374-fc114fb46d99","ba640c14-69c5-453e-80b2-29051492c0e0","{""num_scrambled_semantic"":""8"",""num_scrambled_causal"":""4"",""num_scrambled_schematic"":""4"",""participantId"":""DAA689D772864BE38800172C85229DDC"",""assignmentId"":""17a30422-f424-40ad-9374-fc114fb46d99"",""projectId"":""ba640c14-69c5-453e-80b2-29051492c0e0""}","https://test12345.live/?num_scrambled_semantic=8&num_scrambled_causal=4&num_scrambled_schematic=4&participantId=DAA689D772864BE38800172C85229DDC&assignmentId=17a30422-f424-40ad-9374-fc114fb46d99&projectId=ba640c14-69c5-453e-80b2-29051492c0e0","DAA689D772864BE38800172C85229DDC-2025-05-14-20-53-20","","null","","images/schematic_sequence/dinner_party_scheme/dinner_party_scheme_3.png","null","",""
"","","","","","image-button-response","90","604259","0.0-14.0-1.0-1.0","DAA689D772864BE38800172C85229DDC","DAA689D772864BE38800172C85229DDC","17a30422-f424-40ad-9374-fc114fb46d99","ba640c14-69c5-453e-80b2-29051492c0e0","{""num_scrambled_semantic"":""8"",""num_scrambled_causal"":""4"",""num_scrambled_schematic"":""4"",""participantId"":""DAA689D772864BE38800172C85229DDC"",""assignmentId"":""17a30422-f424-40ad-9374-fc114fb46d99"",""projectId"":""ba640c14-69c5-453e-80b2-29051492c0e0""}","https://test12345.live/?num_scrambled_semantic=8&num_scrambled_causal=4&num_scrambled_schematic=4&participantId=DAA689D772864BE38800172C85229DDC&assignmentId=17a30422-f424-40ad-9374-fc114fb46d99&projectId=ba640c14-69c5-453e-80b2-29051492c0e0","DAA689D772864BE38800172C85229DDC-2025-05-14-20-53-20","","1024","","images/schematic_sequence/dinner_party_scheme/dinner_party_scheme_3.png","0","",""
"","","","","","image-button-response","91","606067","0.0-14.0-1.0-2.0","DAA689D772864BE38800172C85229DDC","DAA689D772864BE38800172C85229DDC","17a30422-f424-40ad-9374-fc114fb46d99","ba640c14-69c5-453e-80b2-29051492c0e0","{""num_scrambled_semantic"":""8"",""num_scrambled_causal"":""4"",""num_scrambled_schematic"":""4"",""participantId"":""DAA689D772864BE38800172C85229DDC"",""assignmentId"":""17a30422-f424-40ad-9374-fc114fb46d99"",""projectId"":""ba640c14-69c5-453e-80b2-29051492c0e0""}","https://test12345.live/?num_scrambled_semantic=8&num_scrambled_causal=4&num_scrambled_schematic=4&participantId=DAA689D772864BE38800172C85229DDC&assignmentId=17a30422-f424-40ad-9374-fc114fb46d99&projectId=ba640c14-69c5-453e-80b2-29051492c0e0","DAA689D772864BE38800172C85229DDC-2025-05-14-20-53-20","","null","","[]","null","",""
"","","","","","image-button-response","92","610573","0.0-14.0-1.0-0.1","DAA689D772864BE38800172C85229DDC","DAA689D772864BE38800172C85229DDC","17a30422-f424-40ad-9374-fc114fb46d99","ba640c14-69c5-453e-80b2-29051492c0e0","{""num_scrambled_semantic"":""8"",""num_scrambled_causal"":""4"",""num_scrambled_schematic"":""4"",""participantId"":""DAA689D772864BE38800172C85229DDC"",""assignmentId"":""17a30422-f424-40ad-9374-fc114fb46d99"",""projectId"":""ba640c14-69c5-453e-80b2-29051492c0e0""}","https://test12345.live/?num_scrambled_semantic=8&num_scrambled_causal=4&num_scrambled_schematic=4&participantId=DAA689D772864BE38800172C85229DDC&assignmentId=17a30422-f424-40ad-9374-fc114fb46d99&projectId=ba640c14-69c5-453e-80b2-29051492c0e0","DAA689D772864BE38800172C85229DDC-2025-05-14-20-53-20","","null","","images/schematic_sequence/dinner_party_scheme/dinner_party_scheme_1.png","null","",""
"","","","","","image-button-response","93","611640","0.0-14.0-1.0-1.1","DAA689D772864BE38800172C85229DDC","DAA689D772864BE38800172C85229DDC","17a30422-f424-40ad-9374-fc114fb46d99","ba640c14-69c5-453e-80b2-29051492c0e0","{""num_scrambled_semantic"":""8"",""num_scrambled_causal"":""4"",""num_scrambled_schematic"":""4"",""participantId"":""DAA689D772864BE38800172C85229DDC"",""assignmentId"":""17a30422-f424-40ad-9374-fc114fb46d99"",""projectId"":""ba640c14-69c5-453e-80b2-29051492c0e0""}","https://test12345.live/?num_scrambled_semantic=8&num_scrambled_causal=4&num_scrambled_schematic=4&participantId=DAA689D772864BE38800172C85229DDC&assignmentId=17a30422-f424-40ad-9374-fc114fb46d99&projectId=ba640c14-69c5-453e-80b2-29051492c0e0","DAA689D772864BE38800172C85229DDC-2025-05-14-20-53-20","","1063","","images/schematic_sequence/dinner_party_scheme/dinner_party_scheme_1.png","0","",""
"","","","","","image-button-response","94","613458","0.0-14.0-1.0-2.1","DAA689D772864BE38800172C85229DDC","DAA689D772864BE38800172C85229DDC","17a30422-f424-40ad-9374-fc114fb46d99","ba640c14-69c5-453e-80b2-29051492c0e0","{""num_scrambled_semantic"":""8"",""num_scrambled_causal"":""4"",""num_scrambled_schematic"":""4"",""participantId"":""DAA689D772864BE38800172C85229DDC"",""assignmentId"":""17a30422-f424-40ad-9374-fc114fb46d99"",""projectId"":""ba640c14-69c5-453e-80b2-29051492c0e0""}","https://test12345.live/?num_scrambled_semantic=8&num_scrambled_causal=4&num_scrambled_schematic=4&participantId=DAA689D772864BE38800172C85229DDC&assignmentId=17a30422-f424-40ad-9374-fc114fb46d99&projectId=ba640c14-69c5-453e-80b2-29051492c0e0","DAA689D772864BE38800172C85229DDC-2025-05-14-20-53-20","","null","","[]","null","",""
"","","","","","image-button-response","95","617967","0.0-14.0-1.0-0.2","DAA689D772864BE38800172C85229DDC","DAA689D772864BE38800172C85229DDC","17a30422-f424-40ad-9374-fc114fb46d99","ba640c14-69c5-453e-80b2-29051492c0e0","{""num_scrambled_semantic"":""8"",""num_scrambled_causal"":""4"",""num_scrambled_schematic"":""4"",""participantId"":""DAA689D772864BE38800172C85229DDC"",""assignmentId"":""17a30422-f424-40ad-9374-fc114fb46d99"",""projectId"":""ba640c14-69c5-453e-80b2-29051492c0e0""}","https://test12345.live/?num_scrambled_semantic=8&num_scrambled_causal=4&num_scrambled_schematic=4&participantId=DAA689D772864BE38800172C85229DDC&assignmentId=17a30422-f424-40ad-9374-fc114fb46d99&projectId=ba640c14-69c5-453e-80b2-29051492c0e0","DAA689D772864BE38800172C85229DDC-2025-05-14-20-53-20","","null","","images/schematic_sequence/dinner_party_scheme/dinner_party_scheme_2.png","null","",""
"","","","","","image-button-response","96","619741","0.0-14.0-1.0-1.2","DAA689D772864BE38800172C85229DDC","DAA689D772864BE38800172C85229DDC","17a30422-f424-40ad-9374-fc114fb46d99","ba640c14-69c5-453e-80b2-29051492c0e0","{""num_scrambled_semantic"":""8"",""num_scrambled_causal"":""4"",""num_scrambled_schematic"":""4"",""participantId"":""DAA689D772864BE38800172C85229DDC"",""assignmentId"":""17a30422-f424-40ad-9374-fc114fb46d99"",""projectId"":""ba640c14-69c5-453e-80b2-29051492c0e0""}","https://test12345.live/?num_scrambled_semantic=8&num_scrambled_causal=4&num_scrambled_schematic=4&participantId=DAA689D772864BE38800172C85229DDC&assignmentId=17a30422-f424-40ad-9374-fc114fb46d99&projectId=ba640c14-69c5-453e-80b2-29051492c0e0","DAA689D772864BE38800172C85229DDC-2025-05-14-20-53-20","","1771","","images/schematic_sequence/dinner_party_scheme/dinner_party_scheme_2.png","1","",""
"","","","","","image-button-response","97","621547","0.0-14.0-1.0-2.2","DAA689D772864BE38800172C85229DDC","DAA689D772864BE38800172C85229DDC","17a30422-f424-40ad-9374-fc114fb46d99","ba640c14-69c5-453e-80b2-29051492c0e0","{""num_scrambled_semantic"":""8"",""num_scrambled_causal"":""4"",""num_scrambled_schematic"":""4"",""participantId"":""DAA689D772864BE38800172C85229DDC"",""assignmentId"":""17a30422-f424-40ad-9374-fc114fb46d99"",""projectId"":""ba640c14-69c5-453e-80b2-29051492c0e0""}","https://test12345.live/?num_scrambled_semantic=8&num_scrambled_causal=4&num_scrambled_schematic=4&participantId=DAA689D772864BE38800172C85229DDC&assignmentId=17a30422-f424-40ad-9374-fc114fb46d99&projectId=ba640c14-69c5-453e-80b2-29051492c0e0","DAA689D772864BE38800172C85229DDC-2025-05-14-20-53-20","","null","","[]","null","",""
"","","","","","image-button-response","98","627033","0.0-14.0-1.0-0.3","DAA689D772864BE38800172C85229DDC","DAA689D772864BE38800172C85229DDC","17a30422-f424-40ad-9374-fc114fb46d99","ba640c14-69c5-453e-80b2-29051492c0e0","{""num_scrambled_semantic"":""8"",""num_scrambled_causal"":""4"",""num_scrambled_schematic"":""4"",""participantId"":""DAA689D772864BE38800172C85229DDC"",""assignmentId"":""17a30422-f424-40ad-9374-fc114fb46d99"",""projectId"":""ba640c14-69c5-453e-80b2-29051492c0e0""}","https://test12345.live/?num_scrambled_semantic=8&num_scrambled_causal=4&num_scrambled_schematic=4&participantId=DAA689D772864BE38800172C85229DDC&assignmentId=17a30422-f424-40ad-9374-fc114fb46d99&projectId=ba640c14-69c5-453e-80b2-29051492c0e0","DAA689D772864BE38800172C85229DDC-2025-05-14-20-53-20","","null","","images/schematic_sequence/dinner_party_scheme/dinner_party_scheme_7.png","null","",""
"","","","","","image-button-response","99","629280","0.0-14.0-1.0-1.3","DAA689D772864BE38800172C85229DDC","DAA689D772864BE38800172C85229DDC","17a30422-f424-40ad-9374-fc114fb46d99","ba640c14-69c5-453e-80b2-29051492c0e0","{""num_scrambled_semantic"":""8"",""num_scrambled_causal"":""4"",""num_scrambled_schematic"":""4"",""participantId"":""DAA689D772864BE38800172C85229DDC"",""assignmentId"":""17a30422-f424-40ad-9374-fc114fb46d99"",""projectId"":""ba640c14-69c5-453e-80b2-29051492c0e0""}","https://test12345.live/?num_scrambled_semantic=8&num_scrambled_causal=4&num_scrambled_schematic=4&participantId=DAA689D772864BE38800172C85229DDC&assignmentId=17a30422-f424-40ad-9374-fc114fb46d99&projectId=ba640c14-69c5-453e-80b2-29051492c0e0","DAA689D772864BE38800172C85229DDC-2025-05-14-20-53-20","","2239","","images/schematic_sequence/dinner_party_scheme/dinner_party_scheme_7.png","0","",""
"","","","","","image-button-response","100","631098","0.0-14.0-1.0-2.3","DAA689D772864BE38800172C85229DDC","DAA689D772864BE38800172C85229DDC","17a30422-f424-40ad-9374-fc114fb46d99","ba640c14-69c5-453e-80b2-29051492c0e0","{""num_scrambled_semantic"":""8"",""num_scrambled_causal"":""4"",""num_scrambled_schematic"":""4"",""participantId"":""DAA689D772864BE38800172C85229DDC"",""assignmentId"":""17a30422-f424-40ad-9374-fc114fb46d99"",""projectId"":""ba640c14-69c5-453e-80b2-29051492c0e0""}","https://test12345.live/?num_scrambled_semantic=8&num_scrambled_causal=4&num_scrambled_schematic=4&participantId=DAA689D772864BE38800172C85229DDC&assignmentId=17a30422-f424-40ad-9374-fc114fb46d99&projectId=ba640c14-69c5-453e-80b2-29051492c0e0","DAA689D772864BE38800172C85229DDC-2025-05-14-20-53-20","","null","","[]","null","",""
"","","","","","image-button-response","101","635609","0.0-14.0-1.0-0.4","DAA689D772864BE38800172C85229DDC","DAA689D772864BE38800172C85229DDC","17a30422-f424-40ad-9374-fc114fb46d99","ba640c14-69c5-453e-80b2-29051492c0e0","{""num_scrambled_semantic"":""8"",""num_scrambled_causal"":""4"",""num_scrambled_schematic"":""4"",""participantId"":""DAA689D772864BE38800172C85229DDC"",""assignmentId"":""17a30422-f424-40ad-9374-fc114fb46d99"",""projectId"":""ba640c14-69c5-453e-80b2-29051492c0e0""}","https://test12345.live/?num_scrambled_semantic=8&num_scrambled_causal=4&num_scrambled_schematic=4&participantId=DAA689D772864BE38800172C85229DDC&assignmentId=17a30422-f424-40ad-9374-fc114fb46d99&projectId=ba640c14-69c5-453e-80b2-29051492c0e0","DAA689D772864BE38800172C85229DDC-2025-05-14-20-53-20","","null","","images/schematic_sequence/dinner_party_scheme/dinner_party_scheme_ten.png","null","",""
"","","","","","image-button-response","102","637433","0.0-14.0-1.0-1.4","DAA689D772864BE38800172C85229DDC","DAA689D772864BE38800172C85229DDC","17a30422-f424-40ad-9374-fc114fb46d99","ba640c14-69c5-453e-80b2-29051492c0e0","{""num_scrambled_semantic"":""8"",""num_scrambled_causal"":""4"",""num_scrambled_schematic"":""4"",""participantId"":""DAA689D772864BE38800172C85229DDC"",""assignmentId"":""17a30422-f424-40ad-9374-fc114fb46d99"",""projectId"":""ba640c14-69c5-453e-80b2-29051492c0e0""}","https://test12345.live/?num_scrambled_semantic=8&num_scrambled_causal=4&num_scrambled_schematic=4&participantId=DAA689D772864BE38800172C85229DDC&assignmentId=17a30422-f424-40ad-9374-fc114fb46d99&projectId=ba640c14-69c5-453e-80b2-29051492c0e0","DAA689D772864BE38800172C85229DDC-2025-05-14-20-53-20","","1797","","images/schematic_sequence/dinner_party_scheme/dinner_party_scheme_ten.png","0","",""
"","","","","","image-button-response","103","639241","0.0-14.0-1.0-2.4","DAA689D772864BE38800172C85229DDC","DAA689D772864BE38800172C85229DDC","17a30422-f424-40ad-9374-fc114fb46d99","ba640c14-69c5-453e-80b2-29051492c0e0","{""num_scrambled_semantic"":""8"",""num_scrambled_causal"":""4"",""num_scrambled_schematic"":""4"",""participantId"":""DAA689D772864BE38800172C85229DDC"",""assignmentId"":""17a30422-f424-40ad-9374-fc114fb46d99"",""projectId"":""ba640c14-69c5-453e-80b2-29051492c0e0""}","https://test12345.live/?num_scrambled_semantic=8&num_scrambled_causal=4&num_scrambled_schematic=4&participantId=DAA689D772864BE38800172C85229DDC&assignmentId=17a30422-f424-40ad-9374-fc114fb46d99&projectId=ba640c14-69c5-453e-80b2-29051492c0e0","DAA689D772864BE38800172C85229DDC-2025-05-14-20-53-20","","null","","[]","null","",""
"","","","","","image-button-response","104","643748","0.0-14.0-1.0-0.5","DAA689D772864BE38800172C85229DDC","DAA689D772864BE38800172C85229DDC","17a30422-f424-40ad-9374-fc114fb46d99","ba640c14-69c5-453e-80b2-29051492c0e0","{""num_scrambled_semantic"":""8"",""num_scrambled_causal"":""4"",""num_scrambled_schematic"":""4"",""participantId"":""DAA689D772864BE38800172C85229DDC"",""assignmentId"":""17a30422-f424-40ad-9374-fc114fb46d99"",""projectId"":""ba640c14-69c5-453e-80b2-29051492c0e0""}","https://test12345.live/?num_scrambled_semantic=8&num_scrambled_causal=4&num_scrambled_schematic=4&participantId=DAA689D772864BE38800172C85229DDC&assignmentId=17a30422-f424-40ad-9374-fc114fb46d99&projectId=ba640c14-69c5-453e-80b2-29051492c0e0","DAA689D772864BE38800172C85229DDC-2025-05-14-20-53-20","","null","","images/schematic_sequence/dinner_party_scheme/dinner_party_scheme_6.png","null","",""
"","","","","","image-button-response","105","645986","0.0-14.0-1.0-1.5","DAA689D772864BE38800172C85229DDC","DAA689D772864BE38800172C85229DDC","17a30422-f424-40ad-9374-fc114fb46d99","ba640c14-69c5-453e-80b2-29051492c0e0","{""num_scrambled_semantic"":""8"",""num_scrambled_causal"":""4"",""num_scrambled_schematic"":""4"",""participantId"":""DAA689D772864BE38800172C85229DDC"",""assignmentId"":""17a30422-f424-40ad-9374-fc114fb46d99"",""projectId"":""ba640c14-69c5-453e-80b2-29051492c0e0""}","https://test12345.live/?num_scrambled_semantic=8&num_scrambled_causal=4&num_scrambled_schematic=4&participantId=DAA689D772864BE38800172C85229DDC&assignmentId=17a30422-f424-40ad-9374-fc114fb46d99&projectId=ba640c14-69c5-453e-80b2-29051492c0e0","DAA689D772864BE38800172C85229DDC-2025-05-14-20-53-20","","2236","","images/schematic_sequence/dinner_party_scheme/dinner_party_scheme_6.png","0","",""
"","","","","","image-button-response","106","647807","0.0-14.0-1.0-2.5","DAA689D772864BE38800172C85229DDC","DAA689D772864BE38800172C85229DDC","17a30422-f424-40ad-9374-fc114fb46d99","ba640c14-69c5-453e-80b2-29051492c0e0","{""num_scrambled_semantic"":""8"",""num_scrambled_causal"":""4"",""num_scrambled_schematic"":""4"",""participantId"":""DAA689D772864BE38800172C85229DDC"",""assignmentId"":""17a30422-f424-40ad-9374-fc114fb46d99"",""projectId"":""ba640c14-69c5-453e-80b2-29051492c0e0""}","https://test12345.live/?num_scrambled_semantic=8&num_scrambled_causal=4&num_scrambled_schematic=4&participantId=DAA689D772864BE38800172C85229DDC&assignmentId=17a30422-f424-40ad-9374-fc114fb46d99&projectId=ba640c14-69c5-453e-80b2-29051492c0e0","DAA689D772864BE38800172C85229DDC-2025-05-14-20-53-20","","null","","[]","null","",""
"","","","","","image-button-response","107","652328","0.0-14.0-1.0-0.6","DAA689D772864BE38800172C85229DDC","DAA689D772864BE38800172C85229DDC","17a30422-f424-40ad-9374-fc114fb46d99","ba640c14-69c5-453e-80b2-29051492c0e0","{""num_scrambled_semantic"":""8"",""num_scrambled_causal"":""4"",""num_scrambled_schematic"":""4"",""participantId"":""DAA689D772864BE38800172C85229DDC"",""assignmentId"":""17a30422-f424-40ad-9374-fc114fb46d99"",""projectId"":""ba640c14-69c5-453e-80b2-29051492c0e0""}","https://test12345.live/?num_scrambled_semantic=8&num_scrambled_causal=4&num_scrambled_schematic=4&participantId=DAA689D772864BE38800172C85229DDC&assignmentId=17a30422-f424-40ad-9374-fc114fb46d99&projectId=ba640c14-69c5-453e-80b2-29051492c0e0","DAA689D772864BE38800172C85229DDC-2025-05-14-20-53-20","","null","","images/schematic_sequence/dinner_party_scheme/dinner_party_scheme_4.png","null","",""
"","","","","","image-button-response","108","656336","0.0-14.0-1.0-1.6","DAA689D772864BE38800172C85229DDC","DAA689D772864BE38800172C85229DDC","17a30422-f424-40ad-9374-fc114fb46d99","ba640c14-69c5-453e-80b2-29051492c0e0","{""num_scrambled_semantic"":""8"",""num_scrambled_causal"":""4"",""num_scrambled_schematic"":""4"",""participantId"":""DAA689D772864BE38800172C85229DDC"",""assignmentId"":""17a30422-f424-40ad-9374-fc114fb46d99"",""projectId"":""ba640c14-69c5-453e-80b2-29051492c0e0""}","https://test12345.live/?num_scrambled_semantic=8&num_scrambled_causal=4&num_scrambled_schematic=4&participantId=DAA689D772864BE38800172C85229DDC&assignmentId=17a30422-f424-40ad-9374-fc114fb46d99&projectId=ba640c14-69c5-453e-80b2-29051492c0e0","DAA689D772864BE38800172C85229DDC-2025-05-14-20-53-20","","null","","images/schematic_sequence/dinner_party_scheme/dinner_party_scheme_4.png","null","",""
"","","","","","image-button-response","109","658161","0.0-14.0-1.0-2.6","DAA689D772864BE38800172C85229DDC","DAA689D772864BE38800172C85229DDC","17a30422-f424-40ad-9374-fc114fb46d99","ba640c14-69c5-453e-80b2-29051492c0e0","{""num_scrambled_semantic"":""8"",""num_scrambled_causal"":""4"",""num_scrambled_schematic"":""4"",""participantId"":""DAA689D772864BE38800172C85229DDC"",""assignmentId"":""17a30422-f424-40ad-9374-fc114fb46d99"",""projectId"":""ba640c14-69c5-453e-80b2-29051492c0e0""}","https://test12345.live/?num_scrambled_semantic=8&num_scrambled_causal=4&num_scrambled_schematic=4&participantId=DAA689D772864BE38800172C85229DDC&assignmentId=17a30422-f424-40ad-9374-fc114fb46d99&projectId=ba640c14-69c5-453e-80b2-29051492c0e0","DAA689D772864BE38800172C85229DDC-2025-05-14-20-53-20","","null","","[]","null","",""
"","","","","","image-button-response","110","662668","0.0-14.0-1.0-0.7","DAA689D772864BE38800172C85229DDC","DAA689D772864BE38800172C85229DDC","17a30422-f424-40ad-9374-fc114fb46d99","ba640c14-69c5-453e-80b2-29051492c0e0","{""num_scrambled_semantic"":""8"",""num_scrambled_causal"":""4"",""num_scrambled_schematic"":""4"",""participantId"":""DAA689D772864BE38800172C85229DDC"",""assignmentId"":""17a30422-f424-40ad-9374-fc114fb46d99"",""projectId"":""ba640c14-69c5-453e-80b2-29051492c0e0""}","https://test12345.live/?num_scrambled_semantic=8&num_scrambled_causal=4&num_scrambled_schematic=4&participantId=DAA689D772864BE38800172C85229DDC&assignmentId=17a30422-f424-40ad-9374-fc114fb46d99&projectId=ba640c14-69c5-453e-80b2-29051492c0e0","DAA689D772864BE38800172C85229DDC-2025-05-14-20-53-20","","null","","images/schematic_sequence/dinner_party_scheme/dinner_party_scheme_8.png","null","",""
"","","","","","image-button-response","111","663915","0.0-14.0-1.0-1.7","DAA689D772864BE38800172C85229DDC","DAA689D772864BE38800172C85229DDC","17a30422-f424-40ad-9374-fc114fb46d99","ba640c14-69c5-453e-80b2-29051492c0e0","{""num_scrambled_semantic"":""8"",""num_scrambled_causal"":""4"",""num_scrambled_schematic"":""4"",""participantId"":""DAA689D772864BE38800172C85229DDC"",""assignmentId"":""17a30422-f424-40ad-9374-fc114fb46d99"",""projectId"":""ba640c14-69c5-453e-80b2-29051492c0e0""}","https://test12345.live/?num_scrambled_semantic=8&num_scrambled_causal=4&num_scrambled_schematic=4&participantId=DAA689D772864BE38800172C85229DDC&assignmentId=17a30422-f424-40ad-9374-fc114fb46d99&projectId=ba640c14-69c5-453e-80b2-29051492c0e0","DAA689D772864BE38800172C85229DDC-2025-05-14-20-53-20","","1227","","images/schematic_sequence/dinner_party_scheme/dinner_party_scheme_8.png","0","",""
"","","","","","image-button-response","112","665728","0.0-14.0-1.0-2.7","DAA689D772864BE38800172C85229DDC","DAA689D772864BE38800172C85229DDC","17a30422-f424-40ad-9374-fc114fb46d99","ba640c14-69c5-453e-80b2-29051492c0e0","{""num_scrambled_semantic"":""8"",""num_scrambled_causal"":""4"",""num_scrambled_schematic"":""4"",""participantId"":""DAA689D772864BE38800172C85229DDC"",""assignmentId"":""17a30422-f424-40ad-9374-fc114fb46d99"",""projectId"":""ba640c14-69c5-453e-80b2-29051492c0e0""}","https://test12345.live/?num_scrambled_semantic=8&num_scrambled_causal=4&num_scrambled_schematic=4&participantId=DAA689D772864BE38800172C85229DDC&assignmentId=17a30422-f424-40ad-9374-fc114fb46d99&projectId=ba640c14-69c5-453e-80b2-29051492c0e0","DAA689D772864BE38800172C85229DDC-2025-05-14-20-53-20","","null","","[]","null","",""
"","","","","","image-button-response","113","670251","0.0-14.0-1.0-0.8","DAA689D772864BE38800172C85229DDC","DAA689D772864BE38800172C85229DDC","17a30422-f424-40ad-9374-fc114fb46d99","ba640c14-69c5-453e-80b2-29051492c0e0","{""num_scrambled_semantic"":""8"",""num_scrambled_causal"":""4"",""num_scrambled_schematic"":""4"",""participantId"":""DAA689D772864BE38800172C85229DDC"",""assignmentId"":""17a30422-f424-40ad-9374-fc114fb46d99"",""projectId"":""ba640c14-69c5-453e-80b2-29051492c0e0""}","https://test12345.live/?num_scrambled_semantic=8&num_scrambled_causal=4&num_scrambled_schematic=4&participantId=DAA689D772864BE38800172C85229DDC&assignmentId=17a30422-f424-40ad-9374-fc114fb46d99&projectId=ba640c14-69c5-453e-80b2-29051492c0e0","DAA689D772864BE38800172C85229DDC-2025-05-14-20-53-20","","null","","images/schematic_sequence/dinner_party_scheme/dinner_party_scheme_5.png","null","",""
"","","","","","image-button-response","114","674272","0.0-14.0-1.0-1.8","DAA689D772864BE38800172C85229DDC","DAA689D772864BE38800172C85229DDC","17a30422-f424-40ad-9374-fc114fb46d99","ba640c14-69c5-453e-80b2-29051492c0e0","{""num_scrambled_semantic"":""8"",""num_scrambled_causal"":""4"",""num_scrambled_schematic"":""4"",""participantId"":""DAA689D772864BE38800172C85229DDC"",""assignmentId"":""17a30422-f424-40ad-9374-fc114fb46d99"",""projectId"":""ba640c14-69c5-453e-80b2-29051492c0e0""}","https://test12345.live/?num_scrambled_semantic=8&num_scrambled_causal=4&num_scrambled_schematic=4&participantId=DAA689D772864BE38800172C85229DDC&assignmentId=17a30422-f424-40ad-9374-fc114fb46d99&projectId=ba640c14-69c5-453e-80b2-29051492c0e0","DAA689D772864BE38800172C85229DDC-2025-05-14-20-53-20","","null","","images/schematic_sequence/dinner_party_scheme/dinner_party_scheme_5.png","null","",""
