"success","timeout","failed_images","failed_audio","failed_video","trial_type","trial_index","time_elapsed","internal_node_id","subject","subject_id","study_id","session_id","urlvar","current_url","audio_id","view_history","rt","device_id","stimulus","response","estimated_stimulus_onset","seq_name"
"true","false","[]","[]","[]","preload","0","276","0.0-0.0","DB500201701B429AA08CAE64378B09D9","DB500201701B429AA08CAE64378B09D9","e1f7e97e-9808-495e-a187-8f9b9204e746","742ed384-456e-4a46-b422-5d3d313078b8","{""num_scrambled_semantic"":""8"",""num_scrambled_causal"":""4"",""num_scrambled_schematic"":""4"",""participantId"":""DB500201701B429AA08CAE64378B09D9"",""assignmentId"":""e1f7e97e-9808-495e-a187-8f9b9204e746"",""projectId"":""742ed384-456e-4a46-b422-5d3d313078b8""}","https://test12345.live/?num_scrambled_semantic=8&num_scrambled_causal=4&num_scrambled_schematic=4&participantId=DB500201701B429AA08CAE64378B09D9&assignmentId=e1f7e97e-9808-495e-a187-8f9b9204e746&projectId=742ed384-456e-4a46-b422-5d3d313078b8","DB500201701B429AA08CAE64378B09D9-2025-08-07-05-58-55","","","","","","",""
"","","","","","instructions","1","18226","0.0-1.0","DB500201701B429AA08CAE64378B09D9","DB500201701B429AA08CAE64378B09D9","e1f7e97e-9808-495e-a187-8f9b9204e746","742ed384-456e-4a46-b422-5d3d313078b8","{""num_scrambled_semantic"":""8"",""num_scrambled_causal"":""4"",""num_scrambled_schematic"":""4"",""participantId"":""DB500201701B429AA08CAE64378B09D9"",""assignmentId"":""e1f7e97e-9808-495e-a187-8f9b9204e746"",""projectId"":""742ed384-456e-4a46-b422-5d3d313078b8""}","https://test12345.live/?num_scrambled_semantic=8&num_scrambled_causal=4&num_scrambled_schematic=4&participantId=DB500201701B429AA08CAE64378B09D9&assignmentId=e1f7e97e-9808-495e-a187-8f9b9204e746&projectId=742ed384-456e-4a46-b422-5d3d313078b8","DB500201701B429AA08CAE64378B09D9-2025-08-07-05-58-55","[{""page_index"":0,""viewing_time"":17948}]","17949","","","","",""
"","","","","","instructions","2","21874","0.0-2.0","DB500201701B429AA08CAE64378B09D9","DB500201701B429AA08CAE64378B09D9","e1f7e97e-9808-495e-a187-8f9b9204e746","742ed384-456e-4a46-b422-5d3d313078b8","{""num_scrambled_semantic"":""8"",""num_scrambled_causal"":""4"",""num_scrambled_schematic"":""4"",""participantId"":""DB500201701B429AA08CAE64378B09D9"",""assignmentId"":""e1f7e97e-9808-495e-a187-8f9b9204e746"",""projectId"":""742ed384-456e-4a46-b422-5d3d313078b8""}","https://test12345.live/?num_scrambled_semantic=8&num_scrambled_causal=4&num_scrambled_schematic=4&participantId=DB500201701B429AA08CAE64378B09D9&assignmentId=e1f7e97e-9808-495e-a187-8f9b9204e746&projectId=742ed384-456e-4a46-b422-5d3d313078b8","DB500201701B429AA08CAE64378B09D9-2025-08-07-05-58-55","[{""page_index"":0,""viewing_time"":3647}]","3648","","","","",""
"true","","","","","fullscreen","3","24322","0.0-3.0","DB500201701B429AA08CAE64378B09D9","DB500201701B429AA08CAE64378B09D9","e1f7e97e-9808-495e-a187-8f9b9204e746","742ed384-456e-4a46-b422-5d3d313078b8","{""num_scrambled_semantic"":""8"",""num_scrambled_causal"":""4"",""num_scrambled_schematic"":""4"",""participantId"":""DB500201701B429AA08CAE64378B09D9"",""assignmentId"":""e1f7e97e-9808-495e-a187-8f9b9204e746"",""projectId"":""742ed384-456e-4a46-b422-5d3d313078b8""}","https://test12345.live/?num_scrambled_semantic=8&num_scrambled_causal=4&num_scrambled_schematic=4&participantId=DB500201701B429AA08CAE64378B09D9&assignmentId=e1f7e97e-9808-495e-a187-8f9b9204e746&projectId=742ed384-456e-4a46-b422-5d3d313078b8","DB500201701B429AA08CAE64378B09D9-2025-08-07-05-58-55","","1444","","","","",""
"","","","","","initialize-microphone","4","26751","0.0-4.0-0.0","DB500201701B429AA08CAE64378B09D9","DB500201701B429AA08CAE64378B09D9","e1f7e97e-9808-495e-a187-8f9b9204e746","742ed384-456e-4a46-b422-5d3d313078b8","{""num_scrambled_semantic"":""8"",""num_scrambled_causal"":""4"",""num_scrambled_schematic"":""4"",""participantId"":""DB500201701B429AA08CAE64378B09D9"",""assignmentId"":""e1f7e97e-9808-495e-a187-8f9b9204e746"",""projectId"":""742ed384-456e-4a46-b422-5d3d313078b8""}","https://test12345.live/?num_scrambled_semantic=8&num_scrambled_causal=4&num_scrambled_schematic=4&participantId=DB500201701B429AA08CAE64378B09D9&assignmentId=e1f7e97e-9808-495e-a187-8f9b9204e746&projectId=742ed384-456e-4a46-b422-5d3d313078b8","DB500201701B429AA08CAE64378B09D9-2025-08-07-05-58-55","","","67b4cb2c6f02485f182d0bdbba0ef1d3cbd01724e2d03235c66a91b97ce68316","","","",""
"","","","","","html-audio-response","5","36485","0.0-4.0-1.0","DB500201701B429AA08CAE64378B09D9","DB500201701B429AA08CAE64378B09D9","e1f7e97e-9808-495e-a187-8f9b9204e746","742ed384-456e-4a46-b422-5d3d313078b8","{""num_scrambled_semantic"":""8"",""num_scrambled_causal"":""4"",""num_scrambled_schematic"":""4"",""participantId"":""DB500201701B429AA08CAE64378B09D9"",""assignmentId"":""e1f7e97e-9808-495e-a187-8f9b9204e746"",""projectId"":""742ed384-456e-4a46-b422-5d3d313078b8""}","https://test12345.live/?num_scrambled_semantic=8&num_scrambled_causal=4&num_scrambled_schematic=4&participantId=DB500201701B429AA08CAE64378B09D9&assignmentId=e1f7e97e-9808-495e-a187-8f9b9204e746&projectId=742ed384-456e-4a46-b422-5d3d313078b8","DB500201701B429AA08CAE64378B09D9-2025-08-07-05-58-55","","3388","","<span style=""color: red; font-size: 24px""> NOW RECORDING</span>
        <p>Please test Microphone</p>","","3",""
"","","","","","html-button-response","6","37481","0.0-4.0-2.0","DB500201701B429AA08CAE64378B09D9","DB500201701B429AA08CAE64378B09D9","e1f7e97e-9808-495e-a187-8f9b9204e746","742ed384-456e-4a46-b422-5d3d313078b8","{""num_scrambled_semantic"":""8"",""num_scrambled_causal"":""4"",""num_scrambled_schematic"":""4"",""participantId"":""DB500201701B429AA08CAE64378B09D9"",""assignmentId"":""e1f7e97e-9808-495e-a187-8f9b9204e746"",""projectId"":""742ed384-456e-4a46-b422-5d3d313078b8""}","https://test12345.live/?num_scrambled_semantic=8&num_scrambled_causal=4&num_scrambled_schematic=4&participantId=DB500201701B429AA08CAE64378B09D9&assignmentId=e1f7e97e-9808-495e-a187-8f9b9204e746&projectId=742ed384-456e-4a46-b422-5d3d313078b8","DB500201701B429AA08CAE64378B09D9-2025-08-07-05-58-55","","994","","<p style=""font-size:48px; color:red;"">Is Microphone OK?</p>","1","",""
"","","","","","instructions","7","40660","0.0-5.0","DB500201701B429AA08CAE64378B09D9","DB500201701B429AA08CAE64378B09D9","e1f7e97e-9808-495e-a187-8f9b9204e746","742ed384-456e-4a46-b422-5d3d313078b8","{""num_scrambled_semantic"":""8"",""num_scrambled_causal"":""4"",""num_scrambled_schematic"":""4"",""participantId"":""DB500201701B429AA08CAE64378B09D9"",""assignmentId"":""e1f7e97e-9808-495e-a187-8f9b9204e746"",""projectId"":""742ed384-456e-4a46-b422-5d3d313078b8""}","https://test12345.live/?num_scrambled_semantic=8&num_scrambled_causal=4&num_scrambled_schematic=4&participantId=DB500201701B429AA08CAE64378B09D9&assignmentId=e1f7e97e-9808-495e-a187-8f9b9204e746&projectId=742ed384-456e-4a46-b422-5d3d313078b8","DB500201701B429AA08CAE64378B09D9-2025-08-07-05-58-55","[{""page_index"":0,""viewing_time"":1647},{""page_index"":1,""viewing_time"":1532}]","3179","","","","",""
"","","","","","image-button-response","8","46669","0.0-6.0-0.0","DB500201701B429AA08CAE64378B09D9","DB500201701B429AA08CAE64378B09D9","e1f7e97e-9808-495e-a187-8f9b9204e746","742ed384-456e-4a46-b422-5d3d313078b8","{""num_scrambled_semantic"":""8"",""num_scrambled_causal"":""4"",""num_scrambled_schematic"":""4"",""participantId"":""DB500201701B429AA08CAE64378B09D9"",""assignmentId"":""e1f7e97e-9808-495e-a187-8f9b9204e746"",""projectId"":""742ed384-456e-4a46-b422-5d3d313078b8""}","https://test12345.live/?num_scrambled_semantic=8&num_scrambled_causal=4&num_scrambled_schematic=4&participantId=DB500201701B429AA08CAE64378B09D9&assignmentId=e1f7e97e-9808-495e-a187-8f9b9204e746&projectId=742ed384-456e-4a46-b422-5d3d313078b8","DB500201701B429AA08CAE64378B09D9-2025-08-07-05-58-55","","null","","images/instructions/movie_0.png","null","",""
"","","","","","image-button-response","9","51179","0.0-6.0-1.0-0.0","DB500201701B429AA08CAE64378B09D9","DB500201701B429AA08CAE64378B09D9","e1f7e97e-9808-495e-a187-8f9b9204e746","742ed384-456e-4a46-b422-5d3d313078b8","{""num_scrambled_semantic"":""8"",""num_scrambled_causal"":""4"",""num_scrambled_schematic"":""4"",""participantId"":""DB500201701B429AA08CAE64378B09D9"",""assignmentId"":""e1f7e97e-9808-495e-a187-8f9b9204e746"",""projectId"":""742ed384-456e-4a46-b422-5d3d313078b8""}","https://test12345.live/?num_scrambled_semantic=8&num_scrambled_causal=4&num_scrambled_schematic=4&participantId=DB500201701B429AA08CAE64378B09D9&assignmentId=e1f7e97e-9808-495e-a187-8f9b9204e746&projectId=742ed384-456e-4a46-b422-5d3d313078b8","DB500201701B429AA08CAE64378B09D9-2025-08-07-05-58-55","","null","","images/instructions/movie_1.png","null","",""
"","","","","","image-button-response","10","51986","0.0-6.0-1.0-1.0","DB500201701B429AA08CAE64378B09D9","DB500201701B429AA08CAE64378B09D9","e1f7e97e-9808-495e-a187-8f9b9204e746","742ed384-456e-4a46-b422-5d3d313078b8","{""num_scrambled_semantic"":""8"",""num_scrambled_causal"":""4"",""num_scrambled_schematic"":""4"",""participantId"":""DB500201701B429AA08CAE64378B09D9"",""assignmentId"":""e1f7e97e-9808-495e-a187-8f9b9204e746"",""projectId"":""742ed384-456e-4a46-b422-5d3d313078b8""}","https://test12345.live/?num_scrambled_semantic=8&num_scrambled_causal=4&num_scrambled_schematic=4&participantId=DB500201701B429AA08CAE64378B09D9&assignmentId=e1f7e97e-9808-495e-a187-8f9b9204e746&projectId=742ed384-456e-4a46-b422-5d3d313078b8","DB500201701B429AA08CAE64378B09D9-2025-08-07-05-58-55","","805","","images/instructions/movie_1.png","0","",""
"","","","","","image-button-response","11","53803","0.0-6.0-1.0-2.0","DB500201701B429AA08CAE64378B09D9","DB500201701B429AA08CAE64378B09D9","e1f7e97e-9808-495e-a187-8f9b9204e746","742ed384-456e-4a46-b422-5d3d313078b8","{""num_scrambled_semantic"":""8"",""num_scrambled_causal"":""4"",""num_scrambled_schematic"":""4"",""participantId"":""DB500201701B429AA08CAE64378B09D9"",""assignmentId"":""e1f7e97e-9808-495e-a187-8f9b9204e746"",""projectId"":""742ed384-456e-4a46-b422-5d3d313078b8""}","https://test12345.live/?num_scrambled_semantic=8&num_scrambled_causal=4&num_scrambled_schematic=4&participantId=DB500201701B429AA08CAE64378B09D9&assignmentId=e1f7e97e-9808-495e-a187-8f9b9204e746&projectId=742ed384-456e-4a46-b422-5d3d313078b8","DB500201701B429AA08CAE64378B09D9-2025-08-07-05-58-55","","null","","[]","null","",""
"","","","","","image-button-response","12","58308","0.0-6.0-1.0-0.1","DB500201701B429AA08CAE64378B09D9","DB500201701B429AA08CAE64378B09D9","e1f7e97e-9808-495e-a187-8f9b9204e746","742ed384-456e-4a46-b422-5d3d313078b8","{""num_scrambled_semantic"":""8"",""num_scrambled_causal"":""4"",""num_scrambled_schematic"":""4"",""participantId"":""DB500201701B429AA08CAE64378B09D9"",""assignmentId"":""e1f7e97e-9808-495e-a187-8f9b9204e746"",""projectId"":""742ed384-456e-4a46-b422-5d3d313078b8""}","https://test12345.live/?num_scrambled_semantic=8&num_scrambled_causal=4&num_scrambled_schematic=4&participantId=DB500201701B429AA08CAE64378B09D9&assignmentId=e1f7e97e-9808-495e-a187-8f9b9204e746&projectId=742ed384-456e-4a46-b422-5d3d313078b8","DB500201701B429AA08CAE64378B09D9-2025-08-07-05-58-55","","null","","images/instructions/movie_2.png","null","",""
"","","","","","image-button-response","13","59019","0.0-6.0-1.0-1.1","DB500201701B429AA08CAE64378B09D9","DB500201701B429AA08CAE64378B09D9","e1f7e97e-9808-495e-a187-8f9b9204e746","742ed384-456e-4a46-b422-5d3d313078b8","{""num_scrambled_semantic"":""8"",""num_scrambled_causal"":""4"",""num_scrambled_schematic"":""4"",""participantId"":""DB500201701B429AA08CAE64378B09D9"",""assignmentId"":""e1f7e97e-9808-495e-a187-8f9b9204e746"",""projectId"":""742ed384-456e-4a46-b422-5d3d313078b8""}","https://test12345.live/?num_scrambled_semantic=8&num_scrambled_causal=4&num_scrambled_schematic=4&participantId=DB500201701B429AA08CAE64378B09D9&assignmentId=e1f7e97e-9808-495e-a187-8f9b9204e746&projectId=742ed384-456e-4a46-b422-5d3d313078b8","DB500201701B429AA08CAE64378B09D9-2025-08-07-05-58-55","","709","","images/instructions/movie_2.png","0","",""
"","","","","","image-button-response","14","60826","0.0-6.0-1.0-2.1","DB500201701B429AA08CAE64378B09D9","DB500201701B429AA08CAE64378B09D9","e1f7e97e-9808-495e-a187-8f9b9204e746","742ed384-456e-4a46-b422-5d3d313078b8","{""num_scrambled_semantic"":""8"",""num_scrambled_causal"":""4"",""num_scrambled_schematic"":""4"",""participantId"":""DB500201701B429AA08CAE64378B09D9"",""assignmentId"":""e1f7e97e-9808-495e-a187-8f9b9204e746"",""projectId"":""742ed384-456e-4a46-b422-5d3d313078b8""}","https://test12345.live/?num_scrambled_semantic=8&num_scrambled_causal=4&num_scrambled_schematic=4&participantId=DB500201701B429AA08CAE64378B09D9&assignmentId=e1f7e97e-9808-495e-a187-8f9b9204e746&projectId=742ed384-456e-4a46-b422-5d3d313078b8","DB500201701B429AA08CAE64378B09D9-2025-08-07-05-58-55","","null","","[]","null","",""
"","","","","","image-button-response","15","65334","0.0-6.0-1.0-0.2","DB500201701B429AA08CAE64378B09D9","DB500201701B429AA08CAE64378B09D9","e1f7e97e-9808-495e-a187-8f9b9204e746","742ed384-456e-4a46-b422-5d3d313078b8","{""num_scrambled_semantic"":""8"",""num_scrambled_causal"":""4"",""num_scrambled_schematic"":""4"",""participantId"":""DB500201701B429AA08CAE64378B09D9"",""assignmentId"":""e1f7e97e-9808-495e-a187-8f9b9204e746"",""projectId"":""742ed384-456e-4a46-b422-5d3d313078b8""}","https://test12345.live/?num_scrambled_semantic=8&num_scrambled_causal=4&num_scrambled_schematic=4&participantId=DB500201701B429AA08CAE64378B09D9&assignmentId=e1f7e97e-9808-495e-a187-8f9b9204e746&projectId=742ed384-456e-4a46-b422-5d3d313078b8","DB500201701B429AA08CAE64378B09D9-2025-08-07-05-58-55","","null","","images/instructions/movie_3.png","null","",""
"","","","","","image-button-response","16","66475","0.0-6.0-1.0-1.2","DB500201701B429AA08CAE64378B09D9","DB500201701B429AA08CAE64378B09D9","e1f7e97e-9808-495e-a187-8f9b9204e746","742ed384-456e-4a46-b422-5d3d313078b8","{""num_scrambled_semantic"":""8"",""num_scrambled_causal"":""4"",""num_scrambled_schematic"":""4"",""participantId"":""DB500201701B429AA08CAE64378B09D9"",""assignmentId"":""e1f7e97e-9808-495e-a187-8f9b9204e746"",""projectId"":""742ed384-456e-4a46-b422-5d3d313078b8""}","https://test12345.live/?num_scrambled_semantic=8&num_scrambled_causal=4&num_scrambled_schematic=4&participantId=DB500201701B429AA08CAE64378B09D9&assignmentId=e1f7e97e-9808-495e-a187-8f9b9204e746&projectId=742ed384-456e-4a46-b422-5d3d313078b8","DB500201701B429AA08CAE64378B09D9-2025-08-07-05-58-55","","1138","","images/instructions/movie_3.png","0","",""
"","","","","","image-button-response","17","68287","0.0-6.0-1.0-2.2","DB500201701B429AA08CAE64378B09D9","DB500201701B429AA08CAE64378B09D9","e1f7e97e-9808-495e-a187-8f9b9204e746","742ed384-456e-4a46-b422-5d3d313078b8","{""num_scrambled_semantic"":""8"",""num_scrambled_causal"":""4"",""num_scrambled_schematic"":""4"",""participantId"":""DB500201701B429AA08CAE64378B09D9"",""assignmentId"":""e1f7e97e-9808-495e-a187-8f9b9204e746"",""projectId"":""742ed384-456e-4a46-b422-5d3d313078b8""}","https://test12345.live/?num_scrambled_semantic=8&num_scrambled_causal=4&num_scrambled_schematic=4&participantId=DB500201701B429AA08CAE64378B09D9&assignmentId=e1f7e97e-9808-495e-a187-8f9b9204e746&projectId=742ed384-456e-4a46-b422-5d3d313078b8","DB500201701B429AA08CAE64378B09D9-2025-08-07-05-58-55","","null","","[]","null","",""
"","","","","","image-button-response","18","72798","0.0-6.0-1.0-0.3","DB500201701B429AA08CAE64378B09D9","DB500201701B429AA08CAE64378B09D9","e1f7e97e-9808-495e-a187-8f9b9204e746","742ed384-456e-4a46-b422-5d3d313078b8","{""num_scrambled_semantic"":""8"",""num_scrambled_causal"":""4"",""num_scrambled_schematic"":""4"",""participantId"":""DB500201701B429AA08CAE64378B09D9"",""assignmentId"":""e1f7e97e-9808-495e-a187-8f9b9204e746"",""projectId"":""742ed384-456e-4a46-b422-5d3d313078b8""}","https://test12345.live/?num_scrambled_semantic=8&num_scrambled_causal=4&num_scrambled_schematic=4&participantId=DB500201701B429AA08CAE64378B09D9&assignmentId=e1f7e97e-9808-495e-a187-8f9b9204e746&projectId=742ed384-456e-4a46-b422-5d3d313078b8","DB500201701B429AA08CAE64378B09D9-2025-08-07-05-58-55","","null","","images/instructions/movie_4.png","null","",""
"","","","","","image-button-response","19","73360","0.0-6.0-1.0-1.3","DB500201701B429AA08CAE64378B09D9","DB500201701B429AA08CAE64378B09D9","e1f7e97e-9808-495e-a187-8f9b9204e746","742ed384-456e-4a46-b422-5d3d313078b8","{""num_scrambled_semantic"":""8"",""num_scrambled_causal"":""4"",""num_scrambled_schematic"":""4"",""participantId"":""DB500201701B429AA08CAE64378B09D9"",""assignmentId"":""e1f7e97e-9808-495e-a187-8f9b9204e746"",""projectId"":""742ed384-456e-4a46-b422-5d3d313078b8""}","https://test12345.live/?num_scrambled_semantic=8&num_scrambled_causal=4&num_scrambled_schematic=4&participantId=DB500201701B429AA08CAE64378B09D9&assignmentId=e1f7e97e-9808-495e-a187-8f9b9204e746&projectId=742ed384-456e-4a46-b422-5d3d313078b8","DB500201701B429AA08CAE64378B09D9-2025-08-07-05-58-55","","560","","images/instructions/movie_4.png","0","",""
"","","","","","image-button-response","20","75170","0.0-6.0-1.0-2.3","DB500201701B429AA08CAE64378B09D9","DB500201701B429AA08CAE64378B09D9","e1f7e97e-9808-495e-a187-8f9b9204e746","742ed384-456e-4a46-b422-5d3d313078b8","{""num_scrambled_semantic"":""8"",""num_scrambled_causal"":""4"",""num_scrambled_schematic"":""4"",""participantId"":""DB500201701B429AA08CAE64378B09D9"",""assignmentId"":""e1f7e97e-9808-495e-a187-8f9b9204e746"",""projectId"":""742ed384-456e-4a46-b422-5d3d313078b8""}","https://test12345.live/?num_scrambled_semantic=8&num_scrambled_causal=4&num_scrambled_schematic=4&participantId=DB500201701B429AA08CAE64378B09D9&assignmentId=e1f7e97e-9808-495e-a187-8f9b9204e746&projectId=742ed384-456e-4a46-b422-5d3d313078b8","DB500201701B429AA08CAE64378B09D9-2025-08-07-05-58-55","","null","","[]","null","",""
"","","","","","instructions","21","78396","0.0-7.0","DB500201701B429AA08CAE64378B09D9","DB500201701B429AA08CAE64378B09D9","e1f7e97e-9808-495e-a187-8f9b9204e746","742ed384-456e-4a46-b422-5d3d313078b8","{""num_scrambled_semantic"":""8"",""num_scrambled_causal"":""4"",""num_scrambled_schematic"":""4"",""participantId"":""DB500201701B429AA08CAE64378B09D9"",""assignmentId"":""e1f7e97e-9808-495e-a187-8f9b9204e746"",""projectId"":""742ed384-456e-4a46-b422-5d3d313078b8""}","https://test12345.live/?num_scrambled_semantic=8&num_scrambled_causal=4&num_scrambled_schematic=4&participantId=DB500201701B429AA08CAE64378B09D9&assignmentId=e1f7e97e-9808-495e-a187-8f9b9204e746&projectId=742ed384-456e-4a46-b422-5d3d313078b8","DB500201701B429AA08CAE64378B09D9-2025-08-07-05-58-55","[{""page_index"":0,""viewing_time"":1706},{""page_index"":1,""viewing_time"":1519}]","3225","","","","",""
"","","","","","html-audio-response","22","97278","0.0-8.0","DB500201701B429AA08CAE64378B09D9","DB500201701B429AA08CAE64378B09D9","e1f7e97e-9808-495e-a187-8f9b9204e746","742ed384-456e-4a46-b422-5d3d313078b8","{""num_scrambled_semantic"":""8"",""num_scrambled_causal"":""4"",""num_scrambled_schematic"":""4"",""participantId"":""DB500201701B429AA08CAE64378B09D9"",""assignmentId"":""e1f7e97e-9808-495e-a187-8f9b9204e746"",""projectId"":""742ed384-456e-4a46-b422-5d3d313078b8""}","https://test12345.live/?num_scrambled_semantic=8&num_scrambled_causal=4&num_scrambled_schematic=4&participantId=DB500201701B429AA08CAE64378B09D9&assignmentId=e1f7e97e-9808-495e-a187-8f9b9204e746&projectId=742ed384-456e-4a46-b422-5d3d313078b8","DB500201701B429AA08CAE64378B09D9-2025-08-07-05-58-55","","12546","","[""<span style=\""color: red; font-size: 24px\""> NOW RECORDING</span><p>Please say out loud all the images you saw in the exact order you saw them. Try to recall as many images as you can, but remember: getting the order right is more important than the number of images you recall.</p>""]","","1",""
"","","","","","instructions","23","98930","0.0-9.0","DB500201701B429AA08CAE64378B09D9","DB500201701B429AA08CAE64378B09D9","e1f7e97e-9808-495e-a187-8f9b9204e746","742ed384-456e-4a46-b422-5d3d313078b8","{""num_scrambled_semantic"":""8"",""num_scrambled_causal"":""4"",""num_scrambled_schematic"":""4"",""participantId"":""DB500201701B429AA08CAE64378B09D9"",""assignmentId"":""e1f7e97e-9808-495e-a187-8f9b9204e746"",""projectId"":""742ed384-456e-4a46-b422-5d3d313078b8""}","https://test12345.live/?num_scrambled_semantic=8&num_scrambled_causal=4&num_scrambled_schematic=4&participantId=DB500201701B429AA08CAE64378B09D9&assignmentId=e1f7e97e-9808-495e-a187-8f9b9204e746&projectId=742ed384-456e-4a46-b422-5d3d313078b8","DB500201701B429AA08CAE64378B09D9-2025-08-07-05-58-55","[{""page_index"":0,""viewing_time"":1643}]","1644","","","","",""
"","","","","","image-button-response","24","104935","0.0-10.0-0.0","DB500201701B429AA08CAE64378B09D9","DB500201701B429AA08CAE64378B09D9","e1f7e97e-9808-495e-a187-8f9b9204e746","742ed384-456e-4a46-b422-5d3d313078b8","{""num_scrambled_semantic"":""8"",""num_scrambled_causal"":""4"",""num_scrambled_schematic"":""4"",""participantId"":""DB500201701B429AA08CAE64378B09D9"",""assignmentId"":""e1f7e97e-9808-495e-a187-8f9b9204e746"",""projectId"":""742ed384-456e-4a46-b422-5d3d313078b8""}","https://test12345.live/?num_scrambled_semantic=8&num_scrambled_causal=4&num_scrambled_schematic=4&participantId=DB500201701B429AA08CAE64378B09D9&assignmentId=e1f7e97e-9808-495e-a187-8f9b9204e746&projectId=742ed384-456e-4a46-b422-5d3d313078b8","DB500201701B429AA08CAE64378B09D9-2025-08-07-05-58-55","","null","","images/semantic_sequence/using_technology_semantic/using_technology_semantic_0.png","null","",""
"","","","","","image-button-response","25","109440","0.0-10.0-1.0-0.0","DB500201701B429AA08CAE64378B09D9","DB500201701B429AA08CAE64378B09D9","e1f7e97e-9808-495e-a187-8f9b9204e746","742ed384-456e-4a46-b422-5d3d313078b8","{""num_scrambled_semantic"":""8"",""num_scrambled_causal"":""4"",""num_scrambled_schematic"":""4"",""participantId"":""DB500201701B429AA08CAE64378B09D9"",""assignmentId"":""e1f7e97e-9808-495e-a187-8f9b9204e746"",""projectId"":""742ed384-456e-4a46-b422-5d3d313078b8""}","https://test12345.live/?num_scrambled_semantic=8&num_scrambled_causal=4&num_scrambled_schematic=4&participantId=DB500201701B429AA08CAE64378B09D9&assignmentId=e1f7e97e-9808-495e-a187-8f9b9204e746&projectId=742ed384-456e-4a46-b422-5d3d313078b8","DB500201701B429AA08CAE64378B09D9-2025-08-07-05-58-55","","null","","images/semantic_sequence/using_technology_semantic/using_technology_semantic_7.png","null","",""
"","","","","","image-button-response","26","111249","0.0-10.0-1.0-1.0","DB500201701B429AA08CAE64378B09D9","DB500201701B429AA08CAE64378B09D9","e1f7e97e-9808-495e-a187-8f9b9204e746","742ed384-456e-4a46-b422-5d3d313078b8","{""num_scrambled_semantic"":""8"",""num_scrambled_causal"":""4"",""num_scrambled_schematic"":""4"",""participantId"":""DB500201701B429AA08CAE64378B09D9"",""assignmentId"":""e1f7e97e-9808-495e-a187-8f9b9204e746"",""projectId"":""742ed384-456e-4a46-b422-5d3d313078b8""}","https://test12345.live/?num_scrambled_semantic=8&num_scrambled_causal=4&num_scrambled_schematic=4&participantId=DB500201701B429AA08CAE64378B09D9&assignmentId=e1f7e97e-9808-495e-a187-8f9b9204e746&projectId=742ed384-456e-4a46-b422-5d3d313078b8","DB500201701B429AA08CAE64378B09D9-2025-08-07-05-58-55","","1807","","images/semantic_sequence/using_technology_semantic/using_technology_semantic_7.png","0","",""
"","","","","","image-button-response","27","113063","0.0-10.0-1.0-2.0","DB500201701B429AA08CAE64378B09D9","DB500201701B429AA08CAE64378B09D9","e1f7e97e-9808-495e-a187-8f9b9204e746","742ed384-456e-4a46-b422-5d3d313078b8","{""num_scrambled_semantic"":""8"",""num_scrambled_causal"":""4"",""num_scrambled_schematic"":""4"",""participantId"":""DB500201701B429AA08CAE64378B09D9"",""assignmentId"":""e1f7e97e-9808-495e-a187-8f9b9204e746"",""projectId"":""742ed384-456e-4a46-b422-5d3d313078b8""}","https://test12345.live/?num_scrambled_semantic=8&num_scrambled_causal=4&num_scrambled_schematic=4&participantId=DB500201701B429AA08CAE64378B09D9&assignmentId=e1f7e97e-9808-495e-a187-8f9b9204e746&projectId=742ed384-456e-4a46-b422-5d3d313078b8","DB500201701B429AA08CAE64378B09D9-2025-08-07-05-58-55","","null","","[]","null","",""
"","","","","","image-button-response","28","117566","0.0-10.0-1.0-0.1","DB500201701B429AA08CAE64378B09D9","DB500201701B429AA08CAE64378B09D9","e1f7e97e-9808-495e-a187-8f9b9204e746","742ed384-456e-4a46-b422-5d3d313078b8","{""num_scrambled_semantic"":""8"",""num_scrambled_causal"":""4"",""num_scrambled_schematic"":""4"",""participantId"":""DB500201701B429AA08CAE64378B09D9"",""assignmentId"":""e1f7e97e-9808-495e-a187-8f9b9204e746"",""projectId"":""742ed384-456e-4a46-b422-5d3d313078b8""}","https://test12345.live/?num_scrambled_semantic=8&num_scrambled_causal=4&num_scrambled_schematic=4&participantId=DB500201701B429AA08CAE64378B09D9&assignmentId=e1f7e97e-9808-495e-a187-8f9b9204e746&projectId=742ed384-456e-4a46-b422-5d3d313078b8","DB500201701B429AA08CAE64378B09D9-2025-08-07-05-58-55","","null","","images/semantic_sequence/using_technology_semantic/using_technology_semantic_5.png","null","",""
"","","","","","image-button-response","29","118600","0.0-10.0-1.0-1.1","DB500201701B429AA08CAE64378B09D9","DB500201701B429AA08CAE64378B09D9","e1f7e97e-9808-495e-a187-8f9b9204e746","742ed384-456e-4a46-b422-5d3d313078b8","{""num_scrambled_semantic"":""8"",""num_scrambled_causal"":""4"",""num_scrambled_schematic"":""4"",""participantId"":""DB500201701B429AA08CAE64378B09D9"",""assignmentId"":""e1f7e97e-9808-495e-a187-8f9b9204e746"",""projectId"":""742ed384-456e-4a46-b422-5d3d313078b8""}","https://test12345.live/?num_scrambled_semantic=8&num_scrambled_causal=4&num_scrambled_schematic=4&participantId=DB500201701B429AA08CAE64378B09D9&assignmentId=e1f7e97e-9808-495e-a187-8f9b9204e746&projectId=742ed384-456e-4a46-b422-5d3d313078b8","DB500201701B429AA08CAE64378B09D9-2025-08-07-05-58-55","","1032","","images/semantic_sequence/using_technology_semantic/using_technology_semantic_5.png","0","",""
"","","","","","image-button-response","30","120413","0.0-10.0-1.0-2.1","DB500201701B429AA08CAE64378B09D9","DB500201701B429AA08CAE64378B09D9","e1f7e97e-9808-495e-a187-8f9b9204e746","742ed384-456e-4a46-b422-5d3d313078b8","{""num_scrambled_semantic"":""8"",""num_scrambled_causal"":""4"",""num_scrambled_schematic"":""4"",""participantId"":""DB500201701B429AA08CAE64378B09D9"",""assignmentId"":""e1f7e97e-9808-495e-a187-8f9b9204e746"",""projectId"":""742ed384-456e-4a46-b422-5d3d313078b8""}","https://test12345.live/?num_scrambled_semantic=8&num_scrambled_causal=4&num_scrambled_schematic=4&participantId=DB500201701B429AA08CAE64378B09D9&assignmentId=e1f7e97e-9808-495e-a187-8f9b9204e746&projectId=742ed384-456e-4a46-b422-5d3d313078b8","DB500201701B429AA08CAE64378B09D9-2025-08-07-05-58-55","","null","","[]","null","",""
"","","","","","image-button-response","31","124924","0.0-10.0-1.0-0.2","DB500201701B429AA08CAE64378B09D9","DB500201701B429AA08CAE64378B09D9","e1f7e97e-9808-495e-a187-8f9b9204e746","742ed384-456e-4a46-b422-5d3d313078b8","{""num_scrambled_semantic"":""8"",""num_scrambled_causal"":""4"",""num_scrambled_schematic"":""4"",""participantId"":""DB500201701B429AA08CAE64378B09D9"",""assignmentId"":""e1f7e97e-9808-495e-a187-8f9b9204e746"",""projectId"":""742ed384-456e-4a46-b422-5d3d313078b8""}","https://test12345.live/?num_scrambled_semantic=8&num_scrambled_causal=4&num_scrambled_schematic=4&participantId=DB500201701B429AA08CAE64378B09D9&assignmentId=e1f7e97e-9808-495e-a187-8f9b9204e746&projectId=742ed384-456e-4a46-b422-5d3d313078b8","DB500201701B429AA08CAE64378B09D9-2025-08-07-05-58-55","","null","","images/semantic_sequence/using_technology_semantic/using_technology_semantic_2.png","null","",""
"","","","","","image-button-response","32","126113","0.0-10.0-1.0-1.2","DB500201701B429AA08CAE64378B09D9","DB500201701B429AA08CAE64378B09D9","e1f7e97e-9808-495e-a187-8f9b9204e746","742ed384-456e-4a46-b422-5d3d313078b8","{""num_scrambled_semantic"":""8"",""num_scrambled_causal"":""4"",""num_scrambled_schematic"":""4"",""participantId"":""DB500201701B429AA08CAE64378B09D9"",""assignmentId"":""e1f7e97e-9808-495e-a187-8f9b9204e746"",""projectId"":""742ed384-456e-4a46-b422-5d3d313078b8""}","https://test12345.live/?num_scrambled_semantic=8&num_scrambled_causal=4&num_scrambled_schematic=4&participantId=DB500201701B429AA08CAE64378B09D9&assignmentId=e1f7e97e-9808-495e-a187-8f9b9204e746&projectId=742ed384-456e-4a46-b422-5d3d313078b8","DB500201701B429AA08CAE64378B09D9-2025-08-07-05-58-55","","1186","","images/semantic_sequence/using_technology_semantic/using_technology_semantic_2.png","0","",""
"","","","","","image-button-response","33","127920","0.0-10.0-1.0-2.2","DB500201701B429AA08CAE64378B09D9","DB500201701B429AA08CAE64378B09D9","e1f7e97e-9808-495e-a187-8f9b9204e746","742ed384-456e-4a46-b422-5d3d313078b8","{""num_scrambled_semantic"":""8"",""num_scrambled_causal"":""4"",""num_scrambled_schematic"":""4"",""participantId"":""DB500201701B429AA08CAE64378B09D9"",""assignmentId"":""e1f7e97e-9808-495e-a187-8f9b9204e746"",""projectId"":""742ed384-456e-4a46-b422-5d3d313078b8""}","https://test12345.live/?num_scrambled_semantic=8&num_scrambled_causal=4&num_scrambled_schematic=4&participantId=DB500201701B429AA08CAE64378B09D9&assignmentId=e1f7e97e-9808-495e-a187-8f9b9204e746&projectId=742ed384-456e-4a46-b422-5d3d313078b8","DB500201701B429AA08CAE64378B09D9-2025-08-07-05-58-55","","null","","[]","null","",""
"","","","","","image-button-response","34","132430","0.0-10.0-1.0-0.3","DB500201701B429AA08CAE64378B09D9","DB500201701B429AA08CAE64378B09D9","e1f7e97e-9808-495e-a187-8f9b9204e746","742ed384-456e-4a46-b422-5d3d313078b8","{""num_scrambled_semantic"":""8"",""num_scrambled_causal"":""4"",""num_scrambled_schematic"":""4"",""participantId"":""DB500201701B429AA08CAE64378B09D9"",""assignmentId"":""e1f7e97e-9808-495e-a187-8f9b9204e746"",""projectId"":""742ed384-456e-4a46-b422-5d3d313078b8""}","https://test12345.live/?num_scrambled_semantic=8&num_scrambled_causal=4&num_scrambled_schematic=4&participantId=DB500201701B429AA08CAE64378B09D9&assignmentId=e1f7e97e-9808-495e-a187-8f9b9204e746&projectId=742ed384-456e-4a46-b422-5d3d313078b8","DB500201701B429AA08CAE64378B09D9-2025-08-07-05-58-55","","null","","images/semantic_sequence/using_technology_semantic/using_technology_semantic_3.png","null","",""
"","","","","","image-button-response","35","133096","0.0-10.0-1.0-1.3","DB500201701B429AA08CAE64378B09D9","DB500201701B429AA08CAE64378B09D9","e1f7e97e-9808-495e-a187-8f9b9204e746","742ed384-456e-4a46-b422-5d3d313078b8","{""num_scrambled_semantic"":""8"",""num_scrambled_causal"":""4"",""num_scrambled_schematic"":""4"",""participantId"":""DB500201701B429AA08CAE64378B09D9"",""assignmentId"":""e1f7e97e-9808-495e-a187-8f9b9204e746"",""projectId"":""742ed384-456e-4a46-b422-5d3d313078b8""}","https://test12345.live/?num_scrambled_semantic=8&num_scrambled_causal=4&num_scrambled_schematic=4&participantId=DB500201701B429AA08CAE64378B09D9&assignmentId=e1f7e97e-9808-495e-a187-8f9b9204e746&projectId=742ed384-456e-4a46-b422-5d3d313078b8","DB500201701B429AA08CAE64378B09D9-2025-08-07-05-58-55","","662","","images/semantic_sequence/using_technology_semantic/using_technology_semantic_3.png","0","",""
"","","","","","image-button-response","36","134903","0.0-10.0-1.0-2.3","DB500201701B429AA08CAE64378B09D9","DB500201701B429AA08CAE64378B09D9","e1f7e97e-9808-495e-a187-8f9b9204e746","742ed384-456e-4a46-b422-5d3d313078b8","{""num_scrambled_semantic"":""8"",""num_scrambled_causal"":""4"",""num_scrambled_schematic"":""4"",""participantId"":""DB500201701B429AA08CAE64378B09D9"",""assignmentId"":""e1f7e97e-9808-495e-a187-8f9b9204e746"",""projectId"":""742ed384-456e-4a46-b422-5d3d313078b8""}","https://test12345.live/?num_scrambled_semantic=8&num_scrambled_causal=4&num_scrambled_schematic=4&participantId=DB500201701B429AA08CAE64378B09D9&assignmentId=e1f7e97e-9808-495e-a187-8f9b9204e746&projectId=742ed384-456e-4a46-b422-5d3d313078b8","DB500201701B429AA08CAE64378B09D9-2025-08-07-05-58-55","","null","","[]","null","",""
"","","","","","image-button-response","37","139406","0.0-10.0-1.0-0.4","DB500201701B429AA08CAE64378B09D9","DB500201701B429AA08CAE64378B09D9","e1f7e97e-9808-495e-a187-8f9b9204e746","742ed384-456e-4a46-b422-5d3d313078b8","{""num_scrambled_semantic"":""8"",""num_scrambled_causal"":""4"",""num_scrambled_schematic"":""4"",""participantId"":""DB500201701B429AA08CAE64378B09D9"",""assignmentId"":""e1f7e97e-9808-495e-a187-8f9b9204e746"",""projectId"":""742ed384-456e-4a46-b422-5d3d313078b8""}","https://test12345.live/?num_scrambled_semantic=8&num_scrambled_causal=4&num_scrambled_schematic=4&participantId=DB500201701B429AA08CAE64378B09D9&assignmentId=e1f7e97e-9808-495e-a187-8f9b9204e746&projectId=742ed384-456e-4a46-b422-5d3d313078b8","DB500201701B429AA08CAE64378B09D9-2025-08-07-05-58-55","","null","","images/semantic_sequence/using_technology_semantic/using_technology_semantic_6.png","null","",""
"","","","","","image-button-response","38","140499","0.0-10.0-1.0-1.4","DB500201701B429AA08CAE64378B09D9","DB500201701B429AA08CAE64378B09D9","e1f7e97e-9808-495e-a187-8f9b9204e746","742ed384-456e-4a46-b422-5d3d313078b8","{""num_scrambled_semantic"":""8"",""num_scrambled_causal"":""4"",""num_scrambled_schematic"":""4"",""participantId"":""DB500201701B429AA08CAE64378B09D9"",""assignmentId"":""e1f7e97e-9808-495e-a187-8f9b9204e746"",""projectId"":""742ed384-456e-4a46-b422-5d3d313078b8""}","https://test12345.live/?num_scrambled_semantic=8&num_scrambled_causal=4&num_scrambled_schematic=4&participantId=DB500201701B429AA08CAE64378B09D9&assignmentId=e1f7e97e-9808-495e-a187-8f9b9204e746&projectId=742ed384-456e-4a46-b422-5d3d313078b8","DB500201701B429AA08CAE64378B09D9-2025-08-07-05-58-55","","1091","","images/semantic_sequence/using_technology_semantic/using_technology_semantic_6.png","0","",""
"","","","","","image-button-response","39","142314","0.0-10.0-1.0-2.4","DB500201701B429AA08CAE64378B09D9","DB500201701B429AA08CAE64378B09D9","e1f7e97e-9808-495e-a187-8f9b9204e746","742ed384-456e-4a46-b422-5d3d313078b8","{""num_scrambled_semantic"":""8"",""num_scrambled_causal"":""4"",""num_scrambled_schematic"":""4"",""participantId"":""DB500201701B429AA08CAE64378B09D9"",""assignmentId"":""e1f7e97e-9808-495e-a187-8f9b9204e746"",""projectId"":""742ed384-456e-4a46-b422-5d3d313078b8""}","https://test12345.live/?num_scrambled_semantic=8&num_scrambled_causal=4&num_scrambled_schematic=4&participantId=DB500201701B429AA08CAE64378B09D9&assignmentId=e1f7e97e-9808-495e-a187-8f9b9204e746&projectId=742ed384-456e-4a46-b422-5d3d313078b8","DB500201701B429AA08CAE64378B09D9-2025-08-07-05-58-55","","null","","[]","null","",""
"","","","","","image-button-response","40","146820","0.0-10.0-1.0-0.5","DB500201701B429AA08CAE64378B09D9","DB500201701B429AA08CAE64378B09D9","e1f7e97e-9808-495e-a187-8f9b9204e746","742ed384-456e-4a46-b422-5d3d313078b8","{""num_scrambled_semantic"":""8"",""num_scrambled_causal"":""4"",""num_scrambled_schematic"":""4"",""participantId"":""DB500201701B429AA08CAE64378B09D9"",""assignmentId"":""e1f7e97e-9808-495e-a187-8f9b9204e746"",""projectId"":""742ed384-456e-4a46-b422-5d3d313078b8""}","https://test12345.live/?num_scrambled_semantic=8&num_scrambled_causal=4&num_scrambled_schematic=4&participantId=DB500201701B429AA08CAE64378B09D9&assignmentId=e1f7e97e-9808-495e-a187-8f9b9204e746&projectId=742ed384-456e-4a46-b422-5d3d313078b8","DB500201701B429AA08CAE64378B09D9-2025-08-07-05-58-55","","null","","images/semantic_sequence/using_technology_semantic/using_technology_semantic_1.png","null","",""
"","","","","","image-button-response","41","148209","0.0-10.0-1.0-1.5","DB500201701B429AA08CAE64378B09D9","DB500201701B429AA08CAE64378B09D9","e1f7e97e-9808-495e-a187-8f9b9204e746","742ed384-456e-4a46-b422-5d3d313078b8","{""num_scrambled_semantic"":""8"",""num_scrambled_causal"":""4"",""num_scrambled_schematic"":""4"",""participantId"":""DB500201701B429AA08CAE64378B09D9"",""assignmentId"":""e1f7e97e-9808-495e-a187-8f9b9204e746"",""projectId"":""742ed384-456e-4a46-b422-5d3d313078b8""}","https://test12345.live/?num_scrambled_semantic=8&num_scrambled_causal=4&num_scrambled_schematic=4&participantId=DB500201701B429AA08CAE64378B09D9&assignmentId=e1f7e97e-9808-495e-a187-8f9b9204e746&projectId=742ed384-456e-4a46-b422-5d3d313078b8","DB500201701B429AA08CAE64378B09D9-2025-08-07-05-58-55","","1387","","images/semantic_sequence/using_technology_semantic/using_technology_semantic_1.png","0","",""
"","","","","","image-button-response","42","150019","0.0-10.0-1.0-2.5","DB500201701B429AA08CAE64378B09D9","DB500201701B429AA08CAE64378B09D9","e1f7e97e-9808-495e-a187-8f9b9204e746","742ed384-456e-4a46-b422-5d3d313078b8","{""num_scrambled_semantic"":""8"",""num_scrambled_causal"":""4"",""num_scrambled_schematic"":""4"",""participantId"":""DB500201701B429AA08CAE64378B09D9"",""assignmentId"":""e1f7e97e-9808-495e-a187-8f9b9204e746"",""projectId"":""742ed384-456e-4a46-b422-5d3d313078b8""}","https://test12345.live/?num_scrambled_semantic=8&num_scrambled_causal=4&num_scrambled_schematic=4&participantId=DB500201701B429AA08CAE64378B09D9&assignmentId=e1f7e97e-9808-495e-a187-8f9b9204e746&projectId=742ed384-456e-4a46-b422-5d3d313078b8","DB500201701B429AA08CAE64378B09D9-2025-08-07-05-58-55","","null","","[]","null","",""
"","","","","","image-button-response","43","154523","0.0-10.0-1.0-0.6","DB500201701B429AA08CAE64378B09D9","DB500201701B429AA08CAE64378B09D9","e1f7e97e-9808-495e-a187-8f9b9204e746","742ed384-456e-4a46-b422-5d3d313078b8","{""num_scrambled_semantic"":""8"",""num_scrambled_causal"":""4"",""num_scrambled_schematic"":""4"",""participantId"":""DB500201701B429AA08CAE64378B09D9"",""assignmentId"":""e1f7e97e-9808-495e-a187-8f9b9204e746"",""projectId"":""742ed384-456e-4a46-b422-5d3d313078b8""}","https://test12345.live/?num_scrambled_semantic=8&num_scrambled_causal=4&num_scrambled_schematic=4&participantId=DB500201701B429AA08CAE64378B09D9&assignmentId=e1f7e97e-9808-495e-a187-8f9b9204e746&projectId=742ed384-456e-4a46-b422-5d3d313078b8","DB500201701B429AA08CAE64378B09D9-2025-08-07-05-58-55","","null","","images/semantic_sequence/using_technology_semantic/using_technology_semantic_8.png","null","",""
"","","","","","image-button-response","44","155320","0.0-10.0-1.0-1.6","DB500201701B429AA08CAE64378B09D9","DB500201701B429AA08CAE64378B09D9","e1f7e97e-9808-495e-a187-8f9b9204e746","742ed384-456e-4a46-b422-5d3d313078b8","{""num_scrambled_semantic"":""8"",""num_scrambled_causal"":""4"",""num_scrambled_schematic"":""4"",""participantId"":""DB500201701B429AA08CAE64378B09D9"",""assignmentId"":""e1f7e97e-9808-495e-a187-8f9b9204e746"",""projectId"":""742ed384-456e-4a46-b422-5d3d313078b8""}","https://test12345.live/?num_scrambled_semantic=8&num_scrambled_causal=4&num_scrambled_schematic=4&participantId=DB500201701B429AA08CAE64378B09D9&assignmentId=e1f7e97e-9808-495e-a187-8f9b9204e746&projectId=742ed384-456e-4a46-b422-5d3d313078b8","DB500201701B429AA08CAE64378B09D9-2025-08-07-05-58-55","","795","","images/semantic_sequence/using_technology_semantic/using_technology_semantic_8.png","0","",""
"","","","","","image-button-response","45","157126","0.0-10.0-1.0-2.6","DB500201701B429AA08CAE64378B09D9","DB500201701B429AA08CAE64378B09D9","e1f7e97e-9808-495e-a187-8f9b9204e746","742ed384-456e-4a46-b422-5d3d313078b8","{""num_scrambled_semantic"":""8"",""num_scrambled_causal"":""4"",""num_scrambled_schematic"":""4"",""participantId"":""DB500201701B429AA08CAE64378B09D9"",""assignmentId"":""e1f7e97e-9808-495e-a187-8f9b9204e746"",""projectId"":""742ed384-456e-4a46-b422-5d3d313078b8""}","https://test12345.live/?num_scrambled_semantic=8&num_scrambled_causal=4&num_scrambled_schematic=4&participantId=DB500201701B429AA08CAE64378B09D9&assignmentId=e1f7e97e-9808-495e-a187-8f9b9204e746&projectId=742ed384-456e-4a46-b422-5d3d313078b8","DB500201701B429AA08CAE64378B09D9-2025-08-07-05-58-55","","null","","[]","null","",""
"","","","","","image-button-response","46","161633","0.0-10.0-1.0-0.7","DB500201701B429AA08CAE64378B09D9","DB500201701B429AA08CAE64378B09D9","e1f7e97e-9808-495e-a187-8f9b9204e746","742ed384-456e-4a46-b422-5d3d313078b8","{""num_scrambled_semantic"":""8"",""num_scrambled_causal"":""4"",""num_scrambled_schematic"":""4"",""participantId"":""DB500201701B429AA08CAE64378B09D9"",""assignmentId"":""e1f7e97e-9808-495e-a187-8f9b9204e746"",""projectId"":""742ed384-456e-4a46-b422-5d3d313078b8""}","https://test12345.live/?num_scrambled_semantic=8&num_scrambled_causal=4&num_scrambled_schematic=4&participantId=DB500201701B429AA08CAE64378B09D9&assignmentId=e1f7e97e-9808-495e-a187-8f9b9204e746&projectId=742ed384-456e-4a46-b422-5d3d313078b8","DB500201701B429AA08CAE64378B09D9-2025-08-07-05-58-55","","null","","images/semantic_sequence/using_technology_semantic/using_technology_semantic_ten.png","null","",""
"","","","","","image-button-response","47","162656","0.0-10.0-1.0-1.7","DB500201701B429AA08CAE64378B09D9","DB500201701B429AA08CAE64378B09D9","e1f7e97e-9808-495e-a187-8f9b9204e746","742ed384-456e-4a46-b422-5d3d313078b8","{""num_scrambled_semantic"":""8"",""num_scrambled_causal"":""4"",""num_scrambled_schematic"":""4"",""participantId"":""DB500201701B429AA08CAE64378B09D9"",""assignmentId"":""e1f7e97e-9808-495e-a187-8f9b9204e746"",""projectId"":""742ed384-456e-4a46-b422-5d3d313078b8""}","https://test12345.live/?num_scrambled_semantic=8&num_scrambled_causal=4&num_scrambled_schematic=4&participantId=DB500201701B429AA08CAE64378B09D9&assignmentId=e1f7e97e-9808-495e-a187-8f9b9204e746&projectId=742ed384-456e-4a46-b422-5d3d313078b8","DB500201701B429AA08CAE64378B09D9-2025-08-07-05-58-55","","1022","","images/semantic_sequence/using_technology_semantic/using_technology_semantic_ten.png","0","",""
"","","","","","image-button-response","48","164463","0.0-10.0-1.0-2.7","DB500201701B429AA08CAE64378B09D9","DB500201701B429AA08CAE64378B09D9","e1f7e97e-9808-495e-a187-8f9b9204e746","742ed384-456e-4a46-b422-5d3d313078b8","{""num_scrambled_semantic"":""8"",""num_scrambled_causal"":""4"",""num_scrambled_schematic"":""4"",""participantId"":""DB500201701B429AA08CAE64378B09D9"",""assignmentId"":""e1f7e97e-9808-495e-a187-8f9b9204e746"",""projectId"":""742ed384-456e-4a46-b422-5d3d313078b8""}","https://test12345.live/?num_scrambled_semantic=8&num_scrambled_causal=4&num_scrambled_schematic=4&participantId=DB500201701B429AA08CAE64378B09D9&assignmentId=e1f7e97e-9808-495e-a187-8f9b9204e746&projectId=742ed384-456e-4a46-b422-5d3d313078b8","DB500201701B429AA08CAE64378B09D9-2025-08-07-05-58-55","","null","","[]","null","",""
"","","","","","image-button-response","49","168972","0.0-10.0-1.0-0.8","DB500201701B429AA08CAE64378B09D9","DB500201701B429AA08CAE64378B09D9","e1f7e97e-9808-495e-a187-8f9b9204e746","742ed384-456e-4a46-b422-5d3d313078b8","{""num_scrambled_semantic"":""8"",""num_scrambled_causal"":""4"",""num_scrambled_schematic"":""4"",""participantId"":""DB500201701B429AA08CAE64378B09D9"",""assignmentId"":""e1f7e97e-9808-495e-a187-8f9b9204e746"",""projectId"":""742ed384-456e-4a46-b422-5d3d313078b8""}","https://test12345.live/?num_scrambled_semantic=8&num_scrambled_causal=4&num_scrambled_schematic=4&participantId=DB500201701B429AA08CAE64378B09D9&assignmentId=e1f7e97e-9808-495e-a187-8f9b9204e746&projectId=742ed384-456e-4a46-b422-5d3d313078b8","DB500201701B429AA08CAE64378B09D9-2025-08-07-05-58-55","","null","","images/semantic_sequence/using_technology_semantic/using_technology_semantic_4.png","null","",""
"","","","","","image-button-response","50","169548","0.0-10.0-1.0-1.8","DB500201701B429AA08CAE64378B09D9","DB500201701B429AA08CAE64378B09D9","e1f7e97e-9808-495e-a187-8f9b9204e746","742ed384-456e-4a46-b422-5d3d313078b8","{""num_scrambled_semantic"":""8"",""num_scrambled_causal"":""4"",""num_scrambled_schematic"":""4"",""participantId"":""DB500201701B429AA08CAE64378B09D9"",""assignmentId"":""e1f7e97e-9808-495e-a187-8f9b9204e746"",""projectId"":""742ed384-456e-4a46-b422-5d3d313078b8""}","https://test12345.live/?num_scrambled_semantic=8&num_scrambled_causal=4&num_scrambled_schematic=4&participantId=DB500201701B429AA08CAE64378B09D9&assignmentId=e1f7e97e-9808-495e-a187-8f9b9204e746&projectId=742ed384-456e-4a46-b422-5d3d313078b8","DB500201701B429AA08CAE64378B09D9-2025-08-07-05-58-55","","575","","images/semantic_sequence/using_technology_semantic/using_technology_semantic_4.png","0","",""
"","","","","","image-button-response","51","171350","0.0-10.0-1.0-2.8","DB500201701B429AA08CAE64378B09D9","DB500201701B429AA08CAE64378B09D9","e1f7e97e-9808-495e-a187-8f9b9204e746","742ed384-456e-4a46-b422-5d3d313078b8","{""num_scrambled_semantic"":""8"",""num_scrambled_causal"":""4"",""num_scrambled_schematic"":""4"",""participantId"":""DB500201701B429AA08CAE64378B09D9"",""assignmentId"":""e1f7e97e-9808-495e-a187-8f9b9204e746"",""projectId"":""742ed384-456e-4a46-b422-5d3d313078b8""}","https://test12345.live/?num_scrambled_semantic=8&num_scrambled_causal=4&num_scrambled_schematic=4&participantId=DB500201701B429AA08CAE64378B09D9&assignmentId=e1f7e97e-9808-495e-a187-8f9b9204e746&projectId=742ed384-456e-4a46-b422-5d3d313078b8","DB500201701B429AA08CAE64378B09D9-2025-08-07-05-58-55","","null","","[]","null","",""
"","","","","","image-button-response","52","175858","0.0-10.0-1.0-0.9","DB500201701B429AA08CAE64378B09D9","DB500201701B429AA08CAE64378B09D9","e1f7e97e-9808-495e-a187-8f9b9204e746","742ed384-456e-4a46-b422-5d3d313078b8","{""num_scrambled_semantic"":""8"",""num_scrambled_causal"":""4"",""num_scrambled_schematic"":""4"",""participantId"":""DB500201701B429AA08CAE64378B09D9"",""assignmentId"":""e1f7e97e-9808-495e-a187-8f9b9204e746"",""projectId"":""742ed384-456e-4a46-b422-5d3d313078b8""}","https://test12345.live/?num_scrambled_semantic=8&num_scrambled_causal=4&num_scrambled_schematic=4&participantId=DB500201701B429AA08CAE64378B09D9&assignmentId=e1f7e97e-9808-495e-a187-8f9b9204e746&projectId=742ed384-456e-4a46-b422-5d3d313078b8","DB500201701B429AA08CAE64378B09D9-2025-08-07-05-58-55","","null","","images/semantic_sequence/using_technology_semantic/using_technology_semantic_9.png","null","",""
"","","","","","image-button-response","53","176525","0.0-10.0-1.0-1.9","DB500201701B429AA08CAE64378B09D9","DB500201701B429AA08CAE64378B09D9","e1f7e97e-9808-495e-a187-8f9b9204e746","742ed384-456e-4a46-b422-5d3d313078b8","{""num_scrambled_semantic"":""8"",""num_scrambled_causal"":""4"",""num_scrambled_schematic"":""4"",""participantId"":""DB500201701B429AA08CAE64378B09D9"",""assignmentId"":""e1f7e97e-9808-495e-a187-8f9b9204e746"",""projectId"":""742ed384-456e-4a46-b422-5d3d313078b8""}","https://test12345.live/?num_scrambled_semantic=8&num_scrambled_causal=4&num_scrambled_schematic=4&participantId=DB500201701B429AA08CAE64378B09D9&assignmentId=e1f7e97e-9808-495e-a187-8f9b9204e746&projectId=742ed384-456e-4a46-b422-5d3d313078b8","DB500201701B429AA08CAE64378B09D9-2025-08-07-05-58-55","","665","","images/semantic_sequence/using_technology_semantic/using_technology_semantic_9.png","0","",""
"","","","","","image-button-response","54","178329","0.0-10.0-1.0-2.9","DB500201701B429AA08CAE64378B09D9","DB500201701B429AA08CAE64378B09D9","e1f7e97e-9808-495e-a187-8f9b9204e746","742ed384-456e-4a46-b422-5d3d313078b8","{""num_scrambled_semantic"":""8"",""num_scrambled_causal"":""4"",""num_scrambled_schematic"":""4"",""participantId"":""DB500201701B429AA08CAE64378B09D9"",""assignmentId"":""e1f7e97e-9808-495e-a187-8f9b9204e746"",""projectId"":""742ed384-456e-4a46-b422-5d3d313078b8""}","https://test12345.live/?num_scrambled_semantic=8&num_scrambled_causal=4&num_scrambled_schematic=4&participantId=DB500201701B429AA08CAE64378B09D9&assignmentId=e1f7e97e-9808-495e-a187-8f9b9204e746&projectId=742ed384-456e-4a46-b422-5d3d313078b8","DB500201701B429AA08CAE64378B09D9-2025-08-07-05-58-55","","null","","[]","null","",""
"","","","","","html-audio-response","55","201187","0.0-11.0","DB500201701B429AA08CAE64378B09D9","DB500201701B429AA08CAE64378B09D9","e1f7e97e-9808-495e-a187-8f9b9204e746","742ed384-456e-4a46-b422-5d3d313078b8","{""num_scrambled_semantic"":""8"",""num_scrambled_causal"":""4"",""num_scrambled_schematic"":""4"",""participantId"":""DB500201701B429AA08CAE64378B09D9"",""assignmentId"":""e1f7e97e-9808-495e-a187-8f9b9204e746"",""projectId"":""742ed384-456e-4a46-b422-5d3d313078b8""}","https://test12345.live/?num_scrambled_semantic=8&num_scrambled_causal=4&num_scrambled_schematic=4&participantId=DB500201701B429AA08CAE64378B09D9&assignmentId=e1f7e97e-9808-495e-a187-8f9b9204e746&projectId=742ed384-456e-4a46-b422-5d3d313078b8","DB500201701B429AA08CAE64378B09D9-2025-08-07-05-58-55","","21908","","[""<span style=\""color: red; font-size: 24px\""> NOW RECORDING</span><p>Please say out loud all the images you saw, in the exact order you saw them. Try to recall as many images as you can, but remember: getting the order right is more important than the number of images you recall.</p>""]","","2","using_technology_semantic"
"","","","","","image-button-response","56","207210","0.0-12.0-0.0","DB500201701B429AA08CAE64378B09D9","DB500201701B429AA08CAE64378B09D9","e1f7e97e-9808-495e-a187-8f9b9204e746","742ed384-456e-4a46-b422-5d3d313078b8","{""num_scrambled_semantic"":""8"",""num_scrambled_causal"":""4"",""num_scrambled_schematic"":""4"",""participantId"":""DB500201701B429AA08CAE64378B09D9"",""assignmentId"":""e1f7e97e-9808-495e-a187-8f9b9204e746"",""projectId"":""742ed384-456e-4a46-b422-5d3d313078b8""}","https://test12345.live/?num_scrambled_semantic=8&num_scrambled_causal=4&num_scrambled_schematic=4&participantId=DB500201701B429AA08CAE64378B09D9&assignmentId=e1f7e97e-9808-495e-a187-8f9b9204e746&projectId=742ed384-456e-4a46-b422-5d3d313078b8","DB500201701B429AA08CAE64378B09D9-2025-08-07-05-58-55","","null","","images/causal_sequence/dog_causal/dog_causal_0.png","null","",""
"","","","","","image-button-response","57","211729","0.0-12.0-1.0-0.0","DB500201701B429AA08CAE64378B09D9","DB500201701B429AA08CAE64378B09D9","e1f7e97e-9808-495e-a187-8f9b9204e746","742ed384-456e-4a46-b422-5d3d313078b8","{""num_scrambled_semantic"":""8"",""num_scrambled_causal"":""4"",""num_scrambled_schematic"":""4"",""participantId"":""DB500201701B429AA08CAE64378B09D9"",""assignmentId"":""e1f7e97e-9808-495e-a187-8f9b9204e746"",""projectId"":""742ed384-456e-4a46-b422-5d3d313078b8""}","https://test12345.live/?num_scrambled_semantic=8&num_scrambled_causal=4&num_scrambled_schematic=4&participantId=DB500201701B429AA08CAE64378B09D9&assignmentId=e1f7e97e-9808-495e-a187-8f9b9204e746&projectId=742ed384-456e-4a46-b422-5d3d313078b8","DB500201701B429AA08CAE64378B09D9-2025-08-07-05-58-55","","null","","images/causal_sequence/dog_causal/dog_causal_9.png","null","",""
"","","","","","image-button-response","58","212756","0.0-12.0-1.0-1.0","DB500201701B429AA08CAE64378B09D9","DB500201701B429AA08CAE64378B09D9","e1f7e97e-9808-495e-a187-8f9b9204e746","742ed384-456e-4a46-b422-5d3d313078b8","{""num_scrambled_semantic"":""8"",""num_scrambled_causal"":""4"",""num_scrambled_schematic"":""4"",""participantId"":""DB500201701B429AA08CAE64378B09D9"",""assignmentId"":""e1f7e97e-9808-495e-a187-8f9b9204e746"",""projectId"":""742ed384-456e-4a46-b422-5d3d313078b8""}","https://test12345.live/?num_scrambled_semantic=8&num_scrambled_causal=4&num_scrambled_schematic=4&participantId=DB500201701B429AA08CAE64378B09D9&assignmentId=e1f7e97e-9808-495e-a187-8f9b9204e746&projectId=742ed384-456e-4a46-b422-5d3d313078b8","DB500201701B429AA08CAE64378B09D9-2025-08-07-05-58-55","","1024","","images/causal_sequence/dog_causal/dog_causal_9.png","0","",""
"","","","","","image-button-response","59","214565","0.0-12.0-1.0-2.0","DB500201701B429AA08CAE64378B09D9","DB500201701B429AA08CAE64378B09D9","e1f7e97e-9808-495e-a187-8f9b9204e746","742ed384-456e-4a46-b422-5d3d313078b8","{""num_scrambled_semantic"":""8"",""num_scrambled_causal"":""4"",""num_scrambled_schematic"":""4"",""participantId"":""DB500201701B429AA08CAE64378B09D9"",""assignmentId"":""e1f7e97e-9808-495e-a187-8f9b9204e746"",""projectId"":""742ed384-456e-4a46-b422-5d3d313078b8""}","https://test12345.live/?num_scrambled_semantic=8&num_scrambled_causal=4&num_scrambled_schematic=4&participantId=DB500201701B429AA08CAE64378B09D9&assignmentId=e1f7e97e-9808-495e-a187-8f9b9204e746&projectId=742ed384-456e-4a46-b422-5d3d313078b8","DB500201701B429AA08CAE64378B09D9-2025-08-07-05-58-55","","null","","[]","null","",""
"","","","","","image-button-response","60","219081","0.0-12.0-1.0-0.1","DB500201701B429AA08CAE64378B09D9","DB500201701B429AA08CAE64378B09D9","e1f7e97e-9808-495e-a187-8f9b9204e746","742ed384-456e-4a46-b422-5d3d313078b8","{""num_scrambled_semantic"":""8"",""num_scrambled_causal"":""4"",""num_scrambled_schematic"":""4"",""participantId"":""DB500201701B429AA08CAE64378B09D9"",""assignmentId"":""e1f7e97e-9808-495e-a187-8f9b9204e746"",""projectId"":""742ed384-456e-4a46-b422-5d3d313078b8""}","https://test12345.live/?num_scrambled_semantic=8&num_scrambled_causal=4&num_scrambled_schematic=4&participantId=DB500201701B429AA08CAE64378B09D9&assignmentId=e1f7e97e-9808-495e-a187-8f9b9204e746&projectId=742ed384-456e-4a46-b422-5d3d313078b8","DB500201701B429AA08CAE64378B09D9-2025-08-07-05-58-55","","null","","images/causal_sequence/dog_causal/dog_causal_1.png","null","",""
"","","","","","image-button-response","61","220972","0.0-12.0-1.0-1.1","DB500201701B429AA08CAE64378B09D9","DB500201701B429AA08CAE64378B09D9","e1f7e97e-9808-495e-a187-8f9b9204e746","742ed384-456e-4a46-b422-5d3d313078b8","{""num_scrambled_semantic"":""8"",""num_scrambled_causal"":""4"",""num_scrambled_schematic"":""4"",""participantId"":""DB500201701B429AA08CAE64378B09D9"",""assignmentId"":""e1f7e97e-9808-495e-a187-8f9b9204e746"",""projectId"":""742ed384-456e-4a46-b422-5d3d313078b8""}","https://test12345.live/?num_scrambled_semantic=8&num_scrambled_causal=4&num_scrambled_schematic=4&participantId=DB500201701B429AA08CAE64378B09D9&assignmentId=e1f7e97e-9808-495e-a187-8f9b9204e746&projectId=742ed384-456e-4a46-b422-5d3d313078b8","DB500201701B429AA08CAE64378B09D9-2025-08-07-05-58-55","","1889","","images/causal_sequence/dog_causal/dog_causal_1.png","0","",""
"","","","","","image-button-response","62","222787","0.0-12.0-1.0-2.1","DB500201701B429AA08CAE64378B09D9","DB500201701B429AA08CAE64378B09D9","e1f7e97e-9808-495e-a187-8f9b9204e746","742ed384-456e-4a46-b422-5d3d313078b8","{""num_scrambled_semantic"":""8"",""num_scrambled_causal"":""4"",""num_scrambled_schematic"":""4"",""participantId"":""DB500201701B429AA08CAE64378B09D9"",""assignmentId"":""e1f7e97e-9808-495e-a187-8f9b9204e746"",""projectId"":""742ed384-456e-4a46-b422-5d3d313078b8""}","https://test12345.live/?num_scrambled_semantic=8&num_scrambled_causal=4&num_scrambled_schematic=4&participantId=DB500201701B429AA08CAE64378B09D9&assignmentId=e1f7e97e-9808-495e-a187-8f9b9204e746&projectId=742ed384-456e-4a46-b422-5d3d313078b8","DB500201701B429AA08CAE64378B09D9-2025-08-07-05-58-55","","null","","[]","null","",""
"","","","","","image-button-response","63","227290","0.0-12.0-1.0-0.2","DB500201701B429AA08CAE64378B09D9","DB500201701B429AA08CAE64378B09D9","e1f7e97e-9808-495e-a187-8f9b9204e746","742ed384-456e-4a46-b422-5d3d313078b8","{""num_scrambled_semantic"":""8"",""num_scrambled_causal"":""4"",""num_scrambled_schematic"":""4"",""participantId"":""DB500201701B429AA08CAE64378B09D9"",""assignmentId"":""e1f7e97e-9808-495e-a187-8f9b9204e746"",""projectId"":""742ed384-456e-4a46-b422-5d3d313078b8""}","https://test12345.live/?num_scrambled_semantic=8&num_scrambled_causal=4&num_scrambled_schematic=4&participantId=DB500201701B429AA08CAE64378B09D9&assignmentId=e1f7e97e-9808-495e-a187-8f9b9204e746&projectId=742ed384-456e-4a46-b422-5d3d313078b8","DB500201701B429AA08CAE64378B09D9-2025-08-07-05-58-55","","null","","images/causal_sequence/dog_causal/dog_causal_ten.png","null","",""
"","","","","","image-button-response","64","228663","0.0-12.0-1.0-1.2","DB500201701B429AA08CAE64378B09D9","DB500201701B429AA08CAE64378B09D9","e1f7e97e-9808-495e-a187-8f9b9204e746","742ed384-456e-4a46-b422-5d3d313078b8","{""num_scrambled_semantic"":""8"",""num_scrambled_causal"":""4"",""num_scrambled_schematic"":""4"",""participantId"":""DB500201701B429AA08CAE64378B09D9"",""assignmentId"":""e1f7e97e-9808-495e-a187-8f9b9204e746"",""projectId"":""742ed384-456e-4a46-b422-5d3d313078b8""}","https://test12345.live/?num_scrambled_semantic=8&num_scrambled_causal=4&num_scrambled_schematic=4&participantId=DB500201701B429AA08CAE64378B09D9&assignmentId=e1f7e97e-9808-495e-a187-8f9b9204e746&projectId=742ed384-456e-4a46-b422-5d3d313078b8","DB500201701B429AA08CAE64378B09D9-2025-08-07-05-58-55","","1372","","images/causal_sequence/dog_causal/dog_causal_ten.png","0","",""
"","","","","","image-button-response","65","230474","0.0-12.0-1.0-2.2","DB500201701B429AA08CAE64378B09D9","DB500201701B429AA08CAE64378B09D9","e1f7e97e-9808-495e-a187-8f9b9204e746","742ed384-456e-4a46-b422-5d3d313078b8","{""num_scrambled_semantic"":""8"",""num_scrambled_causal"":""4"",""num_scrambled_schematic"":""4"",""participantId"":""DB500201701B429AA08CAE64378B09D9"",""assignmentId"":""e1f7e97e-9808-495e-a187-8f9b9204e746"",""projectId"":""742ed384-456e-4a46-b422-5d3d313078b8""}","https://test12345.live/?num_scrambled_semantic=8&num_scrambled_causal=4&num_scrambled_schematic=4&participantId=DB500201701B429AA08CAE64378B09D9&assignmentId=e1f7e97e-9808-495e-a187-8f9b9204e746&projectId=742ed384-456e-4a46-b422-5d3d313078b8","DB500201701B429AA08CAE64378B09D9-2025-08-07-05-58-55","","null","","[]","null","",""
"","","","","","image-button-response","66","234987","0.0-12.0-1.0-0.3","DB500201701B429AA08CAE64378B09D9","DB500201701B429AA08CAE64378B09D9","e1f7e97e-9808-495e-a187-8f9b9204e746","742ed384-456e-4a46-b422-5d3d313078b8","{""num_scrambled_semantic"":""8"",""num_scrambled_causal"":""4"",""num_scrambled_schematic"":""4"",""participantId"":""DB500201701B429AA08CAE64378B09D9"",""assignmentId"":""e1f7e97e-9808-495e-a187-8f9b9204e746"",""projectId"":""742ed384-456e-4a46-b422-5d3d313078b8""}","https://test12345.live/?num_scrambled_semantic=8&num_scrambled_causal=4&num_scrambled_schematic=4&participantId=DB500201701B429AA08CAE64378B09D9&assignmentId=e1f7e97e-9808-495e-a187-8f9b9204e746&projectId=742ed384-456e-4a46-b422-5d3d313078b8","DB500201701B429AA08CAE64378B09D9-2025-08-07-05-58-55","","null","","images/causal_sequence/dog_causal/dog_causal_2.png","null","",""
"","","","","","image-button-response","67","235566","0.0-12.0-1.0-1.3","DB500201701B429AA08CAE64378B09D9","DB500201701B429AA08CAE64378B09D9","e1f7e97e-9808-495e-a187-8f9b9204e746","742ed384-456e-4a46-b422-5d3d313078b8","{""num_scrambled_semantic"":""8"",""num_scrambled_causal"":""4"",""num_scrambled_schematic"":""4"",""participantId"":""DB500201701B429AA08CAE64378B09D9"",""assignmentId"":""e1f7e97e-9808-495e-a187-8f9b9204e746"",""projectId"":""742ed384-456e-4a46-b422-5d3d313078b8""}","https://test12345.live/?num_scrambled_semantic=8&num_scrambled_causal=4&num_scrambled_schematic=4&participantId=DB500201701B429AA08CAE64378B09D9&assignmentId=e1f7e97e-9808-495e-a187-8f9b9204e746&projectId=742ed384-456e-4a46-b422-5d3d313078b8","DB500201701B429AA08CAE64378B09D9-2025-08-07-05-58-55","","577","","images/causal_sequence/dog_causal/dog_causal_2.png","0","",""
"","","","","","image-button-response","68","237369","0.0-12.0-1.0-2.3","DB500201701B429AA08CAE64378B09D9","DB500201701B429AA08CAE64378B09D9","e1f7e97e-9808-495e-a187-8f9b9204e746","742ed384-456e-4a46-b422-5d3d313078b8","{""num_scrambled_semantic"":""8"",""num_scrambled_causal"":""4"",""num_scrambled_schematic"":""4"",""participantId"":""DB500201701B429AA08CAE64378B09D9"",""assignmentId"":""e1f7e97e-9808-495e-a187-8f9b9204e746"",""projectId"":""742ed384-456e-4a46-b422-5d3d313078b8""}","https://test12345.live/?num_scrambled_semantic=8&num_scrambled_causal=4&num_scrambled_schematic=4&participantId=DB500201701B429AA08CAE64378B09D9&assignmentId=e1f7e97e-9808-495e-a187-8f9b9204e746&projectId=742ed384-456e-4a46-b422-5d3d313078b8","DB500201701B429AA08CAE64378B09D9-2025-08-07-05-58-55","","null","","[]","null","",""
"","","","","","image-button-response","69","241872","0.0-12.0-1.0-0.4","DB500201701B429AA08CAE64378B09D9","DB500201701B429AA08CAE64378B09D9","e1f7e97e-9808-495e-a187-8f9b9204e746","742ed384-456e-4a46-b422-5d3d313078b8","{""num_scrambled_semantic"":""8"",""num_scrambled_causal"":""4"",""num_scrambled_schematic"":""4"",""participantId"":""DB500201701B429AA08CAE64378B09D9"",""assignmentId"":""e1f7e97e-9808-495e-a187-8f9b9204e746"",""projectId"":""742ed384-456e-4a46-b422-5d3d313078b8""}","https://test12345.live/?num_scrambled_semantic=8&num_scrambled_causal=4&num_scrambled_schematic=4&participantId=DB500201701B429AA08CAE64378B09D9&assignmentId=e1f7e97e-9808-495e-a187-8f9b9204e746&projectId=742ed384-456e-4a46-b422-5d3d313078b8","DB500201701B429AA08CAE64378B09D9-2025-08-07-05-58-55","","null","","images/causal_sequence/dog_causal/dog_causal_6.png","null","",""
"","","","","","image-button-response","70","242676","0.0-12.0-1.0-1.4","DB500201701B429AA08CAE64378B09D9","DB500201701B429AA08CAE64378B09D9","e1f7e97e-9808-495e-a187-8f9b9204e746","742ed384-456e-4a46-b422-5d3d313078b8","{""num_scrambled_semantic"":""8"",""num_scrambled_causal"":""4"",""num_scrambled_schematic"":""4"",""participantId"":""DB500201701B429AA08CAE64378B09D9"",""assignmentId"":""e1f7e97e-9808-495e-a187-8f9b9204e746"",""projectId"":""742ed384-456e-4a46-b422-5d3d313078b8""}","https://test12345.live/?num_scrambled_semantic=8&num_scrambled_causal=4&num_scrambled_schematic=4&participantId=DB500201701B429AA08CAE64378B09D9&assignmentId=e1f7e97e-9808-495e-a187-8f9b9204e746&projectId=742ed384-456e-4a46-b422-5d3d313078b8","DB500201701B429AA08CAE64378B09D9-2025-08-07-05-58-55","","803","","images/causal_sequence/dog_causal/dog_causal_6.png","0","",""
"","","","","","image-button-response","71","244482","0.0-12.0-1.0-2.4","DB500201701B429AA08CAE64378B09D9","DB500201701B429AA08CAE64378B09D9","e1f7e97e-9808-495e-a187-8f9b9204e746","742ed384-456e-4a46-b422-5d3d313078b8","{""num_scrambled_semantic"":""8"",""num_scrambled_causal"":""4"",""num_scrambled_schematic"":""4"",""participantId"":""DB500201701B429AA08CAE64378B09D9"",""assignmentId"":""e1f7e97e-9808-495e-a187-8f9b9204e746"",""projectId"":""742ed384-456e-4a46-b422-5d3d313078b8""}","https://test12345.live/?num_scrambled_semantic=8&num_scrambled_causal=4&num_scrambled_schematic=4&participantId=DB500201701B429AA08CAE64378B09D9&assignmentId=e1f7e97e-9808-495e-a187-8f9b9204e746&projectId=742ed384-456e-4a46-b422-5d3d313078b8","DB500201701B429AA08CAE64378B09D9-2025-08-07-05-58-55","","null","","[]","null","",""
"","","","","","image-button-response","72","248988","0.0-12.0-1.0-0.5","DB500201701B429AA08CAE64378B09D9","DB500201701B429AA08CAE64378B09D9","e1f7e97e-9808-495e-a187-8f9b9204e746","742ed384-456e-4a46-b422-5d3d313078b8","{""num_scrambled_semantic"":""8"",""num_scrambled_causal"":""4"",""num_scrambled_schematic"":""4"",""participantId"":""DB500201701B429AA08CAE64378B09D9"",""assignmentId"":""e1f7e97e-9808-495e-a187-8f9b9204e746"",""projectId"":""742ed384-456e-4a46-b422-5d3d313078b8""}","https://test12345.live/?num_scrambled_semantic=8&num_scrambled_causal=4&num_scrambled_schematic=4&participantId=DB500201701B429AA08CAE64378B09D9&assignmentId=e1f7e97e-9808-495e-a187-8f9b9204e746&projectId=742ed384-456e-4a46-b422-5d3d313078b8","DB500201701B429AA08CAE64378B09D9-2025-08-07-05-58-55","","null","","images/causal_sequence/dog_causal/dog_causal_7.png","null","",""
"","","","","","image-button-response","73","249738","0.0-12.0-1.0-1.5","DB500201701B429AA08CAE64378B09D9","DB500201701B429AA08CAE64378B09D9","e1f7e97e-9808-495e-a187-8f9b9204e746","742ed384-456e-4a46-b422-5d3d313078b8","{""num_scrambled_semantic"":""8"",""num_scrambled_causal"":""4"",""num_scrambled_schematic"":""4"",""participantId"":""DB500201701B429AA08CAE64378B09D9"",""assignmentId"":""e1f7e97e-9808-495e-a187-8f9b9204e746"",""projectId"":""742ed384-456e-4a46-b422-5d3d313078b8""}","https://test12345.live/?num_scrambled_semantic=8&num_scrambled_causal=4&num_scrambled_schematic=4&participantId=DB500201701B429AA08CAE64378B09D9&assignmentId=e1f7e97e-9808-495e-a187-8f9b9204e746&projectId=742ed384-456e-4a46-b422-5d3d313078b8","DB500201701B429AA08CAE64378B09D9-2025-08-07-05-58-55","","747","","images/causal_sequence/dog_causal/dog_causal_7.png","0","",""
"","","","","","image-button-response","74","251554","0.0-12.0-1.0-2.5","DB500201701B429AA08CAE64378B09D9","DB500201701B429AA08CAE64378B09D9","e1f7e97e-9808-495e-a187-8f9b9204e746","742ed384-456e-4a46-b422-5d3d313078b8","{""num_scrambled_semantic"":""8"",""num_scrambled_causal"":""4"",""num_scrambled_schematic"":""4"",""participantId"":""DB500201701B429AA08CAE64378B09D9"",""assignmentId"":""e1f7e97e-9808-495e-a187-8f9b9204e746"",""projectId"":""742ed384-456e-4a46-b422-5d3d313078b8""}","https://test12345.live/?num_scrambled_semantic=8&num_scrambled_causal=4&num_scrambled_schematic=4&participantId=DB500201701B429AA08CAE64378B09D9&assignmentId=e1f7e97e-9808-495e-a187-8f9b9204e746&projectId=742ed384-456e-4a46-b422-5d3d313078b8","DB500201701B429AA08CAE64378B09D9-2025-08-07-05-58-55","","null","","[]","null","",""
"","","","","","image-button-response","75","256056","0.0-12.0-1.0-0.6","DB500201701B429AA08CAE64378B09D9","DB500201701B429AA08CAE64378B09D9","e1f7e97e-9808-495e-a187-8f9b9204e746","742ed384-456e-4a46-b422-5d3d313078b8","{""num_scrambled_semantic"":""8"",""num_scrambled_causal"":""4"",""num_scrambled_schematic"":""4"",""participantId"":""DB500201701B429AA08CAE64378B09D9"",""assignmentId"":""e1f7e97e-9808-495e-a187-8f9b9204e746"",""projectId"":""742ed384-456e-4a46-b422-5d3d313078b8""}","https://test12345.live/?num_scrambled_semantic=8&num_scrambled_causal=4&num_scrambled_schematic=4&participantId=DB500201701B429AA08CAE64378B09D9&assignmentId=e1f7e97e-9808-495e-a187-8f9b9204e746&projectId=742ed384-456e-4a46-b422-5d3d313078b8","DB500201701B429AA08CAE64378B09D9-2025-08-07-05-58-55","","null","","images/causal_sequence/dog_causal/dog_causal_4.png","null","",""
"","","","","","image-button-response","76","257343","0.0-12.0-1.0-1.6","DB500201701B429AA08CAE64378B09D9","DB500201701B429AA08CAE64378B09D9","e1f7e97e-9808-495e-a187-8f9b9204e746","742ed384-456e-4a46-b422-5d3d313078b8","{""num_scrambled_semantic"":""8"",""num_scrambled_causal"":""4"",""num_scrambled_schematic"":""4"",""participantId"":""DB500201701B429AA08CAE64378B09D9"",""assignmentId"":""e1f7e97e-9808-495e-a187-8f9b9204e746"",""projectId"":""742ed384-456e-4a46-b422-5d3d313078b8""}","https://test12345.live/?num_scrambled_semantic=8&num_scrambled_causal=4&num_scrambled_schematic=4&participantId=DB500201701B429AA08CAE64378B09D9&assignmentId=e1f7e97e-9808-495e-a187-8f9b9204e746&projectId=742ed384-456e-4a46-b422-5d3d313078b8","DB500201701B429AA08CAE64378B09D9-2025-08-07-05-58-55","","1286","","images/causal_sequence/dog_causal/dog_causal_4.png","0","",""
"","","","","","image-button-response","77","259161","0.0-12.0-1.0-2.6","DB500201701B429AA08CAE64378B09D9","DB500201701B429AA08CAE64378B09D9","e1f7e97e-9808-495e-a187-8f9b9204e746","742ed384-456e-4a46-b422-5d3d313078b8","{""num_scrambled_semantic"":""8"",""num_scrambled_causal"":""4"",""num_scrambled_schematic"":""4"",""participantId"":""DB500201701B429AA08CAE64378B09D9"",""assignmentId"":""e1f7e97e-9808-495e-a187-8f9b9204e746"",""projectId"":""742ed384-456e-4a46-b422-5d3d313078b8""}","https://test12345.live/?num_scrambled_semantic=8&num_scrambled_causal=4&num_scrambled_schematic=4&participantId=DB500201701B429AA08CAE64378B09D9&assignmentId=e1f7e97e-9808-495e-a187-8f9b9204e746&projectId=742ed384-456e-4a46-b422-5d3d313078b8","DB500201701B429AA08CAE64378B09D9-2025-08-07-05-58-55","","null","","[]","null","",""
"","","","","","image-button-response","78","263663","0.0-12.0-1.0-0.7","DB500201701B429AA08CAE64378B09D9","DB500201701B429AA08CAE64378B09D9","e1f7e97e-9808-495e-a187-8f9b9204e746","742ed384-456e-4a46-b422-5d3d313078b8","{""num_scrambled_semantic"":""8"",""num_scrambled_causal"":""4"",""num_scrambled_schematic"":""4"",""participantId"":""DB500201701B429AA08CAE64378B09D9"",""assignmentId"":""e1f7e97e-9808-495e-a187-8f9b9204e746"",""projectId"":""742ed384-456e-4a46-b422-5d3d313078b8""}","https://test12345.live/?num_scrambled_semantic=8&num_scrambled_causal=4&num_scrambled_schematic=4&participantId=DB500201701B429AA08CAE64378B09D9&assignmentId=e1f7e97e-9808-495e-a187-8f9b9204e746&projectId=742ed384-456e-4a46-b422-5d3d313078b8","DB500201701B429AA08CAE64378B09D9-2025-08-07-05-58-55","","null","","images/causal_sequence/dog_causal/dog_causal_8.png","null","",""
"","","","","","image-button-response","79","264406","0.0-12.0-1.0-1.7","DB500201701B429AA08CAE64378B09D9","DB500201701B429AA08CAE64378B09D9","e1f7e97e-9808-495e-a187-8f9b9204e746","742ed384-456e-4a46-b422-5d3d313078b8","{""num_scrambled_semantic"":""8"",""num_scrambled_causal"":""4"",""num_scrambled_schematic"":""4"",""participantId"":""DB500201701B429AA08CAE64378B09D9"",""assignmentId"":""e1f7e97e-9808-495e-a187-8f9b9204e746"",""projectId"":""742ed384-456e-4a46-b422-5d3d313078b8""}","https://test12345.live/?num_scrambled_semantic=8&num_scrambled_causal=4&num_scrambled_schematic=4&participantId=DB500201701B429AA08CAE64378B09D9&assignmentId=e1f7e97e-9808-495e-a187-8f9b9204e746&projectId=742ed384-456e-4a46-b422-5d3d313078b8","DB500201701B429AA08CAE64378B09D9-2025-08-07-05-58-55","","741","","images/causal_sequence/dog_causal/dog_causal_8.png","0","",""
"","","","","","image-button-response","80","266207","0.0-12.0-1.0-2.7","DB500201701B429AA08CAE64378B09D9","DB500201701B429AA08CAE64378B09D9","e1f7e97e-9808-495e-a187-8f9b9204e746","742ed384-456e-4a46-b422-5d3d313078b8","{""num_scrambled_semantic"":""8"",""num_scrambled_causal"":""4"",""num_scrambled_schematic"":""4"",""participantId"":""DB500201701B429AA08CAE64378B09D9"",""assignmentId"":""e1f7e97e-9808-495e-a187-8f9b9204e746"",""projectId"":""742ed384-456e-4a46-b422-5d3d313078b8""}","https://test12345.live/?num_scrambled_semantic=8&num_scrambled_causal=4&num_scrambled_schematic=4&participantId=DB500201701B429AA08CAE64378B09D9&assignmentId=e1f7e97e-9808-495e-a187-8f9b9204e746&projectId=742ed384-456e-4a46-b422-5d3d313078b8","DB500201701B429AA08CAE64378B09D9-2025-08-07-05-58-55","","null","","[]","null","",""
"","","","","","image-button-response","81","270712","0.0-12.0-1.0-0.8","DB500201701B429AA08CAE64378B09D9","DB500201701B429AA08CAE64378B09D9","e1f7e97e-9808-495e-a187-8f9b9204e746","742ed384-456e-4a46-b422-5d3d313078b8","{""num_scrambled_semantic"":""8"",""num_scrambled_causal"":""4"",""num_scrambled_schematic"":""4"",""participantId"":""DB500201701B429AA08CAE64378B09D9"",""assignmentId"":""e1f7e97e-9808-495e-a187-8f9b9204e746"",""projectId"":""742ed384-456e-4a46-b422-5d3d313078b8""}","https://test12345.live/?num_scrambled_semantic=8&num_scrambled_causal=4&num_scrambled_schematic=4&participantId=DB500201701B429AA08CAE64378B09D9&assignmentId=e1f7e97e-9808-495e-a187-8f9b9204e746&projectId=742ed384-456e-4a46-b422-5d3d313078b8","DB500201701B429AA08CAE64378B09D9-2025-08-07-05-58-55","","null","","images/causal_sequence/dog_causal/dog_causal_5.png","null","",""
"","","","","","image-button-response","82","271208","0.0-12.0-1.0-1.8","DB500201701B429AA08CAE64378B09D9","DB500201701B429AA08CAE64378B09D9","e1f7e97e-9808-495e-a187-8f9b9204e746","742ed384-456e-4a46-b422-5d3d313078b8","{""num_scrambled_semantic"":""8"",""num_scrambled_causal"":""4"",""num_scrambled_schematic"":""4"",""participantId"":""DB500201701B429AA08CAE64378B09D9"",""assignmentId"":""e1f7e97e-9808-495e-a187-8f9b9204e746"",""projectId"":""742ed384-456e-4a46-b422-5d3d313078b8""}","https://test12345.live/?num_scrambled_semantic=8&num_scrambled_causal=4&num_scrambled_schematic=4&participantId=DB500201701B429AA08CAE64378B09D9&assignmentId=e1f7e97e-9808-495e-a187-8f9b9204e746&projectId=742ed384-456e-4a46-b422-5d3d313078b8","DB500201701B429AA08CAE64378B09D9-2025-08-07-05-58-55","","494","","images/causal_sequence/dog_causal/dog_causal_5.png","0","",""
"","","","","","image-button-response","83","273020","0.0-12.0-1.0-2.8","DB500201701B429AA08CAE64378B09D9","DB500201701B429AA08CAE64378B09D9","e1f7e97e-9808-495e-a187-8f9b9204e746","742ed384-456e-4a46-b422-5d3d313078b8","{""num_scrambled_semantic"":""8"",""num_scrambled_causal"":""4"",""num_scrambled_schematic"":""4"",""participantId"":""DB500201701B429AA08CAE64378B09D9"",""assignmentId"":""e1f7e97e-9808-495e-a187-8f9b9204e746"",""projectId"":""742ed384-456e-4a46-b422-5d3d313078b8""}","https://test12345.live/?num_scrambled_semantic=8&num_scrambled_causal=4&num_scrambled_schematic=4&participantId=DB500201701B429AA08CAE64378B09D9&assignmentId=e1f7e97e-9808-495e-a187-8f9b9204e746&projectId=742ed384-456e-4a46-b422-5d3d313078b8","DB500201701B429AA08CAE64378B09D9-2025-08-07-05-58-55","","null","","[]","null","",""
"","","","","","image-button-response","84","277523","0.0-12.0-1.0-0.9","DB500201701B429AA08CAE64378B09D9","DB500201701B429AA08CAE64378B09D9","e1f7e97e-9808-495e-a187-8f9b9204e746","742ed384-456e-4a46-b422-5d3d313078b8","{""num_scrambled_semantic"":""8"",""num_scrambled_causal"":""4"",""num_scrambled_schematic"":""4"",""participantId"":""DB500201701B429AA08CAE64378B09D9"",""assignmentId"":""e1f7e97e-9808-495e-a187-8f9b9204e746"",""projectId"":""742ed384-456e-4a46-b422-5d3d313078b8""}","https://test12345.live/?num_scrambled_semantic=8&num_scrambled_causal=4&num_scrambled_schematic=4&participantId=DB500201701B429AA08CAE64378B09D9&assignmentId=e1f7e97e-9808-495e-a187-8f9b9204e746&projectId=742ed384-456e-4a46-b422-5d3d313078b8","DB500201701B429AA08CAE64378B09D9-2025-08-07-05-58-55","","null","","images/causal_sequence/dog_causal/dog_causal_3.png","null","",""
"","","","","","image-button-response","85","278303","0.0-12.0-1.0-1.9","DB500201701B429AA08CAE64378B09D9","DB500201701B429AA08CAE64378B09D9","e1f7e97e-9808-495e-a187-8f9b9204e746","742ed384-456e-4a46-b422-5d3d313078b8","{""num_scrambled_semantic"":""8"",""num_scrambled_causal"":""4"",""num_scrambled_schematic"":""4"",""participantId"":""DB500201701B429AA08CAE64378B09D9"",""assignmentId"":""e1f7e97e-9808-495e-a187-8f9b9204e746"",""projectId"":""742ed384-456e-4a46-b422-5d3d313078b8""}","https://test12345.live/?num_scrambled_semantic=8&num_scrambled_causal=4&num_scrambled_schematic=4&participantId=DB500201701B429AA08CAE64378B09D9&assignmentId=e1f7e97e-9808-495e-a187-8f9b9204e746&projectId=742ed384-456e-4a46-b422-5d3d313078b8","DB500201701B429AA08CAE64378B09D9-2025-08-07-05-58-55","","779","","images/causal_sequence/dog_causal/dog_causal_3.png","0","",""
"","","","","","image-button-response","86","280110","0.0-12.0-1.0-2.9","DB500201701B429AA08CAE64378B09D9","DB500201701B429AA08CAE64378B09D9","e1f7e97e-9808-495e-a187-8f9b9204e746","742ed384-456e-4a46-b422-5d3d313078b8","{""num_scrambled_semantic"":""8"",""num_scrambled_causal"":""4"",""num_scrambled_schematic"":""4"",""participantId"":""DB500201701B429AA08CAE64378B09D9"",""assignmentId"":""e1f7e97e-9808-495e-a187-8f9b9204e746"",""projectId"":""742ed384-456e-4a46-b422-5d3d313078b8""}","https://test12345.live/?num_scrambled_semantic=8&num_scrambled_causal=4&num_scrambled_schematic=4&participantId=DB500201701B429AA08CAE64378B09D9&assignmentId=e1f7e97e-9808-495e-a187-8f9b9204e746&projectId=742ed384-456e-4a46-b422-5d3d313078b8","DB500201701B429AA08CAE64378B09D9-2025-08-07-05-58-55","","null","","[]","null","",""
"","","","","","html-audio-response","87","302144","0.0-13.0","DB500201701B429AA08CAE64378B09D9","DB500201701B429AA08CAE64378B09D9","e1f7e97e-9808-495e-a187-8f9b9204e746","742ed384-456e-4a46-b422-5d3d313078b8","{""num_scrambled_semantic"":""8"",""num_scrambled_causal"":""4"",""num_scrambled_schematic"":""4"",""participantId"":""DB500201701B429AA08CAE64378B09D9"",""assignmentId"":""e1f7e97e-9808-495e-a187-8f9b9204e746"",""projectId"":""742ed384-456e-4a46-b422-5d3d313078b8""}","https://test12345.live/?num_scrambled_semantic=8&num_scrambled_causal=4&num_scrambled_schematic=4&participantId=DB500201701B429AA08CAE64378B09D9&assignmentId=e1f7e97e-9808-495e-a187-8f9b9204e746&projectId=742ed384-456e-4a46-b422-5d3d313078b8","DB500201701B429AA08CAE64378B09D9-2025-08-07-05-58-55","","20394","","[""<span style=\""color: red; font-size: 24px\""> NOW RECORDING</span><p>Please say out loud all the images you saw, in the exact order you saw them. Try to recall as many images as you can, but remember: getting the order right is more important than the number of images you recall.</p>""]","","8","dog_causal"
"","","","","","image-button-response","88","308170","0.0-14.0-0.0","DB500201701B429AA08CAE64378B09D9","DB500201701B429AA08CAE64378B09D9","e1f7e97e-9808-495e-a187-8f9b9204e746","742ed384-456e-4a46-b422-5d3d313078b8","{""num_scrambled_semantic"":""8"",""num_scrambled_causal"":""4"",""num_scrambled_schematic"":""4"",""participantId"":""DB500201701B429AA08CAE64378B09D9"",""assignmentId"":""e1f7e97e-9808-495e-a187-8f9b9204e746"",""projectId"":""742ed384-456e-4a46-b422-5d3d313078b8""}","https://test12345.live/?num_scrambled_semantic=8&num_scrambled_causal=4&num_scrambled_schematic=4&participantId=DB500201701B429AA08CAE64378B09D9&assignmentId=e1f7e97e-9808-495e-a187-8f9b9204e746&projectId=742ed384-456e-4a46-b422-5d3d313078b8","DB500201701B429AA08CAE64378B09D9-2025-08-07-05-58-55","","null","","images/causal_sequence/the_performance_causal/the_performance_causal_0.png","null","",""
"","","","","","image-button-response","89","312685","0.0-14.0-1.0-0.0","DB500201701B429AA08CAE64378B09D9","DB500201701B429AA08CAE64378B09D9","e1f7e97e-9808-495e-a187-8f9b9204e746","742ed384-456e-4a46-b422-5d3d313078b8","{""num_scrambled_semantic"":""8"",""num_scrambled_causal"":""4"",""num_scrambled_schematic"":""4"",""participantId"":""DB500201701B429AA08CAE64378B09D9"",""assignmentId"":""e1f7e97e-9808-495e-a187-8f9b9204e746"",""projectId"":""742ed384-456e-4a46-b422-5d3d313078b8""}","https://test12345.live/?num_scrambled_semantic=8&num_scrambled_causal=4&num_scrambled_schematic=4&participantId=DB500201701B429AA08CAE64378B09D9&assignmentId=e1f7e97e-9808-495e-a187-8f9b9204e746&projectId=742ed384-456e-4a46-b422-5d3d313078b8","DB500201701B429AA08CAE64378B09D9-2025-08-07-05-58-55","","null","","images/causal_sequence/the_performance_causal/the_performance_causal_1.png","null","",""
"","","","","","image-button-response","90","314757","0.0-14.0-1.0-1.0","DB500201701B429AA08CAE64378B09D9","DB500201701B429AA08CAE64378B09D9","e1f7e97e-9808-495e-a187-8f9b9204e746","742ed384-456e-4a46-b422-5d3d313078b8","{""num_scrambled_semantic"":""8"",""num_scrambled_causal"":""4"",""num_scrambled_schematic"":""4"",""participantId"":""DB500201701B429AA08CAE64378B09D9"",""assignmentId"":""e1f7e97e-9808-495e-a187-8f9b9204e746"",""projectId"":""742ed384-456e-4a46-b422-5d3d313078b8""}","https://test12345.live/?num_scrambled_semantic=8&num_scrambled_causal=4&num_scrambled_schematic=4&participantId=DB500201701B429AA08CAE64378B09D9&assignmentId=e1f7e97e-9808-495e-a187-8f9b9204e746&projectId=742ed384-456e-4a46-b422-5d3d313078b8","DB500201701B429AA08CAE64378B09D9-2025-08-07-05-58-55","","2070","","images/causal_sequence/the_performance_causal/the_performance_causal_1.png","0","",""
"","","","","","image-button-response","91","316573","0.0-14.0-1.0-2.0","DB500201701B429AA08CAE64378B09D9","DB500201701B429AA08CAE64378B09D9","e1f7e97e-9808-495e-a187-8f9b9204e746","742ed384-456e-4a46-b422-5d3d313078b8","{""num_scrambled_semantic"":""8"",""num_scrambled_causal"":""4"",""num_scrambled_schematic"":""4"",""participantId"":""DB500201701B429AA08CAE64378B09D9"",""assignmentId"":""e1f7e97e-9808-495e-a187-8f9b9204e746"",""projectId"":""742ed384-456e-4a46-b422-5d3d313078b8""}","https://test12345.live/?num_scrambled_semantic=8&num_scrambled_causal=4&num_scrambled_schematic=4&participantId=DB500201701B429AA08CAE64378B09D9&assignmentId=e1f7e97e-9808-495e-a187-8f9b9204e746&projectId=742ed384-456e-4a46-b422-5d3d313078b8","DB500201701B429AA08CAE64378B09D9-2025-08-07-05-58-55","","null","","[]","null","",""
"","","","","","image-button-response","92","321076","0.0-14.0-1.0-0.1","DB500201701B429AA08CAE64378B09D9","DB500201701B429AA08CAE64378B09D9","e1f7e97e-9808-495e-a187-8f9b9204e746","742ed384-456e-4a46-b422-5d3d313078b8","{""num_scrambled_semantic"":""8"",""num_scrambled_causal"":""4"",""num_scrambled_schematic"":""4"",""participantId"":""DB500201701B429AA08CAE64378B09D9"",""assignmentId"":""e1f7e97e-9808-495e-a187-8f9b9204e746"",""projectId"":""742ed384-456e-4a46-b422-5d3d313078b8""}","https://test12345.live/?num_scrambled_semantic=8&num_scrambled_causal=4&num_scrambled_schematic=4&participantId=DB500201701B429AA08CAE64378B09D9&assignmentId=e1f7e97e-9808-495e-a187-8f9b9204e746&projectId=742ed384-456e-4a46-b422-5d3d313078b8","DB500201701B429AA08CAE64378B09D9-2025-08-07-05-58-55","","null","","images/causal_sequence/the_performance_causal/the_performance_causal_9 (2).png","null","",""
"","","","","","image-button-response","93","321839","0.0-14.0-1.0-1.1","DB500201701B429AA08CAE64378B09D9","DB500201701B429AA08CAE64378B09D9","e1f7e97e-9808-495e-a187-8f9b9204e746","742ed384-456e-4a46-b422-5d3d313078b8","{""num_scrambled_semantic"":""8"",""num_scrambled_causal"":""4"",""num_scrambled_schematic"":""4"",""participantId"":""DB500201701B429AA08CAE64378B09D9"",""assignmentId"":""e1f7e97e-9808-495e-a187-8f9b9204e746"",""projectId"":""742ed384-456e-4a46-b422-5d3d313078b8""}","https://test12345.live/?num_scrambled_semantic=8&num_scrambled_causal=4&num_scrambled_schematic=4&participantId=DB500201701B429AA08CAE64378B09D9&assignmentId=e1f7e97e-9808-495e-a187-8f9b9204e746&projectId=742ed384-456e-4a46-b422-5d3d313078b8","DB500201701B429AA08CAE64378B09D9-2025-08-07-05-58-55","","761","","images/causal_sequence/the_performance_causal/the_performance_causal_9 (2).png","0","",""
"","","","","","image-button-response","94","323647","0.0-14.0-1.0-2.1","DB500201701B429AA08CAE64378B09D9","DB500201701B429AA08CAE64378B09D9","e1f7e97e-9808-495e-a187-8f9b9204e746","742ed384-456e-4a46-b422-5d3d313078b8","{""num_scrambled_semantic"":""8"",""num_scrambled_causal"":""4"",""num_scrambled_schematic"":""4"",""participantId"":""DB500201701B429AA08CAE64378B09D9"",""assignmentId"":""e1f7e97e-9808-495e-a187-8f9b9204e746"",""projectId"":""742ed384-456e-4a46-b422-5d3d313078b8""}","https://test12345.live/?num_scrambled_semantic=8&num_scrambled_causal=4&num_scrambled_schematic=4&participantId=DB500201701B429AA08CAE64378B09D9&assignmentId=e1f7e97e-9808-495e-a187-8f9b9204e746&projectId=742ed384-456e-4a46-b422-5d3d313078b8","DB500201701B429AA08CAE64378B09D9-2025-08-07-05-58-55","","null","","[]","null","",""
"","","","","","image-button-response","95","328150","0.0-14.0-1.0-0.2","DB500201701B429AA08CAE64378B09D9","DB500201701B429AA08CAE64378B09D9","e1f7e97e-9808-495e-a187-8f9b9204e746","742ed384-456e-4a46-b422-5d3d313078b8","{""num_scrambled_semantic"":""8"",""num_scrambled_causal"":""4"",""num_scrambled_schematic"":""4"",""participantId"":""DB500201701B429AA08CAE64378B09D9"",""assignmentId"":""e1f7e97e-9808-495e-a187-8f9b9204e746"",""projectId"":""742ed384-456e-4a46-b422-5d3d313078b8""}","https://test12345.live/?num_scrambled_semantic=8&num_scrambled_causal=4&num_scrambled_schematic=4&participantId=DB500201701B429AA08CAE64378B09D9&assignmentId=e1f7e97e-9808-495e-a187-8f9b9204e746&projectId=742ed384-456e-4a46-b422-5d3d313078b8","DB500201701B429AA08CAE64378B09D9-2025-08-07-05-58-55","","null","","images/causal_sequence/the_performance_causal/the_performance_causal_7.png","null","",""
"","","","","","image-button-response","96","329366","0.0-14.0-1.0-1.2","DB500201701B429AA08CAE64378B09D9","DB500201701B429AA08CAE64378B09D9","e1f7e97e-9808-495e-a187-8f9b9204e746","742ed384-456e-4a46-b422-5d3d313078b8","{""num_scrambled_semantic"":""8"",""num_scrambled_causal"":""4"",""num_scrambled_schematic"":""4"",""participantId"":""DB500201701B429AA08CAE64378B09D9"",""assignmentId"":""e1f7e97e-9808-495e-a187-8f9b9204e746"",""projectId"":""742ed384-456e-4a46-b422-5d3d313078b8""}","https://test12345.live/?num_scrambled_semantic=8&num_scrambled_causal=4&num_scrambled_schematic=4&participantId=DB500201701B429AA08CAE64378B09D9&assignmentId=e1f7e97e-9808-495e-a187-8f9b9204e746&projectId=742ed384-456e-4a46-b422-5d3d313078b8","DB500201701B429AA08CAE64378B09D9-2025-08-07-05-58-55","","1214","","images/causal_sequence/the_performance_causal/the_performance_causal_7.png","0","",""
"","","","","","image-button-response","97","331169","0.0-14.0-1.0-2.2","DB500201701B429AA08CAE64378B09D9","DB500201701B429AA08CAE64378B09D9","e1f7e97e-9808-495e-a187-8f9b9204e746","742ed384-456e-4a46-b422-5d3d313078b8","{""num_scrambled_semantic"":""8"",""num_scrambled_causal"":""4"",""num_scrambled_schematic"":""4"",""participantId"":""DB500201701B429AA08CAE64378B09D9"",""assignmentId"":""e1f7e97e-9808-495e-a187-8f9b9204e746"",""projectId"":""742ed384-456e-4a46-b422-5d3d313078b8""}","https://test12345.live/?num_scrambled_semantic=8&num_scrambled_causal=4&num_scrambled_schematic=4&participantId=DB500201701B429AA08CAE64378B09D9&assignmentId=e1f7e97e-9808-495e-a187-8f9b9204e746&projectId=742ed384-456e-4a46-b422-5d3d313078b8","DB500201701B429AA08CAE64378B09D9-2025-08-07-05-58-55","","null","","[]","null","",""
"","","","","","image-button-response","98","335685","0.0-14.0-1.0-0.3","DB500201701B429AA08CAE64378B09D9","DB500201701B429AA08CAE64378B09D9","e1f7e97e-9808-495e-a187-8f9b9204e746","742ed384-456e-4a46-b422-5d3d313078b8","{""num_scrambled_semantic"":""8"",""num_scrambled_causal"":""4"",""num_scrambled_schematic"":""4"",""participantId"":""DB500201701B429AA08CAE64378B09D9"",""assignmentId"":""e1f7e97e-9808-495e-a187-8f9b9204e746"",""projectId"":""742ed384-456e-4a46-b422-5d3d313078b8""}","https://test12345.live/?num_scrambled_semantic=8&num_scrambled_causal=4&num_scrambled_schematic=4&participantId=DB500201701B429AA08CAE64378B09D9&assignmentId=e1f7e97e-9808-495e-a187-8f9b9204e746&projectId=742ed384-456e-4a46-b422-5d3d313078b8","DB500201701B429AA08CAE64378B09D9-2025-08-07-05-58-55","","null","","images/causal_sequence/the_performance_causal/the_performance_causal_4.png","null","",""
"","","","","","image-button-response","99","336724","0.0-14.0-1.0-1.3","DB500201701B429AA08CAE64378B09D9","DB500201701B429AA08CAE64378B09D9","e1f7e97e-9808-495e-a187-8f9b9204e746","742ed384-456e-4a46-b422-5d3d313078b8","{""num_scrambled_semantic"":""8"",""num_scrambled_causal"":""4"",""num_scrambled_schematic"":""4"",""participantId"":""DB500201701B429AA08CAE64378B09D9"",""assignmentId"":""e1f7e97e-9808-495e-a187-8f9b9204e746"",""projectId"":""742ed384-456e-4a46-b422-5d3d313078b8""}","https://test12345.live/?num_scrambled_semantic=8&num_scrambled_causal=4&num_scrambled_schematic=4&participantId=DB500201701B429AA08CAE64378B09D9&assignmentId=e1f7e97e-9808-495e-a187-8f9b9204e746&projectId=742ed384-456e-4a46-b422-5d3d313078b8","DB500201701B429AA08CAE64378B09D9-2025-08-07-05-58-55","","1037","","images/causal_sequence/the_performance_causal/the_performance_causal_4.png","0","",""
"","","","","","image-button-response","100","338533","0.0-14.0-1.0-2.3","DB500201701B429AA08CAE64378B09D9","DB500201701B429AA08CAE64378B09D9","e1f7e97e-9808-495e-a187-8f9b9204e746","742ed384-456e-4a46-b422-5d3d313078b8","{""num_scrambled_semantic"":""8"",""num_scrambled_causal"":""4"",""num_scrambled_schematic"":""4"",""participantId"":""DB500201701B429AA08CAE64378B09D9"",""assignmentId"":""e1f7e97e-9808-495e-a187-8f9b9204e746"",""projectId"":""742ed384-456e-4a46-b422-5d3d313078b8""}","https://test12345.live/?num_scrambled_semantic=8&num_scrambled_causal=4&num_scrambled_schematic=4&participantId=DB500201701B429AA08CAE64378B09D9&assignmentId=e1f7e97e-9808-495e-a187-8f9b9204e746&projectId=742ed384-456e-4a46-b422-5d3d313078b8","DB500201701B429AA08CAE64378B09D9-2025-08-07-05-58-55","","null","","[]","null","",""
"","","","","","image-button-response","101","343044","0.0-14.0-1.0-0.4","DB500201701B429AA08CAE64378B09D9","DB500201701B429AA08CAE64378B09D9","e1f7e97e-9808-495e-a187-8f9b9204e746","742ed384-456e-4a46-b422-5d3d313078b8","{""num_scrambled_semantic"":""8"",""num_scrambled_causal"":""4"",""num_scrambled_schematic"":""4"",""participantId"":""DB500201701B429AA08CAE64378B09D9"",""assignmentId"":""e1f7e97e-9808-495e-a187-8f9b9204e746"",""projectId"":""742ed384-456e-4a46-b422-5d3d313078b8""}","https://test12345.live/?num_scrambled_semantic=8&num_scrambled_causal=4&num_scrambled_schematic=4&participantId=DB500201701B429AA08CAE64378B09D9&assignmentId=e1f7e97e-9808-495e-a187-8f9b9204e746&projectId=742ed384-456e-4a46-b422-5d3d313078b8","DB500201701B429AA08CAE64378B09D9-2025-08-07-05-58-55","","null","","images/causal_sequence/the_performance_causal/the_performance_causal_9.png","null","",""
"","","","","","image-button-response","102","344507","0.0-14.0-1.0-1.4","DB500201701B429AA08CAE64378B09D9","DB500201701B429AA08CAE64378B09D9","e1f7e97e-9808-495e-a187-8f9b9204e746","742ed384-456e-4a46-b422-5d3d313078b8","{""num_scrambled_semantic"":""8"",""num_scrambled_causal"":""4"",""num_scrambled_schematic"":""4"",""participantId"":""DB500201701B429AA08CAE64378B09D9"",""assignmentId"":""e1f7e97e-9808-495e-a187-8f9b9204e746"",""projectId"":""742ed384-456e-4a46-b422-5d3d313078b8""}","https://test12345.live/?num_scrambled_semantic=8&num_scrambled_causal=4&num_scrambled_schematic=4&participantId=DB500201701B429AA08CAE64378B09D9&assignmentId=e1f7e97e-9808-495e-a187-8f9b9204e746&projectId=742ed384-456e-4a46-b422-5d3d313078b8","DB500201701B429AA08CAE64378B09D9-2025-08-07-05-58-55","","1462","","images/causal_sequence/the_performance_causal/the_performance_causal_9.png","0","",""
"","","","","","image-button-response","103","346325","0.0-14.0-1.0-2.4","DB500201701B429AA08CAE64378B09D9","DB500201701B429AA08CAE64378B09D9","e1f7e97e-9808-495e-a187-8f9b9204e746","742ed384-456e-4a46-b422-5d3d313078b8","{""num_scrambled_semantic"":""8"",""num_scrambled_causal"":""4"",""num_scrambled_schematic"":""4"",""participantId"":""DB500201701B429AA08CAE64378B09D9"",""assignmentId"":""e1f7e97e-9808-495e-a187-8f9b9204e746"",""projectId"":""742ed384-456e-4a46-b422-5d3d313078b8""}","https://test12345.live/?num_scrambled_semantic=8&num_scrambled_causal=4&num_scrambled_schematic=4&participantId=DB500201701B429AA08CAE64378B09D9&assignmentId=e1f7e97e-9808-495e-a187-8f9b9204e746&projectId=742ed384-456e-4a46-b422-5d3d313078b8","DB500201701B429AA08CAE64378B09D9-2025-08-07-05-58-55","","null","","[]","null","",""
"","","","","","image-button-response","104","350831","0.0-14.0-1.0-0.5","DB500201701B429AA08CAE64378B09D9","DB500201701B429AA08CAE64378B09D9","e1f7e97e-9808-495e-a187-8f9b9204e746","742ed384-456e-4a46-b422-5d3d313078b8","{""num_scrambled_semantic"":""8"",""num_scrambled_causal"":""4"",""num_scrambled_schematic"":""4"",""participantId"":""DB500201701B429AA08CAE64378B09D9"",""assignmentId"":""e1f7e97e-9808-495e-a187-8f9b9204e746"",""projectId"":""742ed384-456e-4a46-b422-5d3d313078b8""}","https://test12345.live/?num_scrambled_semantic=8&num_scrambled_causal=4&num_scrambled_schematic=4&participantId=DB500201701B429AA08CAE64378B09D9&assignmentId=e1f7e97e-9808-495e-a187-8f9b9204e746&projectId=742ed384-456e-4a46-b422-5d3d313078b8","DB500201701B429AA08CAE64378B09D9-2025-08-07-05-58-55","","null","","images/causal_sequence/the_performance_causal/the_performance_causal_2.png","null","",""
"","","","","","image-button-response","105","351865","0.0-14.0-1.0-1.5","DB500201701B429AA08CAE64378B09D9","DB500201701B429AA08CAE64378B09D9","e1f7e97e-9808-495e-a187-8f9b9204e746","742ed384-456e-4a46-b422-5d3d313078b8","{""num_scrambled_semantic"":""8"",""num_scrambled_causal"":""4"",""num_scrambled_schematic"":""4"",""participantId"":""DB500201701B429AA08CAE64378B09D9"",""assignmentId"":""e1f7e97e-9808-495e-a187-8f9b9204e746"",""projectId"":""742ed384-456e-4a46-b422-5d3d313078b8""}","https://test12345.live/?num_scrambled_semantic=8&num_scrambled_causal=4&num_scrambled_schematic=4&participantId=DB500201701B429AA08CAE64378B09D9&assignmentId=e1f7e97e-9808-495e-a187-8f9b9204e746&projectId=742ed384-456e-4a46-b422-5d3d313078b8","DB500201701B429AA08CAE64378B09D9-2025-08-07-05-58-55","","1031","","images/causal_sequence/the_performance_causal/the_performance_causal_2.png","0","",""
"","","","","","image-button-response","106","353667","0.0-14.0-1.0-2.5","DB500201701B429AA08CAE64378B09D9","DB500201701B429AA08CAE64378B09D9","e1f7e97e-9808-495e-a187-8f9b9204e746","742ed384-456e-4a46-b422-5d3d313078b8","{""num_scrambled_semantic"":""8"",""num_scrambled_causal"":""4"",""num_scrambled_schematic"":""4"",""participantId"":""DB500201701B429AA08CAE64378B09D9"",""assignmentId"":""e1f7e97e-9808-495e-a187-8f9b9204e746"",""projectId"":""742ed384-456e-4a46-b422-5d3d313078b8""}","https://test12345.live/?num_scrambled_semantic=8&num_scrambled_causal=4&num_scrambled_schematic=4&participantId=DB500201701B429AA08CAE64378B09D9&assignmentId=e1f7e97e-9808-495e-a187-8f9b9204e746&projectId=742ed384-456e-4a46-b422-5d3d313078b8","DB500201701B429AA08CAE64378B09D9-2025-08-07-05-58-55","","null","","[]","null","",""
"","","","","","image-button-response","107","358170","0.0-14.0-1.0-0.6","DB500201701B429AA08CAE64378B09D9","DB500201701B429AA08CAE64378B09D9","e1f7e97e-9808-495e-a187-8f9b9204e746","742ed384-456e-4a46-b422-5d3d313078b8","{""num_scrambled_semantic"":""8"",""num_scrambled_causal"":""4"",""num_scrambled_schematic"":""4"",""participantId"":""DB500201701B429AA08CAE64378B09D9"",""assignmentId"":""e1f7e97e-9808-495e-a187-8f9b9204e746"",""projectId"":""742ed384-456e-4a46-b422-5d3d313078b8""}","https://test12345.live/?num_scrambled_semantic=8&num_scrambled_causal=4&num_scrambled_schematic=4&participantId=DB500201701B429AA08CAE64378B09D9&assignmentId=e1f7e97e-9808-495e-a187-8f9b9204e746&projectId=742ed384-456e-4a46-b422-5d3d313078b8","DB500201701B429AA08CAE64378B09D9-2025-08-07-05-58-55","","null","","images/causal_sequence/the_performance_causal/the_performance_causal_6.png","null","",""
"","","","","","image-button-response","108","358729","0.0-14.0-1.0-1.6","DB500201701B429AA08CAE64378B09D9","DB500201701B429AA08CAE64378B09D9","e1f7e97e-9808-495e-a187-8f9b9204e746","742ed384-456e-4a46-b422-5d3d313078b8","{""num_scrambled_semantic"":""8"",""num_scrambled_causal"":""4"",""num_scrambled_schematic"":""4"",""participantId"":""DB500201701B429AA08CAE64378B09D9"",""assignmentId"":""e1f7e97e-9808-495e-a187-8f9b9204e746"",""projectId"":""742ed384-456e-4a46-b422-5d3d313078b8""}","https://test12345.live/?num_scrambled_semantic=8&num_scrambled_causal=4&num_scrambled_schematic=4&participantId=DB500201701B429AA08CAE64378B09D9&assignmentId=e1f7e97e-9808-495e-a187-8f9b9204e746&projectId=742ed384-456e-4a46-b422-5d3d313078b8","DB500201701B429AA08CAE64378B09D9-2025-08-07-05-58-55","","557","","images/causal_sequence/the_performance_causal/the_performance_causal_6.png","0","",""
"","","","","","image-button-response","109","360541","0.0-14.0-1.0-2.6","DB500201701B429AA08CAE64378B09D9","DB500201701B429AA08CAE64378B09D9","e1f7e97e-9808-495e-a187-8f9b9204e746","742ed384-456e-4a46-b422-5d3d313078b8","{""num_scrambled_semantic"":""8"",""num_scrambled_causal"":""4"",""num_scrambled_schematic"":""4"",""participantId"":""DB500201701B429AA08CAE64378B09D9"",""assignmentId"":""e1f7e97e-9808-495e-a187-8f9b9204e746"",""projectId"":""742ed384-456e-4a46-b422-5d3d313078b8""}","https://test12345.live/?num_scrambled_semantic=8&num_scrambled_causal=4&num_scrambled_schematic=4&participantId=DB500201701B429AA08CAE64378B09D9&assignmentId=e1f7e97e-9808-495e-a187-8f9b9204e746&projectId=742ed384-456e-4a46-b422-5d3d313078b8","DB500201701B429AA08CAE64378B09D9-2025-08-07-05-58-55","","null","","[]","null","",""
"","","","","","image-button-response","110","365044","0.0-14.0-1.0-0.7","DB500201701B429AA08CAE64378B09D9","DB500201701B429AA08CAE64378B09D9","e1f7e97e-9808-495e-a187-8f9b9204e746","742ed384-456e-4a46-b422-5d3d313078b8","{""num_scrambled_semantic"":""8"",""num_scrambled_causal"":""4"",""num_scrambled_schematic"":""4"",""participantId"":""DB500201701B429AA08CAE64378B09D9"",""assignmentId"":""e1f7e97e-9808-495e-a187-8f9b9204e746"",""projectId"":""742ed384-456e-4a46-b422-5d3d313078b8""}","https://test12345.live/?num_scrambled_semantic=8&num_scrambled_causal=4&num_scrambled_schematic=4&participantId=DB500201701B429AA08CAE64378B09D9&assignmentId=e1f7e97e-9808-495e-a187-8f9b9204e746&projectId=742ed384-456e-4a46-b422-5d3d313078b8","DB500201701B429AA08CAE64378B09D9-2025-08-07-05-58-55","","null","","images/causal_sequence/the_performance_causal/the_performance_causal_5.png","null","",""
"","","","","","image-button-response","111","366277","0.0-14.0-1.0-1.7","DB500201701B429AA08CAE64378B09D9","DB500201701B429AA08CAE64378B09D9","e1f7e97e-9808-495e-a187-8f9b9204e746","742ed384-456e-4a46-b422-5d3d313078b8","{""num_scrambled_semantic"":""8"",""num_scrambled_causal"":""4"",""num_scrambled_schematic"":""4"",""participantId"":""DB500201701B429AA08CAE64378B09D9"",""assignmentId"":""e1f7e97e-9808-495e-a187-8f9b9204e746"",""projectId"":""742ed384-456e-4a46-b422-5d3d313078b8""}","https://test12345.live/?num_scrambled_semantic=8&num_scrambled_causal=4&num_scrambled_schematic=4&participantId=DB500201701B429AA08CAE64378B09D9&assignmentId=e1f7e97e-9808-495e-a187-8f9b9204e746&projectId=742ed384-456e-4a46-b422-5d3d313078b8","DB500201701B429AA08CAE64378B09D9-2025-08-07-05-58-55","","1232","","images/causal_sequence/the_performance_causal/the_performance_causal_5.png","0","",""
"","","","","","image-button-response","112","368090","0.0-14.0-1.0-2.7","DB500201701B429AA08CAE64378B09D9","DB500201701B429AA08CAE64378B09D9","e1f7e97e-9808-495e-a187-8f9b9204e746","742ed384-456e-4a46-b422-5d3d313078b8","{""num_scrambled_semantic"":""8"",""num_scrambled_causal"":""4"",""num_scrambled_schematic"":""4"",""participantId"":""DB500201701B429AA08CAE64378B09D9"",""assignmentId"":""e1f7e97e-9808-495e-a187-8f9b9204e746"",""projectId"":""742ed384-456e-4a46-b422-5d3d313078b8""}","https://test12345.live/?num_scrambled_semantic=8&num_scrambled_causal=4&num_scrambled_schematic=4&participantId=DB500201701B429AA08CAE64378B09D9&assignmentId=e1f7e97e-9808-495e-a187-8f9b9204e746&projectId=742ed384-456e-4a46-b422-5d3d313078b8","DB500201701B429AA08CAE64378B09D9-2025-08-07-05-58-55","","null","","[]","null","",""
"","","","","","image-button-response","113","372594","0.0-14.0-1.0-0.8","DB500201701B429AA08CAE64378B09D9","DB500201701B429AA08CAE64378B09D9","e1f7e97e-9808-495e-a187-8f9b9204e746","742ed384-456e-4a46-b422-5d3d313078b8","{""num_scrambled_semantic"":""8"",""num_scrambled_causal"":""4"",""num_scrambled_schematic"":""4"",""participantId"":""DB500201701B429AA08CAE64378B09D9"",""assignmentId"":""e1f7e97e-9808-495e-a187-8f9b9204e746"",""projectId"":""742ed384-456e-4a46-b422-5d3d313078b8""}","https://test12345.live/?num_scrambled_semantic=8&num_scrambled_causal=4&num_scrambled_schematic=4&participantId=DB500201701B429AA08CAE64378B09D9&assignmentId=e1f7e97e-9808-495e-a187-8f9b9204e746&projectId=742ed384-456e-4a46-b422-5d3d313078b8","DB500201701B429AA08CAE64378B09D9-2025-08-07-05-58-55","","null","","images/causal_sequence/the_performance_causal/the_performance_causal_8.png","null","",""
