"success","timeout","failed_images","failed_audio","failed_video","trial_type","trial_index","time_elapsed","internal_node_id","subject","subject_id","study_id","session_id","urlvar","current_url","audio_id","view_history","rt","device_id","stimulus","response","estimated_stimulus_onset","seq_name"
"true","false","[]","[]","[]","preload","0","9930","0.0-0.0","DC0C46265A2D4D01B0A6ADB321161AF4","DC0C46265A2D4D01B0A6ADB321161AF4","25067b55-2b9a-4741-8803-936805df588b","9076ac92-be42-43a2-9634-8b67c7fe93a7","{""num_scrambled_semantic"":""8"",""num_scrambled_causal"":""4"",""num_scrambled_schematic"":""4"",""participantId"":""DC0C46265A2D4D01B0A6ADB321161AF4"",""assignmentId"":""25067b55-2b9a-4741-8803-936805df588b"",""projectId"":""9076ac92-be42-43a2-9634-8b67c7fe93a7""}","https://test12345.live/?num_scrambled_semantic=8&num_scrambled_causal=4&num_scrambled_schematic=4&participantId=DC0C46265A2D4D01B0A6ADB321161AF4&assignmentId=25067b55-2b9a-4741-8803-936805df588b&projectId=9076ac92-be42-43a2-9634-8b67c7fe93a7","DC0C46265A2D4D01B0A6ADB321161AF4-2025-05-22-20-10-53","","","","","","",""
"","","","","","instructions","1","69691","0.0-1.0","DC0C46265A2D4D01B0A6ADB321161AF4","DC0C46265A2D4D01B0A6ADB321161AF4","25067b55-2b9a-4741-8803-936805df588b","9076ac92-be42-43a2-9634-8b67c7fe93a7","{""num_scrambled_semantic"":""8"",""num_scrambled_causal"":""4"",""num_scrambled_schematic"":""4"",""participantId"":""DC0C46265A2D4D01B0A6ADB321161AF4"",""assignmentId"":""25067b55-2b9a-4741-8803-936805df588b"",""projectId"":""9076ac92-be42-43a2-9634-8b67c7fe93a7""}","https://test12345.live/?num_scrambled_semantic=8&num_scrambled_causal=4&num_scrambled_schematic=4&participantId=DC0C46265A2D4D01B0A6ADB321161AF4&assignmentId=25067b55-2b9a-4741-8803-936805df588b&projectId=9076ac92-be42-43a2-9634-8b67c7fe93a7","DC0C46265A2D4D01B0A6ADB321161AF4-2025-05-22-20-10-53","[{""page_index"":0,""viewing_time"":59758}]","59759","","","","",""
"","","","","","instructions","2","125461","0.0-2.0","DC0C46265A2D4D01B0A6ADB321161AF4","DC0C46265A2D4D01B0A6ADB321161AF4","25067b55-2b9a-4741-8803-936805df588b","9076ac92-be42-43a2-9634-8b67c7fe93a7","{""num_scrambled_semantic"":""8"",""num_scrambled_causal"":""4"",""num_scrambled_schematic"":""4"",""participantId"":""DC0C46265A2D4D01B0A6ADB321161AF4"",""assignmentId"":""25067b55-2b9a-4741-8803-936805df588b"",""projectId"":""9076ac92-be42-43a2-9634-8b67c7fe93a7""}","https://test12345.live/?num_scrambled_semantic=8&num_scrambled_causal=4&num_scrambled_schematic=4&participantId=DC0C46265A2D4D01B0A6ADB321161AF4&assignmentId=25067b55-2b9a-4741-8803-936805df588b&projectId=9076ac92-be42-43a2-9634-8b67c7fe93a7","DC0C46265A2D4D01B0A6ADB321161AF4-2025-05-22-20-10-53","[{""page_index"":0,""viewing_time"":55767}]","55768","","","","",""
"true","","","","","fullscreen","3","130602","0.0-3.0","DC0C46265A2D4D01B0A6ADB321161AF4","DC0C46265A2D4D01B0A6ADB321161AF4","25067b55-2b9a-4741-8803-936805df588b","9076ac92-be42-43a2-9634-8b67c7fe93a7","{""num_scrambled_semantic"":""8"",""num_scrambled_causal"":""4"",""num_scrambled_schematic"":""4"",""participantId"":""DC0C46265A2D4D01B0A6ADB321161AF4"",""assignmentId"":""25067b55-2b9a-4741-8803-936805df588b"",""projectId"":""9076ac92-be42-43a2-9634-8b67c7fe93a7""}","https://test12345.live/?num_scrambled_semantic=8&num_scrambled_causal=4&num_scrambled_schematic=4&participantId=DC0C46265A2D4D01B0A6ADB321161AF4&assignmentId=25067b55-2b9a-4741-8803-936805df588b&projectId=9076ac92-be42-43a2-9634-8b67c7fe93a7","DC0C46265A2D4D01B0A6ADB321161AF4-2025-05-22-20-10-53","","4131","","","","",""
"","","","","","initialize-microphone","4","145228","0.0-4.0-0.0","DC0C46265A2D4D01B0A6ADB321161AF4","DC0C46265A2D4D01B0A6ADB321161AF4","25067b55-2b9a-4741-8803-936805df588b","9076ac92-be42-43a2-9634-8b67c7fe93a7","{""num_scrambled_semantic"":""8"",""num_scrambled_causal"":""4"",""num_scrambled_schematic"":""4"",""participantId"":""DC0C46265A2D4D01B0A6ADB321161AF4"",""assignmentId"":""25067b55-2b9a-4741-8803-936805df588b"",""projectId"":""9076ac92-be42-43a2-9634-8b67c7fe93a7""}","https://test12345.live/?num_scrambled_semantic=8&num_scrambled_causal=4&num_scrambled_schematic=4&participantId=DC0C46265A2D4D01B0A6ADB321161AF4&assignmentId=25067b55-2b9a-4741-8803-936805df588b&projectId=9076ac92-be42-43a2-9634-8b67c7fe93a7","DC0C46265A2D4D01B0A6ADB321161AF4-2025-05-22-20-10-53","","","1099cc8cc69eb9f123e8f87376dc0e12eb1a4bdd26e104ae964700d85600f28e","","","",""
"","","","","","html-audio-response","5","165355","0.0-4.0-1.0","DC0C46265A2D4D01B0A6ADB321161AF4","DC0C46265A2D4D01B0A6ADB321161AF4","25067b55-2b9a-4741-8803-936805df588b","9076ac92-be42-43a2-9634-8b67c7fe93a7","{""num_scrambled_semantic"":""8"",""num_scrambled_causal"":""4"",""num_scrambled_schematic"":""4"",""participantId"":""DC0C46265A2D4D01B0A6ADB321161AF4"",""assignmentId"":""25067b55-2b9a-4741-8803-936805df588b"",""projectId"":""9076ac92-be42-43a2-9634-8b67c7fe93a7""}","https://test12345.live/?num_scrambled_semantic=8&num_scrambled_causal=4&num_scrambled_schematic=4&participantId=DC0C46265A2D4D01B0A6ADB321161AF4&assignmentId=25067b55-2b9a-4741-8803-936805df588b&projectId=9076ac92-be42-43a2-9634-8b67c7fe93a7","DC0C46265A2D4D01B0A6ADB321161AF4-2025-05-22-20-10-53","","8040","","<span style=""color: red; font-size: 24px""> NOW RECORDING</span>
        <p>Please test Microphone</p>","","7",""
"","","","","","html-button-response","6","168651","0.0-4.0-2.0","DC0C46265A2D4D01B0A6ADB321161AF4","DC0C46265A2D4D01B0A6ADB321161AF4","25067b55-2b9a-4741-8803-936805df588b","9076ac92-be42-43a2-9634-8b67c7fe93a7","{""num_scrambled_semantic"":""8"",""num_scrambled_causal"":""4"",""num_scrambled_schematic"":""4"",""participantId"":""DC0C46265A2D4D01B0A6ADB321161AF4"",""assignmentId"":""25067b55-2b9a-4741-8803-936805df588b"",""projectId"":""9076ac92-be42-43a2-9634-8b67c7fe93a7""}","https://test12345.live/?num_scrambled_semantic=8&num_scrambled_causal=4&num_scrambled_schematic=4&participantId=DC0C46265A2D4D01B0A6ADB321161AF4&assignmentId=25067b55-2b9a-4741-8803-936805df588b&projectId=9076ac92-be42-43a2-9634-8b67c7fe93a7","DC0C46265A2D4D01B0A6ADB321161AF4-2025-05-22-20-10-53","","3292","","<p style=""font-size:48px; color:red;"">Is Microphone OK?</p>","1","",""
"","","","","","instructions","7","195572","0.0-5.0","DC0C46265A2D4D01B0A6ADB321161AF4","DC0C46265A2D4D01B0A6ADB321161AF4","25067b55-2b9a-4741-8803-936805df588b","9076ac92-be42-43a2-9634-8b67c7fe93a7","{""num_scrambled_semantic"":""8"",""num_scrambled_causal"":""4"",""num_scrambled_schematic"":""4"",""participantId"":""DC0C46265A2D4D01B0A6ADB321161AF4"",""assignmentId"":""25067b55-2b9a-4741-8803-936805df588b"",""projectId"":""9076ac92-be42-43a2-9634-8b67c7fe93a7""}","https://test12345.live/?num_scrambled_semantic=8&num_scrambled_causal=4&num_scrambled_schematic=4&participantId=DC0C46265A2D4D01B0A6ADB321161AF4&assignmentId=25067b55-2b9a-4741-8803-936805df588b&projectId=9076ac92-be42-43a2-9634-8b67c7fe93a7","DC0C46265A2D4D01B0A6ADB321161AF4-2025-05-22-20-10-53","[{""page_index"":0,""viewing_time"":10967},{""page_index"":1,""viewing_time"":15952}]","26919","","","","",""
"","","","","","image-button-response","8","201584","0.0-6.0-0.0","DC0C46265A2D4D01B0A6ADB321161AF4","DC0C46265A2D4D01B0A6ADB321161AF4","25067b55-2b9a-4741-8803-936805df588b","9076ac92-be42-43a2-9634-8b67c7fe93a7","{""num_scrambled_semantic"":""8"",""num_scrambled_causal"":""4"",""num_scrambled_schematic"":""4"",""participantId"":""DC0C46265A2D4D01B0A6ADB321161AF4"",""assignmentId"":""25067b55-2b9a-4741-8803-936805df588b"",""projectId"":""9076ac92-be42-43a2-9634-8b67c7fe93a7""}","https://test12345.live/?num_scrambled_semantic=8&num_scrambled_causal=4&num_scrambled_schematic=4&participantId=DC0C46265A2D4D01B0A6ADB321161AF4&assignmentId=25067b55-2b9a-4741-8803-936805df588b&projectId=9076ac92-be42-43a2-9634-8b67c7fe93a7","DC0C46265A2D4D01B0A6ADB321161AF4-2025-05-22-20-10-53","","null","","images/instructions/movie_0.png","null","",""
"","","","","","image-button-response","9","206089","0.0-6.0-1.0-0.0","DC0C46265A2D4D01B0A6ADB321161AF4","DC0C46265A2D4D01B0A6ADB321161AF4","25067b55-2b9a-4741-8803-936805df588b","9076ac92-be42-43a2-9634-8b67c7fe93a7","{""num_scrambled_semantic"":""8"",""num_scrambled_causal"":""4"",""num_scrambled_schematic"":""4"",""participantId"":""DC0C46265A2D4D01B0A6ADB321161AF4"",""assignmentId"":""25067b55-2b9a-4741-8803-936805df588b"",""projectId"":""9076ac92-be42-43a2-9634-8b67c7fe93a7""}","https://test12345.live/?num_scrambled_semantic=8&num_scrambled_causal=4&num_scrambled_schematic=4&participantId=DC0C46265A2D4D01B0A6ADB321161AF4&assignmentId=25067b55-2b9a-4741-8803-936805df588b&projectId=9076ac92-be42-43a2-9634-8b67c7fe93a7","DC0C46265A2D4D01B0A6ADB321161AF4-2025-05-22-20-10-53","","null","","images/instructions/movie_1.png","null","",""
"","","","","","image-button-response","10","210099","0.0-6.0-1.0-1.0","DC0C46265A2D4D01B0A6ADB321161AF4","DC0C46265A2D4D01B0A6ADB321161AF4","25067b55-2b9a-4741-8803-936805df588b","9076ac92-be42-43a2-9634-8b67c7fe93a7","{""num_scrambled_semantic"":""8"",""num_scrambled_causal"":""4"",""num_scrambled_schematic"":""4"",""participantId"":""DC0C46265A2D4D01B0A6ADB321161AF4"",""assignmentId"":""25067b55-2b9a-4741-8803-936805df588b"",""projectId"":""9076ac92-be42-43a2-9634-8b67c7fe93a7""}","https://test12345.live/?num_scrambled_semantic=8&num_scrambled_causal=4&num_scrambled_schematic=4&participantId=DC0C46265A2D4D01B0A6ADB321161AF4&assignmentId=25067b55-2b9a-4741-8803-936805df588b&projectId=9076ac92-be42-43a2-9634-8b67c7fe93a7","DC0C46265A2D4D01B0A6ADB321161AF4-2025-05-22-20-10-53","","null","","images/instructions/movie_1.png","null","",""
"","","","","","image-button-response","11","211927","0.0-6.0-1.0-2.0","DC0C46265A2D4D01B0A6ADB321161AF4","DC0C46265A2D4D01B0A6ADB321161AF4","25067b55-2b9a-4741-8803-936805df588b","9076ac92-be42-43a2-9634-8b67c7fe93a7","{""num_scrambled_semantic"":""8"",""num_scrambled_causal"":""4"",""num_scrambled_schematic"":""4"",""participantId"":""DC0C46265A2D4D01B0A6ADB321161AF4"",""assignmentId"":""25067b55-2b9a-4741-8803-936805df588b"",""projectId"":""9076ac92-be42-43a2-9634-8b67c7fe93a7""}","https://test12345.live/?num_scrambled_semantic=8&num_scrambled_causal=4&num_scrambled_schematic=4&participantId=DC0C46265A2D4D01B0A6ADB321161AF4&assignmentId=25067b55-2b9a-4741-8803-936805df588b&projectId=9076ac92-be42-43a2-9634-8b67c7fe93a7","DC0C46265A2D4D01B0A6ADB321161AF4-2025-05-22-20-10-53","","null","","[]","null","",""
"","","","","","image-button-response","12","216447","0.0-6.0-1.0-0.1","DC0C46265A2D4D01B0A6ADB321161AF4","DC0C46265A2D4D01B0A6ADB321161AF4","25067b55-2b9a-4741-8803-936805df588b","9076ac92-be42-43a2-9634-8b67c7fe93a7","{""num_scrambled_semantic"":""8"",""num_scrambled_causal"":""4"",""num_scrambled_schematic"":""4"",""participantId"":""DC0C46265A2D4D01B0A6ADB321161AF4"",""assignmentId"":""25067b55-2b9a-4741-8803-936805df588b"",""projectId"":""9076ac92-be42-43a2-9634-8b67c7fe93a7""}","https://test12345.live/?num_scrambled_semantic=8&num_scrambled_causal=4&num_scrambled_schematic=4&participantId=DC0C46265A2D4D01B0A6ADB321161AF4&assignmentId=25067b55-2b9a-4741-8803-936805df588b&projectId=9076ac92-be42-43a2-9634-8b67c7fe93a7","DC0C46265A2D4D01B0A6ADB321161AF4-2025-05-22-20-10-53","","null","","images/instructions/movie_2.png","null","",""
"","","","","","image-button-response","13","219124","0.0-6.0-1.0-1.1","DC0C46265A2D4D01B0A6ADB321161AF4","DC0C46265A2D4D01B0A6ADB321161AF4","25067b55-2b9a-4741-8803-936805df588b","9076ac92-be42-43a2-9634-8b67c7fe93a7","{""num_scrambled_semantic"":""8"",""num_scrambled_causal"":""4"",""num_scrambled_schematic"":""4"",""participantId"":""DC0C46265A2D4D01B0A6ADB321161AF4"",""assignmentId"":""25067b55-2b9a-4741-8803-936805df588b"",""projectId"":""9076ac92-be42-43a2-9634-8b67c7fe93a7""}","https://test12345.live/?num_scrambled_semantic=8&num_scrambled_causal=4&num_scrambled_schematic=4&participantId=DC0C46265A2D4D01B0A6ADB321161AF4&assignmentId=25067b55-2b9a-4741-8803-936805df588b&projectId=9076ac92-be42-43a2-9634-8b67c7fe93a7","DC0C46265A2D4D01B0A6ADB321161AF4-2025-05-22-20-10-53","","2675","","images/instructions/movie_2.png","1","",""
"","","","","","image-button-response","14","220930","0.0-6.0-1.0-2.1","DC0C46265A2D4D01B0A6ADB321161AF4","DC0C46265A2D4D01B0A6ADB321161AF4","25067b55-2b9a-4741-8803-936805df588b","9076ac92-be42-43a2-9634-8b67c7fe93a7","{""num_scrambled_semantic"":""8"",""num_scrambled_causal"":""4"",""num_scrambled_schematic"":""4"",""participantId"":""DC0C46265A2D4D01B0A6ADB321161AF4"",""assignmentId"":""25067b55-2b9a-4741-8803-936805df588b"",""projectId"":""9076ac92-be42-43a2-9634-8b67c7fe93a7""}","https://test12345.live/?num_scrambled_semantic=8&num_scrambled_causal=4&num_scrambled_schematic=4&participantId=DC0C46265A2D4D01B0A6ADB321161AF4&assignmentId=25067b55-2b9a-4741-8803-936805df588b&projectId=9076ac92-be42-43a2-9634-8b67c7fe93a7","DC0C46265A2D4D01B0A6ADB321161AF4-2025-05-22-20-10-53","","null","","[]","null","",""
"","","","","","image-button-response","15","225444","0.0-6.0-1.0-0.2","DC0C46265A2D4D01B0A6ADB321161AF4","DC0C46265A2D4D01B0A6ADB321161AF4","25067b55-2b9a-4741-8803-936805df588b","9076ac92-be42-43a2-9634-8b67c7fe93a7","{""num_scrambled_semantic"":""8"",""num_scrambled_causal"":""4"",""num_scrambled_schematic"":""4"",""participantId"":""DC0C46265A2D4D01B0A6ADB321161AF4"",""assignmentId"":""25067b55-2b9a-4741-8803-936805df588b"",""projectId"":""9076ac92-be42-43a2-9634-8b67c7fe93a7""}","https://test12345.live/?num_scrambled_semantic=8&num_scrambled_causal=4&num_scrambled_schematic=4&participantId=DC0C46265A2D4D01B0A6ADB321161AF4&assignmentId=25067b55-2b9a-4741-8803-936805df588b&projectId=9076ac92-be42-43a2-9634-8b67c7fe93a7","DC0C46265A2D4D01B0A6ADB321161AF4-2025-05-22-20-10-53","","null","","images/instructions/movie_3.png","null","",""
"","","","","","image-button-response","16","226630","0.0-6.0-1.0-1.2","DC0C46265A2D4D01B0A6ADB321161AF4","DC0C46265A2D4D01B0A6ADB321161AF4","25067b55-2b9a-4741-8803-936805df588b","9076ac92-be42-43a2-9634-8b67c7fe93a7","{""num_scrambled_semantic"":""8"",""num_scrambled_causal"":""4"",""num_scrambled_schematic"":""4"",""participantId"":""DC0C46265A2D4D01B0A6ADB321161AF4"",""assignmentId"":""25067b55-2b9a-4741-8803-936805df588b"",""projectId"":""9076ac92-be42-43a2-9634-8b67c7fe93a7""}","https://test12345.live/?num_scrambled_semantic=8&num_scrambled_causal=4&num_scrambled_schematic=4&participantId=DC0C46265A2D4D01B0A6ADB321161AF4&assignmentId=25067b55-2b9a-4741-8803-936805df588b&projectId=9076ac92-be42-43a2-9634-8b67c7fe93a7","DC0C46265A2D4D01B0A6ADB321161AF4-2025-05-22-20-10-53","","1184","","images/instructions/movie_3.png","0","",""
"","","","","","image-button-response","17","228437","0.0-6.0-1.0-2.2","DC0C46265A2D4D01B0A6ADB321161AF4","DC0C46265A2D4D01B0A6ADB321161AF4","25067b55-2b9a-4741-8803-936805df588b","9076ac92-be42-43a2-9634-8b67c7fe93a7","{""num_scrambled_semantic"":""8"",""num_scrambled_causal"":""4"",""num_scrambled_schematic"":""4"",""participantId"":""DC0C46265A2D4D01B0A6ADB321161AF4"",""assignmentId"":""25067b55-2b9a-4741-8803-936805df588b"",""projectId"":""9076ac92-be42-43a2-9634-8b67c7fe93a7""}","https://test12345.live/?num_scrambled_semantic=8&num_scrambled_causal=4&num_scrambled_schematic=4&participantId=DC0C46265A2D4D01B0A6ADB321161AF4&assignmentId=25067b55-2b9a-4741-8803-936805df588b&projectId=9076ac92-be42-43a2-9634-8b67c7fe93a7","DC0C46265A2D4D01B0A6ADB321161AF4-2025-05-22-20-10-53","","null","","[]","null","",""
"","","","","","image-button-response","18","232953","0.0-6.0-1.0-0.3","DC0C46265A2D4D01B0A6ADB321161AF4","DC0C46265A2D4D01B0A6ADB321161AF4","25067b55-2b9a-4741-8803-936805df588b","9076ac92-be42-43a2-9634-8b67c7fe93a7","{""num_scrambled_semantic"":""8"",""num_scrambled_causal"":""4"",""num_scrambled_schematic"":""4"",""participantId"":""DC0C46265A2D4D01B0A6ADB321161AF4"",""assignmentId"":""25067b55-2b9a-4741-8803-936805df588b"",""projectId"":""9076ac92-be42-43a2-9634-8b67c7fe93a7""}","https://test12345.live/?num_scrambled_semantic=8&num_scrambled_causal=4&num_scrambled_schematic=4&participantId=DC0C46265A2D4D01B0A6ADB321161AF4&assignmentId=25067b55-2b9a-4741-8803-936805df588b&projectId=9076ac92-be42-43a2-9634-8b67c7fe93a7","DC0C46265A2D4D01B0A6ADB321161AF4-2025-05-22-20-10-53","","null","","images/instructions/movie_4.png","null","",""
"","","","","","image-button-response","19","233778","0.0-6.0-1.0-1.3","DC0C46265A2D4D01B0A6ADB321161AF4","DC0C46265A2D4D01B0A6ADB321161AF4","25067b55-2b9a-4741-8803-936805df588b","9076ac92-be42-43a2-9634-8b67c7fe93a7","{""num_scrambled_semantic"":""8"",""num_scrambled_causal"":""4"",""num_scrambled_schematic"":""4"",""participantId"":""DC0C46265A2D4D01B0A6ADB321161AF4"",""assignmentId"":""25067b55-2b9a-4741-8803-936805df588b"",""projectId"":""9076ac92-be42-43a2-9634-8b67c7fe93a7""}","https://test12345.live/?num_scrambled_semantic=8&num_scrambled_causal=4&num_scrambled_schematic=4&participantId=DC0C46265A2D4D01B0A6ADB321161AF4&assignmentId=25067b55-2b9a-4741-8803-936805df588b&projectId=9076ac92-be42-43a2-9634-8b67c7fe93a7","DC0C46265A2D4D01B0A6ADB321161AF4-2025-05-22-20-10-53","","824","","images/instructions/movie_4.png","0","",""
"","","","","","image-button-response","20","235591","0.0-6.0-1.0-2.3","DC0C46265A2D4D01B0A6ADB321161AF4","DC0C46265A2D4D01B0A6ADB321161AF4","25067b55-2b9a-4741-8803-936805df588b","9076ac92-be42-43a2-9634-8b67c7fe93a7","{""num_scrambled_semantic"":""8"",""num_scrambled_causal"":""4"",""num_scrambled_schematic"":""4"",""participantId"":""DC0C46265A2D4D01B0A6ADB321161AF4"",""assignmentId"":""25067b55-2b9a-4741-8803-936805df588b"",""projectId"":""9076ac92-be42-43a2-9634-8b67c7fe93a7""}","https://test12345.live/?num_scrambled_semantic=8&num_scrambled_causal=4&num_scrambled_schematic=4&participantId=DC0C46265A2D4D01B0A6ADB321161AF4&assignmentId=25067b55-2b9a-4741-8803-936805df588b&projectId=9076ac92-be42-43a2-9634-8b67c7fe93a7","DC0C46265A2D4D01B0A6ADB321161AF4-2025-05-22-20-10-53","","null","","[]","null","",""
"","","","","","instructions","21","258531","0.0-7.0","DC0C46265A2D4D01B0A6ADB321161AF4","DC0C46265A2D4D01B0A6ADB321161AF4","25067b55-2b9a-4741-8803-936805df588b","9076ac92-be42-43a2-9634-8b67c7fe93a7","{""num_scrambled_semantic"":""8"",""num_scrambled_causal"":""4"",""num_scrambled_schematic"":""4"",""participantId"":""DC0C46265A2D4D01B0A6ADB321161AF4"",""assignmentId"":""25067b55-2b9a-4741-8803-936805df588b"",""projectId"":""9076ac92-be42-43a2-9634-8b67c7fe93a7""}","https://test12345.live/?num_scrambled_semantic=8&num_scrambled_causal=4&num_scrambled_schematic=4&participantId=DC0C46265A2D4D01B0A6ADB321161AF4&assignmentId=25067b55-2b9a-4741-8803-936805df588b&projectId=9076ac92-be42-43a2-9634-8b67c7fe93a7","DC0C46265A2D4D01B0A6ADB321161AF4-2025-05-22-20-10-53","[{""page_index"":0,""viewing_time"":20973},{""page_index"":1,""viewing_time"":1968}]","22941","","","","",""
"","","","","","html-audio-response","22","304274","0.0-8.0","DC0C46265A2D4D01B0A6ADB321161AF4","DC0C46265A2D4D01B0A6ADB321161AF4","25067b55-2b9a-4741-8803-936805df588b","9076ac92-be42-43a2-9634-8b67c7fe93a7","{""num_scrambled_semantic"":""8"",""num_scrambled_causal"":""4"",""num_scrambled_schematic"":""4"",""participantId"":""DC0C46265A2D4D01B0A6ADB321161AF4"",""assignmentId"":""25067b55-2b9a-4741-8803-936805df588b"",""projectId"":""9076ac92-be42-43a2-9634-8b67c7fe93a7""}","https://test12345.live/?num_scrambled_semantic=8&num_scrambled_causal=4&num_scrambled_schematic=4&participantId=DC0C46265A2D4D01B0A6ADB321161AF4&assignmentId=25067b55-2b9a-4741-8803-936805df588b&projectId=9076ac92-be42-43a2-9634-8b67c7fe93a7","DC0C46265A2D4D01B0A6ADB321161AF4-2025-05-22-20-10-53","","30699","","[""<span style=\""color: red; font-size: 24px\""> NOW RECORDING</span><p>Please say out loud all the images you saw in the exact order you saw them. Try to recall as many images as you can, but remember: getting the order right is more important than the number of images you recall.</p>""]","","12",""
"","","","","","instructions","23","306908","0.0-9.0","DC0C46265A2D4D01B0A6ADB321161AF4","DC0C46265A2D4D01B0A6ADB321161AF4","25067b55-2b9a-4741-8803-936805df588b","9076ac92-be42-43a2-9634-8b67c7fe93a7","{""num_scrambled_semantic"":""8"",""num_scrambled_causal"":""4"",""num_scrambled_schematic"":""4"",""participantId"":""DC0C46265A2D4D01B0A6ADB321161AF4"",""assignmentId"":""25067b55-2b9a-4741-8803-936805df588b"",""projectId"":""9076ac92-be42-43a2-9634-8b67c7fe93a7""}","https://test12345.live/?num_scrambled_semantic=8&num_scrambled_causal=4&num_scrambled_schematic=4&participantId=DC0C46265A2D4D01B0A6ADB321161AF4&assignmentId=25067b55-2b9a-4741-8803-936805df588b&projectId=9076ac92-be42-43a2-9634-8b67c7fe93a7","DC0C46265A2D4D01B0A6ADB321161AF4-2025-05-22-20-10-53","[{""page_index"":0,""viewing_time"":2622}]","2622","","","","",""
"","","","","","image-button-response","24","312911","0.0-10.0-0.0","DC0C46265A2D4D01B0A6ADB321161AF4","DC0C46265A2D4D01B0A6ADB321161AF4","25067b55-2b9a-4741-8803-936805df588b","9076ac92-be42-43a2-9634-8b67c7fe93a7","{""num_scrambled_semantic"":""8"",""num_scrambled_causal"":""4"",""num_scrambled_schematic"":""4"",""participantId"":""DC0C46265A2D4D01B0A6ADB321161AF4"",""assignmentId"":""25067b55-2b9a-4741-8803-936805df588b"",""projectId"":""9076ac92-be42-43a2-9634-8b67c7fe93a7""}","https://test12345.live/?num_scrambled_semantic=8&num_scrambled_causal=4&num_scrambled_schematic=4&participantId=DC0C46265A2D4D01B0A6ADB321161AF4&assignmentId=25067b55-2b9a-4741-8803-936805df588b&projectId=9076ac92-be42-43a2-9634-8b67c7fe93a7","DC0C46265A2D4D01B0A6ADB321161AF4-2025-05-22-20-10-53","","null","","images/semantic_sequence/creative_activities_semantic/creative_activities_semantic_0.png","null","",""
"","","","","","image-button-response","25","317427","0.0-10.0-1.0-0.0","DC0C46265A2D4D01B0A6ADB321161AF4","DC0C46265A2D4D01B0A6ADB321161AF4","25067b55-2b9a-4741-8803-936805df588b","9076ac92-be42-43a2-9634-8b67c7fe93a7","{""num_scrambled_semantic"":""8"",""num_scrambled_causal"":""4"",""num_scrambled_schematic"":""4"",""participantId"":""DC0C46265A2D4D01B0A6ADB321161AF4"",""assignmentId"":""25067b55-2b9a-4741-8803-936805df588b"",""projectId"":""9076ac92-be42-43a2-9634-8b67c7fe93a7""}","https://test12345.live/?num_scrambled_semantic=8&num_scrambled_causal=4&num_scrambled_schematic=4&participantId=DC0C46265A2D4D01B0A6ADB321161AF4&assignmentId=25067b55-2b9a-4741-8803-936805df588b&projectId=9076ac92-be42-43a2-9634-8b67c7fe93a7","DC0C46265A2D4D01B0A6ADB321161AF4-2025-05-22-20-10-53","","null","","images/semantic_sequence/creative_activities_semantic/creative_activities_semantic_5.png","null","",""
"","","","","","image-button-response","26","318598","0.0-10.0-1.0-1.0","DC0C46265A2D4D01B0A6ADB321161AF4","DC0C46265A2D4D01B0A6ADB321161AF4","25067b55-2b9a-4741-8803-936805df588b","9076ac92-be42-43a2-9634-8b67c7fe93a7","{""num_scrambled_semantic"":""8"",""num_scrambled_causal"":""4"",""num_scrambled_schematic"":""4"",""participantId"":""DC0C46265A2D4D01B0A6ADB321161AF4"",""assignmentId"":""25067b55-2b9a-4741-8803-936805df588b"",""projectId"":""9076ac92-be42-43a2-9634-8b67c7fe93a7""}","https://test12345.live/?num_scrambled_semantic=8&num_scrambled_causal=4&num_scrambled_schematic=4&participantId=DC0C46265A2D4D01B0A6ADB321161AF4&assignmentId=25067b55-2b9a-4741-8803-936805df588b&projectId=9076ac92-be42-43a2-9634-8b67c7fe93a7","DC0C46265A2D4D01B0A6ADB321161AF4-2025-05-22-20-10-53","","1169","","images/semantic_sequence/creative_activities_semantic/creative_activities_semantic_5.png","0","",""
"","","","","","image-button-response","27","320400","0.0-10.0-1.0-2.0","DC0C46265A2D4D01B0A6ADB321161AF4","DC0C46265A2D4D01B0A6ADB321161AF4","25067b55-2b9a-4741-8803-936805df588b","9076ac92-be42-43a2-9634-8b67c7fe93a7","{""num_scrambled_semantic"":""8"",""num_scrambled_causal"":""4"",""num_scrambled_schematic"":""4"",""participantId"":""DC0C46265A2D4D01B0A6ADB321161AF4"",""assignmentId"":""25067b55-2b9a-4741-8803-936805df588b"",""projectId"":""9076ac92-be42-43a2-9634-8b67c7fe93a7""}","https://test12345.live/?num_scrambled_semantic=8&num_scrambled_causal=4&num_scrambled_schematic=4&participantId=DC0C46265A2D4D01B0A6ADB321161AF4&assignmentId=25067b55-2b9a-4741-8803-936805df588b&projectId=9076ac92-be42-43a2-9634-8b67c7fe93a7","DC0C46265A2D4D01B0A6ADB321161AF4-2025-05-22-20-10-53","","null","","[]","null","",""
"","","","","","image-button-response","28","324917","0.0-10.0-1.0-0.1","DC0C46265A2D4D01B0A6ADB321161AF4","DC0C46265A2D4D01B0A6ADB321161AF4","25067b55-2b9a-4741-8803-936805df588b","9076ac92-be42-43a2-9634-8b67c7fe93a7","{""num_scrambled_semantic"":""8"",""num_scrambled_causal"":""4"",""num_scrambled_schematic"":""4"",""participantId"":""DC0C46265A2D4D01B0A6ADB321161AF4"",""assignmentId"":""25067b55-2b9a-4741-8803-936805df588b"",""projectId"":""9076ac92-be42-43a2-9634-8b67c7fe93a7""}","https://test12345.live/?num_scrambled_semantic=8&num_scrambled_causal=4&num_scrambled_schematic=4&participantId=DC0C46265A2D4D01B0A6ADB321161AF4&assignmentId=25067b55-2b9a-4741-8803-936805df588b&projectId=9076ac92-be42-43a2-9634-8b67c7fe93a7","DC0C46265A2D4D01B0A6ADB321161AF4-2025-05-22-20-10-53","","null","","images/semantic_sequence/creative_activities_semantic/creative_activities_semantic_3.png","null","",""
"","","","","","image-button-response","29","325918","0.0-10.0-1.0-1.1","DC0C46265A2D4D01B0A6ADB321161AF4","DC0C46265A2D4D01B0A6ADB321161AF4","25067b55-2b9a-4741-8803-936805df588b","9076ac92-be42-43a2-9634-8b67c7fe93a7","{""num_scrambled_semantic"":""8"",""num_scrambled_causal"":""4"",""num_scrambled_schematic"":""4"",""participantId"":""DC0C46265A2D4D01B0A6ADB321161AF4"",""assignmentId"":""25067b55-2b9a-4741-8803-936805df588b"",""projectId"":""9076ac92-be42-43a2-9634-8b67c7fe93a7""}","https://test12345.live/?num_scrambled_semantic=8&num_scrambled_causal=4&num_scrambled_schematic=4&participantId=DC0C46265A2D4D01B0A6ADB321161AF4&assignmentId=25067b55-2b9a-4741-8803-936805df588b&projectId=9076ac92-be42-43a2-9634-8b67c7fe93a7","DC0C46265A2D4D01B0A6ADB321161AF4-2025-05-22-20-10-53","","1000","","images/semantic_sequence/creative_activities_semantic/creative_activities_semantic_3.png","0","",""
"","","","","","image-button-response","30","327735","0.0-10.0-1.0-2.1","DC0C46265A2D4D01B0A6ADB321161AF4","DC0C46265A2D4D01B0A6ADB321161AF4","25067b55-2b9a-4741-8803-936805df588b","9076ac92-be42-43a2-9634-8b67c7fe93a7","{""num_scrambled_semantic"":""8"",""num_scrambled_causal"":""4"",""num_scrambled_schematic"":""4"",""participantId"":""DC0C46265A2D4D01B0A6ADB321161AF4"",""assignmentId"":""25067b55-2b9a-4741-8803-936805df588b"",""projectId"":""9076ac92-be42-43a2-9634-8b67c7fe93a7""}","https://test12345.live/?num_scrambled_semantic=8&num_scrambled_causal=4&num_scrambled_schematic=4&participantId=DC0C46265A2D4D01B0A6ADB321161AF4&assignmentId=25067b55-2b9a-4741-8803-936805df588b&projectId=9076ac92-be42-43a2-9634-8b67c7fe93a7","DC0C46265A2D4D01B0A6ADB321161AF4-2025-05-22-20-10-53","","null","","[]","null","",""
"","","","","","image-button-response","31","332239","0.0-10.0-1.0-0.2","DC0C46265A2D4D01B0A6ADB321161AF4","DC0C46265A2D4D01B0A6ADB321161AF4","25067b55-2b9a-4741-8803-936805df588b","9076ac92-be42-43a2-9634-8b67c7fe93a7","{""num_scrambled_semantic"":""8"",""num_scrambled_causal"":""4"",""num_scrambled_schematic"":""4"",""participantId"":""DC0C46265A2D4D01B0A6ADB321161AF4"",""assignmentId"":""25067b55-2b9a-4741-8803-936805df588b"",""projectId"":""9076ac92-be42-43a2-9634-8b67c7fe93a7""}","https://test12345.live/?num_scrambled_semantic=8&num_scrambled_causal=4&num_scrambled_schematic=4&participantId=DC0C46265A2D4D01B0A6ADB321161AF4&assignmentId=25067b55-2b9a-4741-8803-936805df588b&projectId=9076ac92-be42-43a2-9634-8b67c7fe93a7","DC0C46265A2D4D01B0A6ADB321161AF4-2025-05-22-20-10-53","","null","","images/semantic_sequence/creative_activities_semantic/creative_activities_semantic_ten.png","null","",""
"","","","","","image-button-response","32","333516","0.0-10.0-1.0-1.2","DC0C46265A2D4D01B0A6ADB321161AF4","DC0C46265A2D4D01B0A6ADB321161AF4","25067b55-2b9a-4741-8803-936805df588b","9076ac92-be42-43a2-9634-8b67c7fe93a7","{""num_scrambled_semantic"":""8"",""num_scrambled_causal"":""4"",""num_scrambled_schematic"":""4"",""participantId"":""DC0C46265A2D4D01B0A6ADB321161AF4"",""assignmentId"":""25067b55-2b9a-4741-8803-936805df588b"",""projectId"":""9076ac92-be42-43a2-9634-8b67c7fe93a7""}","https://test12345.live/?num_scrambled_semantic=8&num_scrambled_causal=4&num_scrambled_schematic=4&participantId=DC0C46265A2D4D01B0A6ADB321161AF4&assignmentId=25067b55-2b9a-4741-8803-936805df588b&projectId=9076ac92-be42-43a2-9634-8b67c7fe93a7","DC0C46265A2D4D01B0A6ADB321161AF4-2025-05-22-20-10-53","","1275","","images/semantic_sequence/creative_activities_semantic/creative_activities_semantic_ten.png","0","",""
"","","","","","image-button-response","33","335320","0.0-10.0-1.0-2.2","DC0C46265A2D4D01B0A6ADB321161AF4","DC0C46265A2D4D01B0A6ADB321161AF4","25067b55-2b9a-4741-8803-936805df588b","9076ac92-be42-43a2-9634-8b67c7fe93a7","{""num_scrambled_semantic"":""8"",""num_scrambled_causal"":""4"",""num_scrambled_schematic"":""4"",""participantId"":""DC0C46265A2D4D01B0A6ADB321161AF4"",""assignmentId"":""25067b55-2b9a-4741-8803-936805df588b"",""projectId"":""9076ac92-be42-43a2-9634-8b67c7fe93a7""}","https://test12345.live/?num_scrambled_semantic=8&num_scrambled_causal=4&num_scrambled_schematic=4&participantId=DC0C46265A2D4D01B0A6ADB321161AF4&assignmentId=25067b55-2b9a-4741-8803-936805df588b&projectId=9076ac92-be42-43a2-9634-8b67c7fe93a7","DC0C46265A2D4D01B0A6ADB321161AF4-2025-05-22-20-10-53","","null","","[]","null","",""
"","","","","","image-button-response","34","339827","0.0-10.0-1.0-0.3","DC0C46265A2D4D01B0A6ADB321161AF4","DC0C46265A2D4D01B0A6ADB321161AF4","25067b55-2b9a-4741-8803-936805df588b","9076ac92-be42-43a2-9634-8b67c7fe93a7","{""num_scrambled_semantic"":""8"",""num_scrambled_causal"":""4"",""num_scrambled_schematic"":""4"",""participantId"":""DC0C46265A2D4D01B0A6ADB321161AF4"",""assignmentId"":""25067b55-2b9a-4741-8803-936805df588b"",""projectId"":""9076ac92-be42-43a2-9634-8b67c7fe93a7""}","https://test12345.live/?num_scrambled_semantic=8&num_scrambled_causal=4&num_scrambled_schematic=4&participantId=DC0C46265A2D4D01B0A6ADB321161AF4&assignmentId=25067b55-2b9a-4741-8803-936805df588b&projectId=9076ac92-be42-43a2-9634-8b67c7fe93a7","DC0C46265A2D4D01B0A6ADB321161AF4-2025-05-22-20-10-53","","null","","images/semantic_sequence/creative_activities_semantic/creative_activities_semantic_9.png","null","",""
"","","","","","image-button-response","35","341006","0.0-10.0-1.0-1.3","DC0C46265A2D4D01B0A6ADB321161AF4","DC0C46265A2D4D01B0A6ADB321161AF4","25067b55-2b9a-4741-8803-936805df588b","9076ac92-be42-43a2-9634-8b67c7fe93a7","{""num_scrambled_semantic"":""8"",""num_scrambled_causal"":""4"",""num_scrambled_schematic"":""4"",""participantId"":""DC0C46265A2D4D01B0A6ADB321161AF4"",""assignmentId"":""25067b55-2b9a-4741-8803-936805df588b"",""projectId"":""9076ac92-be42-43a2-9634-8b67c7fe93a7""}","https://test12345.live/?num_scrambled_semantic=8&num_scrambled_causal=4&num_scrambled_schematic=4&participantId=DC0C46265A2D4D01B0A6ADB321161AF4&assignmentId=25067b55-2b9a-4741-8803-936805df588b&projectId=9076ac92-be42-43a2-9634-8b67c7fe93a7","DC0C46265A2D4D01B0A6ADB321161AF4-2025-05-22-20-10-53","","1177","","images/semantic_sequence/creative_activities_semantic/creative_activities_semantic_9.png","1","",""
"","","","","","image-button-response","36","342809","0.0-10.0-1.0-2.3","DC0C46265A2D4D01B0A6ADB321161AF4","DC0C46265A2D4D01B0A6ADB321161AF4","25067b55-2b9a-4741-8803-936805df588b","9076ac92-be42-43a2-9634-8b67c7fe93a7","{""num_scrambled_semantic"":""8"",""num_scrambled_causal"":""4"",""num_scrambled_schematic"":""4"",""participantId"":""DC0C46265A2D4D01B0A6ADB321161AF4"",""assignmentId"":""25067b55-2b9a-4741-8803-936805df588b"",""projectId"":""9076ac92-be42-43a2-9634-8b67c7fe93a7""}","https://test12345.live/?num_scrambled_semantic=8&num_scrambled_causal=4&num_scrambled_schematic=4&participantId=DC0C46265A2D4D01B0A6ADB321161AF4&assignmentId=25067b55-2b9a-4741-8803-936805df588b&projectId=9076ac92-be42-43a2-9634-8b67c7fe93a7","DC0C46265A2D4D01B0A6ADB321161AF4-2025-05-22-20-10-53","","null","","[]","null","",""
"","","","","","image-button-response","37","347311","0.0-10.0-1.0-0.4","DC0C46265A2D4D01B0A6ADB321161AF4","DC0C46265A2D4D01B0A6ADB321161AF4","25067b55-2b9a-4741-8803-936805df588b","9076ac92-be42-43a2-9634-8b67c7fe93a7","{""num_scrambled_semantic"":""8"",""num_scrambled_causal"":""4"",""num_scrambled_schematic"":""4"",""participantId"":""DC0C46265A2D4D01B0A6ADB321161AF4"",""assignmentId"":""25067b55-2b9a-4741-8803-936805df588b"",""projectId"":""9076ac92-be42-43a2-9634-8b67c7fe93a7""}","https://test12345.live/?num_scrambled_semantic=8&num_scrambled_causal=4&num_scrambled_schematic=4&participantId=DC0C46265A2D4D01B0A6ADB321161AF4&assignmentId=25067b55-2b9a-4741-8803-936805df588b&projectId=9076ac92-be42-43a2-9634-8b67c7fe93a7","DC0C46265A2D4D01B0A6ADB321161AF4-2025-05-22-20-10-53","","null","","images/semantic_sequence/creative_activities_semantic/creative_activities_semantic_6.png","null","",""
"","","","","","image-button-response","38","348009","0.0-10.0-1.0-1.4","DC0C46265A2D4D01B0A6ADB321161AF4","DC0C46265A2D4D01B0A6ADB321161AF4","25067b55-2b9a-4741-8803-936805df588b","9076ac92-be42-43a2-9634-8b67c7fe93a7","{""num_scrambled_semantic"":""8"",""num_scrambled_causal"":""4"",""num_scrambled_schematic"":""4"",""participantId"":""DC0C46265A2D4D01B0A6ADB321161AF4"",""assignmentId"":""25067b55-2b9a-4741-8803-936805df588b"",""projectId"":""9076ac92-be42-43a2-9634-8b67c7fe93a7""}","https://test12345.live/?num_scrambled_semantic=8&num_scrambled_causal=4&num_scrambled_schematic=4&participantId=DC0C46265A2D4D01B0A6ADB321161AF4&assignmentId=25067b55-2b9a-4741-8803-936805df588b&projectId=9076ac92-be42-43a2-9634-8b67c7fe93a7","DC0C46265A2D4D01B0A6ADB321161AF4-2025-05-22-20-10-53","","696","","images/semantic_sequence/creative_activities_semantic/creative_activities_semantic_6.png","0","",""
"","","","","","image-button-response","39","349825","0.0-10.0-1.0-2.4","DC0C46265A2D4D01B0A6ADB321161AF4","DC0C46265A2D4D01B0A6ADB321161AF4","25067b55-2b9a-4741-8803-936805df588b","9076ac92-be42-43a2-9634-8b67c7fe93a7","{""num_scrambled_semantic"":""8"",""num_scrambled_causal"":""4"",""num_scrambled_schematic"":""4"",""participantId"":""DC0C46265A2D4D01B0A6ADB321161AF4"",""assignmentId"":""25067b55-2b9a-4741-8803-936805df588b"",""projectId"":""9076ac92-be42-43a2-9634-8b67c7fe93a7""}","https://test12345.live/?num_scrambled_semantic=8&num_scrambled_causal=4&num_scrambled_schematic=4&participantId=DC0C46265A2D4D01B0A6ADB321161AF4&assignmentId=25067b55-2b9a-4741-8803-936805df588b&projectId=9076ac92-be42-43a2-9634-8b67c7fe93a7","DC0C46265A2D4D01B0A6ADB321161AF4-2025-05-22-20-10-53","","null","","[]","null","",""
"","","","","","image-button-response","40","354331","0.0-10.0-1.0-0.5","DC0C46265A2D4D01B0A6ADB321161AF4","DC0C46265A2D4D01B0A6ADB321161AF4","25067b55-2b9a-4741-8803-936805df588b","9076ac92-be42-43a2-9634-8b67c7fe93a7","{""num_scrambled_semantic"":""8"",""num_scrambled_causal"":""4"",""num_scrambled_schematic"":""4"",""participantId"":""DC0C46265A2D4D01B0A6ADB321161AF4"",""assignmentId"":""25067b55-2b9a-4741-8803-936805df588b"",""projectId"":""9076ac92-be42-43a2-9634-8b67c7fe93a7""}","https://test12345.live/?num_scrambled_semantic=8&num_scrambled_causal=4&num_scrambled_schematic=4&participantId=DC0C46265A2D4D01B0A6ADB321161AF4&assignmentId=25067b55-2b9a-4741-8803-936805df588b&projectId=9076ac92-be42-43a2-9634-8b67c7fe93a7","DC0C46265A2D4D01B0A6ADB321161AF4-2025-05-22-20-10-53","","null","","images/semantic_sequence/creative_activities_semantic/creative_activities_semantic_2.png","null","",""
"","","","","","image-button-response","41","355214","0.0-10.0-1.0-1.5","DC0C46265A2D4D01B0A6ADB321161AF4","DC0C46265A2D4D01B0A6ADB321161AF4","25067b55-2b9a-4741-8803-936805df588b","9076ac92-be42-43a2-9634-8b67c7fe93a7","{""num_scrambled_semantic"":""8"",""num_scrambled_causal"":""4"",""num_scrambled_schematic"":""4"",""participantId"":""DC0C46265A2D4D01B0A6ADB321161AF4"",""assignmentId"":""25067b55-2b9a-4741-8803-936805df588b"",""projectId"":""9076ac92-be42-43a2-9634-8b67c7fe93a7""}","https://test12345.live/?num_scrambled_semantic=8&num_scrambled_causal=4&num_scrambled_schematic=4&participantId=DC0C46265A2D4D01B0A6ADB321161AF4&assignmentId=25067b55-2b9a-4741-8803-936805df588b&projectId=9076ac92-be42-43a2-9634-8b67c7fe93a7","DC0C46265A2D4D01B0A6ADB321161AF4-2025-05-22-20-10-53","","881","","images/semantic_sequence/creative_activities_semantic/creative_activities_semantic_2.png","0","",""
"","","","","","image-button-response","42","357017","0.0-10.0-1.0-2.5","DC0C46265A2D4D01B0A6ADB321161AF4","DC0C46265A2D4D01B0A6ADB321161AF4","25067b55-2b9a-4741-8803-936805df588b","9076ac92-be42-43a2-9634-8b67c7fe93a7","{""num_scrambled_semantic"":""8"",""num_scrambled_causal"":""4"",""num_scrambled_schematic"":""4"",""participantId"":""DC0C46265A2D4D01B0A6ADB321161AF4"",""assignmentId"":""25067b55-2b9a-4741-8803-936805df588b"",""projectId"":""9076ac92-be42-43a2-9634-8b67c7fe93a7""}","https://test12345.live/?num_scrambled_semantic=8&num_scrambled_causal=4&num_scrambled_schematic=4&participantId=DC0C46265A2D4D01B0A6ADB321161AF4&assignmentId=25067b55-2b9a-4741-8803-936805df588b&projectId=9076ac92-be42-43a2-9634-8b67c7fe93a7","DC0C46265A2D4D01B0A6ADB321161AF4-2025-05-22-20-10-53","","null","","[]","null","",""
"","","","","","image-button-response","43","361521","0.0-10.0-1.0-0.6","DC0C46265A2D4D01B0A6ADB321161AF4","DC0C46265A2D4D01B0A6ADB321161AF4","25067b55-2b9a-4741-8803-936805df588b","9076ac92-be42-43a2-9634-8b67c7fe93a7","{""num_scrambled_semantic"":""8"",""num_scrambled_causal"":""4"",""num_scrambled_schematic"":""4"",""participantId"":""DC0C46265A2D4D01B0A6ADB321161AF4"",""assignmentId"":""25067b55-2b9a-4741-8803-936805df588b"",""projectId"":""9076ac92-be42-43a2-9634-8b67c7fe93a7""}","https://test12345.live/?num_scrambled_semantic=8&num_scrambled_causal=4&num_scrambled_schematic=4&participantId=DC0C46265A2D4D01B0A6ADB321161AF4&assignmentId=25067b55-2b9a-4741-8803-936805df588b&projectId=9076ac92-be42-43a2-9634-8b67c7fe93a7","DC0C46265A2D4D01B0A6ADB321161AF4-2025-05-22-20-10-53","","null","","images/semantic_sequence/creative_activities_semantic/creative_activities_semantic_7.png","null","",""
"","","","","","image-button-response","44","363046","0.0-10.0-1.0-1.6","DC0C46265A2D4D01B0A6ADB321161AF4","DC0C46265A2D4D01B0A6ADB321161AF4","25067b55-2b9a-4741-8803-936805df588b","9076ac92-be42-43a2-9634-8b67c7fe93a7","{""num_scrambled_semantic"":""8"",""num_scrambled_causal"":""4"",""num_scrambled_schematic"":""4"",""participantId"":""DC0C46265A2D4D01B0A6ADB321161AF4"",""assignmentId"":""25067b55-2b9a-4741-8803-936805df588b"",""projectId"":""9076ac92-be42-43a2-9634-8b67c7fe93a7""}","https://test12345.live/?num_scrambled_semantic=8&num_scrambled_causal=4&num_scrambled_schematic=4&participantId=DC0C46265A2D4D01B0A6ADB321161AF4&assignmentId=25067b55-2b9a-4741-8803-936805df588b&projectId=9076ac92-be42-43a2-9634-8b67c7fe93a7","DC0C46265A2D4D01B0A6ADB321161AF4-2025-05-22-20-10-53","","1523","","images/semantic_sequence/creative_activities_semantic/creative_activities_semantic_7.png","0","",""
"","","","","","image-button-response","45","364858","0.0-10.0-1.0-2.6","DC0C46265A2D4D01B0A6ADB321161AF4","DC0C46265A2D4D01B0A6ADB321161AF4","25067b55-2b9a-4741-8803-936805df588b","9076ac92-be42-43a2-9634-8b67c7fe93a7","{""num_scrambled_semantic"":""8"",""num_scrambled_causal"":""4"",""num_scrambled_schematic"":""4"",""participantId"":""DC0C46265A2D4D01B0A6ADB321161AF4"",""assignmentId"":""25067b55-2b9a-4741-8803-936805df588b"",""projectId"":""9076ac92-be42-43a2-9634-8b67c7fe93a7""}","https://test12345.live/?num_scrambled_semantic=8&num_scrambled_causal=4&num_scrambled_schematic=4&participantId=DC0C46265A2D4D01B0A6ADB321161AF4&assignmentId=25067b55-2b9a-4741-8803-936805df588b&projectId=9076ac92-be42-43a2-9634-8b67c7fe93a7","DC0C46265A2D4D01B0A6ADB321161AF4-2025-05-22-20-10-53","","null","","[]","null","",""
"","","","","","image-button-response","46","369360","0.0-10.0-1.0-0.7","DC0C46265A2D4D01B0A6ADB321161AF4","DC0C46265A2D4D01B0A6ADB321161AF4","25067b55-2b9a-4741-8803-936805df588b","9076ac92-be42-43a2-9634-8b67c7fe93a7","{""num_scrambled_semantic"":""8"",""num_scrambled_causal"":""4"",""num_scrambled_schematic"":""4"",""participantId"":""DC0C46265A2D4D01B0A6ADB321161AF4"",""assignmentId"":""25067b55-2b9a-4741-8803-936805df588b"",""projectId"":""9076ac92-be42-43a2-9634-8b67c7fe93a7""}","https://test12345.live/?num_scrambled_semantic=8&num_scrambled_causal=4&num_scrambled_schematic=4&participantId=DC0C46265A2D4D01B0A6ADB321161AF4&assignmentId=25067b55-2b9a-4741-8803-936805df588b&projectId=9076ac92-be42-43a2-9634-8b67c7fe93a7","DC0C46265A2D4D01B0A6ADB321161AF4-2025-05-22-20-10-53","","null","","images/semantic_sequence/creative_activities_semantic/creative_activities_semantic_8.png","null","",""
"","","","","","image-button-response","47","370530","0.0-10.0-1.0-1.7","DC0C46265A2D4D01B0A6ADB321161AF4","DC0C46265A2D4D01B0A6ADB321161AF4","25067b55-2b9a-4741-8803-936805df588b","9076ac92-be42-43a2-9634-8b67c7fe93a7","{""num_scrambled_semantic"":""8"",""num_scrambled_causal"":""4"",""num_scrambled_schematic"":""4"",""participantId"":""DC0C46265A2D4D01B0A6ADB321161AF4"",""assignmentId"":""25067b55-2b9a-4741-8803-936805df588b"",""projectId"":""9076ac92-be42-43a2-9634-8b67c7fe93a7""}","https://test12345.live/?num_scrambled_semantic=8&num_scrambled_causal=4&num_scrambled_schematic=4&participantId=DC0C46265A2D4D01B0A6ADB321161AF4&assignmentId=25067b55-2b9a-4741-8803-936805df588b&projectId=9076ac92-be42-43a2-9634-8b67c7fe93a7","DC0C46265A2D4D01B0A6ADB321161AF4-2025-05-22-20-10-53","","1168","","images/semantic_sequence/creative_activities_semantic/creative_activities_semantic_8.png","0","",""
"","","","","","image-button-response","48","372343","0.0-10.0-1.0-2.7","DC0C46265A2D4D01B0A6ADB321161AF4","DC0C46265A2D4D01B0A6ADB321161AF4","25067b55-2b9a-4741-8803-936805df588b","9076ac92-be42-43a2-9634-8b67c7fe93a7","{""num_scrambled_semantic"":""8"",""num_scrambled_causal"":""4"",""num_scrambled_schematic"":""4"",""participantId"":""DC0C46265A2D4D01B0A6ADB321161AF4"",""assignmentId"":""25067b55-2b9a-4741-8803-936805df588b"",""projectId"":""9076ac92-be42-43a2-9634-8b67c7fe93a7""}","https://test12345.live/?num_scrambled_semantic=8&num_scrambled_causal=4&num_scrambled_schematic=4&participantId=DC0C46265A2D4D01B0A6ADB321161AF4&assignmentId=25067b55-2b9a-4741-8803-936805df588b&projectId=9076ac92-be42-43a2-9634-8b67c7fe93a7","DC0C46265A2D4D01B0A6ADB321161AF4-2025-05-22-20-10-53","","null","","[]","null","",""
"","","","","","image-button-response","49","376852","0.0-10.0-1.0-0.8","DC0C46265A2D4D01B0A6ADB321161AF4","DC0C46265A2D4D01B0A6ADB321161AF4","25067b55-2b9a-4741-8803-936805df588b","9076ac92-be42-43a2-9634-8b67c7fe93a7","{""num_scrambled_semantic"":""8"",""num_scrambled_causal"":""4"",""num_scrambled_schematic"":""4"",""participantId"":""DC0C46265A2D4D01B0A6ADB321161AF4"",""assignmentId"":""25067b55-2b9a-4741-8803-936805df588b"",""projectId"":""9076ac92-be42-43a2-9634-8b67c7fe93a7""}","https://test12345.live/?num_scrambled_semantic=8&num_scrambled_causal=4&num_scrambled_schematic=4&participantId=DC0C46265A2D4D01B0A6ADB321161AF4&assignmentId=25067b55-2b9a-4741-8803-936805df588b&projectId=9076ac92-be42-43a2-9634-8b67c7fe93a7","DC0C46265A2D4D01B0A6ADB321161AF4-2025-05-22-20-10-53","","null","","images/semantic_sequence/creative_activities_semantic/creative_activities_semantic_1.png","null","",""
"","","","","","image-button-response","50","378128","0.0-10.0-1.0-1.8","DC0C46265A2D4D01B0A6ADB321161AF4","DC0C46265A2D4D01B0A6ADB321161AF4","25067b55-2b9a-4741-8803-936805df588b","9076ac92-be42-43a2-9634-8b67c7fe93a7","{""num_scrambled_semantic"":""8"",""num_scrambled_causal"":""4"",""num_scrambled_schematic"":""4"",""participantId"":""DC0C46265A2D4D01B0A6ADB321161AF4"",""assignmentId"":""25067b55-2b9a-4741-8803-936805df588b"",""projectId"":""9076ac92-be42-43a2-9634-8b67c7fe93a7""}","https://test12345.live/?num_scrambled_semantic=8&num_scrambled_causal=4&num_scrambled_schematic=4&participantId=DC0C46265A2D4D01B0A6ADB321161AF4&assignmentId=25067b55-2b9a-4741-8803-936805df588b&projectId=9076ac92-be42-43a2-9634-8b67c7fe93a7","DC0C46265A2D4D01B0A6ADB321161AF4-2025-05-22-20-10-53","","1274","","images/semantic_sequence/creative_activities_semantic/creative_activities_semantic_1.png","0","",""
"","","","","","image-button-response","51","379943","0.0-10.0-1.0-2.8","DC0C46265A2D4D01B0A6ADB321161AF4","DC0C46265A2D4D01B0A6ADB321161AF4","25067b55-2b9a-4741-8803-936805df588b","9076ac92-be42-43a2-9634-8b67c7fe93a7","{""num_scrambled_semantic"":""8"",""num_scrambled_causal"":""4"",""num_scrambled_schematic"":""4"",""participantId"":""DC0C46265A2D4D01B0A6ADB321161AF4"",""assignmentId"":""25067b55-2b9a-4741-8803-936805df588b"",""projectId"":""9076ac92-be42-43a2-9634-8b67c7fe93a7""}","https://test12345.live/?num_scrambled_semantic=8&num_scrambled_causal=4&num_scrambled_schematic=4&participantId=DC0C46265A2D4D01B0A6ADB321161AF4&assignmentId=25067b55-2b9a-4741-8803-936805df588b&projectId=9076ac92-be42-43a2-9634-8b67c7fe93a7","DC0C46265A2D4D01B0A6ADB321161AF4-2025-05-22-20-10-53","","null","","[]","null","",""
"","","","","","image-button-response","52","384467","0.0-10.0-1.0-0.9","DC0C46265A2D4D01B0A6ADB321161AF4","DC0C46265A2D4D01B0A6ADB321161AF4","25067b55-2b9a-4741-8803-936805df588b","9076ac92-be42-43a2-9634-8b67c7fe93a7","{""num_scrambled_semantic"":""8"",""num_scrambled_causal"":""4"",""num_scrambled_schematic"":""4"",""participantId"":""DC0C46265A2D4D01B0A6ADB321161AF4"",""assignmentId"":""25067b55-2b9a-4741-8803-936805df588b"",""projectId"":""9076ac92-be42-43a2-9634-8b67c7fe93a7""}","https://test12345.live/?num_scrambled_semantic=8&num_scrambled_causal=4&num_scrambled_schematic=4&participantId=DC0C46265A2D4D01B0A6ADB321161AF4&assignmentId=25067b55-2b9a-4741-8803-936805df588b&projectId=9076ac92-be42-43a2-9634-8b67c7fe93a7","DC0C46265A2D4D01B0A6ADB321161AF4-2025-05-22-20-10-53","","null","","images/semantic_sequence/creative_activities_semantic/creative_activities_semantic_4.png","null","",""
"","","","","","image-button-response","53","385502","0.0-10.0-1.0-1.9","DC0C46265A2D4D01B0A6ADB321161AF4","DC0C46265A2D4D01B0A6ADB321161AF4","25067b55-2b9a-4741-8803-936805df588b","9076ac92-be42-43a2-9634-8b67c7fe93a7","{""num_scrambled_semantic"":""8"",""num_scrambled_causal"":""4"",""num_scrambled_schematic"":""4"",""participantId"":""DC0C46265A2D4D01B0A6ADB321161AF4"",""assignmentId"":""25067b55-2b9a-4741-8803-936805df588b"",""projectId"":""9076ac92-be42-43a2-9634-8b67c7fe93a7""}","https://test12345.live/?num_scrambled_semantic=8&num_scrambled_causal=4&num_scrambled_schematic=4&participantId=DC0C46265A2D4D01B0A6ADB321161AF4&assignmentId=25067b55-2b9a-4741-8803-936805df588b&projectId=9076ac92-be42-43a2-9634-8b67c7fe93a7","DC0C46265A2D4D01B0A6ADB321161AF4-2025-05-22-20-10-53","","1033","","images/semantic_sequence/creative_activities_semantic/creative_activities_semantic_4.png","0","",""
"","","","","","image-button-response","54","387303","0.0-10.0-1.0-2.9","DC0C46265A2D4D01B0A6ADB321161AF4","DC0C46265A2D4D01B0A6ADB321161AF4","25067b55-2b9a-4741-8803-936805df588b","9076ac92-be42-43a2-9634-8b67c7fe93a7","{""num_scrambled_semantic"":""8"",""num_scrambled_causal"":""4"",""num_scrambled_schematic"":""4"",""participantId"":""DC0C46265A2D4D01B0A6ADB321161AF4"",""assignmentId"":""25067b55-2b9a-4741-8803-936805df588b"",""projectId"":""9076ac92-be42-43a2-9634-8b67c7fe93a7""}","https://test12345.live/?num_scrambled_semantic=8&num_scrambled_causal=4&num_scrambled_schematic=4&participantId=DC0C46265A2D4D01B0A6ADB321161AF4&assignmentId=25067b55-2b9a-4741-8803-936805df588b&projectId=9076ac92-be42-43a2-9634-8b67c7fe93a7","DC0C46265A2D4D01B0A6ADB321161AF4-2025-05-22-20-10-53","","null","","[]","null","",""
"","","","","","html-audio-response","55","445204","0.0-11.0","DC0C46265A2D4D01B0A6ADB321161AF4","DC0C46265A2D4D01B0A6ADB321161AF4","25067b55-2b9a-4741-8803-936805df588b","9076ac92-be42-43a2-9634-8b67c7fe93a7","{""num_scrambled_semantic"":""8"",""num_scrambled_causal"":""4"",""num_scrambled_schematic"":""4"",""participantId"":""DC0C46265A2D4D01B0A6ADB321161AF4"",""assignmentId"":""25067b55-2b9a-4741-8803-936805df588b"",""projectId"":""9076ac92-be42-43a2-9634-8b67c7fe93a7""}","https://test12345.live/?num_scrambled_semantic=8&num_scrambled_causal=4&num_scrambled_schematic=4&participantId=DC0C46265A2D4D01B0A6ADB321161AF4&assignmentId=25067b55-2b9a-4741-8803-936805df588b&projectId=9076ac92-be42-43a2-9634-8b67c7fe93a7","DC0C46265A2D4D01B0A6ADB321161AF4-2025-05-22-20-10-53","","null","","[""<span style=\""color: red; font-size: 24px\""> NOW RECORDING</span><p>Please say out loud all the images you saw, in the exact order you saw them. Try to recall as many images as you can, but remember: getting the order right is more important than the number of images you recall.</p>""]","","2","creative_activities_semantic"
"","","","","","image-button-response","56","451218","0.0-12.0-0.0","DC0C46265A2D4D01B0A6ADB321161AF4","DC0C46265A2D4D01B0A6ADB321161AF4","25067b55-2b9a-4741-8803-936805df588b","9076ac92-be42-43a2-9634-8b67c7fe93a7","{""num_scrambled_semantic"":""8"",""num_scrambled_causal"":""4"",""num_scrambled_schematic"":""4"",""participantId"":""DC0C46265A2D4D01B0A6ADB321161AF4"",""assignmentId"":""25067b55-2b9a-4741-8803-936805df588b"",""projectId"":""9076ac92-be42-43a2-9634-8b67c7fe93a7""}","https://test12345.live/?num_scrambled_semantic=8&num_scrambled_causal=4&num_scrambled_schematic=4&participantId=DC0C46265A2D4D01B0A6ADB321161AF4&assignmentId=25067b55-2b9a-4741-8803-936805df588b&projectId=9076ac92-be42-43a2-9634-8b67c7fe93a7","DC0C46265A2D4D01B0A6ADB321161AF4-2025-05-22-20-10-53","","null","","images/semantic_sequence/kitchen_operations_semantic/kitchen_operations_semantic_0.png","null","",""
"","","","","","image-button-response","57","455721","0.0-12.0-1.0-0.0","DC0C46265A2D4D01B0A6ADB321161AF4","DC0C46265A2D4D01B0A6ADB321161AF4","25067b55-2b9a-4741-8803-936805df588b","9076ac92-be42-43a2-9634-8b67c7fe93a7","{""num_scrambled_semantic"":""8"",""num_scrambled_causal"":""4"",""num_scrambled_schematic"":""4"",""participantId"":""DC0C46265A2D4D01B0A6ADB321161AF4"",""assignmentId"":""25067b55-2b9a-4741-8803-936805df588b"",""projectId"":""9076ac92-be42-43a2-9634-8b67c7fe93a7""}","https://test12345.live/?num_scrambled_semantic=8&num_scrambled_causal=4&num_scrambled_schematic=4&participantId=DC0C46265A2D4D01B0A6ADB321161AF4&assignmentId=25067b55-2b9a-4741-8803-936805df588b&projectId=9076ac92-be42-43a2-9634-8b67c7fe93a7","DC0C46265A2D4D01B0A6ADB321161AF4-2025-05-22-20-10-53","","null","","images/semantic_sequence/kitchen_operations_semantic/kitchen_operations_semantic_1.png","null","",""
"","","","","","image-button-response","58","457090","0.0-12.0-1.0-1.0","DC0C46265A2D4D01B0A6ADB321161AF4","DC0C46265A2D4D01B0A6ADB321161AF4","25067b55-2b9a-4741-8803-936805df588b","9076ac92-be42-43a2-9634-8b67c7fe93a7","{""num_scrambled_semantic"":""8"",""num_scrambled_causal"":""4"",""num_scrambled_schematic"":""4"",""participantId"":""DC0C46265A2D4D01B0A6ADB321161AF4"",""assignmentId"":""25067b55-2b9a-4741-8803-936805df588b"",""projectId"":""9076ac92-be42-43a2-9634-8b67c7fe93a7""}","https://test12345.live/?num_scrambled_semantic=8&num_scrambled_causal=4&num_scrambled_schematic=4&participantId=DC0C46265A2D4D01B0A6ADB321161AF4&assignmentId=25067b55-2b9a-4741-8803-936805df588b&projectId=9076ac92-be42-43a2-9634-8b67c7fe93a7","DC0C46265A2D4D01B0A6ADB321161AF4-2025-05-22-20-10-53","","1367","","images/semantic_sequence/kitchen_operations_semantic/kitchen_operations_semantic_1.png","0","",""
"","","","","","image-button-response","59","458903","0.0-12.0-1.0-2.0","DC0C46265A2D4D01B0A6ADB321161AF4","DC0C46265A2D4D01B0A6ADB321161AF4","25067b55-2b9a-4741-8803-936805df588b","9076ac92-be42-43a2-9634-8b67c7fe93a7","{""num_scrambled_semantic"":""8"",""num_scrambled_causal"":""4"",""num_scrambled_schematic"":""4"",""participantId"":""DC0C46265A2D4D01B0A6ADB321161AF4"",""assignmentId"":""25067b55-2b9a-4741-8803-936805df588b"",""projectId"":""9076ac92-be42-43a2-9634-8b67c7fe93a7""}","https://test12345.live/?num_scrambled_semantic=8&num_scrambled_causal=4&num_scrambled_schematic=4&participantId=DC0C46265A2D4D01B0A6ADB321161AF4&assignmentId=25067b55-2b9a-4741-8803-936805df588b&projectId=9076ac92-be42-43a2-9634-8b67c7fe93a7","DC0C46265A2D4D01B0A6ADB321161AF4-2025-05-22-20-10-53","","null","","[]","null","",""
"","","","","","image-button-response","60","463417","0.0-12.0-1.0-0.1","DC0C46265A2D4D01B0A6ADB321161AF4","DC0C46265A2D4D01B0A6ADB321161AF4","25067b55-2b9a-4741-8803-936805df588b","9076ac92-be42-43a2-9634-8b67c7fe93a7","{""num_scrambled_semantic"":""8"",""num_scrambled_causal"":""4"",""num_scrambled_schematic"":""4"",""participantId"":""DC0C46265A2D4D01B0A6ADB321161AF4"",""assignmentId"":""25067b55-2b9a-4741-8803-936805df588b"",""projectId"":""9076ac92-be42-43a2-9634-8b67c7fe93a7""}","https://test12345.live/?num_scrambled_semantic=8&num_scrambled_causal=4&num_scrambled_schematic=4&participantId=DC0C46265A2D4D01B0A6ADB321161AF4&assignmentId=25067b55-2b9a-4741-8803-936805df588b&projectId=9076ac92-be42-43a2-9634-8b67c7fe93a7","DC0C46265A2D4D01B0A6ADB321161AF4-2025-05-22-20-10-53","","null","","images/semantic_sequence/kitchen_operations_semantic/kitchen_operations_semantic_2.png","null","",""
"","","","","","image-button-response","61","464322","0.0-12.0-1.0-1.1","DC0C46265A2D4D01B0A6ADB321161AF4","DC0C46265A2D4D01B0A6ADB321161AF4","25067b55-2b9a-4741-8803-936805df588b","9076ac92-be42-43a2-9634-8b67c7fe93a7","{""num_scrambled_semantic"":""8"",""num_scrambled_causal"":""4"",""num_scrambled_schematic"":""4"",""participantId"":""DC0C46265A2D4D01B0A6ADB321161AF4"",""assignmentId"":""25067b55-2b9a-4741-8803-936805df588b"",""projectId"":""9076ac92-be42-43a2-9634-8b67c7fe93a7""}","https://test12345.live/?num_scrambled_semantic=8&num_scrambled_causal=4&num_scrambled_schematic=4&participantId=DC0C46265A2D4D01B0A6ADB321161AF4&assignmentId=25067b55-2b9a-4741-8803-936805df588b&projectId=9076ac92-be42-43a2-9634-8b67c7fe93a7","DC0C46265A2D4D01B0A6ADB321161AF4-2025-05-22-20-10-53","","902","","images/semantic_sequence/kitchen_operations_semantic/kitchen_operations_semantic_2.png","0","",""
"","","","","","image-button-response","62","466129","0.0-12.0-1.0-2.1","DC0C46265A2D4D01B0A6ADB321161AF4","DC0C46265A2D4D01B0A6ADB321161AF4","25067b55-2b9a-4741-8803-936805df588b","9076ac92-be42-43a2-9634-8b67c7fe93a7","{""num_scrambled_semantic"":""8"",""num_scrambled_causal"":""4"",""num_scrambled_schematic"":""4"",""participantId"":""DC0C46265A2D4D01B0A6ADB321161AF4"",""assignmentId"":""25067b55-2b9a-4741-8803-936805df588b"",""projectId"":""9076ac92-be42-43a2-9634-8b67c7fe93a7""}","https://test12345.live/?num_scrambled_semantic=8&num_scrambled_causal=4&num_scrambled_schematic=4&participantId=DC0C46265A2D4D01B0A6ADB321161AF4&assignmentId=25067b55-2b9a-4741-8803-936805df588b&projectId=9076ac92-be42-43a2-9634-8b67c7fe93a7","DC0C46265A2D4D01B0A6ADB321161AF4-2025-05-22-20-10-53","","null","","[]","null","",""
"","","","","","image-button-response","63","470632","0.0-12.0-1.0-0.2","DC0C46265A2D4D01B0A6ADB321161AF4","DC0C46265A2D4D01B0A6ADB321161AF4","25067b55-2b9a-4741-8803-936805df588b","9076ac92-be42-43a2-9634-8b67c7fe93a7","{""num_scrambled_semantic"":""8"",""num_scrambled_causal"":""4"",""num_scrambled_schematic"":""4"",""participantId"":""DC0C46265A2D4D01B0A6ADB321161AF4"",""assignmentId"":""25067b55-2b9a-4741-8803-936805df588b"",""projectId"":""9076ac92-be42-43a2-9634-8b67c7fe93a7""}","https://test12345.live/?num_scrambled_semantic=8&num_scrambled_causal=4&num_scrambled_schematic=4&participantId=DC0C46265A2D4D01B0A6ADB321161AF4&assignmentId=25067b55-2b9a-4741-8803-936805df588b&projectId=9076ac92-be42-43a2-9634-8b67c7fe93a7","DC0C46265A2D4D01B0A6ADB321161AF4-2025-05-22-20-10-53","","null","","images/semantic_sequence/kitchen_operations_semantic/kitchen_operations_semantic_3.png","null","",""
"","","","","","image-button-response","64","471920","0.0-12.0-1.0-1.2","DC0C46265A2D4D01B0A6ADB321161AF4","DC0C46265A2D4D01B0A6ADB321161AF4","25067b55-2b9a-4741-8803-936805df588b","9076ac92-be42-43a2-9634-8b67c7fe93a7","{""num_scrambled_semantic"":""8"",""num_scrambled_causal"":""4"",""num_scrambled_schematic"":""4"",""participantId"":""DC0C46265A2D4D01B0A6ADB321161AF4"",""assignmentId"":""25067b55-2b9a-4741-8803-936805df588b"",""projectId"":""9076ac92-be42-43a2-9634-8b67c7fe93a7""}","https://test12345.live/?num_scrambled_semantic=8&num_scrambled_causal=4&num_scrambled_schematic=4&participantId=DC0C46265A2D4D01B0A6ADB321161AF4&assignmentId=25067b55-2b9a-4741-8803-936805df588b&projectId=9076ac92-be42-43a2-9634-8b67c7fe93a7","DC0C46265A2D4D01B0A6ADB321161AF4-2025-05-22-20-10-53","","1286","","images/semantic_sequence/kitchen_operations_semantic/kitchen_operations_semantic_3.png","0","",""
"","","","","","image-button-response","65","473730","0.0-12.0-1.0-2.2","DC0C46265A2D4D01B0A6ADB321161AF4","DC0C46265A2D4D01B0A6ADB321161AF4","25067b55-2b9a-4741-8803-936805df588b","9076ac92-be42-43a2-9634-8b67c7fe93a7","{""num_scrambled_semantic"":""8"",""num_scrambled_causal"":""4"",""num_scrambled_schematic"":""4"",""participantId"":""DC0C46265A2D4D01B0A6ADB321161AF4"",""assignmentId"":""25067b55-2b9a-4741-8803-936805df588b"",""projectId"":""9076ac92-be42-43a2-9634-8b67c7fe93a7""}","https://test12345.live/?num_scrambled_semantic=8&num_scrambled_causal=4&num_scrambled_schematic=4&participantId=DC0C46265A2D4D01B0A6ADB321161AF4&assignmentId=25067b55-2b9a-4741-8803-936805df588b&projectId=9076ac92-be42-43a2-9634-8b67c7fe93a7","DC0C46265A2D4D01B0A6ADB321161AF4-2025-05-22-20-10-53","","null","","[]","null","",""
"","","","","","image-button-response","66","478241","0.0-12.0-1.0-0.3","DC0C46265A2D4D01B0A6ADB321161AF4","DC0C46265A2D4D01B0A6ADB321161AF4","25067b55-2b9a-4741-8803-936805df588b","9076ac92-be42-43a2-9634-8b67c7fe93a7","{""num_scrambled_semantic"":""8"",""num_scrambled_causal"":""4"",""num_scrambled_schematic"":""4"",""participantId"":""DC0C46265A2D4D01B0A6ADB321161AF4"",""assignmentId"":""25067b55-2b9a-4741-8803-936805df588b"",""projectId"":""9076ac92-be42-43a2-9634-8b67c7fe93a7""}","https://test12345.live/?num_scrambled_semantic=8&num_scrambled_causal=4&num_scrambled_schematic=4&participantId=DC0C46265A2D4D01B0A6ADB321161AF4&assignmentId=25067b55-2b9a-4741-8803-936805df588b&projectId=9076ac92-be42-43a2-9634-8b67c7fe93a7","DC0C46265A2D4D01B0A6ADB321161AF4-2025-05-22-20-10-53","","null","","images/semantic_sequence/kitchen_operations_semantic/kitchen_operations_semantic_4.png","null","",""
"","","","","","image-button-response","67","479032","0.0-12.0-1.0-1.3","DC0C46265A2D4D01B0A6ADB321161AF4","DC0C46265A2D4D01B0A6ADB321161AF4","25067b55-2b9a-4741-8803-936805df588b","9076ac92-be42-43a2-9634-8b67c7fe93a7","{""num_scrambled_semantic"":""8"",""num_scrambled_causal"":""4"",""num_scrambled_schematic"":""4"",""participantId"":""DC0C46265A2D4D01B0A6ADB321161AF4"",""assignmentId"":""25067b55-2b9a-4741-8803-936805df588b"",""projectId"":""9076ac92-be42-43a2-9634-8b67c7fe93a7""}","https://test12345.live/?num_scrambled_semantic=8&num_scrambled_causal=4&num_scrambled_schematic=4&participantId=DC0C46265A2D4D01B0A6ADB321161AF4&assignmentId=25067b55-2b9a-4741-8803-936805df588b&projectId=9076ac92-be42-43a2-9634-8b67c7fe93a7","DC0C46265A2D4D01B0A6ADB321161AF4-2025-05-22-20-10-53","","789","","images/semantic_sequence/kitchen_operations_semantic/kitchen_operations_semantic_4.png","0","",""
"","","","","","image-button-response","68","480841","0.0-12.0-1.0-2.3","DC0C46265A2D4D01B0A6ADB321161AF4","DC0C46265A2D4D01B0A6ADB321161AF4","25067b55-2b9a-4741-8803-936805df588b","9076ac92-be42-43a2-9634-8b67c7fe93a7","{""num_scrambled_semantic"":""8"",""num_scrambled_causal"":""4"",""num_scrambled_schematic"":""4"",""participantId"":""DC0C46265A2D4D01B0A6ADB321161AF4"",""assignmentId"":""25067b55-2b9a-4741-8803-936805df588b"",""projectId"":""9076ac92-be42-43a2-9634-8b67c7fe93a7""}","https://test12345.live/?num_scrambled_semantic=8&num_scrambled_causal=4&num_scrambled_schematic=4&participantId=DC0C46265A2D4D01B0A6ADB321161AF4&assignmentId=25067b55-2b9a-4741-8803-936805df588b&projectId=9076ac92-be42-43a2-9634-8b67c7fe93a7","DC0C46265A2D4D01B0A6ADB321161AF4-2025-05-22-20-10-53","","null","","[]","null","",""
"","","","","","image-button-response","69","485347","0.0-12.0-1.0-0.4","DC0C46265A2D4D01B0A6ADB321161AF4","DC0C46265A2D4D01B0A6ADB321161AF4","25067b55-2b9a-4741-8803-936805df588b","9076ac92-be42-43a2-9634-8b67c7fe93a7","{""num_scrambled_semantic"":""8"",""num_scrambled_causal"":""4"",""num_scrambled_schematic"":""4"",""participantId"":""DC0C46265A2D4D01B0A6ADB321161AF4"",""assignmentId"":""25067b55-2b9a-4741-8803-936805df588b"",""projectId"":""9076ac92-be42-43a2-9634-8b67c7fe93a7""}","https://test12345.live/?num_scrambled_semantic=8&num_scrambled_causal=4&num_scrambled_schematic=4&participantId=DC0C46265A2D4D01B0A6ADB321161AF4&assignmentId=25067b55-2b9a-4741-8803-936805df588b&projectId=9076ac92-be42-43a2-9634-8b67c7fe93a7","DC0C46265A2D4D01B0A6ADB321161AF4-2025-05-22-20-10-53","","null","","images/semantic_sequence/kitchen_operations_semantic/kitchen_operations_semantic_5.png","null","",""
"","","","","","image-button-response","70","486162","0.0-12.0-1.0-1.4","DC0C46265A2D4D01B0A6ADB321161AF4","DC0C46265A2D4D01B0A6ADB321161AF4","25067b55-2b9a-4741-8803-936805df588b","9076ac92-be42-43a2-9634-8b67c7fe93a7","{""num_scrambled_semantic"":""8"",""num_scrambled_causal"":""4"",""num_scrambled_schematic"":""4"",""participantId"":""DC0C46265A2D4D01B0A6ADB321161AF4"",""assignmentId"":""25067b55-2b9a-4741-8803-936805df588b"",""projectId"":""9076ac92-be42-43a2-9634-8b67c7fe93a7""}","https://test12345.live/?num_scrambled_semantic=8&num_scrambled_causal=4&num_scrambled_schematic=4&participantId=DC0C46265A2D4D01B0A6ADB321161AF4&assignmentId=25067b55-2b9a-4741-8803-936805df588b&projectId=9076ac92-be42-43a2-9634-8b67c7fe93a7","DC0C46265A2D4D01B0A6ADB321161AF4-2025-05-22-20-10-53","","813","","images/semantic_sequence/kitchen_operations_semantic/kitchen_operations_semantic_5.png","0","",""
"","","","","","image-button-response","71","487977","0.0-12.0-1.0-2.4","DC0C46265A2D4D01B0A6ADB321161AF4","DC0C46265A2D4D01B0A6ADB321161AF4","25067b55-2b9a-4741-8803-936805df588b","9076ac92-be42-43a2-9634-8b67c7fe93a7","{""num_scrambled_semantic"":""8"",""num_scrambled_causal"":""4"",""num_scrambled_schematic"":""4"",""participantId"":""DC0C46265A2D4D01B0A6ADB321161AF4"",""assignmentId"":""25067b55-2b9a-4741-8803-936805df588b"",""projectId"":""9076ac92-be42-43a2-9634-8b67c7fe93a7""}","https://test12345.live/?num_scrambled_semantic=8&num_scrambled_causal=4&num_scrambled_schematic=4&participantId=DC0C46265A2D4D01B0A6ADB321161AF4&assignmentId=25067b55-2b9a-4741-8803-936805df588b&projectId=9076ac92-be42-43a2-9634-8b67c7fe93a7","DC0C46265A2D4D01B0A6ADB321161AF4-2025-05-22-20-10-53","","null","","[]","null","",""
"","","","","","image-button-response","72","492493","0.0-12.0-1.0-0.5","DC0C46265A2D4D01B0A6ADB321161AF4","DC0C46265A2D4D01B0A6ADB321161AF4","25067b55-2b9a-4741-8803-936805df588b","9076ac92-be42-43a2-9634-8b67c7fe93a7","{""num_scrambled_semantic"":""8"",""num_scrambled_causal"":""4"",""num_scrambled_schematic"":""4"",""participantId"":""DC0C46265A2D4D01B0A6ADB321161AF4"",""assignmentId"":""25067b55-2b9a-4741-8803-936805df588b"",""projectId"":""9076ac92-be42-43a2-9634-8b67c7fe93a7""}","https://test12345.live/?num_scrambled_semantic=8&num_scrambled_causal=4&num_scrambled_schematic=4&participantId=DC0C46265A2D4D01B0A6ADB321161AF4&assignmentId=25067b55-2b9a-4741-8803-936805df588b&projectId=9076ac92-be42-43a2-9634-8b67c7fe93a7","DC0C46265A2D4D01B0A6ADB321161AF4-2025-05-22-20-10-53","","null","","images/semantic_sequence/kitchen_operations_semantic/kitchen_operations_semantic_6.png","null","",""
"","","","","","image-button-response","73","493342","0.0-12.0-1.0-1.5","DC0C46265A2D4D01B0A6ADB321161AF4","DC0C46265A2D4D01B0A6ADB321161AF4","25067b55-2b9a-4741-8803-936805df588b","9076ac92-be42-43a2-9634-8b67c7fe93a7","{""num_scrambled_semantic"":""8"",""num_scrambled_causal"":""4"",""num_scrambled_schematic"":""4"",""participantId"":""DC0C46265A2D4D01B0A6ADB321161AF4"",""assignmentId"":""25067b55-2b9a-4741-8803-936805df588b"",""projectId"":""9076ac92-be42-43a2-9634-8b67c7fe93a7""}","https://test12345.live/?num_scrambled_semantic=8&num_scrambled_causal=4&num_scrambled_schematic=4&participantId=DC0C46265A2D4D01B0A6ADB321161AF4&assignmentId=25067b55-2b9a-4741-8803-936805df588b&projectId=9076ac92-be42-43a2-9634-8b67c7fe93a7","DC0C46265A2D4D01B0A6ADB321161AF4-2025-05-22-20-10-53","","847","","images/semantic_sequence/kitchen_operations_semantic/kitchen_operations_semantic_6.png","0","",""
"","","","","","image-button-response","74","495147","0.0-12.0-1.0-2.5","DC0C46265A2D4D01B0A6ADB321161AF4","DC0C46265A2D4D01B0A6ADB321161AF4","25067b55-2b9a-4741-8803-936805df588b","9076ac92-be42-43a2-9634-8b67c7fe93a7","{""num_scrambled_semantic"":""8"",""num_scrambled_causal"":""4"",""num_scrambled_schematic"":""4"",""participantId"":""DC0C46265A2D4D01B0A6ADB321161AF4"",""assignmentId"":""25067b55-2b9a-4741-8803-936805df588b"",""projectId"":""9076ac92-be42-43a2-9634-8b67c7fe93a7""}","https://test12345.live/?num_scrambled_semantic=8&num_scrambled_causal=4&num_scrambled_schematic=4&participantId=DC0C46265A2D4D01B0A6ADB321161AF4&assignmentId=25067b55-2b9a-4741-8803-936805df588b&projectId=9076ac92-be42-43a2-9634-8b67c7fe93a7","DC0C46265A2D4D01B0A6ADB321161AF4-2025-05-22-20-10-53","","null","","[]","null","",""
"","","","","","image-button-response","75","499664","0.0-12.0-1.0-0.6","DC0C46265A2D4D01B0A6ADB321161AF4","DC0C46265A2D4D01B0A6ADB321161AF4","25067b55-2b9a-4741-8803-936805df588b","9076ac92-be42-43a2-9634-8b67c7fe93a7","{""num_scrambled_semantic"":""8"",""num_scrambled_causal"":""4"",""num_scrambled_schematic"":""4"",""participantId"":""DC0C46265A2D4D01B0A6ADB321161AF4"",""assignmentId"":""25067b55-2b9a-4741-8803-936805df588b"",""projectId"":""9076ac92-be42-43a2-9634-8b67c7fe93a7""}","https://test12345.live/?num_scrambled_semantic=8&num_scrambled_causal=4&num_scrambled_schematic=4&participantId=DC0C46265A2D4D01B0A6ADB321161AF4&assignmentId=25067b55-2b9a-4741-8803-936805df588b&projectId=9076ac92-be42-43a2-9634-8b67c7fe93a7","DC0C46265A2D4D01B0A6ADB321161AF4-2025-05-22-20-10-53","","null","","images/semantic_sequence/kitchen_operations_semantic/kitchen_operations_semantic_7.png","null","",""
"","","","","","image-button-response","76","500764","0.0-12.0-1.0-1.6","DC0C46265A2D4D01B0A6ADB321161AF4","DC0C46265A2D4D01B0A6ADB321161AF4","25067b55-2b9a-4741-8803-936805df588b","9076ac92-be42-43a2-9634-8b67c7fe93a7","{""num_scrambled_semantic"":""8"",""num_scrambled_causal"":""4"",""num_scrambled_schematic"":""4"",""participantId"":""DC0C46265A2D4D01B0A6ADB321161AF4"",""assignmentId"":""25067b55-2b9a-4741-8803-936805df588b"",""projectId"":""9076ac92-be42-43a2-9634-8b67c7fe93a7""}","https://test12345.live/?num_scrambled_semantic=8&num_scrambled_causal=4&num_scrambled_schematic=4&participantId=DC0C46265A2D4D01B0A6ADB321161AF4&assignmentId=25067b55-2b9a-4741-8803-936805df588b&projectId=9076ac92-be42-43a2-9634-8b67c7fe93a7","DC0C46265A2D4D01B0A6ADB321161AF4-2025-05-22-20-10-53","","1098","","images/semantic_sequence/kitchen_operations_semantic/kitchen_operations_semantic_7.png","0","",""
"","","","","","image-button-response","77","502580","0.0-12.0-1.0-2.6","DC0C46265A2D4D01B0A6ADB321161AF4","DC0C46265A2D4D01B0A6ADB321161AF4","25067b55-2b9a-4741-8803-936805df588b","9076ac92-be42-43a2-9634-8b67c7fe93a7","{""num_scrambled_semantic"":""8"",""num_scrambled_causal"":""4"",""num_scrambled_schematic"":""4"",""participantId"":""DC0C46265A2D4D01B0A6ADB321161AF4"",""assignmentId"":""25067b55-2b9a-4741-8803-936805df588b"",""projectId"":""9076ac92-be42-43a2-9634-8b67c7fe93a7""}","https://test12345.live/?num_scrambled_semantic=8&num_scrambled_causal=4&num_scrambled_schematic=4&participantId=DC0C46265A2D4D01B0A6ADB321161AF4&assignmentId=25067b55-2b9a-4741-8803-936805df588b&projectId=9076ac92-be42-43a2-9634-8b67c7fe93a7","DC0C46265A2D4D01B0A6ADB321161AF4-2025-05-22-20-10-53","","null","","[]","null","",""
"","","","","","image-button-response","78","507084","0.0-12.0-1.0-0.7","DC0C46265A2D4D01B0A6ADB321161AF4","DC0C46265A2D4D01B0A6ADB321161AF4","25067b55-2b9a-4741-8803-936805df588b","9076ac92-be42-43a2-9634-8b67c7fe93a7","{""num_scrambled_semantic"":""8"",""num_scrambled_causal"":""4"",""num_scrambled_schematic"":""4"",""participantId"":""DC0C46265A2D4D01B0A6ADB321161AF4"",""assignmentId"":""25067b55-2b9a-4741-8803-936805df588b"",""projectId"":""9076ac92-be42-43a2-9634-8b67c7fe93a7""}","https://test12345.live/?num_scrambled_semantic=8&num_scrambled_causal=4&num_scrambled_schematic=4&participantId=DC0C46265A2D4D01B0A6ADB321161AF4&assignmentId=25067b55-2b9a-4741-8803-936805df588b&projectId=9076ac92-be42-43a2-9634-8b67c7fe93a7","DC0C46265A2D4D01B0A6ADB321161AF4-2025-05-22-20-10-53","","null","","images/semantic_sequence/kitchen_operations_semantic/kitchen_operations_semantic_8.png","null","",""
"","","","","","image-button-response","79","507924","0.0-12.0-1.0-1.7","DC0C46265A2D4D01B0A6ADB321161AF4","DC0C46265A2D4D01B0A6ADB321161AF4","25067b55-2b9a-4741-8803-936805df588b","9076ac92-be42-43a2-9634-8b67c7fe93a7","{""num_scrambled_semantic"":""8"",""num_scrambled_causal"":""4"",""num_scrambled_schematic"":""4"",""participantId"":""DC0C46265A2D4D01B0A6ADB321161AF4"",""assignmentId"":""25067b55-2b9a-4741-8803-936805df588b"",""projectId"":""9076ac92-be42-43a2-9634-8b67c7fe93a7""}","https://test12345.live/?num_scrambled_semantic=8&num_scrambled_causal=4&num_scrambled_schematic=4&participantId=DC0C46265A2D4D01B0A6ADB321161AF4&assignmentId=25067b55-2b9a-4741-8803-936805df588b&projectId=9076ac92-be42-43a2-9634-8b67c7fe93a7","DC0C46265A2D4D01B0A6ADB321161AF4-2025-05-22-20-10-53","","839","","images/semantic_sequence/kitchen_operations_semantic/kitchen_operations_semantic_8.png","0","",""
"","","","","","image-button-response","80","509734","0.0-12.0-1.0-2.7","DC0C46265A2D4D01B0A6ADB321161AF4","DC0C46265A2D4D01B0A6ADB321161AF4","25067b55-2b9a-4741-8803-936805df588b","9076ac92-be42-43a2-9634-8b67c7fe93a7","{""num_scrambled_semantic"":""8"",""num_scrambled_causal"":""4"",""num_scrambled_schematic"":""4"",""participantId"":""DC0C46265A2D4D01B0A6ADB321161AF4"",""assignmentId"":""25067b55-2b9a-4741-8803-936805df588b"",""projectId"":""9076ac92-be42-43a2-9634-8b67c7fe93a7""}","https://test12345.live/?num_scrambled_semantic=8&num_scrambled_causal=4&num_scrambled_schematic=4&participantId=DC0C46265A2D4D01B0A6ADB321161AF4&assignmentId=25067b55-2b9a-4741-8803-936805df588b&projectId=9076ac92-be42-43a2-9634-8b67c7fe93a7","DC0C46265A2D4D01B0A6ADB321161AF4-2025-05-22-20-10-53","","null","","[]","null","",""
"","","","","","image-button-response","81","514245","0.0-12.0-1.0-0.8","DC0C46265A2D4D01B0A6ADB321161AF4","DC0C46265A2D4D01B0A6ADB321161AF4","25067b55-2b9a-4741-8803-936805df588b","9076ac92-be42-43a2-9634-8b67c7fe93a7","{""num_scrambled_semantic"":""8"",""num_scrambled_causal"":""4"",""num_scrambled_schematic"":""4"",""participantId"":""DC0C46265A2D4D01B0A6ADB321161AF4"",""assignmentId"":""25067b55-2b9a-4741-8803-936805df588b"",""projectId"":""9076ac92-be42-43a2-9634-8b67c7fe93a7""}","https://test12345.live/?num_scrambled_semantic=8&num_scrambled_causal=4&num_scrambled_schematic=4&participantId=DC0C46265A2D4D01B0A6ADB321161AF4&assignmentId=25067b55-2b9a-4741-8803-936805df588b&projectId=9076ac92-be42-43a2-9634-8b67c7fe93a7","DC0C46265A2D4D01B0A6ADB321161AF4-2025-05-22-20-10-53","","null","","images/semantic_sequence/kitchen_operations_semantic/kitchen_operations_semantic_9.png","null","",""
"","","","","","image-button-response","82","515059","0.0-12.0-1.0-1.8","DC0C46265A2D4D01B0A6ADB321161AF4","DC0C46265A2D4D01B0A6ADB321161AF4","25067b55-2b9a-4741-8803-936805df588b","9076ac92-be42-43a2-9634-8b67c7fe93a7","{""num_scrambled_semantic"":""8"",""num_scrambled_causal"":""4"",""num_scrambled_schematic"":""4"",""participantId"":""DC0C46265A2D4D01B0A6ADB321161AF4"",""assignmentId"":""25067b55-2b9a-4741-8803-936805df588b"",""projectId"":""9076ac92-be42-43a2-9634-8b67c7fe93a7""}","https://test12345.live/?num_scrambled_semantic=8&num_scrambled_causal=4&num_scrambled_schematic=4&participantId=DC0C46265A2D4D01B0A6ADB321161AF4&assignmentId=25067b55-2b9a-4741-8803-936805df588b&projectId=9076ac92-be42-43a2-9634-8b67c7fe93a7","DC0C46265A2D4D01B0A6ADB321161AF4-2025-05-22-20-10-53","","812","","images/semantic_sequence/kitchen_operations_semantic/kitchen_operations_semantic_9.png","0","",""
"","","","","","image-button-response","83","516872","0.0-12.0-1.0-2.8","DC0C46265A2D4D01B0A6ADB321161AF4","DC0C46265A2D4D01B0A6ADB321161AF4","25067b55-2b9a-4741-8803-936805df588b","9076ac92-be42-43a2-9634-8b67c7fe93a7","{""num_scrambled_semantic"":""8"",""num_scrambled_causal"":""4"",""num_scrambled_schematic"":""4"",""participantId"":""DC0C46265A2D4D01B0A6ADB321161AF4"",""assignmentId"":""25067b55-2b9a-4741-8803-936805df588b"",""projectId"":""9076ac92-be42-43a2-9634-8b67c7fe93a7""}","https://test12345.live/?num_scrambled_semantic=8&num_scrambled_causal=4&num_scrambled_schematic=4&participantId=DC0C46265A2D4D01B0A6ADB321161AF4&assignmentId=25067b55-2b9a-4741-8803-936805df588b&projectId=9076ac92-be42-43a2-9634-8b67c7fe93a7","DC0C46265A2D4D01B0A6ADB321161AF4-2025-05-22-20-10-53","","null","","[]","null","",""
"","","","","","image-button-response","84","521376","0.0-12.0-1.0-0.9","DC0C46265A2D4D01B0A6ADB321161AF4","DC0C46265A2D4D01B0A6ADB321161AF4","25067b55-2b9a-4741-8803-936805df588b","9076ac92-be42-43a2-9634-8b67c7fe93a7","{""num_scrambled_semantic"":""8"",""num_scrambled_causal"":""4"",""num_scrambled_schematic"":""4"",""participantId"":""DC0C46265A2D4D01B0A6ADB321161AF4"",""assignmentId"":""25067b55-2b9a-4741-8803-936805df588b"",""projectId"":""9076ac92-be42-43a2-9634-8b67c7fe93a7""}","https://test12345.live/?num_scrambled_semantic=8&num_scrambled_causal=4&num_scrambled_schematic=4&participantId=DC0C46265A2D4D01B0A6ADB321161AF4&assignmentId=25067b55-2b9a-4741-8803-936805df588b&projectId=9076ac92-be42-43a2-9634-8b67c7fe93a7","DC0C46265A2D4D01B0A6ADB321161AF4-2025-05-22-20-10-53","","null","","images/semantic_sequence/kitchen_operations_semantic/kitchen_operations_semantic_ten.png","null","",""
"","","","","","image-button-response","85","522342","0.0-12.0-1.0-1.9","DC0C46265A2D4D01B0A6ADB321161AF4","DC0C46265A2D4D01B0A6ADB321161AF4","25067b55-2b9a-4741-8803-936805df588b","9076ac92-be42-43a2-9634-8b67c7fe93a7","{""num_scrambled_semantic"":""8"",""num_scrambled_causal"":""4"",""num_scrambled_schematic"":""4"",""participantId"":""DC0C46265A2D4D01B0A6ADB321161AF4"",""assignmentId"":""25067b55-2b9a-4741-8803-936805df588b"",""projectId"":""9076ac92-be42-43a2-9634-8b67c7fe93a7""}","https://test12345.live/?num_scrambled_semantic=8&num_scrambled_causal=4&num_scrambled_schematic=4&participantId=DC0C46265A2D4D01B0A6ADB321161AF4&assignmentId=25067b55-2b9a-4741-8803-936805df588b&projectId=9076ac92-be42-43a2-9634-8b67c7fe93a7","DC0C46265A2D4D01B0A6ADB321161AF4-2025-05-22-20-10-53","","945","","images/semantic_sequence/kitchen_operations_semantic/kitchen_operations_semantic_ten.png","0","",""
"","","","","","image-button-response","86","524147","0.0-12.0-1.0-2.9","DC0C46265A2D4D01B0A6ADB321161AF4","DC0C46265A2D4D01B0A6ADB321161AF4","25067b55-2b9a-4741-8803-936805df588b","9076ac92-be42-43a2-9634-8b67c7fe93a7","{""num_scrambled_semantic"":""8"",""num_scrambled_causal"":""4"",""num_scrambled_schematic"":""4"",""participantId"":""DC0C46265A2D4D01B0A6ADB321161AF4"",""assignmentId"":""25067b55-2b9a-4741-8803-936805df588b"",""projectId"":""9076ac92-be42-43a2-9634-8b67c7fe93a7""}","https://test12345.live/?num_scrambled_semantic=8&num_scrambled_causal=4&num_scrambled_schematic=4&participantId=DC0C46265A2D4D01B0A6ADB321161AF4&assignmentId=25067b55-2b9a-4741-8803-936805df588b&projectId=9076ac92-be42-43a2-9634-8b67c7fe93a7","DC0C46265A2D4D01B0A6ADB321161AF4-2025-05-22-20-10-53","","null","","[]","null","",""
"","","","","","html-audio-response","87","565460","0.0-13.0","DC0C46265A2D4D01B0A6ADB321161AF4","DC0C46265A2D4D01B0A6ADB321161AF4","25067b55-2b9a-4741-8803-936805df588b","9076ac92-be42-43a2-9634-8b67c7fe93a7","{""num_scrambled_semantic"":""8"",""num_scrambled_causal"":""4"",""num_scrambled_schematic"":""4"",""participantId"":""DC0C46265A2D4D01B0A6ADB321161AF4"",""assignmentId"":""25067b55-2b9a-4741-8803-936805df588b"",""projectId"":""9076ac92-be42-43a2-9634-8b67c7fe93a7""}","https://test12345.live/?num_scrambled_semantic=8&num_scrambled_causal=4&num_scrambled_schematic=4&participantId=DC0C46265A2D4D01B0A6ADB321161AF4&assignmentId=25067b55-2b9a-4741-8803-936805df588b&projectId=9076ac92-be42-43a2-9634-8b67c7fe93a7","DC0C46265A2D4D01B0A6ADB321161AF4-2025-05-22-20-10-53","","39523","","[""<span style=\""color: red; font-size: 24px\""> NOW RECORDING</span><p>Please say out loud all the images you saw, in the exact order you saw them. Try to recall as many images as you can, but remember: getting the order right is more important than the number of images you recall.</p>""]","","2","kitchen_operations_semantic"
"","","","","","image-button-response","88","571484","0.0-14.0-0.0","DC0C46265A2D4D01B0A6ADB321161AF4","DC0C46265A2D4D01B0A6ADB321161AF4","25067b55-2b9a-4741-8803-936805df588b","9076ac92-be42-43a2-9634-8b67c7fe93a7","{""num_scrambled_semantic"":""8"",""num_scrambled_causal"":""4"",""num_scrambled_schematic"":""4"",""participantId"":""DC0C46265A2D4D01B0A6ADB321161AF4"",""assignmentId"":""25067b55-2b9a-4741-8803-936805df588b"",""projectId"":""9076ac92-be42-43a2-9634-8b67c7fe93a7""}","https://test12345.live/?num_scrambled_semantic=8&num_scrambled_causal=4&num_scrambled_schematic=4&participantId=DC0C46265A2D4D01B0A6ADB321161AF4&assignmentId=25067b55-2b9a-4741-8803-936805df588b&projectId=9076ac92-be42-43a2-9634-8b67c7fe93a7","DC0C46265A2D4D01B0A6ADB321161AF4-2025-05-22-20-10-53","","null","","images/schematic_sequence/hotel_scheme/hotel_scheme_0.png","null","",""
"","","","","","image-button-response","89","575999","0.0-14.0-1.0-0.0","DC0C46265A2D4D01B0A6ADB321161AF4","DC0C46265A2D4D01B0A6ADB321161AF4","25067b55-2b9a-4741-8803-936805df588b","9076ac92-be42-43a2-9634-8b67c7fe93a7","{""num_scrambled_semantic"":""8"",""num_scrambled_causal"":""4"",""num_scrambled_schematic"":""4"",""participantId"":""DC0C46265A2D4D01B0A6ADB321161AF4"",""assignmentId"":""25067b55-2b9a-4741-8803-936805df588b"",""projectId"":""9076ac92-be42-43a2-9634-8b67c7fe93a7""}","https://test12345.live/?num_scrambled_semantic=8&num_scrambled_causal=4&num_scrambled_schematic=4&participantId=DC0C46265A2D4D01B0A6ADB321161AF4&assignmentId=25067b55-2b9a-4741-8803-936805df588b&projectId=9076ac92-be42-43a2-9634-8b67c7fe93a7","DC0C46265A2D4D01B0A6ADB321161AF4-2025-05-22-20-10-53","","null","","images/schematic_sequence/hotel_scheme/hotel_scheme_8.png","null","",""
"","","","","","image-button-response","90","577534","0.0-14.0-1.0-1.0","DC0C46265A2D4D01B0A6ADB321161AF4","DC0C46265A2D4D01B0A6ADB321161AF4","25067b55-2b9a-4741-8803-936805df588b","9076ac92-be42-43a2-9634-8b67c7fe93a7","{""num_scrambled_semantic"":""8"",""num_scrambled_causal"":""4"",""num_scrambled_schematic"":""4"",""participantId"":""DC0C46265A2D4D01B0A6ADB321161AF4"",""assignmentId"":""25067b55-2b9a-4741-8803-936805df588b"",""projectId"":""9076ac92-be42-43a2-9634-8b67c7fe93a7""}","https://test12345.live/?num_scrambled_semantic=8&num_scrambled_causal=4&num_scrambled_schematic=4&participantId=DC0C46265A2D4D01B0A6ADB321161AF4&assignmentId=25067b55-2b9a-4741-8803-936805df588b&projectId=9076ac92-be42-43a2-9634-8b67c7fe93a7","DC0C46265A2D4D01B0A6ADB321161AF4-2025-05-22-20-10-53","","1533","","images/schematic_sequence/hotel_scheme/hotel_scheme_8.png","0","",""
"","","","","","image-button-response","91","579341","0.0-14.0-1.0-2.0","DC0C46265A2D4D01B0A6ADB321161AF4","DC0C46265A2D4D01B0A6ADB321161AF4","25067b55-2b9a-4741-8803-936805df588b","9076ac92-be42-43a2-9634-8b67c7fe93a7","{""num_scrambled_semantic"":""8"",""num_scrambled_causal"":""4"",""num_scrambled_schematic"":""4"",""participantId"":""DC0C46265A2D4D01B0A6ADB321161AF4"",""assignmentId"":""25067b55-2b9a-4741-8803-936805df588b"",""projectId"":""9076ac92-be42-43a2-9634-8b67c7fe93a7""}","https://test12345.live/?num_scrambled_semantic=8&num_scrambled_causal=4&num_scrambled_schematic=4&participantId=DC0C46265A2D4D01B0A6ADB321161AF4&assignmentId=25067b55-2b9a-4741-8803-936805df588b&projectId=9076ac92-be42-43a2-9634-8b67c7fe93a7","DC0C46265A2D4D01B0A6ADB321161AF4-2025-05-22-20-10-53","","null","","[]","null","",""
"","","","","","image-button-response","92","583854","0.0-14.0-1.0-0.1","DC0C46265A2D4D01B0A6ADB321161AF4","DC0C46265A2D4D01B0A6ADB321161AF4","25067b55-2b9a-4741-8803-936805df588b","9076ac92-be42-43a2-9634-8b67c7fe93a7","{""num_scrambled_semantic"":""8"",""num_scrambled_causal"":""4"",""num_scrambled_schematic"":""4"",""participantId"":""DC0C46265A2D4D01B0A6ADB321161AF4"",""assignmentId"":""25067b55-2b9a-4741-8803-936805df588b"",""projectId"":""9076ac92-be42-43a2-9634-8b67c7fe93a7""}","https://test12345.live/?num_scrambled_semantic=8&num_scrambled_causal=4&num_scrambled_schematic=4&participantId=DC0C46265A2D4D01B0A6ADB321161AF4&assignmentId=25067b55-2b9a-4741-8803-936805df588b&projectId=9076ac92-be42-43a2-9634-8b67c7fe93a7","DC0C46265A2D4D01B0A6ADB321161AF4-2025-05-22-20-10-53","","null","","images/schematic_sequence/hotel_scheme/hotel_scheme_9.png","null","",""
"","","","","","image-button-response","93","584686","0.0-14.0-1.0-1.1","DC0C46265A2D4D01B0A6ADB321161AF4","DC0C46265A2D4D01B0A6ADB321161AF4","25067b55-2b9a-4741-8803-936805df588b","9076ac92-be42-43a2-9634-8b67c7fe93a7","{""num_scrambled_semantic"":""8"",""num_scrambled_causal"":""4"",""num_scrambled_schematic"":""4"",""participantId"":""DC0C46265A2D4D01B0A6ADB321161AF4"",""assignmentId"":""25067b55-2b9a-4741-8803-936805df588b"",""projectId"":""9076ac92-be42-43a2-9634-8b67c7fe93a7""}","https://test12345.live/?num_scrambled_semantic=8&num_scrambled_causal=4&num_scrambled_schematic=4&participantId=DC0C46265A2D4D01B0A6ADB321161AF4&assignmentId=25067b55-2b9a-4741-8803-936805df588b&projectId=9076ac92-be42-43a2-9634-8b67c7fe93a7","DC0C46265A2D4D01B0A6ADB321161AF4-2025-05-22-20-10-53","","831","","images/schematic_sequence/hotel_scheme/hotel_scheme_9.png","0","",""
"","","","","","image-button-response","94","586504","0.0-14.0-1.0-2.1","DC0C46265A2D4D01B0A6ADB321161AF4","DC0C46265A2D4D01B0A6ADB321161AF4","25067b55-2b9a-4741-8803-936805df588b","9076ac92-be42-43a2-9634-8b67c7fe93a7","{""num_scrambled_semantic"":""8"",""num_scrambled_causal"":""4"",""num_scrambled_schematic"":""4"",""participantId"":""DC0C46265A2D4D01B0A6ADB321161AF4"",""assignmentId"":""25067b55-2b9a-4741-8803-936805df588b"",""projectId"":""9076ac92-be42-43a2-9634-8b67c7fe93a7""}","https://test12345.live/?num_scrambled_semantic=8&num_scrambled_causal=4&num_scrambled_schematic=4&participantId=DC0C46265A2D4D01B0A6ADB321161AF4&assignmentId=25067b55-2b9a-4741-8803-936805df588b&projectId=9076ac92-be42-43a2-9634-8b67c7fe93a7","DC0C46265A2D4D01B0A6ADB321161AF4-2025-05-22-20-10-53","","null","","[]","null","",""
"","","","","","image-button-response","95","591017","0.0-14.0-1.0-0.2","DC0C46265A2D4D01B0A6ADB321161AF4","DC0C46265A2D4D01B0A6ADB321161AF4","25067b55-2b9a-4741-8803-936805df588b","9076ac92-be42-43a2-9634-8b67c7fe93a7","{""num_scrambled_semantic"":""8"",""num_scrambled_causal"":""4"",""num_scrambled_schematic"":""4"",""participantId"":""DC0C46265A2D4D01B0A6ADB321161AF4"",""assignmentId"":""25067b55-2b9a-4741-8803-936805df588b"",""projectId"":""9076ac92-be42-43a2-9634-8b67c7fe93a7""}","https://test12345.live/?num_scrambled_semantic=8&num_scrambled_causal=4&num_scrambled_schematic=4&participantId=DC0C46265A2D4D01B0A6ADB321161AF4&assignmentId=25067b55-2b9a-4741-8803-936805df588b&projectId=9076ac92-be42-43a2-9634-8b67c7fe93a7","DC0C46265A2D4D01B0A6ADB321161AF4-2025-05-22-20-10-53","","null","","images/schematic_sequence/hotel_scheme/hotel_scheme_1.png","null","",""
"","","","","","image-button-response","96","592824","0.0-14.0-1.0-1.2","DC0C46265A2D4D01B0A6ADB321161AF4","DC0C46265A2D4D01B0A6ADB321161AF4","25067b55-2b9a-4741-8803-936805df588b","9076ac92-be42-43a2-9634-8b67c7fe93a7","{""num_scrambled_semantic"":""8"",""num_scrambled_causal"":""4"",""num_scrambled_schematic"":""4"",""participantId"":""DC0C46265A2D4D01B0A6ADB321161AF4"",""assignmentId"":""25067b55-2b9a-4741-8803-936805df588b"",""projectId"":""9076ac92-be42-43a2-9634-8b67c7fe93a7""}","https://test12345.live/?num_scrambled_semantic=8&num_scrambled_causal=4&num_scrambled_schematic=4&participantId=DC0C46265A2D4D01B0A6ADB321161AF4&assignmentId=25067b55-2b9a-4741-8803-936805df588b&projectId=9076ac92-be42-43a2-9634-8b67c7fe93a7","DC0C46265A2D4D01B0A6ADB321161AF4-2025-05-22-20-10-53","","1806","","images/schematic_sequence/hotel_scheme/hotel_scheme_1.png","1","",""
"","","","","","image-button-response","97","594633","0.0-14.0-1.0-2.2","DC0C46265A2D4D01B0A6ADB321161AF4","DC0C46265A2D4D01B0A6ADB321161AF4","25067b55-2b9a-4741-8803-936805df588b","9076ac92-be42-43a2-9634-8b67c7fe93a7","{""num_scrambled_semantic"":""8"",""num_scrambled_causal"":""4"",""num_scrambled_schematic"":""4"",""participantId"":""DC0C46265A2D4D01B0A6ADB321161AF4"",""assignmentId"":""25067b55-2b9a-4741-8803-936805df588b"",""projectId"":""9076ac92-be42-43a2-9634-8b67c7fe93a7""}","https://test12345.live/?num_scrambled_semantic=8&num_scrambled_causal=4&num_scrambled_schematic=4&participantId=DC0C46265A2D4D01B0A6ADB321161AF4&assignmentId=25067b55-2b9a-4741-8803-936805df588b&projectId=9076ac92-be42-43a2-9634-8b67c7fe93a7","DC0C46265A2D4D01B0A6ADB321161AF4-2025-05-22-20-10-53","","null","","[]","null","",""
"","","","","","image-button-response","98","599144","0.0-14.0-1.0-0.3","DC0C46265A2D4D01B0A6ADB321161AF4","DC0C46265A2D4D01B0A6ADB321161AF4","25067b55-2b9a-4741-8803-936805df588b","9076ac92-be42-43a2-9634-8b67c7fe93a7","{""num_scrambled_semantic"":""8"",""num_scrambled_causal"":""4"",""num_scrambled_schematic"":""4"",""participantId"":""DC0C46265A2D4D01B0A6ADB321161AF4"",""assignmentId"":""25067b55-2b9a-4741-8803-936805df588b"",""projectId"":""9076ac92-be42-43a2-9634-8b67c7fe93a7""}","https://test12345.live/?num_scrambled_semantic=8&num_scrambled_causal=4&num_scrambled_schematic=4&participantId=DC0C46265A2D4D01B0A6ADB321161AF4&assignmentId=25067b55-2b9a-4741-8803-936805df588b&projectId=9076ac92-be42-43a2-9634-8b67c7fe93a7","DC0C46265A2D4D01B0A6ADB321161AF4-2025-05-22-20-10-53","","null","","images/schematic_sequence/hotel_scheme/hotel_scheme_5.png","null","",""
"","","","","","image-button-response","99","599942","0.0-14.0-1.0-1.3","DC0C46265A2D4D01B0A6ADB321161AF4","DC0C46265A2D4D01B0A6ADB321161AF4","25067b55-2b9a-4741-8803-936805df588b","9076ac92-be42-43a2-9634-8b67c7fe93a7","{""num_scrambled_semantic"":""8"",""num_scrambled_causal"":""4"",""num_scrambled_schematic"":""4"",""participantId"":""DC0C46265A2D4D01B0A6ADB321161AF4"",""assignmentId"":""25067b55-2b9a-4741-8803-936805df588b"",""projectId"":""9076ac92-be42-43a2-9634-8b67c7fe93a7""}","https://test12345.live/?num_scrambled_semantic=8&num_scrambled_causal=4&num_scrambled_schematic=4&participantId=DC0C46265A2D4D01B0A6ADB321161AF4&assignmentId=25067b55-2b9a-4741-8803-936805df588b&projectId=9076ac92-be42-43a2-9634-8b67c7fe93a7","DC0C46265A2D4D01B0A6ADB321161AF4-2025-05-22-20-10-53","","796","","images/schematic_sequence/hotel_scheme/hotel_scheme_5.png","0","",""
"","","","","","image-button-response","100","601752","0.0-14.0-1.0-2.3","DC0C46265A2D4D01B0A6ADB321161AF4","DC0C46265A2D4D01B0A6ADB321161AF4","25067b55-2b9a-4741-8803-936805df588b","9076ac92-be42-43a2-9634-8b67c7fe93a7","{""num_scrambled_semantic"":""8"",""num_scrambled_causal"":""4"",""num_scrambled_schematic"":""4"",""participantId"":""DC0C46265A2D4D01B0A6ADB321161AF4"",""assignmentId"":""25067b55-2b9a-4741-8803-936805df588b"",""projectId"":""9076ac92-be42-43a2-9634-8b67c7fe93a7""}","https://test12345.live/?num_scrambled_semantic=8&num_scrambled_causal=4&num_scrambled_schematic=4&participantId=DC0C46265A2D4D01B0A6ADB321161AF4&assignmentId=25067b55-2b9a-4741-8803-936805df588b&projectId=9076ac92-be42-43a2-9634-8b67c7fe93a7","DC0C46265A2D4D01B0A6ADB321161AF4-2025-05-22-20-10-53","","null","","[]","null","",""
"","","","","","image-button-response","101","606268","0.0-14.0-1.0-0.4","DC0C46265A2D4D01B0A6ADB321161AF4","DC0C46265A2D4D01B0A6ADB321161AF4","25067b55-2b9a-4741-8803-936805df588b","9076ac92-be42-43a2-9634-8b67c7fe93a7","{""num_scrambled_semantic"":""8"",""num_scrambled_causal"":""4"",""num_scrambled_schematic"":""4"",""participantId"":""DC0C46265A2D4D01B0A6ADB321161AF4"",""assignmentId"":""25067b55-2b9a-4741-8803-936805df588b"",""projectId"":""9076ac92-be42-43a2-9634-8b67c7fe93a7""}","https://test12345.live/?num_scrambled_semantic=8&num_scrambled_causal=4&num_scrambled_schematic=4&participantId=DC0C46265A2D4D01B0A6ADB321161AF4&assignmentId=25067b55-2b9a-4741-8803-936805df588b&projectId=9076ac92-be42-43a2-9634-8b67c7fe93a7","DC0C46265A2D4D01B0A6ADB321161AF4-2025-05-22-20-10-53","","null","","images/schematic_sequence/hotel_scheme/hotel_scheme_2.png","null","",""
"","","","","","image-button-response","102","606886","0.0-14.0-1.0-1.4","DC0C46265A2D4D01B0A6ADB321161AF4","DC0C46265A2D4D01B0A6ADB321161AF4","25067b55-2b9a-4741-8803-936805df588b","9076ac92-be42-43a2-9634-8b67c7fe93a7","{""num_scrambled_semantic"":""8"",""num_scrambled_causal"":""4"",""num_scrambled_schematic"":""4"",""participantId"":""DC0C46265A2D4D01B0A6ADB321161AF4"",""assignmentId"":""25067b55-2b9a-4741-8803-936805df588b"",""projectId"":""9076ac92-be42-43a2-9634-8b67c7fe93a7""}","https://test12345.live/?num_scrambled_semantic=8&num_scrambled_causal=4&num_scrambled_schematic=4&participantId=DC0C46265A2D4D01B0A6ADB321161AF4&assignmentId=25067b55-2b9a-4741-8803-936805df588b&projectId=9076ac92-be42-43a2-9634-8b67c7fe93a7","DC0C46265A2D4D01B0A6ADB321161AF4-2025-05-22-20-10-53","","617","","images/schematic_sequence/hotel_scheme/hotel_scheme_2.png","0","",""
"","","","","","image-button-response","103","608702","0.0-14.0-1.0-2.4","DC0C46265A2D4D01B0A6ADB321161AF4","DC0C46265A2D4D01B0A6ADB321161AF4","25067b55-2b9a-4741-8803-936805df588b","9076ac92-be42-43a2-9634-8b67c7fe93a7","{""num_scrambled_semantic"":""8"",""num_scrambled_causal"":""4"",""num_scrambled_schematic"":""4"",""participantId"":""DC0C46265A2D4D01B0A6ADB321161AF4"",""assignmentId"":""25067b55-2b9a-4741-8803-936805df588b"",""projectId"":""9076ac92-be42-43a2-9634-8b67c7fe93a7""}","https://test12345.live/?num_scrambled_semantic=8&num_scrambled_causal=4&num_scrambled_schematic=4&participantId=DC0C46265A2D4D01B0A6ADB321161AF4&assignmentId=25067b55-2b9a-4741-8803-936805df588b&projectId=9076ac92-be42-43a2-9634-8b67c7fe93a7","DC0C46265A2D4D01B0A6ADB321161AF4-2025-05-22-20-10-53","","null","","[]","null","",""
"","","","","","image-button-response","104","613215","0.0-14.0-1.0-0.5","DC0C46265A2D4D01B0A6ADB321161AF4","DC0C46265A2D4D01B0A6ADB321161AF4","25067b55-2b9a-4741-8803-936805df588b","9076ac92-be42-43a2-9634-8b67c7fe93a7","{""num_scrambled_semantic"":""8"",""num_scrambled_causal"":""4"",""num_scrambled_schematic"":""4"",""participantId"":""DC0C46265A2D4D01B0A6ADB321161AF4"",""assignmentId"":""25067b55-2b9a-4741-8803-936805df588b"",""projectId"":""9076ac92-be42-43a2-9634-8b67c7fe93a7""}","https://test12345.live/?num_scrambled_semantic=8&num_scrambled_causal=4&num_scrambled_schematic=4&participantId=DC0C46265A2D4D01B0A6ADB321161AF4&assignmentId=25067b55-2b9a-4741-8803-936805df588b&projectId=9076ac92-be42-43a2-9634-8b67c7fe93a7","DC0C46265A2D4D01B0A6ADB321161AF4-2025-05-22-20-10-53","","null","","images/schematic_sequence/hotel_scheme/hotel_scheme_3.png","null","",""
"","","","","","image-button-response","105","614768","0.0-14.0-1.0-1.5","DC0C46265A2D4D01B0A6ADB321161AF4","DC0C46265A2D4D01B0A6ADB321161AF4","25067b55-2b9a-4741-8803-936805df588b","9076ac92-be42-43a2-9634-8b67c7fe93a7","{""num_scrambled_semantic"":""8"",""num_scrambled_causal"":""4"",""num_scrambled_schematic"":""4"",""participantId"":""DC0C46265A2D4D01B0A6ADB321161AF4"",""assignmentId"":""25067b55-2b9a-4741-8803-936805df588b"",""projectId"":""9076ac92-be42-43a2-9634-8b67c7fe93a7""}","https://test12345.live/?num_scrambled_semantic=8&num_scrambled_causal=4&num_scrambled_schematic=4&participantId=DC0C46265A2D4D01B0A6ADB321161AF4&assignmentId=25067b55-2b9a-4741-8803-936805df588b&projectId=9076ac92-be42-43a2-9634-8b67c7fe93a7","DC0C46265A2D4D01B0A6ADB321161AF4-2025-05-22-20-10-53","","1552","","images/schematic_sequence/hotel_scheme/hotel_scheme_3.png","0","",""
"","","","","","image-button-response","106","616584","0.0-14.0-1.0-2.5","DC0C46265A2D4D01B0A6ADB321161AF4","DC0C46265A2D4D01B0A6ADB321161AF4","25067b55-2b9a-4741-8803-936805df588b","9076ac92-be42-43a2-9634-8b67c7fe93a7","{""num_scrambled_semantic"":""8"",""num_scrambled_causal"":""4"",""num_scrambled_schematic"":""4"",""participantId"":""DC0C46265A2D4D01B0A6ADB321161AF4"",""assignmentId"":""25067b55-2b9a-4741-8803-936805df588b"",""projectId"":""9076ac92-be42-43a2-9634-8b67c7fe93a7""}","https://test12345.live/?num_scrambled_semantic=8&num_scrambled_causal=4&num_scrambled_schematic=4&participantId=DC0C46265A2D4D01B0A6ADB321161AF4&assignmentId=25067b55-2b9a-4741-8803-936805df588b&projectId=9076ac92-be42-43a2-9634-8b67c7fe93a7","DC0C46265A2D4D01B0A6ADB321161AF4-2025-05-22-20-10-53","","null","","[]","null","",""
"","","","","","image-button-response","107","621093","0.0-14.0-1.0-0.6","DC0C46265A2D4D01B0A6ADB321161AF4","DC0C46265A2D4D01B0A6ADB321161AF4","25067b55-2b9a-4741-8803-936805df588b","9076ac92-be42-43a2-9634-8b67c7fe93a7","{""num_scrambled_semantic"":""8"",""num_scrambled_causal"":""4"",""num_scrambled_schematic"":""4"",""participantId"":""DC0C46265A2D4D01B0A6ADB321161AF4"",""assignmentId"":""25067b55-2b9a-4741-8803-936805df588b"",""projectId"":""9076ac92-be42-43a2-9634-8b67c7fe93a7""}","https://test12345.live/?num_scrambled_semantic=8&num_scrambled_causal=4&num_scrambled_schematic=4&participantId=DC0C46265A2D4D01B0A6ADB321161AF4&assignmentId=25067b55-2b9a-4741-8803-936805df588b&projectId=9076ac92-be42-43a2-9634-8b67c7fe93a7","DC0C46265A2D4D01B0A6ADB321161AF4-2025-05-22-20-10-53","","null","","images/schematic_sequence/hotel_scheme/hotel_scheme_7.png","null","",""
"","","","","","image-button-response","108","622164","0.0-14.0-1.0-1.6","DC0C46265A2D4D01B0A6ADB321161AF4","DC0C46265A2D4D01B0A6ADB321161AF4","25067b55-2b9a-4741-8803-936805df588b","9076ac92-be42-43a2-9634-8b67c7fe93a7","{""num_scrambled_semantic"":""8"",""num_scrambled_causal"":""4"",""num_scrambled_schematic"":""4"",""participantId"":""DC0C46265A2D4D01B0A6ADB321161AF4"",""assignmentId"":""25067b55-2b9a-4741-8803-936805df588b"",""projectId"":""9076ac92-be42-43a2-9634-8b67c7fe93a7""}","https://test12345.live/?num_scrambled_semantic=8&num_scrambled_causal=4&num_scrambled_schematic=4&participantId=DC0C46265A2D4D01B0A6ADB321161AF4&assignmentId=25067b55-2b9a-4741-8803-936805df588b&projectId=9076ac92-be42-43a2-9634-8b67c7fe93a7","DC0C46265A2D4D01B0A6ADB321161AF4-2025-05-22-20-10-53","","1069","","images/schematic_sequence/hotel_scheme/hotel_scheme_7.png","0","",""
"","","","","","image-button-response","109","623969","0.0-14.0-1.0-2.6","DC0C46265A2D4D01B0A6ADB321161AF4","DC0C46265A2D4D01B0A6ADB321161AF4","25067b55-2b9a-4741-8803-936805df588b","9076ac92-be42-43a2-9634-8b67c7fe93a7","{""num_scrambled_semantic"":""8"",""num_scrambled_causal"":""4"",""num_scrambled_schematic"":""4"",""participantId"":""DC0C46265A2D4D01B0A6ADB321161AF4"",""assignmentId"":""25067b55-2b9a-4741-8803-936805df588b"",""projectId"":""9076ac92-be42-43a2-9634-8b67c7fe93a7""}","https://test12345.live/?num_scrambled_semantic=8&num_scrambled_causal=4&num_scrambled_schematic=4&participantId=DC0C46265A2D4D01B0A6ADB321161AF4&assignmentId=25067b55-2b9a-4741-8803-936805df588b&projectId=9076ac92-be42-43a2-9634-8b67c7fe93a7","DC0C46265A2D4D01B0A6ADB321161AF4-2025-05-22-20-10-53","","null","","[]","null","",""
"","","","","","image-button-response","110","628479","0.0-14.0-1.0-0.7","DC0C46265A2D4D01B0A6ADB321161AF4","DC0C46265A2D4D01B0A6ADB321161AF4","25067b55-2b9a-4741-8803-936805df588b","9076ac92-be42-43a2-9634-8b67c7fe93a7","{""num_scrambled_semantic"":""8"",""num_scrambled_causal"":""4"",""num_scrambled_schematic"":""4"",""participantId"":""DC0C46265A2D4D01B0A6ADB321161AF4"",""assignmentId"":""25067b55-2b9a-4741-8803-936805df588b"",""projectId"":""9076ac92-be42-43a2-9634-8b67c7fe93a7""}","https://test12345.live/?num_scrambled_semantic=8&num_scrambled_causal=4&num_scrambled_schematic=4&participantId=DC0C46265A2D4D01B0A6ADB321161AF4&assignmentId=25067b55-2b9a-4741-8803-936805df588b&projectId=9076ac92-be42-43a2-9634-8b67c7fe93a7","DC0C46265A2D4D01B0A6ADB321161AF4-2025-05-22-20-10-53","","null","","images/schematic_sequence/hotel_scheme/hotel_scheme_4.png","null","",""
"","","","","","image-button-response","111","629960","0.0-14.0-1.0-1.7","DC0C46265A2D4D01B0A6ADB321161AF4","DC0C46265A2D4D01B0A6ADB321161AF4","25067b55-2b9a-4741-8803-936805df588b","9076ac92-be42-43a2-9634-8b67c7fe93a7","{""num_scrambled_semantic"":""8"",""num_scrambled_causal"":""4"",""num_scrambled_schematic"":""4"",""participantId"":""DC0C46265A2D4D01B0A6ADB321161AF4"",""assignmentId"":""25067b55-2b9a-4741-8803-936805df588b"",""projectId"":""9076ac92-be42-43a2-9634-8b67c7fe93a7""}","https://test12345.live/?num_scrambled_semantic=8&num_scrambled_causal=4&num_scrambled_schematic=4&participantId=DC0C46265A2D4D01B0A6ADB321161AF4&assignmentId=25067b55-2b9a-4741-8803-936805df588b&projectId=9076ac92-be42-43a2-9634-8b67c7fe93a7","DC0C46265A2D4D01B0A6ADB321161AF4-2025-05-22-20-10-53","","1479","","images/schematic_sequence/hotel_scheme/hotel_scheme_4.png","1","",""
"","","","","","image-button-response","112","631768","0.0-14.0-1.0-2.7","DC0C46265A2D4D01B0A6ADB321161AF4","DC0C46265A2D4D01B0A6ADB321161AF4","25067b55-2b9a-4741-8803-936805df588b","9076ac92-be42-43a2-9634-8b67c7fe93a7","{""num_scrambled_semantic"":""8"",""num_scrambled_causal"":""4"",""num_scrambled_schematic"":""4"",""participantId"":""DC0C46265A2D4D01B0A6ADB321161AF4"",""assignmentId"":""25067b55-2b9a-4741-8803-936805df588b"",""projectId"":""9076ac92-be42-43a2-9634-8b67c7fe93a7""}","https://test12345.live/?num_scrambled_semantic=8&num_scrambled_causal=4&num_scrambled_schematic=4&participantId=DC0C46265A2D4D01B0A6ADB321161AF4&assignmentId=25067b55-2b9a-4741-8803-936805df588b&projectId=9076ac92-be42-43a2-9634-8b67c7fe93a7","DC0C46265A2D4D01B0A6ADB321161AF4-2025-05-22-20-10-53","","null","","[]","null","",""
"","","","","","image-button-response","113","636271","0.0-14.0-1.0-0.8","DC0C46265A2D4D01B0A6ADB321161AF4","DC0C46265A2D4D01B0A6ADB321161AF4","25067b55-2b9a-4741-8803-936805df588b","9076ac92-be42-43a2-9634-8b67c7fe93a7","{""num_scrambled_semantic"":""8"",""num_scrambled_causal"":""4"",""num_scrambled_schematic"":""4"",""participantId"":""DC0C46265A2D4D01B0A6ADB321161AF4"",""assignmentId"":""25067b55-2b9a-4741-8803-936805df588b"",""projectId"":""9076ac92-be42-43a2-9634-8b67c7fe93a7""}","https://test12345.live/?num_scrambled_semantic=8&num_scrambled_causal=4&num_scrambled_schematic=4&participantId=DC0C46265A2D4D01B0A6ADB321161AF4&assignmentId=25067b55-2b9a-4741-8803-936805df588b&projectId=9076ac92-be42-43a2-9634-8b67c7fe93a7","DC0C46265A2D4D01B0A6ADB321161AF4-2025-05-22-20-10-53","","null","","images/schematic_sequence/hotel_scheme/hotel_scheme_ten.png","null","",""
