"success","timeout","failed_images","failed_audio","failed_video","trial_type","trial_index","time_elapsed","internal_node_id","subject","subject_id","study_id","session_id","urlvar","current_url","audio_id","view_history","rt","device_id","stimulus","response","estimated_stimulus_onset","seq_name"
"true","false","[]","[]","[]","preload","0","13582","0.0-0.0","DCB961DAEA8847BEBD37E0617649AF65","DCB961DAEA8847BEBD37E0617649AF65","0198ba18-2242-79f0-b33d-a4bcbaf1d870","0198b9d0-29d4-7df3-8625-4b4515841beb","{""num_scrambled_semantic"":""8"",""num_scrambled_causal"":""4"",""num_scrambled_schematic"":""4"",""participantId"":""DCB961DAEA8847BEBD37E0617649AF65"",""assignmentId"":""0198ba18-2242-79f0-b33d-a4bcbaf1d870"",""projectId"":""0198b9d0-29d4-7df3-8625-4b4515841beb""}","https://test12345.live/?num_scrambled_semantic=8&num_scrambled_causal=4&num_scrambled_schematic=4&participantId=DCB961DAEA8847BEBD37E0617649AF65&assignmentId=0198ba18-2242-79f0-b33d-a4bcbaf1d870&projectId=0198b9d0-29d4-7df3-8625-4b4515841beb","DCB961DAEA8847BEBD37E0617649AF65-2025-08-17-22-49-56","","","","","","",""
"","","","","","instructions","1","43658","0.0-1.0","DCB961DAEA8847BEBD37E0617649AF65","DCB961DAEA8847BEBD37E0617649AF65","0198ba18-2242-79f0-b33d-a4bcbaf1d870","0198b9d0-29d4-7df3-8625-4b4515841beb","{""num_scrambled_semantic"":""8"",""num_scrambled_causal"":""4"",""num_scrambled_schematic"":""4"",""participantId"":""DCB961DAEA8847BEBD37E0617649AF65"",""assignmentId"":""0198ba18-2242-79f0-b33d-a4bcbaf1d870"",""projectId"":""0198b9d0-29d4-7df3-8625-4b4515841beb""}","https://test12345.live/?num_scrambled_semantic=8&num_scrambled_causal=4&num_scrambled_schematic=4&participantId=DCB961DAEA8847BEBD37E0617649AF65&assignmentId=0198ba18-2242-79f0-b33d-a4bcbaf1d870&projectId=0198b9d0-29d4-7df3-8625-4b4515841beb","DCB961DAEA8847BEBD37E0617649AF65-2025-08-17-22-49-56","[{""page_index"":0,""viewing_time"":30075}]","30076","","","","",""
"","","","","","instructions","2","136630","0.0-2.0","DCB961DAEA8847BEBD37E0617649AF65","DCB961DAEA8847BEBD37E0617649AF65","0198ba18-2242-79f0-b33d-a4bcbaf1d870","0198b9d0-29d4-7df3-8625-4b4515841beb","{""num_scrambled_semantic"":""8"",""num_scrambled_causal"":""4"",""num_scrambled_schematic"":""4"",""participantId"":""DCB961DAEA8847BEBD37E0617649AF65"",""assignmentId"":""0198ba18-2242-79f0-b33d-a4bcbaf1d870"",""projectId"":""0198b9d0-29d4-7df3-8625-4b4515841beb""}","https://test12345.live/?num_scrambled_semantic=8&num_scrambled_causal=4&num_scrambled_schematic=4&participantId=DCB961DAEA8847BEBD37E0617649AF65&assignmentId=0198ba18-2242-79f0-b33d-a4bcbaf1d870&projectId=0198b9d0-29d4-7df3-8625-4b4515841beb","DCB961DAEA8847BEBD37E0617649AF65-2025-08-17-22-49-56","[{""page_index"":0,""viewing_time"":92963}]","92971","","","","",""
"true","","","","","fullscreen","3","139862","0.0-3.0","DCB961DAEA8847BEBD37E0617649AF65","DCB961DAEA8847BEBD37E0617649AF65","0198ba18-2242-79f0-b33d-a4bcbaf1d870","0198b9d0-29d4-7df3-8625-4b4515841beb","{""num_scrambled_semantic"":""8"",""num_scrambled_causal"":""4"",""num_scrambled_schematic"":""4"",""participantId"":""DCB961DAEA8847BEBD37E0617649AF65"",""assignmentId"":""0198ba18-2242-79f0-b33d-a4bcbaf1d870"",""projectId"":""0198b9d0-29d4-7df3-8625-4b4515841beb""}","https://test12345.live/?num_scrambled_semantic=8&num_scrambled_causal=4&num_scrambled_schematic=4&participantId=DCB961DAEA8847BEBD37E0617649AF65&assignmentId=0198ba18-2242-79f0-b33d-a4bcbaf1d870&projectId=0198b9d0-29d4-7df3-8625-4b4515841beb","DCB961DAEA8847BEBD37E0617649AF65-2025-08-17-22-49-56","","2230","","","","",""
"","","","","","initialize-microphone","4","151959","0.0-4.0-0.0","DCB961DAEA8847BEBD37E0617649AF65","DCB961DAEA8847BEBD37E0617649AF65","0198ba18-2242-79f0-b33d-a4bcbaf1d870","0198b9d0-29d4-7df3-8625-4b4515841beb","{""num_scrambled_semantic"":""8"",""num_scrambled_causal"":""4"",""num_scrambled_schematic"":""4"",""participantId"":""DCB961DAEA8847BEBD37E0617649AF65"",""assignmentId"":""0198ba18-2242-79f0-b33d-a4bcbaf1d870"",""projectId"":""0198b9d0-29d4-7df3-8625-4b4515841beb""}","https://test12345.live/?num_scrambled_semantic=8&num_scrambled_causal=4&num_scrambled_schematic=4&participantId=DCB961DAEA8847BEBD37E0617649AF65&assignmentId=0198ba18-2242-79f0-b33d-a4bcbaf1d870&projectId=0198b9d0-29d4-7df3-8625-4b4515841beb","DCB961DAEA8847BEBD37E0617649AF65-2025-08-17-22-49-56","","","38AD7CFE796EC6C9214D24D306657F542247FD9B","","","",""
"","","","","","html-audio-response","5","177689","0.0-4.0-1.0","DCB961DAEA8847BEBD37E0617649AF65","DCB961DAEA8847BEBD37E0617649AF65","0198ba18-2242-79f0-b33d-a4bcbaf1d870","0198b9d0-29d4-7df3-8625-4b4515841beb","{""num_scrambled_semantic"":""8"",""num_scrambled_causal"":""4"",""num_scrambled_schematic"":""4"",""participantId"":""DCB961DAEA8847BEBD37E0617649AF65"",""assignmentId"":""0198ba18-2242-79f0-b33d-a4bcbaf1d870"",""projectId"":""0198b9d0-29d4-7df3-8625-4b4515841beb""}","https://test12345.live/?num_scrambled_semantic=8&num_scrambled_causal=4&num_scrambled_schematic=4&participantId=DCB961DAEA8847BEBD37E0617649AF65&assignmentId=0198ba18-2242-79f0-b33d-a4bcbaf1d870&projectId=0198b9d0-29d4-7df3-8625-4b4515841beb","DCB961DAEA8847BEBD37E0617649AF65-2025-08-17-22-49-56","","2316","","<span style=""color: red; font-size: 24px""> NOW RECORDING</span>
        <p>Please test Microphone</p>","","2",""
"","","","","","html-button-response","6","179956","0.0-4.0-2.0","DCB961DAEA8847BEBD37E0617649AF65","DCB961DAEA8847BEBD37E0617649AF65","0198ba18-2242-79f0-b33d-a4bcbaf1d870","0198b9d0-29d4-7df3-8625-4b4515841beb","{""num_scrambled_semantic"":""8"",""num_scrambled_causal"":""4"",""num_scrambled_schematic"":""4"",""participantId"":""DCB961DAEA8847BEBD37E0617649AF65"",""assignmentId"":""0198ba18-2242-79f0-b33d-a4bcbaf1d870"",""projectId"":""0198b9d0-29d4-7df3-8625-4b4515841beb""}","https://test12345.live/?num_scrambled_semantic=8&num_scrambled_causal=4&num_scrambled_schematic=4&participantId=DCB961DAEA8847BEBD37E0617649AF65&assignmentId=0198ba18-2242-79f0-b33d-a4bcbaf1d870&projectId=0198b9d0-29d4-7df3-8625-4b4515841beb","DCB961DAEA8847BEBD37E0617649AF65-2025-08-17-22-49-56","","2266","","<p style=""font-size:48px; color:red;"">Is Microphone OK?</p>","0","",""
"","","","","","initialize-microphone","7","183080","0.0-4.1-0.1","DCB961DAEA8847BEBD37E0617649AF65","DCB961DAEA8847BEBD37E0617649AF65","0198ba18-2242-79f0-b33d-a4bcbaf1d870","0198b9d0-29d4-7df3-8625-4b4515841beb","{""num_scrambled_semantic"":""8"",""num_scrambled_causal"":""4"",""num_scrambled_schematic"":""4"",""participantId"":""DCB961DAEA8847BEBD37E0617649AF65"",""assignmentId"":""0198ba18-2242-79f0-b33d-a4bcbaf1d870"",""projectId"":""0198b9d0-29d4-7df3-8625-4b4515841beb""}","https://test12345.live/?num_scrambled_semantic=8&num_scrambled_causal=4&num_scrambled_schematic=4&participantId=DCB961DAEA8847BEBD37E0617649AF65&assignmentId=0198ba18-2242-79f0-b33d-a4bcbaf1d870&projectId=0198b9d0-29d4-7df3-8625-4b4515841beb","DCB961DAEA8847BEBD37E0617649AF65-2025-08-17-22-49-56","","","38AD7CFE796EC6C9214D24D306657F542247FD9B","","","",""
"","","","","","html-audio-response","8","193039","0.0-4.1-1.1","DCB961DAEA8847BEBD37E0617649AF65","DCB961DAEA8847BEBD37E0617649AF65","0198ba18-2242-79f0-b33d-a4bcbaf1d870","0198b9d0-29d4-7df3-8625-4b4515841beb","{""num_scrambled_semantic"":""8"",""num_scrambled_causal"":""4"",""num_scrambled_schematic"":""4"",""participantId"":""DCB961DAEA8847BEBD37E0617649AF65"",""assignmentId"":""0198ba18-2242-79f0-b33d-a4bcbaf1d870"",""projectId"":""0198b9d0-29d4-7df3-8625-4b4515841beb""}","https://test12345.live/?num_scrambled_semantic=8&num_scrambled_causal=4&num_scrambled_schematic=4&participantId=DCB961DAEA8847BEBD37E0617649AF65&assignmentId=0198ba18-2242-79f0-b33d-a4bcbaf1d870&projectId=0198b9d0-29d4-7df3-8625-4b4515841beb","DCB961DAEA8847BEBD37E0617649AF65-2025-08-17-22-49-56","","6341","","<span style=""color: red; font-size: 24px""> NOW RECORDING</span>
        <p>Please test Microphone</p>","","1",""
"","","","","","html-button-response","9","193705","0.0-4.1-2.1","DCB961DAEA8847BEBD37E0617649AF65","DCB961DAEA8847BEBD37E0617649AF65","0198ba18-2242-79f0-b33d-a4bcbaf1d870","0198b9d0-29d4-7df3-8625-4b4515841beb","{""num_scrambled_semantic"":""8"",""num_scrambled_causal"":""4"",""num_scrambled_schematic"":""4"",""participantId"":""DCB961DAEA8847BEBD37E0617649AF65"",""assignmentId"":""0198ba18-2242-79f0-b33d-a4bcbaf1d870"",""projectId"":""0198b9d0-29d4-7df3-8625-4b4515841beb""}","https://test12345.live/?num_scrambled_semantic=8&num_scrambled_causal=4&num_scrambled_schematic=4&participantId=DCB961DAEA8847BEBD37E0617649AF65&assignmentId=0198ba18-2242-79f0-b33d-a4bcbaf1d870&projectId=0198b9d0-29d4-7df3-8625-4b4515841beb","DCB961DAEA8847BEBD37E0617649AF65-2025-08-17-22-49-56","","665","","<p style=""font-size:48px; color:red;"">Is Microphone OK?</p>","1","",""
"","","","","","instructions","10","218221","0.0-5.0","DCB961DAEA8847BEBD37E0617649AF65","DCB961DAEA8847BEBD37E0617649AF65","0198ba18-2242-79f0-b33d-a4bcbaf1d870","0198b9d0-29d4-7df3-8625-4b4515841beb","{""num_scrambled_semantic"":""8"",""num_scrambled_causal"":""4"",""num_scrambled_schematic"":""4"",""participantId"":""DCB961DAEA8847BEBD37E0617649AF65"",""assignmentId"":""0198ba18-2242-79f0-b33d-a4bcbaf1d870"",""projectId"":""0198b9d0-29d4-7df3-8625-4b4515841beb""}","https://test12345.live/?num_scrambled_semantic=8&num_scrambled_causal=4&num_scrambled_schematic=4&participantId=DCB961DAEA8847BEBD37E0617649AF65&assignmentId=0198ba18-2242-79f0-b33d-a4bcbaf1d870&projectId=0198b9d0-29d4-7df3-8625-4b4515841beb","DCB961DAEA8847BEBD37E0617649AF65-2025-08-17-22-49-56","[{""page_index"":0,""viewing_time"":11466},{""page_index"":1,""viewing_time"":13049}]","24515","","","","",""
"","","","","","image-button-response","11","224229","0.0-6.0-0.0","DCB961DAEA8847BEBD37E0617649AF65","DCB961DAEA8847BEBD37E0617649AF65","0198ba18-2242-79f0-b33d-a4bcbaf1d870","0198b9d0-29d4-7df3-8625-4b4515841beb","{""num_scrambled_semantic"":""8"",""num_scrambled_causal"":""4"",""num_scrambled_schematic"":""4"",""participantId"":""DCB961DAEA8847BEBD37E0617649AF65"",""assignmentId"":""0198ba18-2242-79f0-b33d-a4bcbaf1d870"",""projectId"":""0198b9d0-29d4-7df3-8625-4b4515841beb""}","https://test12345.live/?num_scrambled_semantic=8&num_scrambled_causal=4&num_scrambled_schematic=4&participantId=DCB961DAEA8847BEBD37E0617649AF65&assignmentId=0198ba18-2242-79f0-b33d-a4bcbaf1d870&projectId=0198b9d0-29d4-7df3-8625-4b4515841beb","DCB961DAEA8847BEBD37E0617649AF65-2025-08-17-22-49-56","","null","","images/instructions/movie_0.png","null","",""
"","","","","","image-button-response","12","228748","0.0-6.0-1.0-0.0","DCB961DAEA8847BEBD37E0617649AF65","DCB961DAEA8847BEBD37E0617649AF65","0198ba18-2242-79f0-b33d-a4bcbaf1d870","0198b9d0-29d4-7df3-8625-4b4515841beb","{""num_scrambled_semantic"":""8"",""num_scrambled_causal"":""4"",""num_scrambled_schematic"":""4"",""participantId"":""DCB961DAEA8847BEBD37E0617649AF65"",""assignmentId"":""0198ba18-2242-79f0-b33d-a4bcbaf1d870"",""projectId"":""0198b9d0-29d4-7df3-8625-4b4515841beb""}","https://test12345.live/?num_scrambled_semantic=8&num_scrambled_causal=4&num_scrambled_schematic=4&participantId=DCB961DAEA8847BEBD37E0617649AF65&assignmentId=0198ba18-2242-79f0-b33d-a4bcbaf1d870&projectId=0198b9d0-29d4-7df3-8625-4b4515841beb","DCB961DAEA8847BEBD37E0617649AF65-2025-08-17-22-49-56","","null","","images/instructions/movie_1.png","null","",""
"","","","","","image-button-response","13","231222","0.0-6.0-1.0-1.0","DCB961DAEA8847BEBD37E0617649AF65","DCB961DAEA8847BEBD37E0617649AF65","0198ba18-2242-79f0-b33d-a4bcbaf1d870","0198b9d0-29d4-7df3-8625-4b4515841beb","{""num_scrambled_semantic"":""8"",""num_scrambled_causal"":""4"",""num_scrambled_schematic"":""4"",""participantId"":""DCB961DAEA8847BEBD37E0617649AF65"",""assignmentId"":""0198ba18-2242-79f0-b33d-a4bcbaf1d870"",""projectId"":""0198b9d0-29d4-7df3-8625-4b4515841beb""}","https://test12345.live/?num_scrambled_semantic=8&num_scrambled_causal=4&num_scrambled_schematic=4&participantId=DCB961DAEA8847BEBD37E0617649AF65&assignmentId=0198ba18-2242-79f0-b33d-a4bcbaf1d870&projectId=0198b9d0-29d4-7df3-8625-4b4515841beb","DCB961DAEA8847BEBD37E0617649AF65-2025-08-17-22-49-56","","2472","","images/instructions/movie_1.png","0","",""
"","","","","","image-button-response","14","236624","0.0-6.0-1.0-2.0","DCB961DAEA8847BEBD37E0617649AF65","DCB961DAEA8847BEBD37E0617649AF65","0198ba18-2242-79f0-b33d-a4bcbaf1d870","0198b9d0-29d4-7df3-8625-4b4515841beb","{""num_scrambled_semantic"":""8"",""num_scrambled_causal"":""4"",""num_scrambled_schematic"":""4"",""participantId"":""DCB961DAEA8847BEBD37E0617649AF65"",""assignmentId"":""0198ba18-2242-79f0-b33d-a4bcbaf1d870"",""projectId"":""0198b9d0-29d4-7df3-8625-4b4515841beb""}","https://test12345.live/?num_scrambled_semantic=8&num_scrambled_causal=4&num_scrambled_schematic=4&participantId=DCB961DAEA8847BEBD37E0617649AF65&assignmentId=0198ba18-2242-79f0-b33d-a4bcbaf1d870&projectId=0198b9d0-29d4-7df3-8625-4b4515841beb","DCB961DAEA8847BEBD37E0617649AF65-2025-08-17-22-49-56","","null","","[]","null","",""
"","","","","","image-button-response","15","241141","0.0-6.0-1.0-0.1","DCB961DAEA8847BEBD37E0617649AF65","DCB961DAEA8847BEBD37E0617649AF65","0198ba18-2242-79f0-b33d-a4bcbaf1d870","0198b9d0-29d4-7df3-8625-4b4515841beb","{""num_scrambled_semantic"":""8"",""num_scrambled_causal"":""4"",""num_scrambled_schematic"":""4"",""participantId"":""DCB961DAEA8847BEBD37E0617649AF65"",""assignmentId"":""0198ba18-2242-79f0-b33d-a4bcbaf1d870"",""projectId"":""0198b9d0-29d4-7df3-8625-4b4515841beb""}","https://test12345.live/?num_scrambled_semantic=8&num_scrambled_causal=4&num_scrambled_schematic=4&participantId=DCB961DAEA8847BEBD37E0617649AF65&assignmentId=0198ba18-2242-79f0-b33d-a4bcbaf1d870&projectId=0198b9d0-29d4-7df3-8625-4b4515841beb","DCB961DAEA8847BEBD37E0617649AF65-2025-08-17-22-49-56","","null","","images/instructions/movie_2.png","null","",""
"","","","","","image-button-response","16","242155","0.0-6.0-1.0-1.1","DCB961DAEA8847BEBD37E0617649AF65","DCB961DAEA8847BEBD37E0617649AF65","0198ba18-2242-79f0-b33d-a4bcbaf1d870","0198b9d0-29d4-7df3-8625-4b4515841beb","{""num_scrambled_semantic"":""8"",""num_scrambled_causal"":""4"",""num_scrambled_schematic"":""4"",""participantId"":""DCB961DAEA8847BEBD37E0617649AF65"",""assignmentId"":""0198ba18-2242-79f0-b33d-a4bcbaf1d870"",""projectId"":""0198b9d0-29d4-7df3-8625-4b4515841beb""}","https://test12345.live/?num_scrambled_semantic=8&num_scrambled_causal=4&num_scrambled_schematic=4&participantId=DCB961DAEA8847BEBD37E0617649AF65&assignmentId=0198ba18-2242-79f0-b33d-a4bcbaf1d870&projectId=0198b9d0-29d4-7df3-8625-4b4515841beb","DCB961DAEA8847BEBD37E0617649AF65-2025-08-17-22-49-56","","1013","","images/instructions/movie_2.png","0","",""
"","","","","","image-button-response","17","247557","0.0-6.0-1.0-2.1","DCB961DAEA8847BEBD37E0617649AF65","DCB961DAEA8847BEBD37E0617649AF65","0198ba18-2242-79f0-b33d-a4bcbaf1d870","0198b9d0-29d4-7df3-8625-4b4515841beb","{""num_scrambled_semantic"":""8"",""num_scrambled_causal"":""4"",""num_scrambled_schematic"":""4"",""participantId"":""DCB961DAEA8847BEBD37E0617649AF65"",""assignmentId"":""0198ba18-2242-79f0-b33d-a4bcbaf1d870"",""projectId"":""0198b9d0-29d4-7df3-8625-4b4515841beb""}","https://test12345.live/?num_scrambled_semantic=8&num_scrambled_causal=4&num_scrambled_schematic=4&participantId=DCB961DAEA8847BEBD37E0617649AF65&assignmentId=0198ba18-2242-79f0-b33d-a4bcbaf1d870&projectId=0198b9d0-29d4-7df3-8625-4b4515841beb","DCB961DAEA8847BEBD37E0617649AF65-2025-08-17-22-49-56","","null","","[]","null","",""
"","","","","","image-button-response","18","252074","0.0-6.0-1.0-0.2","DCB961DAEA8847BEBD37E0617649AF65","DCB961DAEA8847BEBD37E0617649AF65","0198ba18-2242-79f0-b33d-a4bcbaf1d870","0198b9d0-29d4-7df3-8625-4b4515841beb","{""num_scrambled_semantic"":""8"",""num_scrambled_causal"":""4"",""num_scrambled_schematic"":""4"",""participantId"":""DCB961DAEA8847BEBD37E0617649AF65"",""assignmentId"":""0198ba18-2242-79f0-b33d-a4bcbaf1d870"",""projectId"":""0198b9d0-29d4-7df3-8625-4b4515841beb""}","https://test12345.live/?num_scrambled_semantic=8&num_scrambled_causal=4&num_scrambled_schematic=4&participantId=DCB961DAEA8847BEBD37E0617649AF65&assignmentId=0198ba18-2242-79f0-b33d-a4bcbaf1d870&projectId=0198b9d0-29d4-7df3-8625-4b4515841beb","DCB961DAEA8847BEBD37E0617649AF65-2025-08-17-22-49-56","","null","","images/instructions/movie_3.png","null","",""
"","","","","","image-button-response","19","254089","0.0-6.0-1.0-1.2","DCB961DAEA8847BEBD37E0617649AF65","DCB961DAEA8847BEBD37E0617649AF65","0198ba18-2242-79f0-b33d-a4bcbaf1d870","0198b9d0-29d4-7df3-8625-4b4515841beb","{""num_scrambled_semantic"":""8"",""num_scrambled_causal"":""4"",""num_scrambled_schematic"":""4"",""participantId"":""DCB961DAEA8847BEBD37E0617649AF65"",""assignmentId"":""0198ba18-2242-79f0-b33d-a4bcbaf1d870"",""projectId"":""0198b9d0-29d4-7df3-8625-4b4515841beb""}","https://test12345.live/?num_scrambled_semantic=8&num_scrambled_causal=4&num_scrambled_schematic=4&participantId=DCB961DAEA8847BEBD37E0617649AF65&assignmentId=0198ba18-2242-79f0-b33d-a4bcbaf1d870&projectId=0198b9d0-29d4-7df3-8625-4b4515841beb","DCB961DAEA8847BEBD37E0617649AF65-2025-08-17-22-49-56","","2014","","images/instructions/movie_3.png","0","",""
"","","","","","image-button-response","20","259491","0.0-6.0-1.0-2.2","DCB961DAEA8847BEBD37E0617649AF65","DCB961DAEA8847BEBD37E0617649AF65","0198ba18-2242-79f0-b33d-a4bcbaf1d870","0198b9d0-29d4-7df3-8625-4b4515841beb","{""num_scrambled_semantic"":""8"",""num_scrambled_causal"":""4"",""num_scrambled_schematic"":""4"",""participantId"":""DCB961DAEA8847BEBD37E0617649AF65"",""assignmentId"":""0198ba18-2242-79f0-b33d-a4bcbaf1d870"",""projectId"":""0198b9d0-29d4-7df3-8625-4b4515841beb""}","https://test12345.live/?num_scrambled_semantic=8&num_scrambled_causal=4&num_scrambled_schematic=4&participantId=DCB961DAEA8847BEBD37E0617649AF65&assignmentId=0198ba18-2242-79f0-b33d-a4bcbaf1d870&projectId=0198b9d0-29d4-7df3-8625-4b4515841beb","DCB961DAEA8847BEBD37E0617649AF65-2025-08-17-22-49-56","","null","","[]","null","",""
"","","","","","image-button-response","21","264010","0.0-6.0-1.0-0.3","DCB961DAEA8847BEBD37E0617649AF65","DCB961DAEA8847BEBD37E0617649AF65","0198ba18-2242-79f0-b33d-a4bcbaf1d870","0198b9d0-29d4-7df3-8625-4b4515841beb","{""num_scrambled_semantic"":""8"",""num_scrambled_causal"":""4"",""num_scrambled_schematic"":""4"",""participantId"":""DCB961DAEA8847BEBD37E0617649AF65"",""assignmentId"":""0198ba18-2242-79f0-b33d-a4bcbaf1d870"",""projectId"":""0198b9d0-29d4-7df3-8625-4b4515841beb""}","https://test12345.live/?num_scrambled_semantic=8&num_scrambled_causal=4&num_scrambled_schematic=4&participantId=DCB961DAEA8847BEBD37E0617649AF65&assignmentId=0198ba18-2242-79f0-b33d-a4bcbaf1d870&projectId=0198b9d0-29d4-7df3-8625-4b4515841beb","DCB961DAEA8847BEBD37E0617649AF65-2025-08-17-22-49-56","","null","","images/instructions/movie_4.png","null","",""
"","","","","","image-button-response","22","266673","0.0-6.0-1.0-1.3","DCB961DAEA8847BEBD37E0617649AF65","DCB961DAEA8847BEBD37E0617649AF65","0198ba18-2242-79f0-b33d-a4bcbaf1d870","0198b9d0-29d4-7df3-8625-4b4515841beb","{""num_scrambled_semantic"":""8"",""num_scrambled_causal"":""4"",""num_scrambled_schematic"":""4"",""participantId"":""DCB961DAEA8847BEBD37E0617649AF65"",""assignmentId"":""0198ba18-2242-79f0-b33d-a4bcbaf1d870"",""projectId"":""0198b9d0-29d4-7df3-8625-4b4515841beb""}","https://test12345.live/?num_scrambled_semantic=8&num_scrambled_causal=4&num_scrambled_schematic=4&participantId=DCB961DAEA8847BEBD37E0617649AF65&assignmentId=0198ba18-2242-79f0-b33d-a4bcbaf1d870&projectId=0198b9d0-29d4-7df3-8625-4b4515841beb","DCB961DAEA8847BEBD37E0617649AF65-2025-08-17-22-49-56","","2661","","images/instructions/movie_4.png","0","",""
"","","","","","image-button-response","23","272075","0.0-6.0-1.0-2.3","DCB961DAEA8847BEBD37E0617649AF65","DCB961DAEA8847BEBD37E0617649AF65","0198ba18-2242-79f0-b33d-a4bcbaf1d870","0198b9d0-29d4-7df3-8625-4b4515841beb","{""num_scrambled_semantic"":""8"",""num_scrambled_causal"":""4"",""num_scrambled_schematic"":""4"",""participantId"":""DCB961DAEA8847BEBD37E0617649AF65"",""assignmentId"":""0198ba18-2242-79f0-b33d-a4bcbaf1d870"",""projectId"":""0198b9d0-29d4-7df3-8625-4b4515841beb""}","https://test12345.live/?num_scrambled_semantic=8&num_scrambled_causal=4&num_scrambled_schematic=4&participantId=DCB961DAEA8847BEBD37E0617649AF65&assignmentId=0198ba18-2242-79f0-b33d-a4bcbaf1d870&projectId=0198b9d0-29d4-7df3-8625-4b4515841beb","DCB961DAEA8847BEBD37E0617649AF65-2025-08-17-22-49-56","","null","","[]","null","",""
"","","","","","instructions","24","282988","0.0-7.0","DCB961DAEA8847BEBD37E0617649AF65","DCB961DAEA8847BEBD37E0617649AF65","0198ba18-2242-79f0-b33d-a4bcbaf1d870","0198b9d0-29d4-7df3-8625-4b4515841beb","{""num_scrambled_semantic"":""8"",""num_scrambled_causal"":""4"",""num_scrambled_schematic"":""4"",""participantId"":""DCB961DAEA8847BEBD37E0617649AF65"",""assignmentId"":""0198ba18-2242-79f0-b33d-a4bcbaf1d870"",""projectId"":""0198b9d0-29d4-7df3-8625-4b4515841beb""}","https://test12345.live/?num_scrambled_semantic=8&num_scrambled_causal=4&num_scrambled_schematic=4&participantId=DCB961DAEA8847BEBD37E0617649AF65&assignmentId=0198ba18-2242-79f0-b33d-a4bcbaf1d870&projectId=0198b9d0-29d4-7df3-8625-4b4515841beb","DCB961DAEA8847BEBD37E0617649AF65-2025-08-17-22-49-56","[{""page_index"":0,""viewing_time"":9613},{""page_index"":1,""viewing_time"":1299}]","10912","","","","",""
"","","","","","html-audio-response","25","331488","0.0-8.0","DCB961DAEA8847BEBD37E0617649AF65","DCB961DAEA8847BEBD37E0617649AF65","0198ba18-2242-79f0-b33d-a4bcbaf1d870","0198b9d0-29d4-7df3-8625-4b4515841beb","{""num_scrambled_semantic"":""8"",""num_scrambled_causal"":""4"",""num_scrambled_schematic"":""4"",""participantId"":""DCB961DAEA8847BEBD37E0617649AF65"",""assignmentId"":""0198ba18-2242-79f0-b33d-a4bcbaf1d870"",""projectId"":""0198b9d0-29d4-7df3-8625-4b4515841beb""}","https://test12345.live/?num_scrambled_semantic=8&num_scrambled_causal=4&num_scrambled_schematic=4&participantId=DCB961DAEA8847BEBD37E0617649AF65&assignmentId=0198ba18-2242-79f0-b33d-a4bcbaf1d870&projectId=0198b9d0-29d4-7df3-8625-4b4515841beb","DCB961DAEA8847BEBD37E0617649AF65-2025-08-17-22-49-56","","18119","","[""<span style=\""color: red; font-size: 24px\""> NOW RECORDING</span><p>Please say out loud all the images you saw, as many as you can remember. The images can be said in any order.</p>""]","","2",""
"","","","","","instructions","26","333755","0.0-9.0","DCB961DAEA8847BEBD37E0617649AF65","DCB961DAEA8847BEBD37E0617649AF65","0198ba18-2242-79f0-b33d-a4bcbaf1d870","0198b9d0-29d4-7df3-8625-4b4515841beb","{""num_scrambled_semantic"":""8"",""num_scrambled_causal"":""4"",""num_scrambled_schematic"":""4"",""participantId"":""DCB961DAEA8847BEBD37E0617649AF65"",""assignmentId"":""0198ba18-2242-79f0-b33d-a4bcbaf1d870"",""projectId"":""0198b9d0-29d4-7df3-8625-4b4515841beb""}","https://test12345.live/?num_scrambled_semantic=8&num_scrambled_causal=4&num_scrambled_schematic=4&participantId=DCB961DAEA8847BEBD37E0617649AF65&assignmentId=0198ba18-2242-79f0-b33d-a4bcbaf1d870&projectId=0198b9d0-29d4-7df3-8625-4b4515841beb","DCB961DAEA8847BEBD37E0617649AF65-2025-08-17-22-49-56","[{""page_index"":0,""viewing_time"":2263}]","2263","","","","",""
"","","","","","image-button-response","27","339764","0.0-10.0-0.0","DCB961DAEA8847BEBD37E0617649AF65","DCB961DAEA8847BEBD37E0617649AF65","0198ba18-2242-79f0-b33d-a4bcbaf1d870","0198b9d0-29d4-7df3-8625-4b4515841beb","{""num_scrambled_semantic"":""8"",""num_scrambled_causal"":""4"",""num_scrambled_schematic"":""4"",""participantId"":""DCB961DAEA8847BEBD37E0617649AF65"",""assignmentId"":""0198ba18-2242-79f0-b33d-a4bcbaf1d870"",""projectId"":""0198b9d0-29d4-7df3-8625-4b4515841beb""}","https://test12345.live/?num_scrambled_semantic=8&num_scrambled_causal=4&num_scrambled_schematic=4&participantId=DCB961DAEA8847BEBD37E0617649AF65&assignmentId=0198ba18-2242-79f0-b33d-a4bcbaf1d870&projectId=0198b9d0-29d4-7df3-8625-4b4515841beb","DCB961DAEA8847BEBD37E0617649AF65-2025-08-17-22-49-56","","null","","images/semantic_sequence/physical_activity_semantic/physical_activity_semantic_0.png","null","",""
"","","","","","image-button-response","28","344282","0.0-10.0-1.0-0.0","DCB961DAEA8847BEBD37E0617649AF65","DCB961DAEA8847BEBD37E0617649AF65","0198ba18-2242-79f0-b33d-a4bcbaf1d870","0198b9d0-29d4-7df3-8625-4b4515841beb","{""num_scrambled_semantic"":""8"",""num_scrambled_causal"":""4"",""num_scrambled_schematic"":""4"",""participantId"":""DCB961DAEA8847BEBD37E0617649AF65"",""assignmentId"":""0198ba18-2242-79f0-b33d-a4bcbaf1d870"",""projectId"":""0198b9d0-29d4-7df3-8625-4b4515841beb""}","https://test12345.live/?num_scrambled_semantic=8&num_scrambled_causal=4&num_scrambled_schematic=4&participantId=DCB961DAEA8847BEBD37E0617649AF65&assignmentId=0198ba18-2242-79f0-b33d-a4bcbaf1d870&projectId=0198b9d0-29d4-7df3-8625-4b4515841beb","DCB961DAEA8847BEBD37E0617649AF65-2025-08-17-22-49-56","","null","","images/semantic_sequence/physical_activity_semantic/physical_activity_semantic_ten.png","null","",""
"","","","","","image-button-response","29","345205","0.0-10.0-1.0-1.0","DCB961DAEA8847BEBD37E0617649AF65","DCB961DAEA8847BEBD37E0617649AF65","0198ba18-2242-79f0-b33d-a4bcbaf1d870","0198b9d0-29d4-7df3-8625-4b4515841beb","{""num_scrambled_semantic"":""8"",""num_scrambled_causal"":""4"",""num_scrambled_schematic"":""4"",""participantId"":""DCB961DAEA8847BEBD37E0617649AF65"",""assignmentId"":""0198ba18-2242-79f0-b33d-a4bcbaf1d870"",""projectId"":""0198b9d0-29d4-7df3-8625-4b4515841beb""}","https://test12345.live/?num_scrambled_semantic=8&num_scrambled_causal=4&num_scrambled_schematic=4&participantId=DCB961DAEA8847BEBD37E0617649AF65&assignmentId=0198ba18-2242-79f0-b33d-a4bcbaf1d870&projectId=0198b9d0-29d4-7df3-8625-4b4515841beb","DCB961DAEA8847BEBD37E0617649AF65-2025-08-17-22-49-56","","922","","images/semantic_sequence/physical_activity_semantic/physical_activity_semantic_ten.png","0","",""
"","","","","","image-button-response","30","350607","0.0-10.0-1.0-2.0","DCB961DAEA8847BEBD37E0617649AF65","DCB961DAEA8847BEBD37E0617649AF65","0198ba18-2242-79f0-b33d-a4bcbaf1d870","0198b9d0-29d4-7df3-8625-4b4515841beb","{""num_scrambled_semantic"":""8"",""num_scrambled_causal"":""4"",""num_scrambled_schematic"":""4"",""participantId"":""DCB961DAEA8847BEBD37E0617649AF65"",""assignmentId"":""0198ba18-2242-79f0-b33d-a4bcbaf1d870"",""projectId"":""0198b9d0-29d4-7df3-8625-4b4515841beb""}","https://test12345.live/?num_scrambled_semantic=8&num_scrambled_causal=4&num_scrambled_schematic=4&participantId=DCB961DAEA8847BEBD37E0617649AF65&assignmentId=0198ba18-2242-79f0-b33d-a4bcbaf1d870&projectId=0198b9d0-29d4-7df3-8625-4b4515841beb","DCB961DAEA8847BEBD37E0617649AF65-2025-08-17-22-49-56","","null","","[]","null","",""
"","","","","","image-button-response","31","355126","0.0-10.0-1.0-0.1","DCB961DAEA8847BEBD37E0617649AF65","DCB961DAEA8847BEBD37E0617649AF65","0198ba18-2242-79f0-b33d-a4bcbaf1d870","0198b9d0-29d4-7df3-8625-4b4515841beb","{""num_scrambled_semantic"":""8"",""num_scrambled_causal"":""4"",""num_scrambled_schematic"":""4"",""participantId"":""DCB961DAEA8847BEBD37E0617649AF65"",""assignmentId"":""0198ba18-2242-79f0-b33d-a4bcbaf1d870"",""projectId"":""0198b9d0-29d4-7df3-8625-4b4515841beb""}","https://test12345.live/?num_scrambled_semantic=8&num_scrambled_causal=4&num_scrambled_schematic=4&participantId=DCB961DAEA8847BEBD37E0617649AF65&assignmentId=0198ba18-2242-79f0-b33d-a4bcbaf1d870&projectId=0198b9d0-29d4-7df3-8625-4b4515841beb","DCB961DAEA8847BEBD37E0617649AF65-2025-08-17-22-49-56","","null","","images/semantic_sequence/physical_activity_semantic/physical_activity_semantic_6.png","null","",""
"","","","","","image-button-response","32","356421","0.0-10.0-1.0-1.1","DCB961DAEA8847BEBD37E0617649AF65","DCB961DAEA8847BEBD37E0617649AF65","0198ba18-2242-79f0-b33d-a4bcbaf1d870","0198b9d0-29d4-7df3-8625-4b4515841beb","{""num_scrambled_semantic"":""8"",""num_scrambled_causal"":""4"",""num_scrambled_schematic"":""4"",""participantId"":""DCB961DAEA8847BEBD37E0617649AF65"",""assignmentId"":""0198ba18-2242-79f0-b33d-a4bcbaf1d870"",""projectId"":""0198b9d0-29d4-7df3-8625-4b4515841beb""}","https://test12345.live/?num_scrambled_semantic=8&num_scrambled_causal=4&num_scrambled_schematic=4&participantId=DCB961DAEA8847BEBD37E0617649AF65&assignmentId=0198ba18-2242-79f0-b33d-a4bcbaf1d870&projectId=0198b9d0-29d4-7df3-8625-4b4515841beb","DCB961DAEA8847BEBD37E0617649AF65-2025-08-17-22-49-56","","1293","","images/semantic_sequence/physical_activity_semantic/physical_activity_semantic_6.png","0","",""
"","","","","","image-button-response","33","361823","0.0-10.0-1.0-2.1","DCB961DAEA8847BEBD37E0617649AF65","DCB961DAEA8847BEBD37E0617649AF65","0198ba18-2242-79f0-b33d-a4bcbaf1d870","0198b9d0-29d4-7df3-8625-4b4515841beb","{""num_scrambled_semantic"":""8"",""num_scrambled_causal"":""4"",""num_scrambled_schematic"":""4"",""participantId"":""DCB961DAEA8847BEBD37E0617649AF65"",""assignmentId"":""0198ba18-2242-79f0-b33d-a4bcbaf1d870"",""projectId"":""0198b9d0-29d4-7df3-8625-4b4515841beb""}","https://test12345.live/?num_scrambled_semantic=8&num_scrambled_causal=4&num_scrambled_schematic=4&participantId=DCB961DAEA8847BEBD37E0617649AF65&assignmentId=0198ba18-2242-79f0-b33d-a4bcbaf1d870&projectId=0198b9d0-29d4-7df3-8625-4b4515841beb","DCB961DAEA8847BEBD37E0617649AF65-2025-08-17-22-49-56","","null","","[]","null","",""
"","","","","","image-button-response","34","366340","0.0-10.0-1.0-0.2","DCB961DAEA8847BEBD37E0617649AF65","DCB961DAEA8847BEBD37E0617649AF65","0198ba18-2242-79f0-b33d-a4bcbaf1d870","0198b9d0-29d4-7df3-8625-4b4515841beb","{""num_scrambled_semantic"":""8"",""num_scrambled_causal"":""4"",""num_scrambled_schematic"":""4"",""participantId"":""DCB961DAEA8847BEBD37E0617649AF65"",""assignmentId"":""0198ba18-2242-79f0-b33d-a4bcbaf1d870"",""projectId"":""0198b9d0-29d4-7df3-8625-4b4515841beb""}","https://test12345.live/?num_scrambled_semantic=8&num_scrambled_causal=4&num_scrambled_schematic=4&participantId=DCB961DAEA8847BEBD37E0617649AF65&assignmentId=0198ba18-2242-79f0-b33d-a4bcbaf1d870&projectId=0198b9d0-29d4-7df3-8625-4b4515841beb","DCB961DAEA8847BEBD37E0617649AF65-2025-08-17-22-49-56","","null","","images/semantic_sequence/physical_activity_semantic/physical_activity_semantic_7.png","null","",""
"","","","","","image-button-response","35","367738","0.0-10.0-1.0-1.2","DCB961DAEA8847BEBD37E0617649AF65","DCB961DAEA8847BEBD37E0617649AF65","0198ba18-2242-79f0-b33d-a4bcbaf1d870","0198b9d0-29d4-7df3-8625-4b4515841beb","{""num_scrambled_semantic"":""8"",""num_scrambled_causal"":""4"",""num_scrambled_schematic"":""4"",""participantId"":""DCB961DAEA8847BEBD37E0617649AF65"",""assignmentId"":""0198ba18-2242-79f0-b33d-a4bcbaf1d870"",""projectId"":""0198b9d0-29d4-7df3-8625-4b4515841beb""}","https://test12345.live/?num_scrambled_semantic=8&num_scrambled_causal=4&num_scrambled_schematic=4&participantId=DCB961DAEA8847BEBD37E0617649AF65&assignmentId=0198ba18-2242-79f0-b33d-a4bcbaf1d870&projectId=0198b9d0-29d4-7df3-8625-4b4515841beb","DCB961DAEA8847BEBD37E0617649AF65-2025-08-17-22-49-56","","1396","","images/semantic_sequence/physical_activity_semantic/physical_activity_semantic_7.png","0","",""
"","","","","","image-button-response","36","373140","0.0-10.0-1.0-2.2","DCB961DAEA8847BEBD37E0617649AF65","DCB961DAEA8847BEBD37E0617649AF65","0198ba18-2242-79f0-b33d-a4bcbaf1d870","0198b9d0-29d4-7df3-8625-4b4515841beb","{""num_scrambled_semantic"":""8"",""num_scrambled_causal"":""4"",""num_scrambled_schematic"":""4"",""participantId"":""DCB961DAEA8847BEBD37E0617649AF65"",""assignmentId"":""0198ba18-2242-79f0-b33d-a4bcbaf1d870"",""projectId"":""0198b9d0-29d4-7df3-8625-4b4515841beb""}","https://test12345.live/?num_scrambled_semantic=8&num_scrambled_causal=4&num_scrambled_schematic=4&participantId=DCB961DAEA8847BEBD37E0617649AF65&assignmentId=0198ba18-2242-79f0-b33d-a4bcbaf1d870&projectId=0198b9d0-29d4-7df3-8625-4b4515841beb","DCB961DAEA8847BEBD37E0617649AF65-2025-08-17-22-49-56","","null","","[]","null","",""
"","","","","","image-button-response","37","377657","0.0-10.0-1.0-0.3","DCB961DAEA8847BEBD37E0617649AF65","DCB961DAEA8847BEBD37E0617649AF65","0198ba18-2242-79f0-b33d-a4bcbaf1d870","0198b9d0-29d4-7df3-8625-4b4515841beb","{""num_scrambled_semantic"":""8"",""num_scrambled_causal"":""4"",""num_scrambled_schematic"":""4"",""participantId"":""DCB961DAEA8847BEBD37E0617649AF65"",""assignmentId"":""0198ba18-2242-79f0-b33d-a4bcbaf1d870"",""projectId"":""0198b9d0-29d4-7df3-8625-4b4515841beb""}","https://test12345.live/?num_scrambled_semantic=8&num_scrambled_causal=4&num_scrambled_schematic=4&participantId=DCB961DAEA8847BEBD37E0617649AF65&assignmentId=0198ba18-2242-79f0-b33d-a4bcbaf1d870&projectId=0198b9d0-29d4-7df3-8625-4b4515841beb","DCB961DAEA8847BEBD37E0617649AF65-2025-08-17-22-49-56","","null","","images/semantic_sequence/physical_activity_semantic/physical_activity_semantic_2.png","null","",""
"","","","","","image-button-response","38","378388","0.0-10.0-1.0-1.3","DCB961DAEA8847BEBD37E0617649AF65","DCB961DAEA8847BEBD37E0617649AF65","0198ba18-2242-79f0-b33d-a4bcbaf1d870","0198b9d0-29d4-7df3-8625-4b4515841beb","{""num_scrambled_semantic"":""8"",""num_scrambled_causal"":""4"",""num_scrambled_schematic"":""4"",""participantId"":""DCB961DAEA8847BEBD37E0617649AF65"",""assignmentId"":""0198ba18-2242-79f0-b33d-a4bcbaf1d870"",""projectId"":""0198b9d0-29d4-7df3-8625-4b4515841beb""}","https://test12345.live/?num_scrambled_semantic=8&num_scrambled_causal=4&num_scrambled_schematic=4&participantId=DCB961DAEA8847BEBD37E0617649AF65&assignmentId=0198ba18-2242-79f0-b33d-a4bcbaf1d870&projectId=0198b9d0-29d4-7df3-8625-4b4515841beb","DCB961DAEA8847BEBD37E0617649AF65-2025-08-17-22-49-56","","730","","images/semantic_sequence/physical_activity_semantic/physical_activity_semantic_2.png","0","",""
"","","","","","image-button-response","39","383790","0.0-10.0-1.0-2.3","DCB961DAEA8847BEBD37E0617649AF65","DCB961DAEA8847BEBD37E0617649AF65","0198ba18-2242-79f0-b33d-a4bcbaf1d870","0198b9d0-29d4-7df3-8625-4b4515841beb","{""num_scrambled_semantic"":""8"",""num_scrambled_causal"":""4"",""num_scrambled_schematic"":""4"",""participantId"":""DCB961DAEA8847BEBD37E0617649AF65"",""assignmentId"":""0198ba18-2242-79f0-b33d-a4bcbaf1d870"",""projectId"":""0198b9d0-29d4-7df3-8625-4b4515841beb""}","https://test12345.live/?num_scrambled_semantic=8&num_scrambled_causal=4&num_scrambled_schematic=4&participantId=DCB961DAEA8847BEBD37E0617649AF65&assignmentId=0198ba18-2242-79f0-b33d-a4bcbaf1d870&projectId=0198b9d0-29d4-7df3-8625-4b4515841beb","DCB961DAEA8847BEBD37E0617649AF65-2025-08-17-22-49-56","","null","","[]","null","",""
"","","","","","image-button-response","40","388307","0.0-10.0-1.0-0.4","DCB961DAEA8847BEBD37E0617649AF65","DCB961DAEA8847BEBD37E0617649AF65","0198ba18-2242-79f0-b33d-a4bcbaf1d870","0198b9d0-29d4-7df3-8625-4b4515841beb","{""num_scrambled_semantic"":""8"",""num_scrambled_causal"":""4"",""num_scrambled_schematic"":""4"",""participantId"":""DCB961DAEA8847BEBD37E0617649AF65"",""assignmentId"":""0198ba18-2242-79f0-b33d-a4bcbaf1d870"",""projectId"":""0198b9d0-29d4-7df3-8625-4b4515841beb""}","https://test12345.live/?num_scrambled_semantic=8&num_scrambled_causal=4&num_scrambled_schematic=4&participantId=DCB961DAEA8847BEBD37E0617649AF65&assignmentId=0198ba18-2242-79f0-b33d-a4bcbaf1d870&projectId=0198b9d0-29d4-7df3-8625-4b4515841beb","DCB961DAEA8847BEBD37E0617649AF65-2025-08-17-22-49-56","","null","","images/semantic_sequence/physical_activity_semantic/physical_activity_semantic_4.png","null","",""
"","","","","","image-button-response","41","389104","0.0-10.0-1.0-1.4","DCB961DAEA8847BEBD37E0617649AF65","DCB961DAEA8847BEBD37E0617649AF65","0198ba18-2242-79f0-b33d-a4bcbaf1d870","0198b9d0-29d4-7df3-8625-4b4515841beb","{""num_scrambled_semantic"":""8"",""num_scrambled_causal"":""4"",""num_scrambled_schematic"":""4"",""participantId"":""DCB961DAEA8847BEBD37E0617649AF65"",""assignmentId"":""0198ba18-2242-79f0-b33d-a4bcbaf1d870"",""projectId"":""0198b9d0-29d4-7df3-8625-4b4515841beb""}","https://test12345.live/?num_scrambled_semantic=8&num_scrambled_causal=4&num_scrambled_schematic=4&participantId=DCB961DAEA8847BEBD37E0617649AF65&assignmentId=0198ba18-2242-79f0-b33d-a4bcbaf1d870&projectId=0198b9d0-29d4-7df3-8625-4b4515841beb","DCB961DAEA8847BEBD37E0617649AF65-2025-08-17-22-49-56","","796","","images/semantic_sequence/physical_activity_semantic/physical_activity_semantic_4.png","0","",""
"","","","","","image-button-response","42","394506","0.0-10.0-1.0-2.4","DCB961DAEA8847BEBD37E0617649AF65","DCB961DAEA8847BEBD37E0617649AF65","0198ba18-2242-79f0-b33d-a4bcbaf1d870","0198b9d0-29d4-7df3-8625-4b4515841beb","{""num_scrambled_semantic"":""8"",""num_scrambled_causal"":""4"",""num_scrambled_schematic"":""4"",""participantId"":""DCB961DAEA8847BEBD37E0617649AF65"",""assignmentId"":""0198ba18-2242-79f0-b33d-a4bcbaf1d870"",""projectId"":""0198b9d0-29d4-7df3-8625-4b4515841beb""}","https://test12345.live/?num_scrambled_semantic=8&num_scrambled_causal=4&num_scrambled_schematic=4&participantId=DCB961DAEA8847BEBD37E0617649AF65&assignmentId=0198ba18-2242-79f0-b33d-a4bcbaf1d870&projectId=0198b9d0-29d4-7df3-8625-4b4515841beb","DCB961DAEA8847BEBD37E0617649AF65-2025-08-17-22-49-56","","null","","[]","null","",""
"","","","","","image-button-response","43","399023","0.0-10.0-1.0-0.5","DCB961DAEA8847BEBD37E0617649AF65","DCB961DAEA8847BEBD37E0617649AF65","0198ba18-2242-79f0-b33d-a4bcbaf1d870","0198b9d0-29d4-7df3-8625-4b4515841beb","{""num_scrambled_semantic"":""8"",""num_scrambled_causal"":""4"",""num_scrambled_schematic"":""4"",""participantId"":""DCB961DAEA8847BEBD37E0617649AF65"",""assignmentId"":""0198ba18-2242-79f0-b33d-a4bcbaf1d870"",""projectId"":""0198b9d0-29d4-7df3-8625-4b4515841beb""}","https://test12345.live/?num_scrambled_semantic=8&num_scrambled_causal=4&num_scrambled_schematic=4&participantId=DCB961DAEA8847BEBD37E0617649AF65&assignmentId=0198ba18-2242-79f0-b33d-a4bcbaf1d870&projectId=0198b9d0-29d4-7df3-8625-4b4515841beb","DCB961DAEA8847BEBD37E0617649AF65-2025-08-17-22-49-56","","null","","images/semantic_sequence/physical_activity_semantic/physical_activity_semantic_8.png","null","",""
"","","","","","image-button-response","44","399958","0.0-10.0-1.0-1.5","DCB961DAEA8847BEBD37E0617649AF65","DCB961DAEA8847BEBD37E0617649AF65","0198ba18-2242-79f0-b33d-a4bcbaf1d870","0198b9d0-29d4-7df3-8625-4b4515841beb","{""num_scrambled_semantic"":""8"",""num_scrambled_causal"":""4"",""num_scrambled_schematic"":""4"",""participantId"":""DCB961DAEA8847BEBD37E0617649AF65"",""assignmentId"":""0198ba18-2242-79f0-b33d-a4bcbaf1d870"",""projectId"":""0198b9d0-29d4-7df3-8625-4b4515841beb""}","https://test12345.live/?num_scrambled_semantic=8&num_scrambled_causal=4&num_scrambled_schematic=4&participantId=DCB961DAEA8847BEBD37E0617649AF65&assignmentId=0198ba18-2242-79f0-b33d-a4bcbaf1d870&projectId=0198b9d0-29d4-7df3-8625-4b4515841beb","DCB961DAEA8847BEBD37E0617649AF65-2025-08-17-22-49-56","","934","","images/semantic_sequence/physical_activity_semantic/physical_activity_semantic_8.png","0","",""
"","","","","","image-button-response","45","405360","0.0-10.0-1.0-2.5","DCB961DAEA8847BEBD37E0617649AF65","DCB961DAEA8847BEBD37E0617649AF65","0198ba18-2242-79f0-b33d-a4bcbaf1d870","0198b9d0-29d4-7df3-8625-4b4515841beb","{""num_scrambled_semantic"":""8"",""num_scrambled_causal"":""4"",""num_scrambled_schematic"":""4"",""participantId"":""DCB961DAEA8847BEBD37E0617649AF65"",""assignmentId"":""0198ba18-2242-79f0-b33d-a4bcbaf1d870"",""projectId"":""0198b9d0-29d4-7df3-8625-4b4515841beb""}","https://test12345.live/?num_scrambled_semantic=8&num_scrambled_causal=4&num_scrambled_schematic=4&participantId=DCB961DAEA8847BEBD37E0617649AF65&assignmentId=0198ba18-2242-79f0-b33d-a4bcbaf1d870&projectId=0198b9d0-29d4-7df3-8625-4b4515841beb","DCB961DAEA8847BEBD37E0617649AF65-2025-08-17-22-49-56","","null","","[]","null","",""
"","","","","","image-button-response","46","409878","0.0-10.0-1.0-0.6","DCB961DAEA8847BEBD37E0617649AF65","DCB961DAEA8847BEBD37E0617649AF65","0198ba18-2242-79f0-b33d-a4bcbaf1d870","0198b9d0-29d4-7df3-8625-4b4515841beb","{""num_scrambled_semantic"":""8"",""num_scrambled_causal"":""4"",""num_scrambled_schematic"":""4"",""participantId"":""DCB961DAEA8847BEBD37E0617649AF65"",""assignmentId"":""0198ba18-2242-79f0-b33d-a4bcbaf1d870"",""projectId"":""0198b9d0-29d4-7df3-8625-4b4515841beb""}","https://test12345.live/?num_scrambled_semantic=8&num_scrambled_causal=4&num_scrambled_schematic=4&participantId=DCB961DAEA8847BEBD37E0617649AF65&assignmentId=0198ba18-2242-79f0-b33d-a4bcbaf1d870&projectId=0198b9d0-29d4-7df3-8625-4b4515841beb","DCB961DAEA8847BEBD37E0617649AF65-2025-08-17-22-49-56","","null","","images/semantic_sequence/physical_activity_semantic/physical_activity_semantic_5.png","null","",""
"","","","","","image-button-response","47","413880","0.0-10.0-1.0-1.6","DCB961DAEA8847BEBD37E0617649AF65","DCB961DAEA8847BEBD37E0617649AF65","0198ba18-2242-79f0-b33d-a4bcbaf1d870","0198b9d0-29d4-7df3-8625-4b4515841beb","{""num_scrambled_semantic"":""8"",""num_scrambled_causal"":""4"",""num_scrambled_schematic"":""4"",""participantId"":""DCB961DAEA8847BEBD37E0617649AF65"",""assignmentId"":""0198ba18-2242-79f0-b33d-a4bcbaf1d870"",""projectId"":""0198b9d0-29d4-7df3-8625-4b4515841beb""}","https://test12345.live/?num_scrambled_semantic=8&num_scrambled_causal=4&num_scrambled_schematic=4&participantId=DCB961DAEA8847BEBD37E0617649AF65&assignmentId=0198ba18-2242-79f0-b33d-a4bcbaf1d870&projectId=0198b9d0-29d4-7df3-8625-4b4515841beb","DCB961DAEA8847BEBD37E0617649AF65-2025-08-17-22-49-56","","null","","images/semantic_sequence/physical_activity_semantic/physical_activity_semantic_5.png","null","",""
"","","","","","image-button-response","48","419282","0.0-10.0-1.0-2.6","DCB961DAEA8847BEBD37E0617649AF65","DCB961DAEA8847BEBD37E0617649AF65","0198ba18-2242-79f0-b33d-a4bcbaf1d870","0198b9d0-29d4-7df3-8625-4b4515841beb","{""num_scrambled_semantic"":""8"",""num_scrambled_causal"":""4"",""num_scrambled_schematic"":""4"",""participantId"":""DCB961DAEA8847BEBD37E0617649AF65"",""assignmentId"":""0198ba18-2242-79f0-b33d-a4bcbaf1d870"",""projectId"":""0198b9d0-29d4-7df3-8625-4b4515841beb""}","https://test12345.live/?num_scrambled_semantic=8&num_scrambled_causal=4&num_scrambled_schematic=4&participantId=DCB961DAEA8847BEBD37E0617649AF65&assignmentId=0198ba18-2242-79f0-b33d-a4bcbaf1d870&projectId=0198b9d0-29d4-7df3-8625-4b4515841beb","DCB961DAEA8847BEBD37E0617649AF65-2025-08-17-22-49-56","","null","","[]","null","",""
"","","","","","image-button-response","49","423799","0.0-10.0-1.0-0.7","DCB961DAEA8847BEBD37E0617649AF65","DCB961DAEA8847BEBD37E0617649AF65","0198ba18-2242-79f0-b33d-a4bcbaf1d870","0198b9d0-29d4-7df3-8625-4b4515841beb","{""num_scrambled_semantic"":""8"",""num_scrambled_causal"":""4"",""num_scrambled_schematic"":""4"",""participantId"":""DCB961DAEA8847BEBD37E0617649AF65"",""assignmentId"":""0198ba18-2242-79f0-b33d-a4bcbaf1d870"",""projectId"":""0198b9d0-29d4-7df3-8625-4b4515841beb""}","https://test12345.live/?num_scrambled_semantic=8&num_scrambled_causal=4&num_scrambled_schematic=4&participantId=DCB961DAEA8847BEBD37E0617649AF65&assignmentId=0198ba18-2242-79f0-b33d-a4bcbaf1d870&projectId=0198b9d0-29d4-7df3-8625-4b4515841beb","DCB961DAEA8847BEBD37E0617649AF65-2025-08-17-22-49-56","","null","","images/semantic_sequence/physical_activity_semantic/physical_activity_semantic_1.png","null","",""
"","","","","","image-button-response","50","424455","0.0-10.0-1.0-1.7","DCB961DAEA8847BEBD37E0617649AF65","DCB961DAEA8847BEBD37E0617649AF65","0198ba18-2242-79f0-b33d-a4bcbaf1d870","0198b9d0-29d4-7df3-8625-4b4515841beb","{""num_scrambled_semantic"":""8"",""num_scrambled_causal"":""4"",""num_scrambled_schematic"":""4"",""participantId"":""DCB961DAEA8847BEBD37E0617649AF65"",""assignmentId"":""0198ba18-2242-79f0-b33d-a4bcbaf1d870"",""projectId"":""0198b9d0-29d4-7df3-8625-4b4515841beb""}","https://test12345.live/?num_scrambled_semantic=8&num_scrambled_causal=4&num_scrambled_schematic=4&participantId=DCB961DAEA8847BEBD37E0617649AF65&assignmentId=0198ba18-2242-79f0-b33d-a4bcbaf1d870&projectId=0198b9d0-29d4-7df3-8625-4b4515841beb","DCB961DAEA8847BEBD37E0617649AF65-2025-08-17-22-49-56","","655","","images/semantic_sequence/physical_activity_semantic/physical_activity_semantic_1.png","0","",""
"","","","","","image-button-response","51","429857","0.0-10.0-1.0-2.7","DCB961DAEA8847BEBD37E0617649AF65","DCB961DAEA8847BEBD37E0617649AF65","0198ba18-2242-79f0-b33d-a4bcbaf1d870","0198b9d0-29d4-7df3-8625-4b4515841beb","{""num_scrambled_semantic"":""8"",""num_scrambled_causal"":""4"",""num_scrambled_schematic"":""4"",""participantId"":""DCB961DAEA8847BEBD37E0617649AF65"",""assignmentId"":""0198ba18-2242-79f0-b33d-a4bcbaf1d870"",""projectId"":""0198b9d0-29d4-7df3-8625-4b4515841beb""}","https://test12345.live/?num_scrambled_semantic=8&num_scrambled_causal=4&num_scrambled_schematic=4&participantId=DCB961DAEA8847BEBD37E0617649AF65&assignmentId=0198ba18-2242-79f0-b33d-a4bcbaf1d870&projectId=0198b9d0-29d4-7df3-8625-4b4515841beb","DCB961DAEA8847BEBD37E0617649AF65-2025-08-17-22-49-56","","null","","[]","null","",""
"","","","","","image-button-response","52","434376","0.0-10.0-1.0-0.8","DCB961DAEA8847BEBD37E0617649AF65","DCB961DAEA8847BEBD37E0617649AF65","0198ba18-2242-79f0-b33d-a4bcbaf1d870","0198b9d0-29d4-7df3-8625-4b4515841beb","{""num_scrambled_semantic"":""8"",""num_scrambled_causal"":""4"",""num_scrambled_schematic"":""4"",""participantId"":""DCB961DAEA8847BEBD37E0617649AF65"",""assignmentId"":""0198ba18-2242-79f0-b33d-a4bcbaf1d870"",""projectId"":""0198b9d0-29d4-7df3-8625-4b4515841beb""}","https://test12345.live/?num_scrambled_semantic=8&num_scrambled_causal=4&num_scrambled_schematic=4&participantId=DCB961DAEA8847BEBD37E0617649AF65&assignmentId=0198ba18-2242-79f0-b33d-a4bcbaf1d870&projectId=0198b9d0-29d4-7df3-8625-4b4515841beb","DCB961DAEA8847BEBD37E0617649AF65-2025-08-17-22-49-56","","null","","images/semantic_sequence/physical_activity_semantic/physical_activity_semantic_3.png","null","",""
"","","","","","image-button-response","53","435138","0.0-10.0-1.0-1.8","DCB961DAEA8847BEBD37E0617649AF65","DCB961DAEA8847BEBD37E0617649AF65","0198ba18-2242-79f0-b33d-a4bcbaf1d870","0198b9d0-29d4-7df3-8625-4b4515841beb","{""num_scrambled_semantic"":""8"",""num_scrambled_causal"":""4"",""num_scrambled_schematic"":""4"",""participantId"":""DCB961DAEA8847BEBD37E0617649AF65"",""assignmentId"":""0198ba18-2242-79f0-b33d-a4bcbaf1d870"",""projectId"":""0198b9d0-29d4-7df3-8625-4b4515841beb""}","https://test12345.live/?num_scrambled_semantic=8&num_scrambled_causal=4&num_scrambled_schematic=4&participantId=DCB961DAEA8847BEBD37E0617649AF65&assignmentId=0198ba18-2242-79f0-b33d-a4bcbaf1d870&projectId=0198b9d0-29d4-7df3-8625-4b4515841beb","DCB961DAEA8847BEBD37E0617649AF65-2025-08-17-22-49-56","","761","","images/semantic_sequence/physical_activity_semantic/physical_activity_semantic_3.png","0","",""
"","","","","","image-button-response","54","440540","0.0-10.0-1.0-2.8","DCB961DAEA8847BEBD37E0617649AF65","DCB961DAEA8847BEBD37E0617649AF65","0198ba18-2242-79f0-b33d-a4bcbaf1d870","0198b9d0-29d4-7df3-8625-4b4515841beb","{""num_scrambled_semantic"":""8"",""num_scrambled_causal"":""4"",""num_scrambled_schematic"":""4"",""participantId"":""DCB961DAEA8847BEBD37E0617649AF65"",""assignmentId"":""0198ba18-2242-79f0-b33d-a4bcbaf1d870"",""projectId"":""0198b9d0-29d4-7df3-8625-4b4515841beb""}","https://test12345.live/?num_scrambled_semantic=8&num_scrambled_causal=4&num_scrambled_schematic=4&participantId=DCB961DAEA8847BEBD37E0617649AF65&assignmentId=0198ba18-2242-79f0-b33d-a4bcbaf1d870&projectId=0198b9d0-29d4-7df3-8625-4b4515841beb","DCB961DAEA8847BEBD37E0617649AF65-2025-08-17-22-49-56","","null","","[]","null","",""
"","","","","","image-button-response","55","445058","0.0-10.0-1.0-0.9","DCB961DAEA8847BEBD37E0617649AF65","DCB961DAEA8847BEBD37E0617649AF65","0198ba18-2242-79f0-b33d-a4bcbaf1d870","0198b9d0-29d4-7df3-8625-4b4515841beb","{""num_scrambled_semantic"":""8"",""num_scrambled_causal"":""4"",""num_scrambled_schematic"":""4"",""participantId"":""DCB961DAEA8847BEBD37E0617649AF65"",""assignmentId"":""0198ba18-2242-79f0-b33d-a4bcbaf1d870"",""projectId"":""0198b9d0-29d4-7df3-8625-4b4515841beb""}","https://test12345.live/?num_scrambled_semantic=8&num_scrambled_causal=4&num_scrambled_schematic=4&participantId=DCB961DAEA8847BEBD37E0617649AF65&assignmentId=0198ba18-2242-79f0-b33d-a4bcbaf1d870&projectId=0198b9d0-29d4-7df3-8625-4b4515841beb","DCB961DAEA8847BEBD37E0617649AF65-2025-08-17-22-49-56","","null","","images/semantic_sequence/physical_activity_semantic/physical_activity_semantic_9.png","null","",""
"","","","","","image-button-response","56","446004","0.0-10.0-1.0-1.9","DCB961DAEA8847BEBD37E0617649AF65","DCB961DAEA8847BEBD37E0617649AF65","0198ba18-2242-79f0-b33d-a4bcbaf1d870","0198b9d0-29d4-7df3-8625-4b4515841beb","{""num_scrambled_semantic"":""8"",""num_scrambled_causal"":""4"",""num_scrambled_schematic"":""4"",""participantId"":""DCB961DAEA8847BEBD37E0617649AF65"",""assignmentId"":""0198ba18-2242-79f0-b33d-a4bcbaf1d870"",""projectId"":""0198b9d0-29d4-7df3-8625-4b4515841beb""}","https://test12345.live/?num_scrambled_semantic=8&num_scrambled_causal=4&num_scrambled_schematic=4&participantId=DCB961DAEA8847BEBD37E0617649AF65&assignmentId=0198ba18-2242-79f0-b33d-a4bcbaf1d870&projectId=0198b9d0-29d4-7df3-8625-4b4515841beb","DCB961DAEA8847BEBD37E0617649AF65-2025-08-17-22-49-56","","945","","images/semantic_sequence/physical_activity_semantic/physical_activity_semantic_9.png","0","",""
"","","","","","image-button-response","57","451406","0.0-10.0-1.0-2.9","DCB961DAEA8847BEBD37E0617649AF65","DCB961DAEA8847BEBD37E0617649AF65","0198ba18-2242-79f0-b33d-a4bcbaf1d870","0198b9d0-29d4-7df3-8625-4b4515841beb","{""num_scrambled_semantic"":""8"",""num_scrambled_causal"":""4"",""num_scrambled_schematic"":""4"",""participantId"":""DCB961DAEA8847BEBD37E0617649AF65"",""assignmentId"":""0198ba18-2242-79f0-b33d-a4bcbaf1d870"",""projectId"":""0198b9d0-29d4-7df3-8625-4b4515841beb""}","https://test12345.live/?num_scrambled_semantic=8&num_scrambled_causal=4&num_scrambled_schematic=4&participantId=DCB961DAEA8847BEBD37E0617649AF65&assignmentId=0198ba18-2242-79f0-b33d-a4bcbaf1d870&projectId=0198b9d0-29d4-7df3-8625-4b4515841beb","DCB961DAEA8847BEBD37E0617649AF65-2025-08-17-22-49-56","","null","","[]","null","",""
"","","","","","html-audio-response","58","471388","0.0-11.0","DCB961DAEA8847BEBD37E0617649AF65","DCB961DAEA8847BEBD37E0617649AF65","0198ba18-2242-79f0-b33d-a4bcbaf1d870","0198b9d0-29d4-7df3-8625-4b4515841beb","{""num_scrambled_semantic"":""8"",""num_scrambled_causal"":""4"",""num_scrambled_schematic"":""4"",""participantId"":""DCB961DAEA8847BEBD37E0617649AF65"",""assignmentId"":""0198ba18-2242-79f0-b33d-a4bcbaf1d870"",""projectId"":""0198b9d0-29d4-7df3-8625-4b4515841beb""}","https://test12345.live/?num_scrambled_semantic=8&num_scrambled_causal=4&num_scrambled_schematic=4&participantId=DCB961DAEA8847BEBD37E0617649AF65&assignmentId=0198ba18-2242-79f0-b33d-a4bcbaf1d870&projectId=0198b9d0-29d4-7df3-8625-4b4515841beb","DCB961DAEA8847BEBD37E0617649AF65-2025-08-17-22-49-56","","18737","","[""<span style=\""color: red; font-size: 24px\""> NOW RECORDING</span><p>Please say out loud all the images you saw, as many as you can remember. The images can be said in any order.</p>""]","","10","physical_activity_semantic"
"","","","","","image-button-response","59","477401","0.0-12.0-0.0","DCB961DAEA8847BEBD37E0617649AF65","DCB961DAEA8847BEBD37E0617649AF65","0198ba18-2242-79f0-b33d-a4bcbaf1d870","0198b9d0-29d4-7df3-8625-4b4515841beb","{""num_scrambled_semantic"":""8"",""num_scrambled_causal"":""4"",""num_scrambled_schematic"":""4"",""participantId"":""DCB961DAEA8847BEBD37E0617649AF65"",""assignmentId"":""0198ba18-2242-79f0-b33d-a4bcbaf1d870"",""projectId"":""0198b9d0-29d4-7df3-8625-4b4515841beb""}","https://test12345.live/?num_scrambled_semantic=8&num_scrambled_causal=4&num_scrambled_schematic=4&participantId=DCB961DAEA8847BEBD37E0617649AF65&assignmentId=0198ba18-2242-79f0-b33d-a4bcbaf1d870&projectId=0198b9d0-29d4-7df3-8625-4b4515841beb","DCB961DAEA8847BEBD37E0617649AF65-2025-08-17-22-49-56","","null","","images/causal_sequence/the_performance_causal/the_performance_causal_0.png","null","",""
"","","","","","image-button-response","60","481920","0.0-12.0-1.0-0.0","DCB961DAEA8847BEBD37E0617649AF65","DCB961DAEA8847BEBD37E0617649AF65","0198ba18-2242-79f0-b33d-a4bcbaf1d870","0198b9d0-29d4-7df3-8625-4b4515841beb","{""num_scrambled_semantic"":""8"",""num_scrambled_causal"":""4"",""num_scrambled_schematic"":""4"",""participantId"":""DCB961DAEA8847BEBD37E0617649AF65"",""assignmentId"":""0198ba18-2242-79f0-b33d-a4bcbaf1d870"",""projectId"":""0198b9d0-29d4-7df3-8625-4b4515841beb""}","https://test12345.live/?num_scrambled_semantic=8&num_scrambled_causal=4&num_scrambled_schematic=4&participantId=DCB961DAEA8847BEBD37E0617649AF65&assignmentId=0198ba18-2242-79f0-b33d-a4bcbaf1d870&projectId=0198b9d0-29d4-7df3-8625-4b4515841beb","DCB961DAEA8847BEBD37E0617649AF65-2025-08-17-22-49-56","","null","","images/causal_sequence/the_performance_causal/the_performance_causal_2.png","null","",""
"","","","","","image-button-response","61","482721","0.0-12.0-1.0-1.0","DCB961DAEA8847BEBD37E0617649AF65","DCB961DAEA8847BEBD37E0617649AF65","0198ba18-2242-79f0-b33d-a4bcbaf1d870","0198b9d0-29d4-7df3-8625-4b4515841beb","{""num_scrambled_semantic"":""8"",""num_scrambled_causal"":""4"",""num_scrambled_schematic"":""4"",""participantId"":""DCB961DAEA8847BEBD37E0617649AF65"",""assignmentId"":""0198ba18-2242-79f0-b33d-a4bcbaf1d870"",""projectId"":""0198b9d0-29d4-7df3-8625-4b4515841beb""}","https://test12345.live/?num_scrambled_semantic=8&num_scrambled_causal=4&num_scrambled_schematic=4&participantId=DCB961DAEA8847BEBD37E0617649AF65&assignmentId=0198ba18-2242-79f0-b33d-a4bcbaf1d870&projectId=0198b9d0-29d4-7df3-8625-4b4515841beb","DCB961DAEA8847BEBD37E0617649AF65-2025-08-17-22-49-56","","800","","images/causal_sequence/the_performance_causal/the_performance_causal_2.png","0","",""
"","","","","","image-button-response","62","488122","0.0-12.0-1.0-2.0","DCB961DAEA8847BEBD37E0617649AF65","DCB961DAEA8847BEBD37E0617649AF65","0198ba18-2242-79f0-b33d-a4bcbaf1d870","0198b9d0-29d4-7df3-8625-4b4515841beb","{""num_scrambled_semantic"":""8"",""num_scrambled_causal"":""4"",""num_scrambled_schematic"":""4"",""participantId"":""DCB961DAEA8847BEBD37E0617649AF65"",""assignmentId"":""0198ba18-2242-79f0-b33d-a4bcbaf1d870"",""projectId"":""0198b9d0-29d4-7df3-8625-4b4515841beb""}","https://test12345.live/?num_scrambled_semantic=8&num_scrambled_causal=4&num_scrambled_schematic=4&participantId=DCB961DAEA8847BEBD37E0617649AF65&assignmentId=0198ba18-2242-79f0-b33d-a4bcbaf1d870&projectId=0198b9d0-29d4-7df3-8625-4b4515841beb","DCB961DAEA8847BEBD37E0617649AF65-2025-08-17-22-49-56","","null","","[]","null","",""
"","","","","","image-button-response","63","492642","0.0-12.0-1.0-0.1","DCB961DAEA8847BEBD37E0617649AF65","DCB961DAEA8847BEBD37E0617649AF65","0198ba18-2242-79f0-b33d-a4bcbaf1d870","0198b9d0-29d4-7df3-8625-4b4515841beb","{""num_scrambled_semantic"":""8"",""num_scrambled_causal"":""4"",""num_scrambled_schematic"":""4"",""participantId"":""DCB961DAEA8847BEBD37E0617649AF65"",""assignmentId"":""0198ba18-2242-79f0-b33d-a4bcbaf1d870"",""projectId"":""0198b9d0-29d4-7df3-8625-4b4515841beb""}","https://test12345.live/?num_scrambled_semantic=8&num_scrambled_causal=4&num_scrambled_schematic=4&participantId=DCB961DAEA8847BEBD37E0617649AF65&assignmentId=0198ba18-2242-79f0-b33d-a4bcbaf1d870&projectId=0198b9d0-29d4-7df3-8625-4b4515841beb","DCB961DAEA8847BEBD37E0617649AF65-2025-08-17-22-49-56","","null","","images/causal_sequence/the_performance_causal/the_performance_causal_ten.png","null","",""
"","","","","","image-button-response","64","493904","0.0-12.0-1.0-1.1","DCB961DAEA8847BEBD37E0617649AF65","DCB961DAEA8847BEBD37E0617649AF65","0198ba18-2242-79f0-b33d-a4bcbaf1d870","0198b9d0-29d4-7df3-8625-4b4515841beb","{""num_scrambled_semantic"":""8"",""num_scrambled_causal"":""4"",""num_scrambled_schematic"":""4"",""participantId"":""DCB961DAEA8847BEBD37E0617649AF65"",""assignmentId"":""0198ba18-2242-79f0-b33d-a4bcbaf1d870"",""projectId"":""0198b9d0-29d4-7df3-8625-4b4515841beb""}","https://test12345.live/?num_scrambled_semantic=8&num_scrambled_causal=4&num_scrambled_schematic=4&participantId=DCB961DAEA8847BEBD37E0617649AF65&assignmentId=0198ba18-2242-79f0-b33d-a4bcbaf1d870&projectId=0198b9d0-29d4-7df3-8625-4b4515841beb","DCB961DAEA8847BEBD37E0617649AF65-2025-08-17-22-49-56","","1262","","images/causal_sequence/the_performance_causal/the_performance_causal_ten.png","0","",""
"","","","","","image-button-response","65","499306","0.0-12.0-1.0-2.1","DCB961DAEA8847BEBD37E0617649AF65","DCB961DAEA8847BEBD37E0617649AF65","0198ba18-2242-79f0-b33d-a4bcbaf1d870","0198b9d0-29d4-7df3-8625-4b4515841beb","{""num_scrambled_semantic"":""8"",""num_scrambled_causal"":""4"",""num_scrambled_schematic"":""4"",""participantId"":""DCB961DAEA8847BEBD37E0617649AF65"",""assignmentId"":""0198ba18-2242-79f0-b33d-a4bcbaf1d870"",""projectId"":""0198b9d0-29d4-7df3-8625-4b4515841beb""}","https://test12345.live/?num_scrambled_semantic=8&num_scrambled_causal=4&num_scrambled_schematic=4&participantId=DCB961DAEA8847BEBD37E0617649AF65&assignmentId=0198ba18-2242-79f0-b33d-a4bcbaf1d870&projectId=0198b9d0-29d4-7df3-8625-4b4515841beb","DCB961DAEA8847BEBD37E0617649AF65-2025-08-17-22-49-56","","null","","[]","null","",""
"","","","","","image-button-response","66","503824","0.0-12.0-1.0-0.2","DCB961DAEA8847BEBD37E0617649AF65","DCB961DAEA8847BEBD37E0617649AF65","0198ba18-2242-79f0-b33d-a4bcbaf1d870","0198b9d0-29d4-7df3-8625-4b4515841beb","{""num_scrambled_semantic"":""8"",""num_scrambled_causal"":""4"",""num_scrambled_schematic"":""4"",""participantId"":""DCB961DAEA8847BEBD37E0617649AF65"",""assignmentId"":""0198ba18-2242-79f0-b33d-a4bcbaf1d870"",""projectId"":""0198b9d0-29d4-7df3-8625-4b4515841beb""}","https://test12345.live/?num_scrambled_semantic=8&num_scrambled_causal=4&num_scrambled_schematic=4&participantId=DCB961DAEA8847BEBD37E0617649AF65&assignmentId=0198ba18-2242-79f0-b33d-a4bcbaf1d870&projectId=0198b9d0-29d4-7df3-8625-4b4515841beb","DCB961DAEA8847BEBD37E0617649AF65-2025-08-17-22-49-56","","null","","images/causal_sequence/the_performance_causal/the_performance_causal_8.png","null","",""
"","","","","","image-button-response","67","504488","0.0-12.0-1.0-1.2","DCB961DAEA8847BEBD37E0617649AF65","DCB961DAEA8847BEBD37E0617649AF65","0198ba18-2242-79f0-b33d-a4bcbaf1d870","0198b9d0-29d4-7df3-8625-4b4515841beb","{""num_scrambled_semantic"":""8"",""num_scrambled_causal"":""4"",""num_scrambled_schematic"":""4"",""participantId"":""DCB961DAEA8847BEBD37E0617649AF65"",""assignmentId"":""0198ba18-2242-79f0-b33d-a4bcbaf1d870"",""projectId"":""0198b9d0-29d4-7df3-8625-4b4515841beb""}","https://test12345.live/?num_scrambled_semantic=8&num_scrambled_causal=4&num_scrambled_schematic=4&participantId=DCB961DAEA8847BEBD37E0617649AF65&assignmentId=0198ba18-2242-79f0-b33d-a4bcbaf1d870&projectId=0198b9d0-29d4-7df3-8625-4b4515841beb","DCB961DAEA8847BEBD37E0617649AF65-2025-08-17-22-49-56","","663","","images/causal_sequence/the_performance_causal/the_performance_causal_8.png","0","",""
"","","","","","image-button-response","68","509889","0.0-12.0-1.0-2.2","DCB961DAEA8847BEBD37E0617649AF65","DCB961DAEA8847BEBD37E0617649AF65","0198ba18-2242-79f0-b33d-a4bcbaf1d870","0198b9d0-29d4-7df3-8625-4b4515841beb","{""num_scrambled_semantic"":""8"",""num_scrambled_causal"":""4"",""num_scrambled_schematic"":""4"",""participantId"":""DCB961DAEA8847BEBD37E0617649AF65"",""assignmentId"":""0198ba18-2242-79f0-b33d-a4bcbaf1d870"",""projectId"":""0198b9d0-29d4-7df3-8625-4b4515841beb""}","https://test12345.live/?num_scrambled_semantic=8&num_scrambled_causal=4&num_scrambled_schematic=4&participantId=DCB961DAEA8847BEBD37E0617649AF65&assignmentId=0198ba18-2242-79f0-b33d-a4bcbaf1d870&projectId=0198b9d0-29d4-7df3-8625-4b4515841beb","DCB961DAEA8847BEBD37E0617649AF65-2025-08-17-22-49-56","","null","","[]","null","",""
"","","","","","image-button-response","69","514408","0.0-12.0-1.0-0.3","DCB961DAEA8847BEBD37E0617649AF65","DCB961DAEA8847BEBD37E0617649AF65","0198ba18-2242-79f0-b33d-a4bcbaf1d870","0198b9d0-29d4-7df3-8625-4b4515841beb","{""num_scrambled_semantic"":""8"",""num_scrambled_causal"":""4"",""num_scrambled_schematic"":""4"",""participantId"":""DCB961DAEA8847BEBD37E0617649AF65"",""assignmentId"":""0198ba18-2242-79f0-b33d-a4bcbaf1d870"",""projectId"":""0198b9d0-29d4-7df3-8625-4b4515841beb""}","https://test12345.live/?num_scrambled_semantic=8&num_scrambled_causal=4&num_scrambled_schematic=4&participantId=DCB961DAEA8847BEBD37E0617649AF65&assignmentId=0198ba18-2242-79f0-b33d-a4bcbaf1d870&projectId=0198b9d0-29d4-7df3-8625-4b4515841beb","DCB961DAEA8847BEBD37E0617649AF65-2025-08-17-22-49-56","","null","","images/causal_sequence/the_performance_causal/the_performance_causal_7.png","null","",""
"","","","","","image-button-response","70","515387","0.0-12.0-1.0-1.3","DCB961DAEA8847BEBD37E0617649AF65","DCB961DAEA8847BEBD37E0617649AF65","0198ba18-2242-79f0-b33d-a4bcbaf1d870","0198b9d0-29d4-7df3-8625-4b4515841beb","{""num_scrambled_semantic"":""8"",""num_scrambled_causal"":""4"",""num_scrambled_schematic"":""4"",""participantId"":""DCB961DAEA8847BEBD37E0617649AF65"",""assignmentId"":""0198ba18-2242-79f0-b33d-a4bcbaf1d870"",""projectId"":""0198b9d0-29d4-7df3-8625-4b4515841beb""}","https://test12345.live/?num_scrambled_semantic=8&num_scrambled_causal=4&num_scrambled_schematic=4&participantId=DCB961DAEA8847BEBD37E0617649AF65&assignmentId=0198ba18-2242-79f0-b33d-a4bcbaf1d870&projectId=0198b9d0-29d4-7df3-8625-4b4515841beb","DCB961DAEA8847BEBD37E0617649AF65-2025-08-17-22-49-56","","978","","images/causal_sequence/the_performance_causal/the_performance_causal_7.png","0","",""
"","","","","","image-button-response","71","520789","0.0-12.0-1.0-2.3","DCB961DAEA8847BEBD37E0617649AF65","DCB961DAEA8847BEBD37E0617649AF65","0198ba18-2242-79f0-b33d-a4bcbaf1d870","0198b9d0-29d4-7df3-8625-4b4515841beb","{""num_scrambled_semantic"":""8"",""num_scrambled_causal"":""4"",""num_scrambled_schematic"":""4"",""participantId"":""DCB961DAEA8847BEBD37E0617649AF65"",""assignmentId"":""0198ba18-2242-79f0-b33d-a4bcbaf1d870"",""projectId"":""0198b9d0-29d4-7df3-8625-4b4515841beb""}","https://test12345.live/?num_scrambled_semantic=8&num_scrambled_causal=4&num_scrambled_schematic=4&participantId=DCB961DAEA8847BEBD37E0617649AF65&assignmentId=0198ba18-2242-79f0-b33d-a4bcbaf1d870&projectId=0198b9d0-29d4-7df3-8625-4b4515841beb","DCB961DAEA8847BEBD37E0617649AF65-2025-08-17-22-49-56","","null","","[]","null","",""
"","","","","","image-button-response","72","525307","0.0-12.0-1.0-0.4","DCB961DAEA8847BEBD37E0617649AF65","DCB961DAEA8847BEBD37E0617649AF65","0198ba18-2242-79f0-b33d-a4bcbaf1d870","0198b9d0-29d4-7df3-8625-4b4515841beb","{""num_scrambled_semantic"":""8"",""num_scrambled_causal"":""4"",""num_scrambled_schematic"":""4"",""participantId"":""DCB961DAEA8847BEBD37E0617649AF65"",""assignmentId"":""0198ba18-2242-79f0-b33d-a4bcbaf1d870"",""projectId"":""0198b9d0-29d4-7df3-8625-4b4515841beb""}","https://test12345.live/?num_scrambled_semantic=8&num_scrambled_causal=4&num_scrambled_schematic=4&participantId=DCB961DAEA8847BEBD37E0617649AF65&assignmentId=0198ba18-2242-79f0-b33d-a4bcbaf1d870&projectId=0198b9d0-29d4-7df3-8625-4b4515841beb","DCB961DAEA8847BEBD37E0617649AF65-2025-08-17-22-49-56","","null","","images/causal_sequence/the_performance_causal/the_performance_causal_1.png","null","",""
"","","","","","image-button-response","73","525938","0.0-12.0-1.0-1.4","DCB961DAEA8847BEBD37E0617649AF65","DCB961DAEA8847BEBD37E0617649AF65","0198ba18-2242-79f0-b33d-a4bcbaf1d870","0198b9d0-29d4-7df3-8625-4b4515841beb","{""num_scrambled_semantic"":""8"",""num_scrambled_causal"":""4"",""num_scrambled_schematic"":""4"",""participantId"":""DCB961DAEA8847BEBD37E0617649AF65"",""assignmentId"":""0198ba18-2242-79f0-b33d-a4bcbaf1d870"",""projectId"":""0198b9d0-29d4-7df3-8625-4b4515841beb""}","https://test12345.live/?num_scrambled_semantic=8&num_scrambled_causal=4&num_scrambled_schematic=4&participantId=DCB961DAEA8847BEBD37E0617649AF65&assignmentId=0198ba18-2242-79f0-b33d-a4bcbaf1d870&projectId=0198b9d0-29d4-7df3-8625-4b4515841beb","DCB961DAEA8847BEBD37E0617649AF65-2025-08-17-22-49-56","","629","","images/causal_sequence/the_performance_causal/the_performance_causal_1.png","0","",""
"","","","","","image-button-response","74","531340","0.0-12.0-1.0-2.4","DCB961DAEA8847BEBD37E0617649AF65","DCB961DAEA8847BEBD37E0617649AF65","0198ba18-2242-79f0-b33d-a4bcbaf1d870","0198b9d0-29d4-7df3-8625-4b4515841beb","{""num_scrambled_semantic"":""8"",""num_scrambled_causal"":""4"",""num_scrambled_schematic"":""4"",""participantId"":""DCB961DAEA8847BEBD37E0617649AF65"",""assignmentId"":""0198ba18-2242-79f0-b33d-a4bcbaf1d870"",""projectId"":""0198b9d0-29d4-7df3-8625-4b4515841beb""}","https://test12345.live/?num_scrambled_semantic=8&num_scrambled_causal=4&num_scrambled_schematic=4&participantId=DCB961DAEA8847BEBD37E0617649AF65&assignmentId=0198ba18-2242-79f0-b33d-a4bcbaf1d870&projectId=0198b9d0-29d4-7df3-8625-4b4515841beb","DCB961DAEA8847BEBD37E0617649AF65-2025-08-17-22-49-56","","null","","[]","null","",""
"","","","","","image-button-response","75","535857","0.0-12.0-1.0-0.5","DCB961DAEA8847BEBD37E0617649AF65","DCB961DAEA8847BEBD37E0617649AF65","0198ba18-2242-79f0-b33d-a4bcbaf1d870","0198b9d0-29d4-7df3-8625-4b4515841beb","{""num_scrambled_semantic"":""8"",""num_scrambled_causal"":""4"",""num_scrambled_schematic"":""4"",""participantId"":""DCB961DAEA8847BEBD37E0617649AF65"",""assignmentId"":""0198ba18-2242-79f0-b33d-a4bcbaf1d870"",""projectId"":""0198b9d0-29d4-7df3-8625-4b4515841beb""}","https://test12345.live/?num_scrambled_semantic=8&num_scrambled_causal=4&num_scrambled_schematic=4&participantId=DCB961DAEA8847BEBD37E0617649AF65&assignmentId=0198ba18-2242-79f0-b33d-a4bcbaf1d870&projectId=0198b9d0-29d4-7df3-8625-4b4515841beb","DCB961DAEA8847BEBD37E0617649AF65-2025-08-17-22-49-56","","null","","images/causal_sequence/the_performance_causal/the_performance_causal_6.png","null","",""
"","","","","","image-button-response","76","536787","0.0-12.0-1.0-1.5","DCB961DAEA8847BEBD37E0617649AF65","DCB961DAEA8847BEBD37E0617649AF65","0198ba18-2242-79f0-b33d-a4bcbaf1d870","0198b9d0-29d4-7df3-8625-4b4515841beb","{""num_scrambled_semantic"":""8"",""num_scrambled_causal"":""4"",""num_scrambled_schematic"":""4"",""participantId"":""DCB961DAEA8847BEBD37E0617649AF65"",""assignmentId"":""0198ba18-2242-79f0-b33d-a4bcbaf1d870"",""projectId"":""0198b9d0-29d4-7df3-8625-4b4515841beb""}","https://test12345.live/?num_scrambled_semantic=8&num_scrambled_causal=4&num_scrambled_schematic=4&participantId=DCB961DAEA8847BEBD37E0617649AF65&assignmentId=0198ba18-2242-79f0-b33d-a4bcbaf1d870&projectId=0198b9d0-29d4-7df3-8625-4b4515841beb","DCB961DAEA8847BEBD37E0617649AF65-2025-08-17-22-49-56","","929","","images/causal_sequence/the_performance_causal/the_performance_causal_6.png","0","",""
"","","","","","image-button-response","77","542189","0.0-12.0-1.0-2.5","DCB961DAEA8847BEBD37E0617649AF65","DCB961DAEA8847BEBD37E0617649AF65","0198ba18-2242-79f0-b33d-a4bcbaf1d870","0198b9d0-29d4-7df3-8625-4b4515841beb","{""num_scrambled_semantic"":""8"",""num_scrambled_causal"":""4"",""num_scrambled_schematic"":""4"",""participantId"":""DCB961DAEA8847BEBD37E0617649AF65"",""assignmentId"":""0198ba18-2242-79f0-b33d-a4bcbaf1d870"",""projectId"":""0198b9d0-29d4-7df3-8625-4b4515841beb""}","https://test12345.live/?num_scrambled_semantic=8&num_scrambled_causal=4&num_scrambled_schematic=4&participantId=DCB961DAEA8847BEBD37E0617649AF65&assignmentId=0198ba18-2242-79f0-b33d-a4bcbaf1d870&projectId=0198b9d0-29d4-7df3-8625-4b4515841beb","DCB961DAEA8847BEBD37E0617649AF65-2025-08-17-22-49-56","","null","","[]","null","",""
"","","","","","image-button-response","78","546709","0.0-12.0-1.0-0.6","DCB961DAEA8847BEBD37E0617649AF65","DCB961DAEA8847BEBD37E0617649AF65","0198ba18-2242-79f0-b33d-a4bcbaf1d870","0198b9d0-29d4-7df3-8625-4b4515841beb","{""num_scrambled_semantic"":""8"",""num_scrambled_causal"":""4"",""num_scrambled_schematic"":""4"",""participantId"":""DCB961DAEA8847BEBD37E0617649AF65"",""assignmentId"":""0198ba18-2242-79f0-b33d-a4bcbaf1d870"",""projectId"":""0198b9d0-29d4-7df3-8625-4b4515841beb""}","https://test12345.live/?num_scrambled_semantic=8&num_scrambled_causal=4&num_scrambled_schematic=4&participantId=DCB961DAEA8847BEBD37E0617649AF65&assignmentId=0198ba18-2242-79f0-b33d-a4bcbaf1d870&projectId=0198b9d0-29d4-7df3-8625-4b4515841beb","DCB961DAEA8847BEBD37E0617649AF65-2025-08-17-22-49-56","","null","","images/causal_sequence/the_performance_causal/the_performance_causal_9.png","null","",""
"","","","","","image-button-response","79","547571","0.0-12.0-1.0-1.6","DCB961DAEA8847BEBD37E0617649AF65","DCB961DAEA8847BEBD37E0617649AF65","0198ba18-2242-79f0-b33d-a4bcbaf1d870","0198b9d0-29d4-7df3-8625-4b4515841beb","{""num_scrambled_semantic"":""8"",""num_scrambled_causal"":""4"",""num_scrambled_schematic"":""4"",""participantId"":""DCB961DAEA8847BEBD37E0617649AF65"",""assignmentId"":""0198ba18-2242-79f0-b33d-a4bcbaf1d870"",""projectId"":""0198b9d0-29d4-7df3-8625-4b4515841beb""}","https://test12345.live/?num_scrambled_semantic=8&num_scrambled_causal=4&num_scrambled_schematic=4&participantId=DCB961DAEA8847BEBD37E0617649AF65&assignmentId=0198ba18-2242-79f0-b33d-a4bcbaf1d870&projectId=0198b9d0-29d4-7df3-8625-4b4515841beb","DCB961DAEA8847BEBD37E0617649AF65-2025-08-17-22-49-56","","860","","images/causal_sequence/the_performance_causal/the_performance_causal_9.png","0","",""
"","","","","","image-button-response","80","552973","0.0-12.0-1.0-2.6","DCB961DAEA8847BEBD37E0617649AF65","DCB961DAEA8847BEBD37E0617649AF65","0198ba18-2242-79f0-b33d-a4bcbaf1d870","0198b9d0-29d4-7df3-8625-4b4515841beb","{""num_scrambled_semantic"":""8"",""num_scrambled_causal"":""4"",""num_scrambled_schematic"":""4"",""participantId"":""DCB961DAEA8847BEBD37E0617649AF65"",""assignmentId"":""0198ba18-2242-79f0-b33d-a4bcbaf1d870"",""projectId"":""0198b9d0-29d4-7df3-8625-4b4515841beb""}","https://test12345.live/?num_scrambled_semantic=8&num_scrambled_causal=4&num_scrambled_schematic=4&participantId=DCB961DAEA8847BEBD37E0617649AF65&assignmentId=0198ba18-2242-79f0-b33d-a4bcbaf1d870&projectId=0198b9d0-29d4-7df3-8625-4b4515841beb","DCB961DAEA8847BEBD37E0617649AF65-2025-08-17-22-49-56","","null","","[]","null","",""
"","","","","","image-button-response","81","557492","0.0-12.0-1.0-0.7","DCB961DAEA8847BEBD37E0617649AF65","DCB961DAEA8847BEBD37E0617649AF65","0198ba18-2242-79f0-b33d-a4bcbaf1d870","0198b9d0-29d4-7df3-8625-4b4515841beb","{""num_scrambled_semantic"":""8"",""num_scrambled_causal"":""4"",""num_scrambled_schematic"":""4"",""participantId"":""DCB961DAEA8847BEBD37E0617649AF65"",""assignmentId"":""0198ba18-2242-79f0-b33d-a4bcbaf1d870"",""projectId"":""0198b9d0-29d4-7df3-8625-4b4515841beb""}","https://test12345.live/?num_scrambled_semantic=8&num_scrambled_causal=4&num_scrambled_schematic=4&participantId=DCB961DAEA8847BEBD37E0617649AF65&assignmentId=0198ba18-2242-79f0-b33d-a4bcbaf1d870&projectId=0198b9d0-29d4-7df3-8625-4b4515841beb","DCB961DAEA8847BEBD37E0617649AF65-2025-08-17-22-49-56","","null","","images/causal_sequence/the_performance_causal/the_performance_causal_5.png","null","",""
"","","","","","image-button-response","82","558170","0.0-12.0-1.0-1.7","DCB961DAEA8847BEBD37E0617649AF65","DCB961DAEA8847BEBD37E0617649AF65","0198ba18-2242-79f0-b33d-a4bcbaf1d870","0198b9d0-29d4-7df3-8625-4b4515841beb","{""num_scrambled_semantic"":""8"",""num_scrambled_causal"":""4"",""num_scrambled_schematic"":""4"",""participantId"":""DCB961DAEA8847BEBD37E0617649AF65"",""assignmentId"":""0198ba18-2242-79f0-b33d-a4bcbaf1d870"",""projectId"":""0198b9d0-29d4-7df3-8625-4b4515841beb""}","https://test12345.live/?num_scrambled_semantic=8&num_scrambled_causal=4&num_scrambled_schematic=4&participantId=DCB961DAEA8847BEBD37E0617649AF65&assignmentId=0198ba18-2242-79f0-b33d-a4bcbaf1d870&projectId=0198b9d0-29d4-7df3-8625-4b4515841beb","DCB961DAEA8847BEBD37E0617649AF65-2025-08-17-22-49-56","","676","","images/causal_sequence/the_performance_causal/the_performance_causal_5.png","0","",""
"","","","","","image-button-response","83","563572","0.0-12.0-1.0-2.7","DCB961DAEA8847BEBD37E0617649AF65","DCB961DAEA8847BEBD37E0617649AF65","0198ba18-2242-79f0-b33d-a4bcbaf1d870","0198b9d0-29d4-7df3-8625-4b4515841beb","{""num_scrambled_semantic"":""8"",""num_scrambled_causal"":""4"",""num_scrambled_schematic"":""4"",""participantId"":""DCB961DAEA8847BEBD37E0617649AF65"",""assignmentId"":""0198ba18-2242-79f0-b33d-a4bcbaf1d870"",""projectId"":""0198b9d0-29d4-7df3-8625-4b4515841beb""}","https://test12345.live/?num_scrambled_semantic=8&num_scrambled_causal=4&num_scrambled_schematic=4&participantId=DCB961DAEA8847BEBD37E0617649AF65&assignmentId=0198ba18-2242-79f0-b33d-a4bcbaf1d870&projectId=0198b9d0-29d4-7df3-8625-4b4515841beb","DCB961DAEA8847BEBD37E0617649AF65-2025-08-17-22-49-56","","null","","[]","null","",""
"","","","","","image-button-response","84","568091","0.0-12.0-1.0-0.8","DCB961DAEA8847BEBD37E0617649AF65","DCB961DAEA8847BEBD37E0617649AF65","0198ba18-2242-79f0-b33d-a4bcbaf1d870","0198b9d0-29d4-7df3-8625-4b4515841beb","{""num_scrambled_semantic"":""8"",""num_scrambled_causal"":""4"",""num_scrambled_schematic"":""4"",""participantId"":""DCB961DAEA8847BEBD37E0617649AF65"",""assignmentId"":""0198ba18-2242-79f0-b33d-a4bcbaf1d870"",""projectId"":""0198b9d0-29d4-7df3-8625-4b4515841beb""}","https://test12345.live/?num_scrambled_semantic=8&num_scrambled_causal=4&num_scrambled_schematic=4&participantId=DCB961DAEA8847BEBD37E0617649AF65&assignmentId=0198ba18-2242-79f0-b33d-a4bcbaf1d870&projectId=0198b9d0-29d4-7df3-8625-4b4515841beb","DCB961DAEA8847BEBD37E0617649AF65-2025-08-17-22-49-56","","null","","images/causal_sequence/the_performance_causal/the_performance_causal_4.png","null","",""
"","","","","","image-button-response","85","568871","0.0-12.0-1.0-1.8","DCB961DAEA8847BEBD37E0617649AF65","DCB961DAEA8847BEBD37E0617649AF65","0198ba18-2242-79f0-b33d-a4bcbaf1d870","0198b9d0-29d4-7df3-8625-4b4515841beb","{""num_scrambled_semantic"":""8"",""num_scrambled_causal"":""4"",""num_scrambled_schematic"":""4"",""participantId"":""DCB961DAEA8847BEBD37E0617649AF65"",""assignmentId"":""0198ba18-2242-79f0-b33d-a4bcbaf1d870"",""projectId"":""0198b9d0-29d4-7df3-8625-4b4515841beb""}","https://test12345.live/?num_scrambled_semantic=8&num_scrambled_causal=4&num_scrambled_schematic=4&participantId=DCB961DAEA8847BEBD37E0617649AF65&assignmentId=0198ba18-2242-79f0-b33d-a4bcbaf1d870&projectId=0198b9d0-29d4-7df3-8625-4b4515841beb","DCB961DAEA8847BEBD37E0617649AF65-2025-08-17-22-49-56","","779","","images/causal_sequence/the_performance_causal/the_performance_causal_4.png","0","",""
"","","","","","image-button-response","86","574272","0.0-12.0-1.0-2.8","DCB961DAEA8847BEBD37E0617649AF65","DCB961DAEA8847BEBD37E0617649AF65","0198ba18-2242-79f0-b33d-a4bcbaf1d870","0198b9d0-29d4-7df3-8625-4b4515841beb","{""num_scrambled_semantic"":""8"",""num_scrambled_causal"":""4"",""num_scrambled_schematic"":""4"",""participantId"":""DCB961DAEA8847BEBD37E0617649AF65"",""assignmentId"":""0198ba18-2242-79f0-b33d-a4bcbaf1d870"",""projectId"":""0198b9d0-29d4-7df3-8625-4b4515841beb""}","https://test12345.live/?num_scrambled_semantic=8&num_scrambled_causal=4&num_scrambled_schematic=4&participantId=DCB961DAEA8847BEBD37E0617649AF65&assignmentId=0198ba18-2242-79f0-b33d-a4bcbaf1d870&projectId=0198b9d0-29d4-7df3-8625-4b4515841beb","DCB961DAEA8847BEBD37E0617649AF65-2025-08-17-22-49-56","","null","","[]","null","",""
"","","","","","image-button-response","87","578791","0.0-12.0-1.0-0.9","DCB961DAEA8847BEBD37E0617649AF65","DCB961DAEA8847BEBD37E0617649AF65","0198ba18-2242-79f0-b33d-a4bcbaf1d870","0198b9d0-29d4-7df3-8625-4b4515841beb","{""num_scrambled_semantic"":""8"",""num_scrambled_causal"":""4"",""num_scrambled_schematic"":""4"",""participantId"":""DCB961DAEA8847BEBD37E0617649AF65"",""assignmentId"":""0198ba18-2242-79f0-b33d-a4bcbaf1d870"",""projectId"":""0198b9d0-29d4-7df3-8625-4b4515841beb""}","https://test12345.live/?num_scrambled_semantic=8&num_scrambled_causal=4&num_scrambled_schematic=4&participantId=DCB961DAEA8847BEBD37E0617649AF65&assignmentId=0198ba18-2242-79f0-b33d-a4bcbaf1d870&projectId=0198b9d0-29d4-7df3-8625-4b4515841beb","DCB961DAEA8847BEBD37E0617649AF65-2025-08-17-22-49-56","","null","","images/causal_sequence/the_performance_causal/the_performance_causal_3.png","null","",""
"","","","","","image-button-response","88","579553","0.0-12.0-1.0-1.9","DCB961DAEA8847BEBD37E0617649AF65","DCB961DAEA8847BEBD37E0617649AF65","0198ba18-2242-79f0-b33d-a4bcbaf1d870","0198b9d0-29d4-7df3-8625-4b4515841beb","{""num_scrambled_semantic"":""8"",""num_scrambled_causal"":""4"",""num_scrambled_schematic"":""4"",""participantId"":""DCB961DAEA8847BEBD37E0617649AF65"",""assignmentId"":""0198ba18-2242-79f0-b33d-a4bcbaf1d870"",""projectId"":""0198b9d0-29d4-7df3-8625-4b4515841beb""}","https://test12345.live/?num_scrambled_semantic=8&num_scrambled_causal=4&num_scrambled_schematic=4&participantId=DCB961DAEA8847BEBD37E0617649AF65&assignmentId=0198ba18-2242-79f0-b33d-a4bcbaf1d870&projectId=0198b9d0-29d4-7df3-8625-4b4515841beb","DCB961DAEA8847BEBD37E0617649AF65-2025-08-17-22-49-56","","761","","images/causal_sequence/the_performance_causal/the_performance_causal_3.png","0","",""
"","","","","","image-button-response","89","584954","0.0-12.0-1.0-2.9","DCB961DAEA8847BEBD37E0617649AF65","DCB961DAEA8847BEBD37E0617649AF65","0198ba18-2242-79f0-b33d-a4bcbaf1d870","0198b9d0-29d4-7df3-8625-4b4515841beb","{""num_scrambled_semantic"":""8"",""num_scrambled_causal"":""4"",""num_scrambled_schematic"":""4"",""participantId"":""DCB961DAEA8847BEBD37E0617649AF65"",""assignmentId"":""0198ba18-2242-79f0-b33d-a4bcbaf1d870"",""projectId"":""0198b9d0-29d4-7df3-8625-4b4515841beb""}","https://test12345.live/?num_scrambled_semantic=8&num_scrambled_causal=4&num_scrambled_schematic=4&participantId=DCB961DAEA8847BEBD37E0617649AF65&assignmentId=0198ba18-2242-79f0-b33d-a4bcbaf1d870&projectId=0198b9d0-29d4-7df3-8625-4b4515841beb","DCB961DAEA8847BEBD37E0617649AF65-2025-08-17-22-49-56","","null","","[]","null","",""
"","","","","","html-audio-response","90","594537","0.0-13.0","DCB961DAEA8847BEBD37E0617649AF65","DCB961DAEA8847BEBD37E0617649AF65","0198ba18-2242-79f0-b33d-a4bcbaf1d870","0198b9d0-29d4-7df3-8625-4b4515841beb","{""num_scrambled_semantic"":""8"",""num_scrambled_causal"":""4"",""num_scrambled_schematic"":""4"",""participantId"":""DCB961DAEA8847BEBD37E0617649AF65"",""assignmentId"":""0198ba18-2242-79f0-b33d-a4bcbaf1d870"",""projectId"":""0198b9d0-29d4-7df3-8625-4b4515841beb""}","https://test12345.live/?num_scrambled_semantic=8&num_scrambled_causal=4&num_scrambled_schematic=4&participantId=DCB961DAEA8847BEBD37E0617649AF65&assignmentId=0198ba18-2242-79f0-b33d-a4bcbaf1d870&projectId=0198b9d0-29d4-7df3-8625-4b4515841beb","DCB961DAEA8847BEBD37E0617649AF65-2025-08-17-22-49-56","","8169","","[""<span style=\""color: red; font-size: 24px\""> NOW RECORDING</span><p>Please say out loud all the images you saw, as many as you can remember. The images can be said in any order.</p>""]","","12","the_performance_causal"
"","","","","","image-button-response","91","600547","0.0-14.0-0.0","DCB961DAEA8847BEBD37E0617649AF65","DCB961DAEA8847BEBD37E0617649AF65","0198ba18-2242-79f0-b33d-a4bcbaf1d870","0198b9d0-29d4-7df3-8625-4b4515841beb","{""num_scrambled_semantic"":""8"",""num_scrambled_causal"":""4"",""num_scrambled_schematic"":""4"",""participantId"":""DCB961DAEA8847BEBD37E0617649AF65"",""assignmentId"":""0198ba18-2242-79f0-b33d-a4bcbaf1d870"",""projectId"":""0198b9d0-29d4-7df3-8625-4b4515841beb""}","https://test12345.live/?num_scrambled_semantic=8&num_scrambled_causal=4&num_scrambled_schematic=4&participantId=DCB961DAEA8847BEBD37E0617649AF65&assignmentId=0198ba18-2242-79f0-b33d-a4bcbaf1d870&projectId=0198b9d0-29d4-7df3-8625-4b4515841beb","DCB961DAEA8847BEBD37E0617649AF65-2025-08-17-22-49-56","","null","","images/semantic_sequence/redecorating_semantic/redecorating_semantic_0.png","null","",""
"","","","","","image-button-response","92","605065","0.0-14.0-1.0-0.0","DCB961DAEA8847BEBD37E0617649AF65","DCB961DAEA8847BEBD37E0617649AF65","0198ba18-2242-79f0-b33d-a4bcbaf1d870","0198b9d0-29d4-7df3-8625-4b4515841beb","{""num_scrambled_semantic"":""8"",""num_scrambled_causal"":""4"",""num_scrambled_schematic"":""4"",""participantId"":""DCB961DAEA8847BEBD37E0617649AF65"",""assignmentId"":""0198ba18-2242-79f0-b33d-a4bcbaf1d870"",""projectId"":""0198b9d0-29d4-7df3-8625-4b4515841beb""}","https://test12345.live/?num_scrambled_semantic=8&num_scrambled_causal=4&num_scrambled_schematic=4&participantId=DCB961DAEA8847BEBD37E0617649AF65&assignmentId=0198ba18-2242-79f0-b33d-a4bcbaf1d870&projectId=0198b9d0-29d4-7df3-8625-4b4515841beb","DCB961DAEA8847BEBD37E0617649AF65-2025-08-17-22-49-56","","null","","images/semantic_sequence/redecorating_semantic/redecorating_semantic_7.png","null","",""
"","","","","","image-button-response","93","607538","0.0-14.0-1.0-1.0","DCB961DAEA8847BEBD37E0617649AF65","DCB961DAEA8847BEBD37E0617649AF65","0198ba18-2242-79f0-b33d-a4bcbaf1d870","0198b9d0-29d4-7df3-8625-4b4515841beb","{""num_scrambled_semantic"":""8"",""num_scrambled_causal"":""4"",""num_scrambled_schematic"":""4"",""participantId"":""DCB961DAEA8847BEBD37E0617649AF65"",""assignmentId"":""0198ba18-2242-79f0-b33d-a4bcbaf1d870"",""projectId"":""0198b9d0-29d4-7df3-8625-4b4515841beb""}","https://test12345.live/?num_scrambled_semantic=8&num_scrambled_causal=4&num_scrambled_schematic=4&participantId=DCB961DAEA8847BEBD37E0617649AF65&assignmentId=0198ba18-2242-79f0-b33d-a4bcbaf1d870&projectId=0198b9d0-29d4-7df3-8625-4b4515841beb","DCB961DAEA8847BEBD37E0617649AF65-2025-08-17-22-49-56","","2471","","images/semantic_sequence/redecorating_semantic/redecorating_semantic_7.png","0","",""
"","","","","","image-button-response","94","612939","0.0-14.0-1.0-2.0","DCB961DAEA8847BEBD37E0617649AF65","DCB961DAEA8847BEBD37E0617649AF65","0198ba18-2242-79f0-b33d-a4bcbaf1d870","0198b9d0-29d4-7df3-8625-4b4515841beb","{""num_scrambled_semantic"":""8"",""num_scrambled_causal"":""4"",""num_scrambled_schematic"":""4"",""participantId"":""DCB961DAEA8847BEBD37E0617649AF65"",""assignmentId"":""0198ba18-2242-79f0-b33d-a4bcbaf1d870"",""projectId"":""0198b9d0-29d4-7df3-8625-4b4515841beb""}","https://test12345.live/?num_scrambled_semantic=8&num_scrambled_causal=4&num_scrambled_schematic=4&participantId=DCB961DAEA8847BEBD37E0617649AF65&assignmentId=0198ba18-2242-79f0-b33d-a4bcbaf1d870&projectId=0198b9d0-29d4-7df3-8625-4b4515841beb","DCB961DAEA8847BEBD37E0617649AF65-2025-08-17-22-49-56","","null","","[]","null","",""
"","","","","","image-button-response","95","617455","0.0-14.0-1.0-0.1","DCB961DAEA8847BEBD37E0617649AF65","DCB961DAEA8847BEBD37E0617649AF65","0198ba18-2242-79f0-b33d-a4bcbaf1d870","0198b9d0-29d4-7df3-8625-4b4515841beb","{""num_scrambled_semantic"":""8"",""num_scrambled_causal"":""4"",""num_scrambled_schematic"":""4"",""participantId"":""DCB961DAEA8847BEBD37E0617649AF65"",""assignmentId"":""0198ba18-2242-79f0-b33d-a4bcbaf1d870"",""projectId"":""0198b9d0-29d4-7df3-8625-4b4515841beb""}","https://test12345.live/?num_scrambled_semantic=8&num_scrambled_causal=4&num_scrambled_schematic=4&participantId=DCB961DAEA8847BEBD37E0617649AF65&assignmentId=0198ba18-2242-79f0-b33d-a4bcbaf1d870&projectId=0198b9d0-29d4-7df3-8625-4b4515841beb","DCB961DAEA8847BEBD37E0617649AF65-2025-08-17-22-49-56","","null","","images/semantic_sequence/redecorating_semantic/redecorating_semantic_8.png","null","",""
"","","","","","image-button-response","96","618021","0.0-14.0-1.0-1.1","DCB961DAEA8847BEBD37E0617649AF65","DCB961DAEA8847BEBD37E0617649AF65","0198ba18-2242-79f0-b33d-a4bcbaf1d870","0198b9d0-29d4-7df3-8625-4b4515841beb","{""num_scrambled_semantic"":""8"",""num_scrambled_causal"":""4"",""num_scrambled_schematic"":""4"",""participantId"":""DCB961DAEA8847BEBD37E0617649AF65"",""assignmentId"":""0198ba18-2242-79f0-b33d-a4bcbaf1d870"",""projectId"":""0198b9d0-29d4-7df3-8625-4b4515841beb""}","https://test12345.live/?num_scrambled_semantic=8&num_scrambled_causal=4&num_scrambled_schematic=4&participantId=DCB961DAEA8847BEBD37E0617649AF65&assignmentId=0198ba18-2242-79f0-b33d-a4bcbaf1d870&projectId=0198b9d0-29d4-7df3-8625-4b4515841beb","DCB961DAEA8847BEBD37E0617649AF65-2025-08-17-22-49-56","","566","","images/semantic_sequence/redecorating_semantic/redecorating_semantic_8.png","0","",""
"","","","","","image-button-response","97","623422","0.0-14.0-1.0-2.1","DCB961DAEA8847BEBD37E0617649AF65","DCB961DAEA8847BEBD37E0617649AF65","0198ba18-2242-79f0-b33d-a4bcbaf1d870","0198b9d0-29d4-7df3-8625-4b4515841beb","{""num_scrambled_semantic"":""8"",""num_scrambled_causal"":""4"",""num_scrambled_schematic"":""4"",""participantId"":""DCB961DAEA8847BEBD37E0617649AF65"",""assignmentId"":""0198ba18-2242-79f0-b33d-a4bcbaf1d870"",""projectId"":""0198b9d0-29d4-7df3-8625-4b4515841beb""}","https://test12345.live/?num_scrambled_semantic=8&num_scrambled_causal=4&num_scrambled_schematic=4&participantId=DCB961DAEA8847BEBD37E0617649AF65&assignmentId=0198ba18-2242-79f0-b33d-a4bcbaf1d870&projectId=0198b9d0-29d4-7df3-8625-4b4515841beb","DCB961DAEA8847BEBD37E0617649AF65-2025-08-17-22-49-56","","null","","[]","null","",""
"","","","","","image-button-response","98","627940","0.0-14.0-1.0-0.2","DCB961DAEA8847BEBD37E0617649AF65","DCB961DAEA8847BEBD37E0617649AF65","0198ba18-2242-79f0-b33d-a4bcbaf1d870","0198b9d0-29d4-7df3-8625-4b4515841beb","{""num_scrambled_semantic"":""8"",""num_scrambled_causal"":""4"",""num_scrambled_schematic"":""4"",""participantId"":""DCB961DAEA8847BEBD37E0617649AF65"",""assignmentId"":""0198ba18-2242-79f0-b33d-a4bcbaf1d870"",""projectId"":""0198b9d0-29d4-7df3-8625-4b4515841beb""}","https://test12345.live/?num_scrambled_semantic=8&num_scrambled_causal=4&num_scrambled_schematic=4&participantId=DCB961DAEA8847BEBD37E0617649AF65&assignmentId=0198ba18-2242-79f0-b33d-a4bcbaf1d870&projectId=0198b9d0-29d4-7df3-8625-4b4515841beb","DCB961DAEA8847BEBD37E0617649AF65-2025-08-17-22-49-56","","null","","images/semantic_sequence/redecorating_semantic/redecorating_semantic_6.png","null","",""
"","","","","","image-button-response","99","628555","0.0-14.0-1.0-1.2","DCB961DAEA8847BEBD37E0617649AF65","DCB961DAEA8847BEBD37E0617649AF65","0198ba18-2242-79f0-b33d-a4bcbaf1d870","0198b9d0-29d4-7df3-8625-4b4515841beb","{""num_scrambled_semantic"":""8"",""num_scrambled_causal"":""4"",""num_scrambled_schematic"":""4"",""participantId"":""DCB961DAEA8847BEBD37E0617649AF65"",""assignmentId"":""0198ba18-2242-79f0-b33d-a4bcbaf1d870"",""projectId"":""0198b9d0-29d4-7df3-8625-4b4515841beb""}","https://test12345.live/?num_scrambled_semantic=8&num_scrambled_causal=4&num_scrambled_schematic=4&participantId=DCB961DAEA8847BEBD37E0617649AF65&assignmentId=0198ba18-2242-79f0-b33d-a4bcbaf1d870&projectId=0198b9d0-29d4-7df3-8625-4b4515841beb","DCB961DAEA8847BEBD37E0617649AF65-2025-08-17-22-49-56","","613","","images/semantic_sequence/redecorating_semantic/redecorating_semantic_6.png","0","",""
"","","","","","image-button-response","100","633956","0.0-14.0-1.0-2.2","DCB961DAEA8847BEBD37E0617649AF65","DCB961DAEA8847BEBD37E0617649AF65","0198ba18-2242-79f0-b33d-a4bcbaf1d870","0198b9d0-29d4-7df3-8625-4b4515841beb","{""num_scrambled_semantic"":""8"",""num_scrambled_causal"":""4"",""num_scrambled_schematic"":""4"",""participantId"":""DCB961DAEA8847BEBD37E0617649AF65"",""assignmentId"":""0198ba18-2242-79f0-b33d-a4bcbaf1d870"",""projectId"":""0198b9d0-29d4-7df3-8625-4b4515841beb""}","https://test12345.live/?num_scrambled_semantic=8&num_scrambled_causal=4&num_scrambled_schematic=4&participantId=DCB961DAEA8847BEBD37E0617649AF65&assignmentId=0198ba18-2242-79f0-b33d-a4bcbaf1d870&projectId=0198b9d0-29d4-7df3-8625-4b4515841beb","DCB961DAEA8847BEBD37E0617649AF65-2025-08-17-22-49-56","","null","","[]","null","",""
"","","","","","image-button-response","101","638473","0.0-14.0-1.0-0.3","DCB961DAEA8847BEBD37E0617649AF65","DCB961DAEA8847BEBD37E0617649AF65","0198ba18-2242-79f0-b33d-a4bcbaf1d870","0198b9d0-29d4-7df3-8625-4b4515841beb","{""num_scrambled_semantic"":""8"",""num_scrambled_causal"":""4"",""num_scrambled_schematic"":""4"",""participantId"":""DCB961DAEA8847BEBD37E0617649AF65"",""assignmentId"":""0198ba18-2242-79f0-b33d-a4bcbaf1d870"",""projectId"":""0198b9d0-29d4-7df3-8625-4b4515841beb""}","https://test12345.live/?num_scrambled_semantic=8&num_scrambled_causal=4&num_scrambled_schematic=4&participantId=DCB961DAEA8847BEBD37E0617649AF65&assignmentId=0198ba18-2242-79f0-b33d-a4bcbaf1d870&projectId=0198b9d0-29d4-7df3-8625-4b4515841beb","DCB961DAEA8847BEBD37E0617649AF65-2025-08-17-22-49-56","","null","","images/semantic_sequence/redecorating_semantic/redecorating_semantic_4.png","null","",""
"","","","","","image-button-response","102","639104","0.0-14.0-1.0-1.3","DCB961DAEA8847BEBD37E0617649AF65","DCB961DAEA8847BEBD37E0617649AF65","0198ba18-2242-79f0-b33d-a4bcbaf1d870","0198b9d0-29d4-7df3-8625-4b4515841beb","{""num_scrambled_semantic"":""8"",""num_scrambled_causal"":""4"",""num_scrambled_schematic"":""4"",""participantId"":""DCB961DAEA8847BEBD37E0617649AF65"",""assignmentId"":""0198ba18-2242-79f0-b33d-a4bcbaf1d870"",""projectId"":""0198b9d0-29d4-7df3-8625-4b4515841beb""}","https://test12345.live/?num_scrambled_semantic=8&num_scrambled_causal=4&num_scrambled_schematic=4&participantId=DCB961DAEA8847BEBD37E0617649AF65&assignmentId=0198ba18-2242-79f0-b33d-a4bcbaf1d870&projectId=0198b9d0-29d4-7df3-8625-4b4515841beb","DCB961DAEA8847BEBD37E0617649AF65-2025-08-17-22-49-56","","629","","images/semantic_sequence/redecorating_semantic/redecorating_semantic_4.png","0","",""
"","","","","","image-button-response","103","644506","0.0-14.0-1.0-2.3","DCB961DAEA8847BEBD37E0617649AF65","DCB961DAEA8847BEBD37E0617649AF65","0198ba18-2242-79f0-b33d-a4bcbaf1d870","0198b9d0-29d4-7df3-8625-4b4515841beb","{""num_scrambled_semantic"":""8"",""num_scrambled_causal"":""4"",""num_scrambled_schematic"":""4"",""participantId"":""DCB961DAEA8847BEBD37E0617649AF65"",""assignmentId"":""0198ba18-2242-79f0-b33d-a4bcbaf1d870"",""projectId"":""0198b9d0-29d4-7df3-8625-4b4515841beb""}","https://test12345.live/?num_scrambled_semantic=8&num_scrambled_causal=4&num_scrambled_schematic=4&participantId=DCB961DAEA8847BEBD37E0617649AF65&assignmentId=0198ba18-2242-79f0-b33d-a4bcbaf1d870&projectId=0198b9d0-29d4-7df3-8625-4b4515841beb","DCB961DAEA8847BEBD37E0617649AF65-2025-08-17-22-49-56","","null","","[]","null","",""
"","","","","","image-button-response","104","649023","0.0-14.0-1.0-0.4","DCB961DAEA8847BEBD37E0617649AF65","DCB961DAEA8847BEBD37E0617649AF65","0198ba18-2242-79f0-b33d-a4bcbaf1d870","0198b9d0-29d4-7df3-8625-4b4515841beb","{""num_scrambled_semantic"":""8"",""num_scrambled_causal"":""4"",""num_scrambled_schematic"":""4"",""participantId"":""DCB961DAEA8847BEBD37E0617649AF65"",""assignmentId"":""0198ba18-2242-79f0-b33d-a4bcbaf1d870"",""projectId"":""0198b9d0-29d4-7df3-8625-4b4515841beb""}","https://test12345.live/?num_scrambled_semantic=8&num_scrambled_causal=4&num_scrambled_schematic=4&participantId=DCB961DAEA8847BEBD37E0617649AF65&assignmentId=0198ba18-2242-79f0-b33d-a4bcbaf1d870&projectId=0198b9d0-29d4-7df3-8625-4b4515841beb","DCB961DAEA8847BEBD37E0617649AF65-2025-08-17-22-49-56","","null","","images/semantic_sequence/redecorating_semantic/redecorating_semantic_5.png","null","",""
"","","","","","image-button-response","105","649671","0.0-14.0-1.0-1.4","DCB961DAEA8847BEBD37E0617649AF65","DCB961DAEA8847BEBD37E0617649AF65","0198ba18-2242-79f0-b33d-a4bcbaf1d870","0198b9d0-29d4-7df3-8625-4b4515841beb","{""num_scrambled_semantic"":""8"",""num_scrambled_causal"":""4"",""num_scrambled_schematic"":""4"",""participantId"":""DCB961DAEA8847BEBD37E0617649AF65"",""assignmentId"":""0198ba18-2242-79f0-b33d-a4bcbaf1d870"",""projectId"":""0198b9d0-29d4-7df3-8625-4b4515841beb""}","https://test12345.live/?num_scrambled_semantic=8&num_scrambled_causal=4&num_scrambled_schematic=4&participantId=DCB961DAEA8847BEBD37E0617649AF65&assignmentId=0198ba18-2242-79f0-b33d-a4bcbaf1d870&projectId=0198b9d0-29d4-7df3-8625-4b4515841beb","DCB961DAEA8847BEBD37E0617649AF65-2025-08-17-22-49-56","","647","","images/semantic_sequence/redecorating_semantic/redecorating_semantic_5.png","0","",""
"","","","","","image-button-response","106","655073","0.0-14.0-1.0-2.4","DCB961DAEA8847BEBD37E0617649AF65","DCB961DAEA8847BEBD37E0617649AF65","0198ba18-2242-79f0-b33d-a4bcbaf1d870","0198b9d0-29d4-7df3-8625-4b4515841beb","{""num_scrambled_semantic"":""8"",""num_scrambled_causal"":""4"",""num_scrambled_schematic"":""4"",""participantId"":""DCB961DAEA8847BEBD37E0617649AF65"",""assignmentId"":""0198ba18-2242-79f0-b33d-a4bcbaf1d870"",""projectId"":""0198b9d0-29d4-7df3-8625-4b4515841beb""}","https://test12345.live/?num_scrambled_semantic=8&num_scrambled_causal=4&num_scrambled_schematic=4&participantId=DCB961DAEA8847BEBD37E0617649AF65&assignmentId=0198ba18-2242-79f0-b33d-a4bcbaf1d870&projectId=0198b9d0-29d4-7df3-8625-4b4515841beb","DCB961DAEA8847BEBD37E0617649AF65-2025-08-17-22-49-56","","null","","[]","null","",""
"","","","","","image-button-response","107","659589","0.0-14.0-1.0-0.5","DCB961DAEA8847BEBD37E0617649AF65","DCB961DAEA8847BEBD37E0617649AF65","0198ba18-2242-79f0-b33d-a4bcbaf1d870","0198b9d0-29d4-7df3-8625-4b4515841beb","{""num_scrambled_semantic"":""8"",""num_scrambled_causal"":""4"",""num_scrambled_schematic"":""4"",""participantId"":""DCB961DAEA8847BEBD37E0617649AF65"",""assignmentId"":""0198ba18-2242-79f0-b33d-a4bcbaf1d870"",""projectId"":""0198b9d0-29d4-7df3-8625-4b4515841beb""}","https://test12345.live/?num_scrambled_semantic=8&num_scrambled_causal=4&num_scrambled_schematic=4&participantId=DCB961DAEA8847BEBD37E0617649AF65&assignmentId=0198ba18-2242-79f0-b33d-a4bcbaf1d870&projectId=0198b9d0-29d4-7df3-8625-4b4515841beb","DCB961DAEA8847BEBD37E0617649AF65-2025-08-17-22-49-56","","null","","images/semantic_sequence/redecorating_semantic/redecorating_semantic_1.png","null","",""
"","","","","","image-button-response","108","660287","0.0-14.0-1.0-1.5","DCB961DAEA8847BEBD37E0617649AF65","DCB961DAEA8847BEBD37E0617649AF65","0198ba18-2242-79f0-b33d-a4bcbaf1d870","0198b9d0-29d4-7df3-8625-4b4515841beb","{""num_scrambled_semantic"":""8"",""num_scrambled_causal"":""4"",""num_scrambled_schematic"":""4"",""participantId"":""DCB961DAEA8847BEBD37E0617649AF65"",""assignmentId"":""0198ba18-2242-79f0-b33d-a4bcbaf1d870"",""projectId"":""0198b9d0-29d4-7df3-8625-4b4515841beb""}","https://test12345.live/?num_scrambled_semantic=8&num_scrambled_causal=4&num_scrambled_schematic=4&participantId=DCB961DAEA8847BEBD37E0617649AF65&assignmentId=0198ba18-2242-79f0-b33d-a4bcbaf1d870&projectId=0198b9d0-29d4-7df3-8625-4b4515841beb","DCB961DAEA8847BEBD37E0617649AF65-2025-08-17-22-49-56","","697","","images/semantic_sequence/redecorating_semantic/redecorating_semantic_1.png","0","",""
"","","","","","image-button-response","109","665688","0.0-14.0-1.0-2.5","DCB961DAEA8847BEBD37E0617649AF65","DCB961DAEA8847BEBD37E0617649AF65","0198ba18-2242-79f0-b33d-a4bcbaf1d870","0198b9d0-29d4-7df3-8625-4b4515841beb","{""num_scrambled_semantic"":""8"",""num_scrambled_causal"":""4"",""num_scrambled_schematic"":""4"",""participantId"":""DCB961DAEA8847BEBD37E0617649AF65"",""assignmentId"":""0198ba18-2242-79f0-b33d-a4bcbaf1d870"",""projectId"":""0198b9d0-29d4-7df3-8625-4b4515841beb""}","https://test12345.live/?num_scrambled_semantic=8&num_scrambled_causal=4&num_scrambled_schematic=4&participantId=DCB961DAEA8847BEBD37E0617649AF65&assignmentId=0198ba18-2242-79f0-b33d-a4bcbaf1d870&projectId=0198b9d0-29d4-7df3-8625-4b4515841beb","DCB961DAEA8847BEBD37E0617649AF65-2025-08-17-22-49-56","","null","","[]","null","",""
"","","","","","image-button-response","110","670206","0.0-14.0-1.0-0.6","DCB961DAEA8847BEBD37E0617649AF65","DCB961DAEA8847BEBD37E0617649AF65","0198ba18-2242-79f0-b33d-a4bcbaf1d870","0198b9d0-29d4-7df3-8625-4b4515841beb","{""num_scrambled_semantic"":""8"",""num_scrambled_causal"":""4"",""num_scrambled_schematic"":""4"",""participantId"":""DCB961DAEA8847BEBD37E0617649AF65"",""assignmentId"":""0198ba18-2242-79f0-b33d-a4bcbaf1d870"",""projectId"":""0198b9d0-29d4-7df3-8625-4b4515841beb""}","https://test12345.live/?num_scrambled_semantic=8&num_scrambled_causal=4&num_scrambled_schematic=4&participantId=DCB961DAEA8847BEBD37E0617649AF65&assignmentId=0198ba18-2242-79f0-b33d-a4bcbaf1d870&projectId=0198b9d0-29d4-7df3-8625-4b4515841beb","DCB961DAEA8847BEBD37E0617649AF65-2025-08-17-22-49-56","","null","","images/semantic_sequence/redecorating_semantic/redecorating_semantic_9.png","null","",""
"","","","","","image-button-response","111","670719","0.0-14.0-1.0-1.6","DCB961DAEA8847BEBD37E0617649AF65","DCB961DAEA8847BEBD37E0617649AF65","0198ba18-2242-79f0-b33d-a4bcbaf1d870","0198b9d0-29d4-7df3-8625-4b4515841beb","{""num_scrambled_semantic"":""8"",""num_scrambled_causal"":""4"",""num_scrambled_schematic"":""4"",""participantId"":""DCB961DAEA8847BEBD37E0617649AF65"",""assignmentId"":""0198ba18-2242-79f0-b33d-a4bcbaf1d870"",""projectId"":""0198b9d0-29d4-7df3-8625-4b4515841beb""}","https://test12345.live/?num_scrambled_semantic=8&num_scrambled_causal=4&num_scrambled_schematic=4&participantId=DCB961DAEA8847BEBD37E0617649AF65&assignmentId=0198ba18-2242-79f0-b33d-a4bcbaf1d870&projectId=0198b9d0-29d4-7df3-8625-4b4515841beb","DCB961DAEA8847BEBD37E0617649AF65-2025-08-17-22-49-56","","512","","images/semantic_sequence/redecorating_semantic/redecorating_semantic_9.png","0","",""
"","","","","","image-button-response","112","676121","0.0-14.0-1.0-2.6","DCB961DAEA8847BEBD37E0617649AF65","DCB961DAEA8847BEBD37E0617649AF65","0198ba18-2242-79f0-b33d-a4bcbaf1d870","0198b9d0-29d4-7df3-8625-4b4515841beb","{""num_scrambled_semantic"":""8"",""num_scrambled_causal"":""4"",""num_scrambled_schematic"":""4"",""participantId"":""DCB961DAEA8847BEBD37E0617649AF65"",""assignmentId"":""0198ba18-2242-79f0-b33d-a4bcbaf1d870"",""projectId"":""0198b9d0-29d4-7df3-8625-4b4515841beb""}","https://test12345.live/?num_scrambled_semantic=8&num_scrambled_causal=4&num_scrambled_schematic=4&participantId=DCB961DAEA8847BEBD37E0617649AF65&assignmentId=0198ba18-2242-79f0-b33d-a4bcbaf1d870&projectId=0198b9d0-29d4-7df3-8625-4b4515841beb","DCB961DAEA8847BEBD37E0617649AF65-2025-08-17-22-49-56","","null","","[]","null","",""
"","","","","","image-button-response","113","680640","0.0-14.0-1.0-0.7","DCB961DAEA8847BEBD37E0617649AF65","DCB961DAEA8847BEBD37E0617649AF65","0198ba18-2242-79f0-b33d-a4bcbaf1d870","0198b9d0-29d4-7df3-8625-4b4515841beb","{""num_scrambled_semantic"":""8"",""num_scrambled_causal"":""4"",""num_scrambled_schematic"":""4"",""participantId"":""DCB961DAEA8847BEBD37E0617649AF65"",""assignmentId"":""0198ba18-2242-79f0-b33d-a4bcbaf1d870"",""projectId"":""0198b9d0-29d4-7df3-8625-4b4515841beb""}","https://test12345.live/?num_scrambled_semantic=8&num_scrambled_causal=4&num_scrambled_schematic=4&participantId=DCB961DAEA8847BEBD37E0617649AF65&assignmentId=0198ba18-2242-79f0-b33d-a4bcbaf1d870&projectId=0198b9d0-29d4-7df3-8625-4b4515841beb","DCB961DAEA8847BEBD37E0617649AF65-2025-08-17-22-49-56","","null","","images/semantic_sequence/redecorating_semantic/redecorating_semantic_2.png","null","",""
