"success","timeout","failed_images","failed_audio","failed_video","trial_type","trial_index","time_elapsed","internal_node_id","subject","subject_id","study_id","session_id","urlvar","current_url","audio_id","view_history","rt","device_id","stimulus","response","estimated_stimulus_onset","seq_name"
"true","false","[]","[]","[]","preload","0","13911","0.0-0.0","DDC6F13BCC9843248E56210F2FF52DD3","DDC6F13BCC9843248E56210F2FF52DD3","05cd2574-8cef-4e54-ac3f-f63e2e5cae41","9076ac92-be42-43a2-9634-8b67c7fe93a7","{""num_scrambled_semantic"":""8"",""num_scrambled_causal"":""4"",""num_scrambled_schematic"":""4"",""participantId"":""DDC6F13BCC9843248E56210F2FF52DD3"",""assignmentId"":""05cd2574-8cef-4e54-ac3f-f63e2e5cae41"",""projectId"":""9076ac92-be42-43a2-9634-8b67c7fe93a7""}","https://test12345.live/?num_scrambled_semantic=8&num_scrambled_causal=4&num_scrambled_schematic=4&participantId=DDC6F13BCC9843248E56210F2FF52DD3&assignmentId=05cd2574-8cef-4e54-ac3f-f63e2e5cae41&projectId=9076ac92-be42-43a2-9634-8b67c7fe93a7","DDC6F13BCC9843248E56210F2FF52DD3-2025-05-22-19-30-22","","","","","","",""
"","","","","","instructions","1","321828","0.0-1.0","DDC6F13BCC9843248E56210F2FF52DD3","DDC6F13BCC9843248E56210F2FF52DD3","05cd2574-8cef-4e54-ac3f-f63e2e5cae41","9076ac92-be42-43a2-9634-8b67c7fe93a7","{""num_scrambled_semantic"":""8"",""num_scrambled_causal"":""4"",""num_scrambled_schematic"":""4"",""participantId"":""DDC6F13BCC9843248E56210F2FF52DD3"",""assignmentId"":""05cd2574-8cef-4e54-ac3f-f63e2e5cae41"",""projectId"":""9076ac92-be42-43a2-9634-8b67c7fe93a7""}","https://test12345.live/?num_scrambled_semantic=8&num_scrambled_causal=4&num_scrambled_schematic=4&participantId=DDC6F13BCC9843248E56210F2FF52DD3&assignmentId=05cd2574-8cef-4e54-ac3f-f63e2e5cae41&projectId=9076ac92-be42-43a2-9634-8b67c7fe93a7","DDC6F13BCC9843248E56210F2FF52DD3-2025-05-22-19-30-22","[{""page_index"":0,""viewing_time"":307917}]","307917","","","","",""
"","","","","","instructions","2","334679","0.0-2.0","DDC6F13BCC9843248E56210F2FF52DD3","DDC6F13BCC9843248E56210F2FF52DD3","05cd2574-8cef-4e54-ac3f-f63e2e5cae41","9076ac92-be42-43a2-9634-8b67c7fe93a7","{""num_scrambled_semantic"":""8"",""num_scrambled_causal"":""4"",""num_scrambled_schematic"":""4"",""participantId"":""DDC6F13BCC9843248E56210F2FF52DD3"",""assignmentId"":""05cd2574-8cef-4e54-ac3f-f63e2e5cae41"",""projectId"":""9076ac92-be42-43a2-9634-8b67c7fe93a7""}","https://test12345.live/?num_scrambled_semantic=8&num_scrambled_causal=4&num_scrambled_schematic=4&participantId=DDC6F13BCC9843248E56210F2FF52DD3&assignmentId=05cd2574-8cef-4e54-ac3f-f63e2e5cae41&projectId=9076ac92-be42-43a2-9634-8b67c7fe93a7","DDC6F13BCC9843248E56210F2FF52DD3-2025-05-22-19-30-22","[{""page_index"":0,""viewing_time"":12850}]","12850","","","","",""
"true","","","","","fullscreen","3","351209","0.0-3.0","DDC6F13BCC9843248E56210F2FF52DD3","DDC6F13BCC9843248E56210F2FF52DD3","05cd2574-8cef-4e54-ac3f-f63e2e5cae41","9076ac92-be42-43a2-9634-8b67c7fe93a7","{""num_scrambled_semantic"":""8"",""num_scrambled_causal"":""4"",""num_scrambled_schematic"":""4"",""participantId"":""DDC6F13BCC9843248E56210F2FF52DD3"",""assignmentId"":""05cd2574-8cef-4e54-ac3f-f63e2e5cae41"",""projectId"":""9076ac92-be42-43a2-9634-8b67c7fe93a7""}","https://test12345.live/?num_scrambled_semantic=8&num_scrambled_causal=4&num_scrambled_schematic=4&participantId=DDC6F13BCC9843248E56210F2FF52DD3&assignmentId=05cd2574-8cef-4e54-ac3f-f63e2e5cae41&projectId=9076ac92-be42-43a2-9634-8b67c7fe93a7","DDC6F13BCC9843248E56210F2FF52DD3-2025-05-22-19-30-22","","15520","","","","",""
"","","","","","initialize-microphone","4","377691","0.0-4.0-0.0","DDC6F13BCC9843248E56210F2FF52DD3","DDC6F13BCC9843248E56210F2FF52DD3","05cd2574-8cef-4e54-ac3f-f63e2e5cae41","9076ac92-be42-43a2-9634-8b67c7fe93a7","{""num_scrambled_semantic"":""8"",""num_scrambled_causal"":""4"",""num_scrambled_schematic"":""4"",""participantId"":""DDC6F13BCC9843248E56210F2FF52DD3"",""assignmentId"":""05cd2574-8cef-4e54-ac3f-f63e2e5cae41"",""projectId"":""9076ac92-be42-43a2-9634-8b67c7fe93a7""}","https://test12345.live/?num_scrambled_semantic=8&num_scrambled_causal=4&num_scrambled_schematic=4&participantId=DDC6F13BCC9843248E56210F2FF52DD3&assignmentId=05cd2574-8cef-4e54-ac3f-f63e2e5cae41&projectId=9076ac92-be42-43a2-9634-8b67c7fe93a7","DDC6F13BCC9843248E56210F2FF52DD3-2025-05-22-19-30-22","","","88ef3800d20531127133a13558698124633e489f54721891937f9242eac31f2b","","","",""
"","","","","","html-audio-response","5","484917","0.0-4.0-1.0","DDC6F13BCC9843248E56210F2FF52DD3","DDC6F13BCC9843248E56210F2FF52DD3","05cd2574-8cef-4e54-ac3f-f63e2e5cae41","9076ac92-be42-43a2-9634-8b67c7fe93a7","{""num_scrambled_semantic"":""8"",""num_scrambled_causal"":""4"",""num_scrambled_schematic"":""4"",""participantId"":""DDC6F13BCC9843248E56210F2FF52DD3"",""assignmentId"":""05cd2574-8cef-4e54-ac3f-f63e2e5cae41"",""projectId"":""9076ac92-be42-43a2-9634-8b67c7fe93a7""}","https://test12345.live/?num_scrambled_semantic=8&num_scrambled_causal=4&num_scrambled_schematic=4&participantId=DDC6F13BCC9843248E56210F2FF52DD3&assignmentId=05cd2574-8cef-4e54-ac3f-f63e2e5cae41&projectId=9076ac92-be42-43a2-9634-8b67c7fe93a7","DDC6F13BCC9843248E56210F2FF52DD3-2025-05-22-19-30-22","","1649","","<span style=""color: red; font-size: 24px""> NOW RECORDING</span>
        <p>Please test Microphone</p>","","1",""
"","","","","","html-button-response","6","486813","0.0-4.0-2.0","DDC6F13BCC9843248E56210F2FF52DD3","DDC6F13BCC9843248E56210F2FF52DD3","05cd2574-8cef-4e54-ac3f-f63e2e5cae41","9076ac92-be42-43a2-9634-8b67c7fe93a7","{""num_scrambled_semantic"":""8"",""num_scrambled_causal"":""4"",""num_scrambled_schematic"":""4"",""participantId"":""DDC6F13BCC9843248E56210F2FF52DD3"",""assignmentId"":""05cd2574-8cef-4e54-ac3f-f63e2e5cae41"",""projectId"":""9076ac92-be42-43a2-9634-8b67c7fe93a7""}","https://test12345.live/?num_scrambled_semantic=8&num_scrambled_causal=4&num_scrambled_schematic=4&participantId=DDC6F13BCC9843248E56210F2FF52DD3&assignmentId=05cd2574-8cef-4e54-ac3f-f63e2e5cae41&projectId=9076ac92-be42-43a2-9634-8b67c7fe93a7","DDC6F13BCC9843248E56210F2FF52DD3-2025-05-22-19-30-22","","1894","","<p style=""font-size:48px; color:red;"">Is Microphone OK?</p>","1","",""
"","","","","","instructions","7","497751","0.0-5.0","DDC6F13BCC9843248E56210F2FF52DD3","DDC6F13BCC9843248E56210F2FF52DD3","05cd2574-8cef-4e54-ac3f-f63e2e5cae41","9076ac92-be42-43a2-9634-8b67c7fe93a7","{""num_scrambled_semantic"":""8"",""num_scrambled_causal"":""4"",""num_scrambled_schematic"":""4"",""participantId"":""DDC6F13BCC9843248E56210F2FF52DD3"",""assignmentId"":""05cd2574-8cef-4e54-ac3f-f63e2e5cae41"",""projectId"":""9076ac92-be42-43a2-9634-8b67c7fe93a7""}","https://test12345.live/?num_scrambled_semantic=8&num_scrambled_causal=4&num_scrambled_schematic=4&participantId=DDC6F13BCC9843248E56210F2FF52DD3&assignmentId=05cd2574-8cef-4e54-ac3f-f63e2e5cae41&projectId=9076ac92-be42-43a2-9634-8b67c7fe93a7","DDC6F13BCC9843248E56210F2FF52DD3-2025-05-22-19-30-22","[{""page_index"":0,""viewing_time"":5676},{""page_index"":1,""viewing_time"":5262}]","10938","","","","",""
"","","","","","image-button-response","8","503764","0.0-6.0-0.0","DDC6F13BCC9843248E56210F2FF52DD3","DDC6F13BCC9843248E56210F2FF52DD3","05cd2574-8cef-4e54-ac3f-f63e2e5cae41","9076ac92-be42-43a2-9634-8b67c7fe93a7","{""num_scrambled_semantic"":""8"",""num_scrambled_causal"":""4"",""num_scrambled_schematic"":""4"",""participantId"":""DDC6F13BCC9843248E56210F2FF52DD3"",""assignmentId"":""05cd2574-8cef-4e54-ac3f-f63e2e5cae41"",""projectId"":""9076ac92-be42-43a2-9634-8b67c7fe93a7""}","https://test12345.live/?num_scrambled_semantic=8&num_scrambled_causal=4&num_scrambled_schematic=4&participantId=DDC6F13BCC9843248E56210F2FF52DD3&assignmentId=05cd2574-8cef-4e54-ac3f-f63e2e5cae41&projectId=9076ac92-be42-43a2-9634-8b67c7fe93a7","DDC6F13BCC9843248E56210F2FF52DD3-2025-05-22-19-30-22","","null","","images/instructions/movie_0.png","null","",""
"","","","","","image-button-response","9","508269","0.0-6.0-1.0-0.0","DDC6F13BCC9843248E56210F2FF52DD3","DDC6F13BCC9843248E56210F2FF52DD3","05cd2574-8cef-4e54-ac3f-f63e2e5cae41","9076ac92-be42-43a2-9634-8b67c7fe93a7","{""num_scrambled_semantic"":""8"",""num_scrambled_causal"":""4"",""num_scrambled_schematic"":""4"",""participantId"":""DDC6F13BCC9843248E56210F2FF52DD3"",""assignmentId"":""05cd2574-8cef-4e54-ac3f-f63e2e5cae41"",""projectId"":""9076ac92-be42-43a2-9634-8b67c7fe93a7""}","https://test12345.live/?num_scrambled_semantic=8&num_scrambled_causal=4&num_scrambled_schematic=4&participantId=DDC6F13BCC9843248E56210F2FF52DD3&assignmentId=05cd2574-8cef-4e54-ac3f-f63e2e5cae41&projectId=9076ac92-be42-43a2-9634-8b67c7fe93a7","DDC6F13BCC9843248E56210F2FF52DD3-2025-05-22-19-30-22","","null","","images/instructions/movie_1.png","null","",""
"","","","","","image-button-response","10","512272","0.0-6.0-1.0-1.0","DDC6F13BCC9843248E56210F2FF52DD3","DDC6F13BCC9843248E56210F2FF52DD3","05cd2574-8cef-4e54-ac3f-f63e2e5cae41","9076ac92-be42-43a2-9634-8b67c7fe93a7","{""num_scrambled_semantic"":""8"",""num_scrambled_causal"":""4"",""num_scrambled_schematic"":""4"",""participantId"":""DDC6F13BCC9843248E56210F2FF52DD3"",""assignmentId"":""05cd2574-8cef-4e54-ac3f-f63e2e5cae41"",""projectId"":""9076ac92-be42-43a2-9634-8b67c7fe93a7""}","https://test12345.live/?num_scrambled_semantic=8&num_scrambled_causal=4&num_scrambled_schematic=4&participantId=DDC6F13BCC9843248E56210F2FF52DD3&assignmentId=05cd2574-8cef-4e54-ac3f-f63e2e5cae41&projectId=9076ac92-be42-43a2-9634-8b67c7fe93a7","DDC6F13BCC9843248E56210F2FF52DD3-2025-05-22-19-30-22","","null","","images/instructions/movie_1.png","null","",""
"","","","","","image-button-response","11","514080","0.0-6.0-1.0-2.0","DDC6F13BCC9843248E56210F2FF52DD3","DDC6F13BCC9843248E56210F2FF52DD3","05cd2574-8cef-4e54-ac3f-f63e2e5cae41","9076ac92-be42-43a2-9634-8b67c7fe93a7","{""num_scrambled_semantic"":""8"",""num_scrambled_causal"":""4"",""num_scrambled_schematic"":""4"",""participantId"":""DDC6F13BCC9843248E56210F2FF52DD3"",""assignmentId"":""05cd2574-8cef-4e54-ac3f-f63e2e5cae41"",""projectId"":""9076ac92-be42-43a2-9634-8b67c7fe93a7""}","https://test12345.live/?num_scrambled_semantic=8&num_scrambled_causal=4&num_scrambled_schematic=4&participantId=DDC6F13BCC9843248E56210F2FF52DD3&assignmentId=05cd2574-8cef-4e54-ac3f-f63e2e5cae41&projectId=9076ac92-be42-43a2-9634-8b67c7fe93a7","DDC6F13BCC9843248E56210F2FF52DD3-2025-05-22-19-30-22","","null","","[]","null","",""
"","","","","","image-button-response","12","518583","0.0-6.0-1.0-0.1","DDC6F13BCC9843248E56210F2FF52DD3","DDC6F13BCC9843248E56210F2FF52DD3","05cd2574-8cef-4e54-ac3f-f63e2e5cae41","9076ac92-be42-43a2-9634-8b67c7fe93a7","{""num_scrambled_semantic"":""8"",""num_scrambled_causal"":""4"",""num_scrambled_schematic"":""4"",""participantId"":""DDC6F13BCC9843248E56210F2FF52DD3"",""assignmentId"":""05cd2574-8cef-4e54-ac3f-f63e2e5cae41"",""projectId"":""9076ac92-be42-43a2-9634-8b67c7fe93a7""}","https://test12345.live/?num_scrambled_semantic=8&num_scrambled_causal=4&num_scrambled_schematic=4&participantId=DDC6F13BCC9843248E56210F2FF52DD3&assignmentId=05cd2574-8cef-4e54-ac3f-f63e2e5cae41&projectId=9076ac92-be42-43a2-9634-8b67c7fe93a7","DDC6F13BCC9843248E56210F2FF52DD3-2025-05-22-19-30-22","","null","","images/instructions/movie_2.png","null","",""
"","","","","","image-button-response","13","520927","0.0-6.0-1.0-1.1","DDC6F13BCC9843248E56210F2FF52DD3","DDC6F13BCC9843248E56210F2FF52DD3","05cd2574-8cef-4e54-ac3f-f63e2e5cae41","9076ac92-be42-43a2-9634-8b67c7fe93a7","{""num_scrambled_semantic"":""8"",""num_scrambled_causal"":""4"",""num_scrambled_schematic"":""4"",""participantId"":""DDC6F13BCC9843248E56210F2FF52DD3"",""assignmentId"":""05cd2574-8cef-4e54-ac3f-f63e2e5cae41"",""projectId"":""9076ac92-be42-43a2-9634-8b67c7fe93a7""}","https://test12345.live/?num_scrambled_semantic=8&num_scrambled_causal=4&num_scrambled_schematic=4&participantId=DDC6F13BCC9843248E56210F2FF52DD3&assignmentId=05cd2574-8cef-4e54-ac3f-f63e2e5cae41&projectId=9076ac92-be42-43a2-9634-8b67c7fe93a7","DDC6F13BCC9843248E56210F2FF52DD3-2025-05-22-19-30-22","","2342","","images/instructions/movie_2.png","1","",""
"","","","","","image-button-response","14","522728","0.0-6.0-1.0-2.1","DDC6F13BCC9843248E56210F2FF52DD3","DDC6F13BCC9843248E56210F2FF52DD3","05cd2574-8cef-4e54-ac3f-f63e2e5cae41","9076ac92-be42-43a2-9634-8b67c7fe93a7","{""num_scrambled_semantic"":""8"",""num_scrambled_causal"":""4"",""num_scrambled_schematic"":""4"",""participantId"":""DDC6F13BCC9843248E56210F2FF52DD3"",""assignmentId"":""05cd2574-8cef-4e54-ac3f-f63e2e5cae41"",""projectId"":""9076ac92-be42-43a2-9634-8b67c7fe93a7""}","https://test12345.live/?num_scrambled_semantic=8&num_scrambled_causal=4&num_scrambled_schematic=4&participantId=DDC6F13BCC9843248E56210F2FF52DD3&assignmentId=05cd2574-8cef-4e54-ac3f-f63e2e5cae41&projectId=9076ac92-be42-43a2-9634-8b67c7fe93a7","DDC6F13BCC9843248E56210F2FF52DD3-2025-05-22-19-30-22","","null","","[]","null","",""
"","","","","","image-button-response","15","527233","0.0-6.0-1.0-0.2","DDC6F13BCC9843248E56210F2FF52DD3","DDC6F13BCC9843248E56210F2FF52DD3","05cd2574-8cef-4e54-ac3f-f63e2e5cae41","9076ac92-be42-43a2-9634-8b67c7fe93a7","{""num_scrambled_semantic"":""8"",""num_scrambled_causal"":""4"",""num_scrambled_schematic"":""4"",""participantId"":""DDC6F13BCC9843248E56210F2FF52DD3"",""assignmentId"":""05cd2574-8cef-4e54-ac3f-f63e2e5cae41"",""projectId"":""9076ac92-be42-43a2-9634-8b67c7fe93a7""}","https://test12345.live/?num_scrambled_semantic=8&num_scrambled_causal=4&num_scrambled_schematic=4&participantId=DDC6F13BCC9843248E56210F2FF52DD3&assignmentId=05cd2574-8cef-4e54-ac3f-f63e2e5cae41&projectId=9076ac92-be42-43a2-9634-8b67c7fe93a7","DDC6F13BCC9843248E56210F2FF52DD3-2025-05-22-19-30-22","","null","","images/instructions/movie_3.png","null","",""
"","","","","","image-button-response","16","528674","0.0-6.0-1.0-1.2","DDC6F13BCC9843248E56210F2FF52DD3","DDC6F13BCC9843248E56210F2FF52DD3","05cd2574-8cef-4e54-ac3f-f63e2e5cae41","9076ac92-be42-43a2-9634-8b67c7fe93a7","{""num_scrambled_semantic"":""8"",""num_scrambled_causal"":""4"",""num_scrambled_schematic"":""4"",""participantId"":""DDC6F13BCC9843248E56210F2FF52DD3"",""assignmentId"":""05cd2574-8cef-4e54-ac3f-f63e2e5cae41"",""projectId"":""9076ac92-be42-43a2-9634-8b67c7fe93a7""}","https://test12345.live/?num_scrambled_semantic=8&num_scrambled_causal=4&num_scrambled_schematic=4&participantId=DDC6F13BCC9843248E56210F2FF52DD3&assignmentId=05cd2574-8cef-4e54-ac3f-f63e2e5cae41&projectId=9076ac92-be42-43a2-9634-8b67c7fe93a7","DDC6F13BCC9843248E56210F2FF52DD3-2025-05-22-19-30-22","","1441","","images/instructions/movie_3.png","0","",""
"","","","","","image-button-response","17","530486","0.0-6.0-1.0-2.2","DDC6F13BCC9843248E56210F2FF52DD3","DDC6F13BCC9843248E56210F2FF52DD3","05cd2574-8cef-4e54-ac3f-f63e2e5cae41","9076ac92-be42-43a2-9634-8b67c7fe93a7","{""num_scrambled_semantic"":""8"",""num_scrambled_causal"":""4"",""num_scrambled_schematic"":""4"",""participantId"":""DDC6F13BCC9843248E56210F2FF52DD3"",""assignmentId"":""05cd2574-8cef-4e54-ac3f-f63e2e5cae41"",""projectId"":""9076ac92-be42-43a2-9634-8b67c7fe93a7""}","https://test12345.live/?num_scrambled_semantic=8&num_scrambled_causal=4&num_scrambled_schematic=4&participantId=DDC6F13BCC9843248E56210F2FF52DD3&assignmentId=05cd2574-8cef-4e54-ac3f-f63e2e5cae41&projectId=9076ac92-be42-43a2-9634-8b67c7fe93a7","DDC6F13BCC9843248E56210F2FF52DD3-2025-05-22-19-30-22","","null","","[]","null","",""
"","","","","","image-button-response","18","534990","0.0-6.0-1.0-0.3","DDC6F13BCC9843248E56210F2FF52DD3","DDC6F13BCC9843248E56210F2FF52DD3","05cd2574-8cef-4e54-ac3f-f63e2e5cae41","9076ac92-be42-43a2-9634-8b67c7fe93a7","{""num_scrambled_semantic"":""8"",""num_scrambled_causal"":""4"",""num_scrambled_schematic"":""4"",""participantId"":""DDC6F13BCC9843248E56210F2FF52DD3"",""assignmentId"":""05cd2574-8cef-4e54-ac3f-f63e2e5cae41"",""projectId"":""9076ac92-be42-43a2-9634-8b67c7fe93a7""}","https://test12345.live/?num_scrambled_semantic=8&num_scrambled_causal=4&num_scrambled_schematic=4&participantId=DDC6F13BCC9843248E56210F2FF52DD3&assignmentId=05cd2574-8cef-4e54-ac3f-f63e2e5cae41&projectId=9076ac92-be42-43a2-9634-8b67c7fe93a7","DDC6F13BCC9843248E56210F2FF52DD3-2025-05-22-19-30-22","","null","","images/instructions/movie_4.png","null","",""
"","","","","","image-button-response","19","536270","0.0-6.0-1.0-1.3","DDC6F13BCC9843248E56210F2FF52DD3","DDC6F13BCC9843248E56210F2FF52DD3","05cd2574-8cef-4e54-ac3f-f63e2e5cae41","9076ac92-be42-43a2-9634-8b67c7fe93a7","{""num_scrambled_semantic"":""8"",""num_scrambled_causal"":""4"",""num_scrambled_schematic"":""4"",""participantId"":""DDC6F13BCC9843248E56210F2FF52DD3"",""assignmentId"":""05cd2574-8cef-4e54-ac3f-f63e2e5cae41"",""projectId"":""9076ac92-be42-43a2-9634-8b67c7fe93a7""}","https://test12345.live/?num_scrambled_semantic=8&num_scrambled_causal=4&num_scrambled_schematic=4&participantId=DDC6F13BCC9843248E56210F2FF52DD3&assignmentId=05cd2574-8cef-4e54-ac3f-f63e2e5cae41&projectId=9076ac92-be42-43a2-9634-8b67c7fe93a7","DDC6F13BCC9843248E56210F2FF52DD3-2025-05-22-19-30-22","","1279","","images/instructions/movie_4.png","0","",""
"","","","","","image-button-response","20","538071","0.0-6.0-1.0-2.3","DDC6F13BCC9843248E56210F2FF52DD3","DDC6F13BCC9843248E56210F2FF52DD3","05cd2574-8cef-4e54-ac3f-f63e2e5cae41","9076ac92-be42-43a2-9634-8b67c7fe93a7","{""num_scrambled_semantic"":""8"",""num_scrambled_causal"":""4"",""num_scrambled_schematic"":""4"",""participantId"":""DDC6F13BCC9843248E56210F2FF52DD3"",""assignmentId"":""05cd2574-8cef-4e54-ac3f-f63e2e5cae41"",""projectId"":""9076ac92-be42-43a2-9634-8b67c7fe93a7""}","https://test12345.live/?num_scrambled_semantic=8&num_scrambled_causal=4&num_scrambled_schematic=4&participantId=DDC6F13BCC9843248E56210F2FF52DD3&assignmentId=05cd2574-8cef-4e54-ac3f-f63e2e5cae41&projectId=9076ac92-be42-43a2-9634-8b67c7fe93a7","DDC6F13BCC9843248E56210F2FF52DD3-2025-05-22-19-30-22","","null","","[]","null","",""
"","","","","","instructions","21","547898","0.0-7.0","DDC6F13BCC9843248E56210F2FF52DD3","DDC6F13BCC9843248E56210F2FF52DD3","05cd2574-8cef-4e54-ac3f-f63e2e5cae41","9076ac92-be42-43a2-9634-8b67c7fe93a7","{""num_scrambled_semantic"":""8"",""num_scrambled_causal"":""4"",""num_scrambled_schematic"":""4"",""participantId"":""DDC6F13BCC9843248E56210F2FF52DD3"",""assignmentId"":""05cd2574-8cef-4e54-ac3f-f63e2e5cae41"",""projectId"":""9076ac92-be42-43a2-9634-8b67c7fe93a7""}","https://test12345.live/?num_scrambled_semantic=8&num_scrambled_causal=4&num_scrambled_schematic=4&participantId=DDC6F13BCC9843248E56210F2FF52DD3&assignmentId=05cd2574-8cef-4e54-ac3f-f63e2e5cae41&projectId=9076ac92-be42-43a2-9634-8b67c7fe93a7","DDC6F13BCC9843248E56210F2FF52DD3-2025-05-22-19-30-22","[{""page_index"":0,""viewing_time"":8219},{""page_index"":1,""viewing_time"":1608}]","9826","","","","",""
"","","","","","html-audio-response","22","584171","0.0-8.0","DDC6F13BCC9843248E56210F2FF52DD3","DDC6F13BCC9843248E56210F2FF52DD3","05cd2574-8cef-4e54-ac3f-f63e2e5cae41","9076ac92-be42-43a2-9634-8b67c7fe93a7","{""num_scrambled_semantic"":""8"",""num_scrambled_causal"":""4"",""num_scrambled_schematic"":""4"",""participantId"":""DDC6F13BCC9843248E56210F2FF52DD3"",""assignmentId"":""05cd2574-8cef-4e54-ac3f-f63e2e5cae41"",""projectId"":""9076ac92-be42-43a2-9634-8b67c7fe93a7""}","https://test12345.live/?num_scrambled_semantic=8&num_scrambled_causal=4&num_scrambled_schematic=4&participantId=DDC6F13BCC9843248E56210F2FF52DD3&assignmentId=05cd2574-8cef-4e54-ac3f-f63e2e5cae41&projectId=9076ac92-be42-43a2-9634-8b67c7fe93a7","DDC6F13BCC9843248E56210F2FF52DD3-2025-05-22-19-30-22","","32329","","[""<span style=\""color: red; font-size: 24px\""> NOW RECORDING</span><p>Please say out loud all the images you saw in the exact order you saw them. Try to recall as many images as you can, but remember: getting the order right is more important than the number of images you recall.</p>""]","","3",""
"","","","","","instructions","23","586025","0.0-9.0","DDC6F13BCC9843248E56210F2FF52DD3","DDC6F13BCC9843248E56210F2FF52DD3","05cd2574-8cef-4e54-ac3f-f63e2e5cae41","9076ac92-be42-43a2-9634-8b67c7fe93a7","{""num_scrambled_semantic"":""8"",""num_scrambled_causal"":""4"",""num_scrambled_schematic"":""4"",""participantId"":""DDC6F13BCC9843248E56210F2FF52DD3"",""assignmentId"":""05cd2574-8cef-4e54-ac3f-f63e2e5cae41"",""projectId"":""9076ac92-be42-43a2-9634-8b67c7fe93a7""}","https://test12345.live/?num_scrambled_semantic=8&num_scrambled_causal=4&num_scrambled_schematic=4&participantId=DDC6F13BCC9843248E56210F2FF52DD3&assignmentId=05cd2574-8cef-4e54-ac3f-f63e2e5cae41&projectId=9076ac92-be42-43a2-9634-8b67c7fe93a7","DDC6F13BCC9843248E56210F2FF52DD3-2025-05-22-19-30-22","[{""page_index"":0,""viewing_time"":1849}]","1849","","","","",""
"","","","","","image-button-response","24","592028","0.0-10.0-0.0","DDC6F13BCC9843248E56210F2FF52DD3","DDC6F13BCC9843248E56210F2FF52DD3","05cd2574-8cef-4e54-ac3f-f63e2e5cae41","9076ac92-be42-43a2-9634-8b67c7fe93a7","{""num_scrambled_semantic"":""8"",""num_scrambled_causal"":""4"",""num_scrambled_schematic"":""4"",""participantId"":""DDC6F13BCC9843248E56210F2FF52DD3"",""assignmentId"":""05cd2574-8cef-4e54-ac3f-f63e2e5cae41"",""projectId"":""9076ac92-be42-43a2-9634-8b67c7fe93a7""}","https://test12345.live/?num_scrambled_semantic=8&num_scrambled_causal=4&num_scrambled_schematic=4&participantId=DDC6F13BCC9843248E56210F2FF52DD3&assignmentId=05cd2574-8cef-4e54-ac3f-f63e2e5cae41&projectId=9076ac92-be42-43a2-9634-8b67c7fe93a7","DDC6F13BCC9843248E56210F2FF52DD3-2025-05-22-19-30-22","","null","","images/semantic_sequence/exploring_nature_semantic/exploring_nature_semantic_0.png","null","",""
"","","","","","image-button-response","25","596542","0.0-10.0-1.0-0.0","DDC6F13BCC9843248E56210F2FF52DD3","DDC6F13BCC9843248E56210F2FF52DD3","05cd2574-8cef-4e54-ac3f-f63e2e5cae41","9076ac92-be42-43a2-9634-8b67c7fe93a7","{""num_scrambled_semantic"":""8"",""num_scrambled_causal"":""4"",""num_scrambled_schematic"":""4"",""participantId"":""DDC6F13BCC9843248E56210F2FF52DD3"",""assignmentId"":""05cd2574-8cef-4e54-ac3f-f63e2e5cae41"",""projectId"":""9076ac92-be42-43a2-9634-8b67c7fe93a7""}","https://test12345.live/?num_scrambled_semantic=8&num_scrambled_causal=4&num_scrambled_schematic=4&participantId=DDC6F13BCC9843248E56210F2FF52DD3&assignmentId=05cd2574-8cef-4e54-ac3f-f63e2e5cae41&projectId=9076ac92-be42-43a2-9634-8b67c7fe93a7","DDC6F13BCC9843248E56210F2FF52DD3-2025-05-22-19-30-22","","null","","images/semantic_sequence/exploring_nature_semantic/exploring_nature_semantic_7.png","null","",""
"","","","","","image-button-response","26","599363","0.0-10.0-1.0-1.0","DDC6F13BCC9843248E56210F2FF52DD3","DDC6F13BCC9843248E56210F2FF52DD3","05cd2574-8cef-4e54-ac3f-f63e2e5cae41","9076ac92-be42-43a2-9634-8b67c7fe93a7","{""num_scrambled_semantic"":""8"",""num_scrambled_causal"":""4"",""num_scrambled_schematic"":""4"",""participantId"":""DDC6F13BCC9843248E56210F2FF52DD3"",""assignmentId"":""05cd2574-8cef-4e54-ac3f-f63e2e5cae41"",""projectId"":""9076ac92-be42-43a2-9634-8b67c7fe93a7""}","https://test12345.live/?num_scrambled_semantic=8&num_scrambled_causal=4&num_scrambled_schematic=4&participantId=DDC6F13BCC9843248E56210F2FF52DD3&assignmentId=05cd2574-8cef-4e54-ac3f-f63e2e5cae41&projectId=9076ac92-be42-43a2-9634-8b67c7fe93a7","DDC6F13BCC9843248E56210F2FF52DD3-2025-05-22-19-30-22","","2819","","images/semantic_sequence/exploring_nature_semantic/exploring_nature_semantic_7.png","0","",""
"","","","","","image-button-response","27","601176","0.0-10.0-1.0-2.0","DDC6F13BCC9843248E56210F2FF52DD3","DDC6F13BCC9843248E56210F2FF52DD3","05cd2574-8cef-4e54-ac3f-f63e2e5cae41","9076ac92-be42-43a2-9634-8b67c7fe93a7","{""num_scrambled_semantic"":""8"",""num_scrambled_causal"":""4"",""num_scrambled_schematic"":""4"",""participantId"":""DDC6F13BCC9843248E56210F2FF52DD3"",""assignmentId"":""05cd2574-8cef-4e54-ac3f-f63e2e5cae41"",""projectId"":""9076ac92-be42-43a2-9634-8b67c7fe93a7""}","https://test12345.live/?num_scrambled_semantic=8&num_scrambled_causal=4&num_scrambled_schematic=4&participantId=DDC6F13BCC9843248E56210F2FF52DD3&assignmentId=05cd2574-8cef-4e54-ac3f-f63e2e5cae41&projectId=9076ac92-be42-43a2-9634-8b67c7fe93a7","DDC6F13BCC9843248E56210F2FF52DD3-2025-05-22-19-30-22","","null","","[]","null","",""
"","","","","","image-button-response","28","605680","0.0-10.0-1.0-0.1","DDC6F13BCC9843248E56210F2FF52DD3","DDC6F13BCC9843248E56210F2FF52DD3","05cd2574-8cef-4e54-ac3f-f63e2e5cae41","9076ac92-be42-43a2-9634-8b67c7fe93a7","{""num_scrambled_semantic"":""8"",""num_scrambled_causal"":""4"",""num_scrambled_schematic"":""4"",""participantId"":""DDC6F13BCC9843248E56210F2FF52DD3"",""assignmentId"":""05cd2574-8cef-4e54-ac3f-f63e2e5cae41"",""projectId"":""9076ac92-be42-43a2-9634-8b67c7fe93a7""}","https://test12345.live/?num_scrambled_semantic=8&num_scrambled_causal=4&num_scrambled_schematic=4&participantId=DDC6F13BCC9843248E56210F2FF52DD3&assignmentId=05cd2574-8cef-4e54-ac3f-f63e2e5cae41&projectId=9076ac92-be42-43a2-9634-8b67c7fe93a7","DDC6F13BCC9843248E56210F2FF52DD3-2025-05-22-19-30-22","","null","","images/semantic_sequence/exploring_nature_semantic/exploring_nature_semantic_ten.png","null","",""
"","","","","","image-button-response","29","609694","0.0-10.0-1.0-1.1","DDC6F13BCC9843248E56210F2FF52DD3","DDC6F13BCC9843248E56210F2FF52DD3","05cd2574-8cef-4e54-ac3f-f63e2e5cae41","9076ac92-be42-43a2-9634-8b67c7fe93a7","{""num_scrambled_semantic"":""8"",""num_scrambled_causal"":""4"",""num_scrambled_schematic"":""4"",""participantId"":""DDC6F13BCC9843248E56210F2FF52DD3"",""assignmentId"":""05cd2574-8cef-4e54-ac3f-f63e2e5cae41"",""projectId"":""9076ac92-be42-43a2-9634-8b67c7fe93a7""}","https://test12345.live/?num_scrambled_semantic=8&num_scrambled_causal=4&num_scrambled_schematic=4&participantId=DDC6F13BCC9843248E56210F2FF52DD3&assignmentId=05cd2574-8cef-4e54-ac3f-f63e2e5cae41&projectId=9076ac92-be42-43a2-9634-8b67c7fe93a7","DDC6F13BCC9843248E56210F2FF52DD3-2025-05-22-19-30-22","","null","","images/semantic_sequence/exploring_nature_semantic/exploring_nature_semantic_ten.png","null","",""
"","","","","","image-button-response","30","611504","0.0-10.0-1.0-2.1","DDC6F13BCC9843248E56210F2FF52DD3","DDC6F13BCC9843248E56210F2FF52DD3","05cd2574-8cef-4e54-ac3f-f63e2e5cae41","9076ac92-be42-43a2-9634-8b67c7fe93a7","{""num_scrambled_semantic"":""8"",""num_scrambled_causal"":""4"",""num_scrambled_schematic"":""4"",""participantId"":""DDC6F13BCC9843248E56210F2FF52DD3"",""assignmentId"":""05cd2574-8cef-4e54-ac3f-f63e2e5cae41"",""projectId"":""9076ac92-be42-43a2-9634-8b67c7fe93a7""}","https://test12345.live/?num_scrambled_semantic=8&num_scrambled_causal=4&num_scrambled_schematic=4&participantId=DDC6F13BCC9843248E56210F2FF52DD3&assignmentId=05cd2574-8cef-4e54-ac3f-f63e2e5cae41&projectId=9076ac92-be42-43a2-9634-8b67c7fe93a7","DDC6F13BCC9843248E56210F2FF52DD3-2025-05-22-19-30-22","","null","","[]","null","",""
"","","","","","image-button-response","31","616013","0.0-10.0-1.0-0.2","DDC6F13BCC9843248E56210F2FF52DD3","DDC6F13BCC9843248E56210F2FF52DD3","05cd2574-8cef-4e54-ac3f-f63e2e5cae41","9076ac92-be42-43a2-9634-8b67c7fe93a7","{""num_scrambled_semantic"":""8"",""num_scrambled_causal"":""4"",""num_scrambled_schematic"":""4"",""participantId"":""DDC6F13BCC9843248E56210F2FF52DD3"",""assignmentId"":""05cd2574-8cef-4e54-ac3f-f63e2e5cae41"",""projectId"":""9076ac92-be42-43a2-9634-8b67c7fe93a7""}","https://test12345.live/?num_scrambled_semantic=8&num_scrambled_causal=4&num_scrambled_schematic=4&participantId=DDC6F13BCC9843248E56210F2FF52DD3&assignmentId=05cd2574-8cef-4e54-ac3f-f63e2e5cae41&projectId=9076ac92-be42-43a2-9634-8b67c7fe93a7","DDC6F13BCC9843248E56210F2FF52DD3-2025-05-22-19-30-22","","null","","images/semantic_sequence/exploring_nature_semantic/exploring_nature_semantic_8.png","null","",""
"","","","","","image-button-response","32","617108","0.0-10.0-1.0-1.2","DDC6F13BCC9843248E56210F2FF52DD3","DDC6F13BCC9843248E56210F2FF52DD3","05cd2574-8cef-4e54-ac3f-f63e2e5cae41","9076ac92-be42-43a2-9634-8b67c7fe93a7","{""num_scrambled_semantic"":""8"",""num_scrambled_causal"":""4"",""num_scrambled_schematic"":""4"",""participantId"":""DDC6F13BCC9843248E56210F2FF52DD3"",""assignmentId"":""05cd2574-8cef-4e54-ac3f-f63e2e5cae41"",""projectId"":""9076ac92-be42-43a2-9634-8b67c7fe93a7""}","https://test12345.live/?num_scrambled_semantic=8&num_scrambled_causal=4&num_scrambled_schematic=4&participantId=DDC6F13BCC9843248E56210F2FF52DD3&assignmentId=05cd2574-8cef-4e54-ac3f-f63e2e5cae41&projectId=9076ac92-be42-43a2-9634-8b67c7fe93a7","DDC6F13BCC9843248E56210F2FF52DD3-2025-05-22-19-30-22","","1094","","images/semantic_sequence/exploring_nature_semantic/exploring_nature_semantic_8.png","0","",""
"","","","","","image-button-response","33","618924","0.0-10.0-1.0-2.2","DDC6F13BCC9843248E56210F2FF52DD3","DDC6F13BCC9843248E56210F2FF52DD3","05cd2574-8cef-4e54-ac3f-f63e2e5cae41","9076ac92-be42-43a2-9634-8b67c7fe93a7","{""num_scrambled_semantic"":""8"",""num_scrambled_causal"":""4"",""num_scrambled_schematic"":""4"",""participantId"":""DDC6F13BCC9843248E56210F2FF52DD3"",""assignmentId"":""05cd2574-8cef-4e54-ac3f-f63e2e5cae41"",""projectId"":""9076ac92-be42-43a2-9634-8b67c7fe93a7""}","https://test12345.live/?num_scrambled_semantic=8&num_scrambled_causal=4&num_scrambled_schematic=4&participantId=DDC6F13BCC9843248E56210F2FF52DD3&assignmentId=05cd2574-8cef-4e54-ac3f-f63e2e5cae41&projectId=9076ac92-be42-43a2-9634-8b67c7fe93a7","DDC6F13BCC9843248E56210F2FF52DD3-2025-05-22-19-30-22","","null","","[]","null","",""
"","","","","","image-button-response","34","623427","0.0-10.0-1.0-0.3","DDC6F13BCC9843248E56210F2FF52DD3","DDC6F13BCC9843248E56210F2FF52DD3","05cd2574-8cef-4e54-ac3f-f63e2e5cae41","9076ac92-be42-43a2-9634-8b67c7fe93a7","{""num_scrambled_semantic"":""8"",""num_scrambled_causal"":""4"",""num_scrambled_schematic"":""4"",""participantId"":""DDC6F13BCC9843248E56210F2FF52DD3"",""assignmentId"":""05cd2574-8cef-4e54-ac3f-f63e2e5cae41"",""projectId"":""9076ac92-be42-43a2-9634-8b67c7fe93a7""}","https://test12345.live/?num_scrambled_semantic=8&num_scrambled_causal=4&num_scrambled_schematic=4&participantId=DDC6F13BCC9843248E56210F2FF52DD3&assignmentId=05cd2574-8cef-4e54-ac3f-f63e2e5cae41&projectId=9076ac92-be42-43a2-9634-8b67c7fe93a7","DDC6F13BCC9843248E56210F2FF52DD3-2025-05-22-19-30-22","","null","","images/semantic_sequence/exploring_nature_semantic/exploring_nature_semantic_6.png","null","",""
"","","","","","image-button-response","35","627440","0.0-10.0-1.0-1.3","DDC6F13BCC9843248E56210F2FF52DD3","DDC6F13BCC9843248E56210F2FF52DD3","05cd2574-8cef-4e54-ac3f-f63e2e5cae41","9076ac92-be42-43a2-9634-8b67c7fe93a7","{""num_scrambled_semantic"":""8"",""num_scrambled_causal"":""4"",""num_scrambled_schematic"":""4"",""participantId"":""DDC6F13BCC9843248E56210F2FF52DD3"",""assignmentId"":""05cd2574-8cef-4e54-ac3f-f63e2e5cae41"",""projectId"":""9076ac92-be42-43a2-9634-8b67c7fe93a7""}","https://test12345.live/?num_scrambled_semantic=8&num_scrambled_causal=4&num_scrambled_schematic=4&participantId=DDC6F13BCC9843248E56210F2FF52DD3&assignmentId=05cd2574-8cef-4e54-ac3f-f63e2e5cae41&projectId=9076ac92-be42-43a2-9634-8b67c7fe93a7","DDC6F13BCC9843248E56210F2FF52DD3-2025-05-22-19-30-22","","null","","images/semantic_sequence/exploring_nature_semantic/exploring_nature_semantic_6.png","null","",""
"","","","","","image-button-response","36","629245","0.0-10.0-1.0-2.3","DDC6F13BCC9843248E56210F2FF52DD3","DDC6F13BCC9843248E56210F2FF52DD3","05cd2574-8cef-4e54-ac3f-f63e2e5cae41","9076ac92-be42-43a2-9634-8b67c7fe93a7","{""num_scrambled_semantic"":""8"",""num_scrambled_causal"":""4"",""num_scrambled_schematic"":""4"",""participantId"":""DDC6F13BCC9843248E56210F2FF52DD3"",""assignmentId"":""05cd2574-8cef-4e54-ac3f-f63e2e5cae41"",""projectId"":""9076ac92-be42-43a2-9634-8b67c7fe93a7""}","https://test12345.live/?num_scrambled_semantic=8&num_scrambled_causal=4&num_scrambled_schematic=4&participantId=DDC6F13BCC9843248E56210F2FF52DD3&assignmentId=05cd2574-8cef-4e54-ac3f-f63e2e5cae41&projectId=9076ac92-be42-43a2-9634-8b67c7fe93a7","DDC6F13BCC9843248E56210F2FF52DD3-2025-05-22-19-30-22","","null","","[]","null","",""
"","","","","","image-button-response","37","633755","0.0-10.0-1.0-0.4","DDC6F13BCC9843248E56210F2FF52DD3","DDC6F13BCC9843248E56210F2FF52DD3","05cd2574-8cef-4e54-ac3f-f63e2e5cae41","9076ac92-be42-43a2-9634-8b67c7fe93a7","{""num_scrambled_semantic"":""8"",""num_scrambled_causal"":""4"",""num_scrambled_schematic"":""4"",""participantId"":""DDC6F13BCC9843248E56210F2FF52DD3"",""assignmentId"":""05cd2574-8cef-4e54-ac3f-f63e2e5cae41"",""projectId"":""9076ac92-be42-43a2-9634-8b67c7fe93a7""}","https://test12345.live/?num_scrambled_semantic=8&num_scrambled_causal=4&num_scrambled_schematic=4&participantId=DDC6F13BCC9843248E56210F2FF52DD3&assignmentId=05cd2574-8cef-4e54-ac3f-f63e2e5cae41&projectId=9076ac92-be42-43a2-9634-8b67c7fe93a7","DDC6F13BCC9843248E56210F2FF52DD3-2025-05-22-19-30-22","","null","","images/semantic_sequence/exploring_nature_semantic/exploring_nature_semantic_2.png","null","",""
"","","","","","image-button-response","38","636524","0.0-10.0-1.0-1.4","DDC6F13BCC9843248E56210F2FF52DD3","DDC6F13BCC9843248E56210F2FF52DD3","05cd2574-8cef-4e54-ac3f-f63e2e5cae41","9076ac92-be42-43a2-9634-8b67c7fe93a7","{""num_scrambled_semantic"":""8"",""num_scrambled_causal"":""4"",""num_scrambled_schematic"":""4"",""participantId"":""DDC6F13BCC9843248E56210F2FF52DD3"",""assignmentId"":""05cd2574-8cef-4e54-ac3f-f63e2e5cae41"",""projectId"":""9076ac92-be42-43a2-9634-8b67c7fe93a7""}","https://test12345.live/?num_scrambled_semantic=8&num_scrambled_causal=4&num_scrambled_schematic=4&participantId=DDC6F13BCC9843248E56210F2FF52DD3&assignmentId=05cd2574-8cef-4e54-ac3f-f63e2e5cae41&projectId=9076ac92-be42-43a2-9634-8b67c7fe93a7","DDC6F13BCC9843248E56210F2FF52DD3-2025-05-22-19-30-22","","2768","","images/semantic_sequence/exploring_nature_semantic/exploring_nature_semantic_2.png","0","",""
"","","","","","image-button-response","39","638339","0.0-10.0-1.0-2.4","DDC6F13BCC9843248E56210F2FF52DD3","DDC6F13BCC9843248E56210F2FF52DD3","05cd2574-8cef-4e54-ac3f-f63e2e5cae41","9076ac92-be42-43a2-9634-8b67c7fe93a7","{""num_scrambled_semantic"":""8"",""num_scrambled_causal"":""4"",""num_scrambled_schematic"":""4"",""participantId"":""DDC6F13BCC9843248E56210F2FF52DD3"",""assignmentId"":""05cd2574-8cef-4e54-ac3f-f63e2e5cae41"",""projectId"":""9076ac92-be42-43a2-9634-8b67c7fe93a7""}","https://test12345.live/?num_scrambled_semantic=8&num_scrambled_causal=4&num_scrambled_schematic=4&participantId=DDC6F13BCC9843248E56210F2FF52DD3&assignmentId=05cd2574-8cef-4e54-ac3f-f63e2e5cae41&projectId=9076ac92-be42-43a2-9634-8b67c7fe93a7","DDC6F13BCC9843248E56210F2FF52DD3-2025-05-22-19-30-22","","null","","[]","null","",""
"","","","","","image-button-response","40","642847","0.0-10.0-1.0-0.5","DDC6F13BCC9843248E56210F2FF52DD3","DDC6F13BCC9843248E56210F2FF52DD3","05cd2574-8cef-4e54-ac3f-f63e2e5cae41","9076ac92-be42-43a2-9634-8b67c7fe93a7","{""num_scrambled_semantic"":""8"",""num_scrambled_causal"":""4"",""num_scrambled_schematic"":""4"",""participantId"":""DDC6F13BCC9843248E56210F2FF52DD3"",""assignmentId"":""05cd2574-8cef-4e54-ac3f-f63e2e5cae41"",""projectId"":""9076ac92-be42-43a2-9634-8b67c7fe93a7""}","https://test12345.live/?num_scrambled_semantic=8&num_scrambled_causal=4&num_scrambled_schematic=4&participantId=DDC6F13BCC9843248E56210F2FF52DD3&assignmentId=05cd2574-8cef-4e54-ac3f-f63e2e5cae41&projectId=9076ac92-be42-43a2-9634-8b67c7fe93a7","DDC6F13BCC9843248E56210F2FF52DD3-2025-05-22-19-30-22","","null","","images/semantic_sequence/exploring_nature_semantic/exploring_nature_semantic_5.png","null","",""
"","","","","","image-button-response","41","644320","0.0-10.0-1.0-1.5","DDC6F13BCC9843248E56210F2FF52DD3","DDC6F13BCC9843248E56210F2FF52DD3","05cd2574-8cef-4e54-ac3f-f63e2e5cae41","9076ac92-be42-43a2-9634-8b67c7fe93a7","{""num_scrambled_semantic"":""8"",""num_scrambled_causal"":""4"",""num_scrambled_schematic"":""4"",""participantId"":""DDC6F13BCC9843248E56210F2FF52DD3"",""assignmentId"":""05cd2574-8cef-4e54-ac3f-f63e2e5cae41"",""projectId"":""9076ac92-be42-43a2-9634-8b67c7fe93a7""}","https://test12345.live/?num_scrambled_semantic=8&num_scrambled_causal=4&num_scrambled_schematic=4&participantId=DDC6F13BCC9843248E56210F2FF52DD3&assignmentId=05cd2574-8cef-4e54-ac3f-f63e2e5cae41&projectId=9076ac92-be42-43a2-9634-8b67c7fe93a7","DDC6F13BCC9843248E56210F2FF52DD3-2025-05-22-19-30-22","","1472","","images/semantic_sequence/exploring_nature_semantic/exploring_nature_semantic_5.png","0","",""
"","","","","","image-button-response","42","646135","0.0-10.0-1.0-2.5","DDC6F13BCC9843248E56210F2FF52DD3","DDC6F13BCC9843248E56210F2FF52DD3","05cd2574-8cef-4e54-ac3f-f63e2e5cae41","9076ac92-be42-43a2-9634-8b67c7fe93a7","{""num_scrambled_semantic"":""8"",""num_scrambled_causal"":""4"",""num_scrambled_schematic"":""4"",""participantId"":""DDC6F13BCC9843248E56210F2FF52DD3"",""assignmentId"":""05cd2574-8cef-4e54-ac3f-f63e2e5cae41"",""projectId"":""9076ac92-be42-43a2-9634-8b67c7fe93a7""}","https://test12345.live/?num_scrambled_semantic=8&num_scrambled_causal=4&num_scrambled_schematic=4&participantId=DDC6F13BCC9843248E56210F2FF52DD3&assignmentId=05cd2574-8cef-4e54-ac3f-f63e2e5cae41&projectId=9076ac92-be42-43a2-9634-8b67c7fe93a7","DDC6F13BCC9843248E56210F2FF52DD3-2025-05-22-19-30-22","","null","","[]","null","",""
"","","","","","image-button-response","43","650638","0.0-10.0-1.0-0.6","DDC6F13BCC9843248E56210F2FF52DD3","DDC6F13BCC9843248E56210F2FF52DD3","05cd2574-8cef-4e54-ac3f-f63e2e5cae41","9076ac92-be42-43a2-9634-8b67c7fe93a7","{""num_scrambled_semantic"":""8"",""num_scrambled_causal"":""4"",""num_scrambled_schematic"":""4"",""participantId"":""DDC6F13BCC9843248E56210F2FF52DD3"",""assignmentId"":""05cd2574-8cef-4e54-ac3f-f63e2e5cae41"",""projectId"":""9076ac92-be42-43a2-9634-8b67c7fe93a7""}","https://test12345.live/?num_scrambled_semantic=8&num_scrambled_causal=4&num_scrambled_schematic=4&participantId=DDC6F13BCC9843248E56210F2FF52DD3&assignmentId=05cd2574-8cef-4e54-ac3f-f63e2e5cae41&projectId=9076ac92-be42-43a2-9634-8b67c7fe93a7","DDC6F13BCC9843248E56210F2FF52DD3-2025-05-22-19-30-22","","null","","images/semantic_sequence/exploring_nature_semantic/exploring_nature_semantic_1.png","null","",""
"","","","","","image-button-response","44","652108","0.0-10.0-1.0-1.6","DDC6F13BCC9843248E56210F2FF52DD3","DDC6F13BCC9843248E56210F2FF52DD3","05cd2574-8cef-4e54-ac3f-f63e2e5cae41","9076ac92-be42-43a2-9634-8b67c7fe93a7","{""num_scrambled_semantic"":""8"",""num_scrambled_causal"":""4"",""num_scrambled_schematic"":""4"",""participantId"":""DDC6F13BCC9843248E56210F2FF52DD3"",""assignmentId"":""05cd2574-8cef-4e54-ac3f-f63e2e5cae41"",""projectId"":""9076ac92-be42-43a2-9634-8b67c7fe93a7""}","https://test12345.live/?num_scrambled_semantic=8&num_scrambled_causal=4&num_scrambled_schematic=4&participantId=DDC6F13BCC9843248E56210F2FF52DD3&assignmentId=05cd2574-8cef-4e54-ac3f-f63e2e5cae41&projectId=9076ac92-be42-43a2-9634-8b67c7fe93a7","DDC6F13BCC9843248E56210F2FF52DD3-2025-05-22-19-30-22","","1469","","images/semantic_sequence/exploring_nature_semantic/exploring_nature_semantic_1.png","0","",""
"","","","","","image-button-response","45","653909","0.0-10.0-1.0-2.6","DDC6F13BCC9843248E56210F2FF52DD3","DDC6F13BCC9843248E56210F2FF52DD3","05cd2574-8cef-4e54-ac3f-f63e2e5cae41","9076ac92-be42-43a2-9634-8b67c7fe93a7","{""num_scrambled_semantic"":""8"",""num_scrambled_causal"":""4"",""num_scrambled_schematic"":""4"",""participantId"":""DDC6F13BCC9843248E56210F2FF52DD3"",""assignmentId"":""05cd2574-8cef-4e54-ac3f-f63e2e5cae41"",""projectId"":""9076ac92-be42-43a2-9634-8b67c7fe93a7""}","https://test12345.live/?num_scrambled_semantic=8&num_scrambled_causal=4&num_scrambled_schematic=4&participantId=DDC6F13BCC9843248E56210F2FF52DD3&assignmentId=05cd2574-8cef-4e54-ac3f-f63e2e5cae41&projectId=9076ac92-be42-43a2-9634-8b67c7fe93a7","DDC6F13BCC9843248E56210F2FF52DD3-2025-05-22-19-30-22","","null","","[]","null","",""
"","","","","","image-button-response","46","658412","0.0-10.0-1.0-0.7","DDC6F13BCC9843248E56210F2FF52DD3","DDC6F13BCC9843248E56210F2FF52DD3","05cd2574-8cef-4e54-ac3f-f63e2e5cae41","9076ac92-be42-43a2-9634-8b67c7fe93a7","{""num_scrambled_semantic"":""8"",""num_scrambled_causal"":""4"",""num_scrambled_schematic"":""4"",""participantId"":""DDC6F13BCC9843248E56210F2FF52DD3"",""assignmentId"":""05cd2574-8cef-4e54-ac3f-f63e2e5cae41"",""projectId"":""9076ac92-be42-43a2-9634-8b67c7fe93a7""}","https://test12345.live/?num_scrambled_semantic=8&num_scrambled_causal=4&num_scrambled_schematic=4&participantId=DDC6F13BCC9843248E56210F2FF52DD3&assignmentId=05cd2574-8cef-4e54-ac3f-f63e2e5cae41&projectId=9076ac92-be42-43a2-9634-8b67c7fe93a7","DDC6F13BCC9843248E56210F2FF52DD3-2025-05-22-19-30-22","","null","","images/semantic_sequence/exploring_nature_semantic/exploring_nature_semantic_4.png","null","",""
"","","","","","image-button-response","47","659417","0.0-10.0-1.0-1.7","DDC6F13BCC9843248E56210F2FF52DD3","DDC6F13BCC9843248E56210F2FF52DD3","05cd2574-8cef-4e54-ac3f-f63e2e5cae41","9076ac92-be42-43a2-9634-8b67c7fe93a7","{""num_scrambled_semantic"":""8"",""num_scrambled_causal"":""4"",""num_scrambled_schematic"":""4"",""participantId"":""DDC6F13BCC9843248E56210F2FF52DD3"",""assignmentId"":""05cd2574-8cef-4e54-ac3f-f63e2e5cae41"",""projectId"":""9076ac92-be42-43a2-9634-8b67c7fe93a7""}","https://test12345.live/?num_scrambled_semantic=8&num_scrambled_causal=4&num_scrambled_schematic=4&participantId=DDC6F13BCC9843248E56210F2FF52DD3&assignmentId=05cd2574-8cef-4e54-ac3f-f63e2e5cae41&projectId=9076ac92-be42-43a2-9634-8b67c7fe93a7","DDC6F13BCC9843248E56210F2FF52DD3-2025-05-22-19-30-22","","1005","","images/semantic_sequence/exploring_nature_semantic/exploring_nature_semantic_4.png","0","",""
"","","","","","image-button-response","48","661228","0.0-10.0-1.0-2.7","DDC6F13BCC9843248E56210F2FF52DD3","DDC6F13BCC9843248E56210F2FF52DD3","05cd2574-8cef-4e54-ac3f-f63e2e5cae41","9076ac92-be42-43a2-9634-8b67c7fe93a7","{""num_scrambled_semantic"":""8"",""num_scrambled_causal"":""4"",""num_scrambled_schematic"":""4"",""participantId"":""DDC6F13BCC9843248E56210F2FF52DD3"",""assignmentId"":""05cd2574-8cef-4e54-ac3f-f63e2e5cae41"",""projectId"":""9076ac92-be42-43a2-9634-8b67c7fe93a7""}","https://test12345.live/?num_scrambled_semantic=8&num_scrambled_causal=4&num_scrambled_schematic=4&participantId=DDC6F13BCC9843248E56210F2FF52DD3&assignmentId=05cd2574-8cef-4e54-ac3f-f63e2e5cae41&projectId=9076ac92-be42-43a2-9634-8b67c7fe93a7","DDC6F13BCC9843248E56210F2FF52DD3-2025-05-22-19-30-22","","null","","[]","null","",""
"","","","","","image-button-response","49","665730","0.0-10.0-1.0-0.8","DDC6F13BCC9843248E56210F2FF52DD3","DDC6F13BCC9843248E56210F2FF52DD3","05cd2574-8cef-4e54-ac3f-f63e2e5cae41","9076ac92-be42-43a2-9634-8b67c7fe93a7","{""num_scrambled_semantic"":""8"",""num_scrambled_causal"":""4"",""num_scrambled_schematic"":""4"",""participantId"":""DDC6F13BCC9843248E56210F2FF52DD3"",""assignmentId"":""05cd2574-8cef-4e54-ac3f-f63e2e5cae41"",""projectId"":""9076ac92-be42-43a2-9634-8b67c7fe93a7""}","https://test12345.live/?num_scrambled_semantic=8&num_scrambled_causal=4&num_scrambled_schematic=4&participantId=DDC6F13BCC9843248E56210F2FF52DD3&assignmentId=05cd2574-8cef-4e54-ac3f-f63e2e5cae41&projectId=9076ac92-be42-43a2-9634-8b67c7fe93a7","DDC6F13BCC9843248E56210F2FF52DD3-2025-05-22-19-30-22","","null","","images/semantic_sequence/exploring_nature_semantic/exploring_nature_semantic_9.png","null","",""
"","","","","","image-button-response","50","666751","0.0-10.0-1.0-1.8","DDC6F13BCC9843248E56210F2FF52DD3","DDC6F13BCC9843248E56210F2FF52DD3","05cd2574-8cef-4e54-ac3f-f63e2e5cae41","9076ac92-be42-43a2-9634-8b67c7fe93a7","{""num_scrambled_semantic"":""8"",""num_scrambled_causal"":""4"",""num_scrambled_schematic"":""4"",""participantId"":""DDC6F13BCC9843248E56210F2FF52DD3"",""assignmentId"":""05cd2574-8cef-4e54-ac3f-f63e2e5cae41"",""projectId"":""9076ac92-be42-43a2-9634-8b67c7fe93a7""}","https://test12345.live/?num_scrambled_semantic=8&num_scrambled_causal=4&num_scrambled_schematic=4&participantId=DDC6F13BCC9843248E56210F2FF52DD3&assignmentId=05cd2574-8cef-4e54-ac3f-f63e2e5cae41&projectId=9076ac92-be42-43a2-9634-8b67c7fe93a7","DDC6F13BCC9843248E56210F2FF52DD3-2025-05-22-19-30-22","","1020","","images/semantic_sequence/exploring_nature_semantic/exploring_nature_semantic_9.png","0","",""
"","","","","","image-button-response","51","668554","0.0-10.0-1.0-2.8","DDC6F13BCC9843248E56210F2FF52DD3","DDC6F13BCC9843248E56210F2FF52DD3","05cd2574-8cef-4e54-ac3f-f63e2e5cae41","9076ac92-be42-43a2-9634-8b67c7fe93a7","{""num_scrambled_semantic"":""8"",""num_scrambled_causal"":""4"",""num_scrambled_schematic"":""4"",""participantId"":""DDC6F13BCC9843248E56210F2FF52DD3"",""assignmentId"":""05cd2574-8cef-4e54-ac3f-f63e2e5cae41"",""projectId"":""9076ac92-be42-43a2-9634-8b67c7fe93a7""}","https://test12345.live/?num_scrambled_semantic=8&num_scrambled_causal=4&num_scrambled_schematic=4&participantId=DDC6F13BCC9843248E56210F2FF52DD3&assignmentId=05cd2574-8cef-4e54-ac3f-f63e2e5cae41&projectId=9076ac92-be42-43a2-9634-8b67c7fe93a7","DDC6F13BCC9843248E56210F2FF52DD3-2025-05-22-19-30-22","","null","","[]","null","",""
"","","","","","image-button-response","52","673070","0.0-10.0-1.0-0.9","DDC6F13BCC9843248E56210F2FF52DD3","DDC6F13BCC9843248E56210F2FF52DD3","05cd2574-8cef-4e54-ac3f-f63e2e5cae41","9076ac92-be42-43a2-9634-8b67c7fe93a7","{""num_scrambled_semantic"":""8"",""num_scrambled_causal"":""4"",""num_scrambled_schematic"":""4"",""participantId"":""DDC6F13BCC9843248E56210F2FF52DD3"",""assignmentId"":""05cd2574-8cef-4e54-ac3f-f63e2e5cae41"",""projectId"":""9076ac92-be42-43a2-9634-8b67c7fe93a7""}","https://test12345.live/?num_scrambled_semantic=8&num_scrambled_causal=4&num_scrambled_schematic=4&participantId=DDC6F13BCC9843248E56210F2FF52DD3&assignmentId=05cd2574-8cef-4e54-ac3f-f63e2e5cae41&projectId=9076ac92-be42-43a2-9634-8b67c7fe93a7","DDC6F13BCC9843248E56210F2FF52DD3-2025-05-22-19-30-22","","null","","images/semantic_sequence/exploring_nature_semantic/exploring_nature_semantic_3.png","null","",""
"","","","","","image-button-response","53","673980","0.0-10.0-1.0-1.9","DDC6F13BCC9843248E56210F2FF52DD3","DDC6F13BCC9843248E56210F2FF52DD3","05cd2574-8cef-4e54-ac3f-f63e2e5cae41","9076ac92-be42-43a2-9634-8b67c7fe93a7","{""num_scrambled_semantic"":""8"",""num_scrambled_causal"":""4"",""num_scrambled_schematic"":""4"",""participantId"":""DDC6F13BCC9843248E56210F2FF52DD3"",""assignmentId"":""05cd2574-8cef-4e54-ac3f-f63e2e5cae41"",""projectId"":""9076ac92-be42-43a2-9634-8b67c7fe93a7""}","https://test12345.live/?num_scrambled_semantic=8&num_scrambled_causal=4&num_scrambled_schematic=4&participantId=DDC6F13BCC9843248E56210F2FF52DD3&assignmentId=05cd2574-8cef-4e54-ac3f-f63e2e5cae41&projectId=9076ac92-be42-43a2-9634-8b67c7fe93a7","DDC6F13BCC9843248E56210F2FF52DD3-2025-05-22-19-30-22","","909","","images/semantic_sequence/exploring_nature_semantic/exploring_nature_semantic_3.png","0","",""
"","","","","","image-button-response","54","675786","0.0-10.0-1.0-2.9","DDC6F13BCC9843248E56210F2FF52DD3","DDC6F13BCC9843248E56210F2FF52DD3","05cd2574-8cef-4e54-ac3f-f63e2e5cae41","9076ac92-be42-43a2-9634-8b67c7fe93a7","{""num_scrambled_semantic"":""8"",""num_scrambled_causal"":""4"",""num_scrambled_schematic"":""4"",""participantId"":""DDC6F13BCC9843248E56210F2FF52DD3"",""assignmentId"":""05cd2574-8cef-4e54-ac3f-f63e2e5cae41"",""projectId"":""9076ac92-be42-43a2-9634-8b67c7fe93a7""}","https://test12345.live/?num_scrambled_semantic=8&num_scrambled_causal=4&num_scrambled_schematic=4&participantId=DDC6F13BCC9843248E56210F2FF52DD3&assignmentId=05cd2574-8cef-4e54-ac3f-f63e2e5cae41&projectId=9076ac92-be42-43a2-9634-8b67c7fe93a7","DDC6F13BCC9843248E56210F2FF52DD3-2025-05-22-19-30-22","","null","","[]","null","",""
"","","","","","html-audio-response","55","712362","0.0-11.0","DDC6F13BCC9843248E56210F2FF52DD3","DDC6F13BCC9843248E56210F2FF52DD3","05cd2574-8cef-4e54-ac3f-f63e2e5cae41","9076ac92-be42-43a2-9634-8b67c7fe93a7","{""num_scrambled_semantic"":""8"",""num_scrambled_causal"":""4"",""num_scrambled_schematic"":""4"",""participantId"":""DDC6F13BCC9843248E56210F2FF52DD3"",""assignmentId"":""05cd2574-8cef-4e54-ac3f-f63e2e5cae41"",""projectId"":""9076ac92-be42-43a2-9634-8b67c7fe93a7""}","https://test12345.live/?num_scrambled_semantic=8&num_scrambled_causal=4&num_scrambled_schematic=4&participantId=DDC6F13BCC9843248E56210F2FF52DD3&assignmentId=05cd2574-8cef-4e54-ac3f-f63e2e5cae41&projectId=9076ac92-be42-43a2-9634-8b67c7fe93a7","DDC6F13BCC9843248E56210F2FF52DD3-2025-05-22-19-30-22","","35006","","[""<span style=\""color: red; font-size: 24px\""> NOW RECORDING</span><p>Please say out loud all the images you saw, in the exact order you saw them. Try to recall as many images as you can, but remember: getting the order right is more important than the number of images you recall.</p>""]","","4","exploring_nature_semantic"
"","","","","","image-button-response","56","718374","0.0-12.0-0.0","DDC6F13BCC9843248E56210F2FF52DD3","DDC6F13BCC9843248E56210F2FF52DD3","05cd2574-8cef-4e54-ac3f-f63e2e5cae41","9076ac92-be42-43a2-9634-8b67c7fe93a7","{""num_scrambled_semantic"":""8"",""num_scrambled_causal"":""4"",""num_scrambled_schematic"":""4"",""participantId"":""DDC6F13BCC9843248E56210F2FF52DD3"",""assignmentId"":""05cd2574-8cef-4e54-ac3f-f63e2e5cae41"",""projectId"":""9076ac92-be42-43a2-9634-8b67c7fe93a7""}","https://test12345.live/?num_scrambled_semantic=8&num_scrambled_causal=4&num_scrambled_schematic=4&participantId=DDC6F13BCC9843248E56210F2FF52DD3&assignmentId=05cd2574-8cef-4e54-ac3f-f63e2e5cae41&projectId=9076ac92-be42-43a2-9634-8b67c7fe93a7","DDC6F13BCC9843248E56210F2FF52DD3-2025-05-22-19-30-22","","null","","images/semantic_sequence/housework_semantic/housework_semantic_0.png","null","",""
"","","","","","image-button-response","57","722878","0.0-12.0-1.0-0.0","DDC6F13BCC9843248E56210F2FF52DD3","DDC6F13BCC9843248E56210F2FF52DD3","05cd2574-8cef-4e54-ac3f-f63e2e5cae41","9076ac92-be42-43a2-9634-8b67c7fe93a7","{""num_scrambled_semantic"":""8"",""num_scrambled_causal"":""4"",""num_scrambled_schematic"":""4"",""participantId"":""DDC6F13BCC9843248E56210F2FF52DD3"",""assignmentId"":""05cd2574-8cef-4e54-ac3f-f63e2e5cae41"",""projectId"":""9076ac92-be42-43a2-9634-8b67c7fe93a7""}","https://test12345.live/?num_scrambled_semantic=8&num_scrambled_causal=4&num_scrambled_schematic=4&participantId=DDC6F13BCC9843248E56210F2FF52DD3&assignmentId=05cd2574-8cef-4e54-ac3f-f63e2e5cae41&projectId=9076ac92-be42-43a2-9634-8b67c7fe93a7","DDC6F13BCC9843248E56210F2FF52DD3-2025-05-22-19-30-22","","null","","images/semantic_sequence/housework_semantic/housework_semantic_1.png","null","",""
"","","","","","image-button-response","58","725740","0.0-12.0-1.0-1.0","DDC6F13BCC9843248E56210F2FF52DD3","DDC6F13BCC9843248E56210F2FF52DD3","05cd2574-8cef-4e54-ac3f-f63e2e5cae41","9076ac92-be42-43a2-9634-8b67c7fe93a7","{""num_scrambled_semantic"":""8"",""num_scrambled_causal"":""4"",""num_scrambled_schematic"":""4"",""participantId"":""DDC6F13BCC9843248E56210F2FF52DD3"",""assignmentId"":""05cd2574-8cef-4e54-ac3f-f63e2e5cae41"",""projectId"":""9076ac92-be42-43a2-9634-8b67c7fe93a7""}","https://test12345.live/?num_scrambled_semantic=8&num_scrambled_causal=4&num_scrambled_schematic=4&participantId=DDC6F13BCC9843248E56210F2FF52DD3&assignmentId=05cd2574-8cef-4e54-ac3f-f63e2e5cae41&projectId=9076ac92-be42-43a2-9634-8b67c7fe93a7","DDC6F13BCC9843248E56210F2FF52DD3-2025-05-22-19-30-22","","2862","","images/semantic_sequence/housework_semantic/housework_semantic_1.png","0","",""
"","","","","","image-button-response","59","727544","0.0-12.0-1.0-2.0","DDC6F13BCC9843248E56210F2FF52DD3","DDC6F13BCC9843248E56210F2FF52DD3","05cd2574-8cef-4e54-ac3f-f63e2e5cae41","9076ac92-be42-43a2-9634-8b67c7fe93a7","{""num_scrambled_semantic"":""8"",""num_scrambled_causal"":""4"",""num_scrambled_schematic"":""4"",""participantId"":""DDC6F13BCC9843248E56210F2FF52DD3"",""assignmentId"":""05cd2574-8cef-4e54-ac3f-f63e2e5cae41"",""projectId"":""9076ac92-be42-43a2-9634-8b67c7fe93a7""}","https://test12345.live/?num_scrambled_semantic=8&num_scrambled_causal=4&num_scrambled_schematic=4&participantId=DDC6F13BCC9843248E56210F2FF52DD3&assignmentId=05cd2574-8cef-4e54-ac3f-f63e2e5cae41&projectId=9076ac92-be42-43a2-9634-8b67c7fe93a7","DDC6F13BCC9843248E56210F2FF52DD3-2025-05-22-19-30-22","","null","","[]","null","",""
"","","","","","image-button-response","60","732059","0.0-12.0-1.0-0.1","DDC6F13BCC9843248E56210F2FF52DD3","DDC6F13BCC9843248E56210F2FF52DD3","05cd2574-8cef-4e54-ac3f-f63e2e5cae41","9076ac92-be42-43a2-9634-8b67c7fe93a7","{""num_scrambled_semantic"":""8"",""num_scrambled_causal"":""4"",""num_scrambled_schematic"":""4"",""participantId"":""DDC6F13BCC9843248E56210F2FF52DD3"",""assignmentId"":""05cd2574-8cef-4e54-ac3f-f63e2e5cae41"",""projectId"":""9076ac92-be42-43a2-9634-8b67c7fe93a7""}","https://test12345.live/?num_scrambled_semantic=8&num_scrambled_causal=4&num_scrambled_schematic=4&participantId=DDC6F13BCC9843248E56210F2FF52DD3&assignmentId=05cd2574-8cef-4e54-ac3f-f63e2e5cae41&projectId=9076ac92-be42-43a2-9634-8b67c7fe93a7","DDC6F13BCC9843248E56210F2FF52DD3-2025-05-22-19-30-22","","null","","images/semantic_sequence/housework_semantic/housework_semantic_2.png","null","",""
"","","","","","image-button-response","61","733449","0.0-12.0-1.0-1.1","DDC6F13BCC9843248E56210F2FF52DD3","DDC6F13BCC9843248E56210F2FF52DD3","05cd2574-8cef-4e54-ac3f-f63e2e5cae41","9076ac92-be42-43a2-9634-8b67c7fe93a7","{""num_scrambled_semantic"":""8"",""num_scrambled_causal"":""4"",""num_scrambled_schematic"":""4"",""participantId"":""DDC6F13BCC9843248E56210F2FF52DD3"",""assignmentId"":""05cd2574-8cef-4e54-ac3f-f63e2e5cae41"",""projectId"":""9076ac92-be42-43a2-9634-8b67c7fe93a7""}","https://test12345.live/?num_scrambled_semantic=8&num_scrambled_causal=4&num_scrambled_schematic=4&participantId=DDC6F13BCC9843248E56210F2FF52DD3&assignmentId=05cd2574-8cef-4e54-ac3f-f63e2e5cae41&projectId=9076ac92-be42-43a2-9634-8b67c7fe93a7","DDC6F13BCC9843248E56210F2FF52DD3-2025-05-22-19-30-22","","1389","","images/semantic_sequence/housework_semantic/housework_semantic_2.png","0","",""
"","","","","","image-button-response","62","735262","0.0-12.0-1.0-2.1","DDC6F13BCC9843248E56210F2FF52DD3","DDC6F13BCC9843248E56210F2FF52DD3","05cd2574-8cef-4e54-ac3f-f63e2e5cae41","9076ac92-be42-43a2-9634-8b67c7fe93a7","{""num_scrambled_semantic"":""8"",""num_scrambled_causal"":""4"",""num_scrambled_schematic"":""4"",""participantId"":""DDC6F13BCC9843248E56210F2FF52DD3"",""assignmentId"":""05cd2574-8cef-4e54-ac3f-f63e2e5cae41"",""projectId"":""9076ac92-be42-43a2-9634-8b67c7fe93a7""}","https://test12345.live/?num_scrambled_semantic=8&num_scrambled_causal=4&num_scrambled_schematic=4&participantId=DDC6F13BCC9843248E56210F2FF52DD3&assignmentId=05cd2574-8cef-4e54-ac3f-f63e2e5cae41&projectId=9076ac92-be42-43a2-9634-8b67c7fe93a7","DDC6F13BCC9843248E56210F2FF52DD3-2025-05-22-19-30-22","","null","","[]","null","",""
"","","","","","image-button-response","63","739772","0.0-12.0-1.0-0.2","DDC6F13BCC9843248E56210F2FF52DD3","DDC6F13BCC9843248E56210F2FF52DD3","05cd2574-8cef-4e54-ac3f-f63e2e5cae41","9076ac92-be42-43a2-9634-8b67c7fe93a7","{""num_scrambled_semantic"":""8"",""num_scrambled_causal"":""4"",""num_scrambled_schematic"":""4"",""participantId"":""DDC6F13BCC9843248E56210F2FF52DD3"",""assignmentId"":""05cd2574-8cef-4e54-ac3f-f63e2e5cae41"",""projectId"":""9076ac92-be42-43a2-9634-8b67c7fe93a7""}","https://test12345.live/?num_scrambled_semantic=8&num_scrambled_causal=4&num_scrambled_schematic=4&participantId=DDC6F13BCC9843248E56210F2FF52DD3&assignmentId=05cd2574-8cef-4e54-ac3f-f63e2e5cae41&projectId=9076ac92-be42-43a2-9634-8b67c7fe93a7","DDC6F13BCC9843248E56210F2FF52DD3-2025-05-22-19-30-22","","null","","images/semantic_sequence/housework_semantic/housework_semantic_3.png","null","",""
"","","","","","image-button-response","64","741135","0.0-12.0-1.0-1.2","DDC6F13BCC9843248E56210F2FF52DD3","DDC6F13BCC9843248E56210F2FF52DD3","05cd2574-8cef-4e54-ac3f-f63e2e5cae41","9076ac92-be42-43a2-9634-8b67c7fe93a7","{""num_scrambled_semantic"":""8"",""num_scrambled_causal"":""4"",""num_scrambled_schematic"":""4"",""participantId"":""DDC6F13BCC9843248E56210F2FF52DD3"",""assignmentId"":""05cd2574-8cef-4e54-ac3f-f63e2e5cae41"",""projectId"":""9076ac92-be42-43a2-9634-8b67c7fe93a7""}","https://test12345.live/?num_scrambled_semantic=8&num_scrambled_causal=4&num_scrambled_schematic=4&participantId=DDC6F13BCC9843248E56210F2FF52DD3&assignmentId=05cd2574-8cef-4e54-ac3f-f63e2e5cae41&projectId=9076ac92-be42-43a2-9634-8b67c7fe93a7","DDC6F13BCC9843248E56210F2FF52DD3-2025-05-22-19-30-22","","1362","","images/semantic_sequence/housework_semantic/housework_semantic_3.png","0","",""
"","","","","","image-button-response","65","742949","0.0-12.0-1.0-2.2","DDC6F13BCC9843248E56210F2FF52DD3","DDC6F13BCC9843248E56210F2FF52DD3","05cd2574-8cef-4e54-ac3f-f63e2e5cae41","9076ac92-be42-43a2-9634-8b67c7fe93a7","{""num_scrambled_semantic"":""8"",""num_scrambled_causal"":""4"",""num_scrambled_schematic"":""4"",""participantId"":""DDC6F13BCC9843248E56210F2FF52DD3"",""assignmentId"":""05cd2574-8cef-4e54-ac3f-f63e2e5cae41"",""projectId"":""9076ac92-be42-43a2-9634-8b67c7fe93a7""}","https://test12345.live/?num_scrambled_semantic=8&num_scrambled_causal=4&num_scrambled_schematic=4&participantId=DDC6F13BCC9843248E56210F2FF52DD3&assignmentId=05cd2574-8cef-4e54-ac3f-f63e2e5cae41&projectId=9076ac92-be42-43a2-9634-8b67c7fe93a7","DDC6F13BCC9843248E56210F2FF52DD3-2025-05-22-19-30-22","","null","","[]","null","",""
"","","","","","image-button-response","66","747454","0.0-12.0-1.0-0.3","DDC6F13BCC9843248E56210F2FF52DD3","DDC6F13BCC9843248E56210F2FF52DD3","05cd2574-8cef-4e54-ac3f-f63e2e5cae41","9076ac92-be42-43a2-9634-8b67c7fe93a7","{""num_scrambled_semantic"":""8"",""num_scrambled_causal"":""4"",""num_scrambled_schematic"":""4"",""participantId"":""DDC6F13BCC9843248E56210F2FF52DD3"",""assignmentId"":""05cd2574-8cef-4e54-ac3f-f63e2e5cae41"",""projectId"":""9076ac92-be42-43a2-9634-8b67c7fe93a7""}","https://test12345.live/?num_scrambled_semantic=8&num_scrambled_causal=4&num_scrambled_schematic=4&participantId=DDC6F13BCC9843248E56210F2FF52DD3&assignmentId=05cd2574-8cef-4e54-ac3f-f63e2e5cae41&projectId=9076ac92-be42-43a2-9634-8b67c7fe93a7","DDC6F13BCC9843248E56210F2FF52DD3-2025-05-22-19-30-22","","null","","images/semantic_sequence/housework_semantic/housework_semantic_4.png","null","",""
"","","","","","image-button-response","67","748147","0.0-12.0-1.0-1.3","DDC6F13BCC9843248E56210F2FF52DD3","DDC6F13BCC9843248E56210F2FF52DD3","05cd2574-8cef-4e54-ac3f-f63e2e5cae41","9076ac92-be42-43a2-9634-8b67c7fe93a7","{""num_scrambled_semantic"":""8"",""num_scrambled_causal"":""4"",""num_scrambled_schematic"":""4"",""participantId"":""DDC6F13BCC9843248E56210F2FF52DD3"",""assignmentId"":""05cd2574-8cef-4e54-ac3f-f63e2e5cae41"",""projectId"":""9076ac92-be42-43a2-9634-8b67c7fe93a7""}","https://test12345.live/?num_scrambled_semantic=8&num_scrambled_causal=4&num_scrambled_schematic=4&participantId=DDC6F13BCC9843248E56210F2FF52DD3&assignmentId=05cd2574-8cef-4e54-ac3f-f63e2e5cae41&projectId=9076ac92-be42-43a2-9634-8b67c7fe93a7","DDC6F13BCC9843248E56210F2FF52DD3-2025-05-22-19-30-22","","693","","images/semantic_sequence/housework_semantic/housework_semantic_4.png","0","",""
"","","","","","image-button-response","68","749949","0.0-12.0-1.0-2.3","DDC6F13BCC9843248E56210F2FF52DD3","DDC6F13BCC9843248E56210F2FF52DD3","05cd2574-8cef-4e54-ac3f-f63e2e5cae41","9076ac92-be42-43a2-9634-8b67c7fe93a7","{""num_scrambled_semantic"":""8"",""num_scrambled_causal"":""4"",""num_scrambled_schematic"":""4"",""participantId"":""DDC6F13BCC9843248E56210F2FF52DD3"",""assignmentId"":""05cd2574-8cef-4e54-ac3f-f63e2e5cae41"",""projectId"":""9076ac92-be42-43a2-9634-8b67c7fe93a7""}","https://test12345.live/?num_scrambled_semantic=8&num_scrambled_causal=4&num_scrambled_schematic=4&participantId=DDC6F13BCC9843248E56210F2FF52DD3&assignmentId=05cd2574-8cef-4e54-ac3f-f63e2e5cae41&projectId=9076ac92-be42-43a2-9634-8b67c7fe93a7","DDC6F13BCC9843248E56210F2FF52DD3-2025-05-22-19-30-22","","null","","[]","null","",""
"","","","","","image-button-response","69","754450","0.0-12.0-1.0-0.4","DDC6F13BCC9843248E56210F2FF52DD3","DDC6F13BCC9843248E56210F2FF52DD3","05cd2574-8cef-4e54-ac3f-f63e2e5cae41","9076ac92-be42-43a2-9634-8b67c7fe93a7","{""num_scrambled_semantic"":""8"",""num_scrambled_causal"":""4"",""num_scrambled_schematic"":""4"",""participantId"":""DDC6F13BCC9843248E56210F2FF52DD3"",""assignmentId"":""05cd2574-8cef-4e54-ac3f-f63e2e5cae41"",""projectId"":""9076ac92-be42-43a2-9634-8b67c7fe93a7""}","https://test12345.live/?num_scrambled_semantic=8&num_scrambled_causal=4&num_scrambled_schematic=4&participantId=DDC6F13BCC9843248E56210F2FF52DD3&assignmentId=05cd2574-8cef-4e54-ac3f-f63e2e5cae41&projectId=9076ac92-be42-43a2-9634-8b67c7fe93a7","DDC6F13BCC9843248E56210F2FF52DD3-2025-05-22-19-30-22","","null","","images/semantic_sequence/housework_semantic/housework_semantic_5.png","null","",""
"","","","","","image-button-response","70","756543","0.0-12.0-1.0-1.4","DDC6F13BCC9843248E56210F2FF52DD3","DDC6F13BCC9843248E56210F2FF52DD3","05cd2574-8cef-4e54-ac3f-f63e2e5cae41","9076ac92-be42-43a2-9634-8b67c7fe93a7","{""num_scrambled_semantic"":""8"",""num_scrambled_causal"":""4"",""num_scrambled_schematic"":""4"",""participantId"":""DDC6F13BCC9843248E56210F2FF52DD3"",""assignmentId"":""05cd2574-8cef-4e54-ac3f-f63e2e5cae41"",""projectId"":""9076ac92-be42-43a2-9634-8b67c7fe93a7""}","https://test12345.live/?num_scrambled_semantic=8&num_scrambled_causal=4&num_scrambled_schematic=4&participantId=DDC6F13BCC9843248E56210F2FF52DD3&assignmentId=05cd2574-8cef-4e54-ac3f-f63e2e5cae41&projectId=9076ac92-be42-43a2-9634-8b67c7fe93a7","DDC6F13BCC9843248E56210F2FF52DD3-2025-05-22-19-30-22","","2092","","images/semantic_sequence/housework_semantic/housework_semantic_5.png","0","",""
"","","","","","image-button-response","71","758345","0.0-12.0-1.0-2.4","DDC6F13BCC9843248E56210F2FF52DD3","DDC6F13BCC9843248E56210F2FF52DD3","05cd2574-8cef-4e54-ac3f-f63e2e5cae41","9076ac92-be42-43a2-9634-8b67c7fe93a7","{""num_scrambled_semantic"":""8"",""num_scrambled_causal"":""4"",""num_scrambled_schematic"":""4"",""participantId"":""DDC6F13BCC9843248E56210F2FF52DD3"",""assignmentId"":""05cd2574-8cef-4e54-ac3f-f63e2e5cae41"",""projectId"":""9076ac92-be42-43a2-9634-8b67c7fe93a7""}","https://test12345.live/?num_scrambled_semantic=8&num_scrambled_causal=4&num_scrambled_schematic=4&participantId=DDC6F13BCC9843248E56210F2FF52DD3&assignmentId=05cd2574-8cef-4e54-ac3f-f63e2e5cae41&projectId=9076ac92-be42-43a2-9634-8b67c7fe93a7","DDC6F13BCC9843248E56210F2FF52DD3-2025-05-22-19-30-22","","null","","[]","null","",""
"","","","","","image-button-response","72","762853","0.0-12.0-1.0-0.5","DDC6F13BCC9843248E56210F2FF52DD3","DDC6F13BCC9843248E56210F2FF52DD3","05cd2574-8cef-4e54-ac3f-f63e2e5cae41","9076ac92-be42-43a2-9634-8b67c7fe93a7","{""num_scrambled_semantic"":""8"",""num_scrambled_causal"":""4"",""num_scrambled_schematic"":""4"",""participantId"":""DDC6F13BCC9843248E56210F2FF52DD3"",""assignmentId"":""05cd2574-8cef-4e54-ac3f-f63e2e5cae41"",""projectId"":""9076ac92-be42-43a2-9634-8b67c7fe93a7""}","https://test12345.live/?num_scrambled_semantic=8&num_scrambled_causal=4&num_scrambled_schematic=4&participantId=DDC6F13BCC9843248E56210F2FF52DD3&assignmentId=05cd2574-8cef-4e54-ac3f-f63e2e5cae41&projectId=9076ac92-be42-43a2-9634-8b67c7fe93a7","DDC6F13BCC9843248E56210F2FF52DD3-2025-05-22-19-30-22","","null","","images/semantic_sequence/housework_semantic/housework_semantic_6.png","null","",""
"","","","","","image-button-response","73","764132","0.0-12.0-1.0-1.5","DDC6F13BCC9843248E56210F2FF52DD3","DDC6F13BCC9843248E56210F2FF52DD3","05cd2574-8cef-4e54-ac3f-f63e2e5cae41","9076ac92-be42-43a2-9634-8b67c7fe93a7","{""num_scrambled_semantic"":""8"",""num_scrambled_causal"":""4"",""num_scrambled_schematic"":""4"",""participantId"":""DDC6F13BCC9843248E56210F2FF52DD3"",""assignmentId"":""05cd2574-8cef-4e54-ac3f-f63e2e5cae41"",""projectId"":""9076ac92-be42-43a2-9634-8b67c7fe93a7""}","https://test12345.live/?num_scrambled_semantic=8&num_scrambled_causal=4&num_scrambled_schematic=4&participantId=DDC6F13BCC9843248E56210F2FF52DD3&assignmentId=05cd2574-8cef-4e54-ac3f-f63e2e5cae41&projectId=9076ac92-be42-43a2-9634-8b67c7fe93a7","DDC6F13BCC9843248E56210F2FF52DD3-2025-05-22-19-30-22","","1279","","images/semantic_sequence/housework_semantic/housework_semantic_6.png","0","",""
"","","","","","image-button-response","74","765939","0.0-12.0-1.0-2.5","DDC6F13BCC9843248E56210F2FF52DD3","DDC6F13BCC9843248E56210F2FF52DD3","05cd2574-8cef-4e54-ac3f-f63e2e5cae41","9076ac92-be42-43a2-9634-8b67c7fe93a7","{""num_scrambled_semantic"":""8"",""num_scrambled_causal"":""4"",""num_scrambled_schematic"":""4"",""participantId"":""DDC6F13BCC9843248E56210F2FF52DD3"",""assignmentId"":""05cd2574-8cef-4e54-ac3f-f63e2e5cae41"",""projectId"":""9076ac92-be42-43a2-9634-8b67c7fe93a7""}","https://test12345.live/?num_scrambled_semantic=8&num_scrambled_causal=4&num_scrambled_schematic=4&participantId=DDC6F13BCC9843248E56210F2FF52DD3&assignmentId=05cd2574-8cef-4e54-ac3f-f63e2e5cae41&projectId=9076ac92-be42-43a2-9634-8b67c7fe93a7","DDC6F13BCC9843248E56210F2FF52DD3-2025-05-22-19-30-22","","null","","[]","null","",""
"","","","","","image-button-response","75","770441","0.0-12.0-1.0-0.6","DDC6F13BCC9843248E56210F2FF52DD3","DDC6F13BCC9843248E56210F2FF52DD3","05cd2574-8cef-4e54-ac3f-f63e2e5cae41","9076ac92-be42-43a2-9634-8b67c7fe93a7","{""num_scrambled_semantic"":""8"",""num_scrambled_causal"":""4"",""num_scrambled_schematic"":""4"",""participantId"":""DDC6F13BCC9843248E56210F2FF52DD3"",""assignmentId"":""05cd2574-8cef-4e54-ac3f-f63e2e5cae41"",""projectId"":""9076ac92-be42-43a2-9634-8b67c7fe93a7""}","https://test12345.live/?num_scrambled_semantic=8&num_scrambled_causal=4&num_scrambled_schematic=4&participantId=DDC6F13BCC9843248E56210F2FF52DD3&assignmentId=05cd2574-8cef-4e54-ac3f-f63e2e5cae41&projectId=9076ac92-be42-43a2-9634-8b67c7fe93a7","DDC6F13BCC9843248E56210F2FF52DD3-2025-05-22-19-30-22","","null","","images/semantic_sequence/housework_semantic/housework_semantic_7.png","null","",""
"","","","","","image-button-response","76","771944","0.0-12.0-1.0-1.6","DDC6F13BCC9843248E56210F2FF52DD3","DDC6F13BCC9843248E56210F2FF52DD3","05cd2574-8cef-4e54-ac3f-f63e2e5cae41","9076ac92-be42-43a2-9634-8b67c7fe93a7","{""num_scrambled_semantic"":""8"",""num_scrambled_causal"":""4"",""num_scrambled_schematic"":""4"",""participantId"":""DDC6F13BCC9843248E56210F2FF52DD3"",""assignmentId"":""05cd2574-8cef-4e54-ac3f-f63e2e5cae41"",""projectId"":""9076ac92-be42-43a2-9634-8b67c7fe93a7""}","https://test12345.live/?num_scrambled_semantic=8&num_scrambled_causal=4&num_scrambled_schematic=4&participantId=DDC6F13BCC9843248E56210F2FF52DD3&assignmentId=05cd2574-8cef-4e54-ac3f-f63e2e5cae41&projectId=9076ac92-be42-43a2-9634-8b67c7fe93a7","DDC6F13BCC9843248E56210F2FF52DD3-2025-05-22-19-30-22","","1502","","images/semantic_sequence/housework_semantic/housework_semantic_7.png","0","",""
"","","","","","image-button-response","77","773750","0.0-12.0-1.0-2.6","DDC6F13BCC9843248E56210F2FF52DD3","DDC6F13BCC9843248E56210F2FF52DD3","05cd2574-8cef-4e54-ac3f-f63e2e5cae41","9076ac92-be42-43a2-9634-8b67c7fe93a7","{""num_scrambled_semantic"":""8"",""num_scrambled_causal"":""4"",""num_scrambled_schematic"":""4"",""participantId"":""DDC6F13BCC9843248E56210F2FF52DD3"",""assignmentId"":""05cd2574-8cef-4e54-ac3f-f63e2e5cae41"",""projectId"":""9076ac92-be42-43a2-9634-8b67c7fe93a7""}","https://test12345.live/?num_scrambled_semantic=8&num_scrambled_causal=4&num_scrambled_schematic=4&participantId=DDC6F13BCC9843248E56210F2FF52DD3&assignmentId=05cd2574-8cef-4e54-ac3f-f63e2e5cae41&projectId=9076ac92-be42-43a2-9634-8b67c7fe93a7","DDC6F13BCC9843248E56210F2FF52DD3-2025-05-22-19-30-22","","null","","[]","null","",""
"","","","","","image-button-response","78","778259","0.0-12.0-1.0-0.7","DDC6F13BCC9843248E56210F2FF52DD3","DDC6F13BCC9843248E56210F2FF52DD3","05cd2574-8cef-4e54-ac3f-f63e2e5cae41","9076ac92-be42-43a2-9634-8b67c7fe93a7","{""num_scrambled_semantic"":""8"",""num_scrambled_causal"":""4"",""num_scrambled_schematic"":""4"",""participantId"":""DDC6F13BCC9843248E56210F2FF52DD3"",""assignmentId"":""05cd2574-8cef-4e54-ac3f-f63e2e5cae41"",""projectId"":""9076ac92-be42-43a2-9634-8b67c7fe93a7""}","https://test12345.live/?num_scrambled_semantic=8&num_scrambled_causal=4&num_scrambled_schematic=4&participantId=DDC6F13BCC9843248E56210F2FF52DD3&assignmentId=05cd2574-8cef-4e54-ac3f-f63e2e5cae41&projectId=9076ac92-be42-43a2-9634-8b67c7fe93a7","DDC6F13BCC9843248E56210F2FF52DD3-2025-05-22-19-30-22","","null","","images/semantic_sequence/housework_semantic/housework_semantic_8.png","null","",""
"","","","","","image-button-response","79","780788","0.0-12.0-1.0-1.7","DDC6F13BCC9843248E56210F2FF52DD3","DDC6F13BCC9843248E56210F2FF52DD3","05cd2574-8cef-4e54-ac3f-f63e2e5cae41","9076ac92-be42-43a2-9634-8b67c7fe93a7","{""num_scrambled_semantic"":""8"",""num_scrambled_causal"":""4"",""num_scrambled_schematic"":""4"",""participantId"":""DDC6F13BCC9843248E56210F2FF52DD3"",""assignmentId"":""05cd2574-8cef-4e54-ac3f-f63e2e5cae41"",""projectId"":""9076ac92-be42-43a2-9634-8b67c7fe93a7""}","https://test12345.live/?num_scrambled_semantic=8&num_scrambled_causal=4&num_scrambled_schematic=4&participantId=DDC6F13BCC9843248E56210F2FF52DD3&assignmentId=05cd2574-8cef-4e54-ac3f-f63e2e5cae41&projectId=9076ac92-be42-43a2-9634-8b67c7fe93a7","DDC6F13BCC9843248E56210F2FF52DD3-2025-05-22-19-30-22","","2529","","images/semantic_sequence/housework_semantic/housework_semantic_8.png","0","",""
"","","","","","image-button-response","80","782601","0.0-12.0-1.0-2.7","DDC6F13BCC9843248E56210F2FF52DD3","DDC6F13BCC9843248E56210F2FF52DD3","05cd2574-8cef-4e54-ac3f-f63e2e5cae41","9076ac92-be42-43a2-9634-8b67c7fe93a7","{""num_scrambled_semantic"":""8"",""num_scrambled_causal"":""4"",""num_scrambled_schematic"":""4"",""participantId"":""DDC6F13BCC9843248E56210F2FF52DD3"",""assignmentId"":""05cd2574-8cef-4e54-ac3f-f63e2e5cae41"",""projectId"":""9076ac92-be42-43a2-9634-8b67c7fe93a7""}","https://test12345.live/?num_scrambled_semantic=8&num_scrambled_causal=4&num_scrambled_schematic=4&participantId=DDC6F13BCC9843248E56210F2FF52DD3&assignmentId=05cd2574-8cef-4e54-ac3f-f63e2e5cae41&projectId=9076ac92-be42-43a2-9634-8b67c7fe93a7","DDC6F13BCC9843248E56210F2FF52DD3-2025-05-22-19-30-22","","null","","[]","null","",""
"","","","","","image-button-response","81","787102","0.0-12.0-1.0-0.8","DDC6F13BCC9843248E56210F2FF52DD3","DDC6F13BCC9843248E56210F2FF52DD3","05cd2574-8cef-4e54-ac3f-f63e2e5cae41","9076ac92-be42-43a2-9634-8b67c7fe93a7","{""num_scrambled_semantic"":""8"",""num_scrambled_causal"":""4"",""num_scrambled_schematic"":""4"",""participantId"":""DDC6F13BCC9843248E56210F2FF52DD3"",""assignmentId"":""05cd2574-8cef-4e54-ac3f-f63e2e5cae41"",""projectId"":""9076ac92-be42-43a2-9634-8b67c7fe93a7""}","https://test12345.live/?num_scrambled_semantic=8&num_scrambled_causal=4&num_scrambled_schematic=4&participantId=DDC6F13BCC9843248E56210F2FF52DD3&assignmentId=05cd2574-8cef-4e54-ac3f-f63e2e5cae41&projectId=9076ac92-be42-43a2-9634-8b67c7fe93a7","DDC6F13BCC9843248E56210F2FF52DD3-2025-05-22-19-30-22","","null","","images/semantic_sequence/housework_semantic/housework_semantic_9.png","null","",""
"","","","","","image-button-response","82","788009","0.0-12.0-1.0-1.8","DDC6F13BCC9843248E56210F2FF52DD3","DDC6F13BCC9843248E56210F2FF52DD3","05cd2574-8cef-4e54-ac3f-f63e2e5cae41","9076ac92-be42-43a2-9634-8b67c7fe93a7","{""num_scrambled_semantic"":""8"",""num_scrambled_causal"":""4"",""num_scrambled_schematic"":""4"",""participantId"":""DDC6F13BCC9843248E56210F2FF52DD3"",""assignmentId"":""05cd2574-8cef-4e54-ac3f-f63e2e5cae41"",""projectId"":""9076ac92-be42-43a2-9634-8b67c7fe93a7""}","https://test12345.live/?num_scrambled_semantic=8&num_scrambled_causal=4&num_scrambled_schematic=4&participantId=DDC6F13BCC9843248E56210F2FF52DD3&assignmentId=05cd2574-8cef-4e54-ac3f-f63e2e5cae41&projectId=9076ac92-be42-43a2-9634-8b67c7fe93a7","DDC6F13BCC9843248E56210F2FF52DD3-2025-05-22-19-30-22","","906","","images/semantic_sequence/housework_semantic/housework_semantic_9.png","0","",""
"","","","","","image-button-response","83","789818","0.0-12.0-1.0-2.8","DDC6F13BCC9843248E56210F2FF52DD3","DDC6F13BCC9843248E56210F2FF52DD3","05cd2574-8cef-4e54-ac3f-f63e2e5cae41","9076ac92-be42-43a2-9634-8b67c7fe93a7","{""num_scrambled_semantic"":""8"",""num_scrambled_causal"":""4"",""num_scrambled_schematic"":""4"",""participantId"":""DDC6F13BCC9843248E56210F2FF52DD3"",""assignmentId"":""05cd2574-8cef-4e54-ac3f-f63e2e5cae41"",""projectId"":""9076ac92-be42-43a2-9634-8b67c7fe93a7""}","https://test12345.live/?num_scrambled_semantic=8&num_scrambled_causal=4&num_scrambled_schematic=4&participantId=DDC6F13BCC9843248E56210F2FF52DD3&assignmentId=05cd2574-8cef-4e54-ac3f-f63e2e5cae41&projectId=9076ac92-be42-43a2-9634-8b67c7fe93a7","DDC6F13BCC9843248E56210F2FF52DD3-2025-05-22-19-30-22","","null","","[]","null","",""
"","","","","","image-button-response","84","794334","0.0-12.0-1.0-0.9","DDC6F13BCC9843248E56210F2FF52DD3","DDC6F13BCC9843248E56210F2FF52DD3","05cd2574-8cef-4e54-ac3f-f63e2e5cae41","9076ac92-be42-43a2-9634-8b67c7fe93a7","{""num_scrambled_semantic"":""8"",""num_scrambled_causal"":""4"",""num_scrambled_schematic"":""4"",""participantId"":""DDC6F13BCC9843248E56210F2FF52DD3"",""assignmentId"":""05cd2574-8cef-4e54-ac3f-f63e2e5cae41"",""projectId"":""9076ac92-be42-43a2-9634-8b67c7fe93a7""}","https://test12345.live/?num_scrambled_semantic=8&num_scrambled_causal=4&num_scrambled_schematic=4&participantId=DDC6F13BCC9843248E56210F2FF52DD3&assignmentId=05cd2574-8cef-4e54-ac3f-f63e2e5cae41&projectId=9076ac92-be42-43a2-9634-8b67c7fe93a7","DDC6F13BCC9843248E56210F2FF52DD3-2025-05-22-19-30-22","","null","","images/semantic_sequence/housework_semantic/housework_semantic_ten.png","null","",""
"","","","","","image-button-response","85","795958","0.0-12.0-1.0-1.9","DDC6F13BCC9843248E56210F2FF52DD3","DDC6F13BCC9843248E56210F2FF52DD3","05cd2574-8cef-4e54-ac3f-f63e2e5cae41","9076ac92-be42-43a2-9634-8b67c7fe93a7","{""num_scrambled_semantic"":""8"",""num_scrambled_causal"":""4"",""num_scrambled_schematic"":""4"",""participantId"":""DDC6F13BCC9843248E56210F2FF52DD3"",""assignmentId"":""05cd2574-8cef-4e54-ac3f-f63e2e5cae41"",""projectId"":""9076ac92-be42-43a2-9634-8b67c7fe93a7""}","https://test12345.live/?num_scrambled_semantic=8&num_scrambled_causal=4&num_scrambled_schematic=4&participantId=DDC6F13BCC9843248E56210F2FF52DD3&assignmentId=05cd2574-8cef-4e54-ac3f-f63e2e5cae41&projectId=9076ac92-be42-43a2-9634-8b67c7fe93a7","DDC6F13BCC9843248E56210F2FF52DD3-2025-05-22-19-30-22","","1623","","images/semantic_sequence/housework_semantic/housework_semantic_ten.png","0","",""
"","","","","","image-button-response","86","797760","0.0-12.0-1.0-2.9","DDC6F13BCC9843248E56210F2FF52DD3","DDC6F13BCC9843248E56210F2FF52DD3","05cd2574-8cef-4e54-ac3f-f63e2e5cae41","9076ac92-be42-43a2-9634-8b67c7fe93a7","{""num_scrambled_semantic"":""8"",""num_scrambled_causal"":""4"",""num_scrambled_schematic"":""4"",""participantId"":""DDC6F13BCC9843248E56210F2FF52DD3"",""assignmentId"":""05cd2574-8cef-4e54-ac3f-f63e2e5cae41"",""projectId"":""9076ac92-be42-43a2-9634-8b67c7fe93a7""}","https://test12345.live/?num_scrambled_semantic=8&num_scrambled_causal=4&num_scrambled_schematic=4&participantId=DDC6F13BCC9843248E56210F2FF52DD3&assignmentId=05cd2574-8cef-4e54-ac3f-f63e2e5cae41&projectId=9076ac92-be42-43a2-9634-8b67c7fe93a7","DDC6F13BCC9843248E56210F2FF52DD3-2025-05-22-19-30-22","","null","","[]","null","",""
"","","","","","html-audio-response","87","824961","0.0-13.0","DDC6F13BCC9843248E56210F2FF52DD3","DDC6F13BCC9843248E56210F2FF52DD3","05cd2574-8cef-4e54-ac3f-f63e2e5cae41","9076ac92-be42-43a2-9634-8b67c7fe93a7","{""num_scrambled_semantic"":""8"",""num_scrambled_causal"":""4"",""num_scrambled_schematic"":""4"",""participantId"":""DDC6F13BCC9843248E56210F2FF52DD3"",""assignmentId"":""05cd2574-8cef-4e54-ac3f-f63e2e5cae41"",""projectId"":""9076ac92-be42-43a2-9634-8b67c7fe93a7""}","https://test12345.live/?num_scrambled_semantic=8&num_scrambled_causal=4&num_scrambled_schematic=4&participantId=DDC6F13BCC9843248E56210F2FF52DD3&assignmentId=05cd2574-8cef-4e54-ac3f-f63e2e5cae41&projectId=9076ac92-be42-43a2-9634-8b67c7fe93a7","DDC6F13BCC9843248E56210F2FF52DD3-2025-05-22-19-30-22","","25981","","[""<span style=\""color: red; font-size: 24px\""> NOW RECORDING</span><p>Please say out loud all the images you saw, in the exact order you saw them. Try to recall as many images as you can, but remember: getting the order right is more important than the number of images you recall.</p>""]","","1","housework_semantic"
"","","","","","image-button-response","88","830974","0.0-14.0-0.0","DDC6F13BCC9843248E56210F2FF52DD3","DDC6F13BCC9843248E56210F2FF52DD3","05cd2574-8cef-4e54-ac3f-f63e2e5cae41","9076ac92-be42-43a2-9634-8b67c7fe93a7","{""num_scrambled_semantic"":""8"",""num_scrambled_causal"":""4"",""num_scrambled_schematic"":""4"",""participantId"":""DDC6F13BCC9843248E56210F2FF52DD3"",""assignmentId"":""05cd2574-8cef-4e54-ac3f-f63e2e5cae41"",""projectId"":""9076ac92-be42-43a2-9634-8b67c7fe93a7""}","https://test12345.live/?num_scrambled_semantic=8&num_scrambled_causal=4&num_scrambled_schematic=4&participantId=DDC6F13BCC9843248E56210F2FF52DD3&assignmentId=05cd2574-8cef-4e54-ac3f-f63e2e5cae41&projectId=9076ac92-be42-43a2-9634-8b67c7fe93a7","DDC6F13BCC9843248E56210F2FF52DD3-2025-05-22-19-30-22","","null","","images/semantic_sequence/maintaining_a_car_semantic/maintaining_a_car_semantic_0.png","null","",""
"","","","","","image-button-response","89","835479","0.0-14.0-1.0-0.0","DDC6F13BCC9843248E56210F2FF52DD3","DDC6F13BCC9843248E56210F2FF52DD3","05cd2574-8cef-4e54-ac3f-f63e2e5cae41","9076ac92-be42-43a2-9634-8b67c7fe93a7","{""num_scrambled_semantic"":""8"",""num_scrambled_causal"":""4"",""num_scrambled_schematic"":""4"",""participantId"":""DDC6F13BCC9843248E56210F2FF52DD3"",""assignmentId"":""05cd2574-8cef-4e54-ac3f-f63e2e5cae41"",""projectId"":""9076ac92-be42-43a2-9634-8b67c7fe93a7""}","https://test12345.live/?num_scrambled_semantic=8&num_scrambled_causal=4&num_scrambled_schematic=4&participantId=DDC6F13BCC9843248E56210F2FF52DD3&assignmentId=05cd2574-8cef-4e54-ac3f-f63e2e5cae41&projectId=9076ac92-be42-43a2-9634-8b67c7fe93a7","DDC6F13BCC9843248E56210F2FF52DD3-2025-05-22-19-30-22","","null","","images/semantic_sequence/maintaining_a_car_semantic/maintaining_a_car_semantic_7.png","null","",""
"","","","","","image-button-response","90","838299","0.0-14.0-1.0-1.0","DDC6F13BCC9843248E56210F2FF52DD3","DDC6F13BCC9843248E56210F2FF52DD3","05cd2574-8cef-4e54-ac3f-f63e2e5cae41","9076ac92-be42-43a2-9634-8b67c7fe93a7","{""num_scrambled_semantic"":""8"",""num_scrambled_causal"":""4"",""num_scrambled_schematic"":""4"",""participantId"":""DDC6F13BCC9843248E56210F2FF52DD3"",""assignmentId"":""05cd2574-8cef-4e54-ac3f-f63e2e5cae41"",""projectId"":""9076ac92-be42-43a2-9634-8b67c7fe93a7""}","https://test12345.live/?num_scrambled_semantic=8&num_scrambled_causal=4&num_scrambled_schematic=4&participantId=DDC6F13BCC9843248E56210F2FF52DD3&assignmentId=05cd2574-8cef-4e54-ac3f-f63e2e5cae41&projectId=9076ac92-be42-43a2-9634-8b67c7fe93a7","DDC6F13BCC9843248E56210F2FF52DD3-2025-05-22-19-30-22","","2819","","images/semantic_sequence/maintaining_a_car_semantic/maintaining_a_car_semantic_7.png","0","",""
"","","","","","image-button-response","91","840105","0.0-14.0-1.0-2.0","DDC6F13BCC9843248E56210F2FF52DD3","DDC6F13BCC9843248E56210F2FF52DD3","05cd2574-8cef-4e54-ac3f-f63e2e5cae41","9076ac92-be42-43a2-9634-8b67c7fe93a7","{""num_scrambled_semantic"":""8"",""num_scrambled_causal"":""4"",""num_scrambled_schematic"":""4"",""participantId"":""DDC6F13BCC9843248E56210F2FF52DD3"",""assignmentId"":""05cd2574-8cef-4e54-ac3f-f63e2e5cae41"",""projectId"":""9076ac92-be42-43a2-9634-8b67c7fe93a7""}","https://test12345.live/?num_scrambled_semantic=8&num_scrambled_causal=4&num_scrambled_schematic=4&participantId=DDC6F13BCC9843248E56210F2FF52DD3&assignmentId=05cd2574-8cef-4e54-ac3f-f63e2e5cae41&projectId=9076ac92-be42-43a2-9634-8b67c7fe93a7","DDC6F13BCC9843248E56210F2FF52DD3-2025-05-22-19-30-22","","null","","[]","null","",""
"","","","","","image-button-response","92","844614","0.0-14.0-1.0-0.1","DDC6F13BCC9843248E56210F2FF52DD3","DDC6F13BCC9843248E56210F2FF52DD3","05cd2574-8cef-4e54-ac3f-f63e2e5cae41","9076ac92-be42-43a2-9634-8b67c7fe93a7","{""num_scrambled_semantic"":""8"",""num_scrambled_causal"":""4"",""num_scrambled_schematic"":""4"",""participantId"":""DDC6F13BCC9843248E56210F2FF52DD3"",""assignmentId"":""05cd2574-8cef-4e54-ac3f-f63e2e5cae41"",""projectId"":""9076ac92-be42-43a2-9634-8b67c7fe93a7""}","https://test12345.live/?num_scrambled_semantic=8&num_scrambled_causal=4&num_scrambled_schematic=4&participantId=DDC6F13BCC9843248E56210F2FF52DD3&assignmentId=05cd2574-8cef-4e54-ac3f-f63e2e5cae41&projectId=9076ac92-be42-43a2-9634-8b67c7fe93a7","DDC6F13BCC9843248E56210F2FF52DD3-2025-05-22-19-30-22","","null","","images/semantic_sequence/maintaining_a_car_semantic/maintaining_a_car_semantic_1.png","null","",""
"","","","","","image-button-response","93","846225","0.0-14.0-1.0-1.1","DDC6F13BCC9843248E56210F2FF52DD3","DDC6F13BCC9843248E56210F2FF52DD3","05cd2574-8cef-4e54-ac3f-f63e2e5cae41","9076ac92-be42-43a2-9634-8b67c7fe93a7","{""num_scrambled_semantic"":""8"",""num_scrambled_causal"":""4"",""num_scrambled_schematic"":""4"",""participantId"":""DDC6F13BCC9843248E56210F2FF52DD3"",""assignmentId"":""05cd2574-8cef-4e54-ac3f-f63e2e5cae41"",""projectId"":""9076ac92-be42-43a2-9634-8b67c7fe93a7""}","https://test12345.live/?num_scrambled_semantic=8&num_scrambled_causal=4&num_scrambled_schematic=4&participantId=DDC6F13BCC9843248E56210F2FF52DD3&assignmentId=05cd2574-8cef-4e54-ac3f-f63e2e5cae41&projectId=9076ac92-be42-43a2-9634-8b67c7fe93a7","DDC6F13BCC9843248E56210F2FF52DD3-2025-05-22-19-30-22","","1610","","images/semantic_sequence/maintaining_a_car_semantic/maintaining_a_car_semantic_1.png","0","",""
"","","","","","image-button-response","94","848035","0.0-14.0-1.0-2.1","DDC6F13BCC9843248E56210F2FF52DD3","DDC6F13BCC9843248E56210F2FF52DD3","05cd2574-8cef-4e54-ac3f-f63e2e5cae41","9076ac92-be42-43a2-9634-8b67c7fe93a7","{""num_scrambled_semantic"":""8"",""num_scrambled_causal"":""4"",""num_scrambled_schematic"":""4"",""participantId"":""DDC6F13BCC9843248E56210F2FF52DD3"",""assignmentId"":""05cd2574-8cef-4e54-ac3f-f63e2e5cae41"",""projectId"":""9076ac92-be42-43a2-9634-8b67c7fe93a7""}","https://test12345.live/?num_scrambled_semantic=8&num_scrambled_causal=4&num_scrambled_schematic=4&participantId=DDC6F13BCC9843248E56210F2FF52DD3&assignmentId=05cd2574-8cef-4e54-ac3f-f63e2e5cae41&projectId=9076ac92-be42-43a2-9634-8b67c7fe93a7","DDC6F13BCC9843248E56210F2FF52DD3-2025-05-22-19-30-22","","null","","[]","null","",""
"","","","","","image-button-response","95","852541","0.0-14.0-1.0-0.2","DDC6F13BCC9843248E56210F2FF52DD3","DDC6F13BCC9843248E56210F2FF52DD3","05cd2574-8cef-4e54-ac3f-f63e2e5cae41","9076ac92-be42-43a2-9634-8b67c7fe93a7","{""num_scrambled_semantic"":""8"",""num_scrambled_causal"":""4"",""num_scrambled_schematic"":""4"",""participantId"":""DDC6F13BCC9843248E56210F2FF52DD3"",""assignmentId"":""05cd2574-8cef-4e54-ac3f-f63e2e5cae41"",""projectId"":""9076ac92-be42-43a2-9634-8b67c7fe93a7""}","https://test12345.live/?num_scrambled_semantic=8&num_scrambled_causal=4&num_scrambled_schematic=4&participantId=DDC6F13BCC9843248E56210F2FF52DD3&assignmentId=05cd2574-8cef-4e54-ac3f-f63e2e5cae41&projectId=9076ac92-be42-43a2-9634-8b67c7fe93a7","DDC6F13BCC9843248E56210F2FF52DD3-2025-05-22-19-30-22","","null","","images/semantic_sequence/maintaining_a_car_semantic/maintaining_a_car_semantic_6.png","null","",""
"","","","","","image-button-response","96","854765","0.0-14.0-1.0-1.2","DDC6F13BCC9843248E56210F2FF52DD3","DDC6F13BCC9843248E56210F2FF52DD3","05cd2574-8cef-4e54-ac3f-f63e2e5cae41","9076ac92-be42-43a2-9634-8b67c7fe93a7","{""num_scrambled_semantic"":""8"",""num_scrambled_causal"":""4"",""num_scrambled_schematic"":""4"",""participantId"":""DDC6F13BCC9843248E56210F2FF52DD3"",""assignmentId"":""05cd2574-8cef-4e54-ac3f-f63e2e5cae41"",""projectId"":""9076ac92-be42-43a2-9634-8b67c7fe93a7""}","https://test12345.live/?num_scrambled_semantic=8&num_scrambled_causal=4&num_scrambled_schematic=4&participantId=DDC6F13BCC9843248E56210F2FF52DD3&assignmentId=05cd2574-8cef-4e54-ac3f-f63e2e5cae41&projectId=9076ac92-be42-43a2-9634-8b67c7fe93a7","DDC6F13BCC9843248E56210F2FF52DD3-2025-05-22-19-30-22","","2222","","images/semantic_sequence/maintaining_a_car_semantic/maintaining_a_car_semantic_6.png","0","",""
"","","","","","image-button-response","97","856571","0.0-14.0-1.0-2.2","DDC6F13BCC9843248E56210F2FF52DD3","DDC6F13BCC9843248E56210F2FF52DD3","05cd2574-8cef-4e54-ac3f-f63e2e5cae41","9076ac92-be42-43a2-9634-8b67c7fe93a7","{""num_scrambled_semantic"":""8"",""num_scrambled_causal"":""4"",""num_scrambled_schematic"":""4"",""participantId"":""DDC6F13BCC9843248E56210F2FF52DD3"",""assignmentId"":""05cd2574-8cef-4e54-ac3f-f63e2e5cae41"",""projectId"":""9076ac92-be42-43a2-9634-8b67c7fe93a7""}","https://test12345.live/?num_scrambled_semantic=8&num_scrambled_causal=4&num_scrambled_schematic=4&participantId=DDC6F13BCC9843248E56210F2FF52DD3&assignmentId=05cd2574-8cef-4e54-ac3f-f63e2e5cae41&projectId=9076ac92-be42-43a2-9634-8b67c7fe93a7","DDC6F13BCC9843248E56210F2FF52DD3-2025-05-22-19-30-22","","null","","[]","null","",""
"","","","","","image-button-response","98","861073","0.0-14.0-1.0-0.3","DDC6F13BCC9843248E56210F2FF52DD3","DDC6F13BCC9843248E56210F2FF52DD3","05cd2574-8cef-4e54-ac3f-f63e2e5cae41","9076ac92-be42-43a2-9634-8b67c7fe93a7","{""num_scrambled_semantic"":""8"",""num_scrambled_causal"":""4"",""num_scrambled_schematic"":""4"",""participantId"":""DDC6F13BCC9843248E56210F2FF52DD3"",""assignmentId"":""05cd2574-8cef-4e54-ac3f-f63e2e5cae41"",""projectId"":""9076ac92-be42-43a2-9634-8b67c7fe93a7""}","https://test12345.live/?num_scrambled_semantic=8&num_scrambled_causal=4&num_scrambled_schematic=4&participantId=DDC6F13BCC9843248E56210F2FF52DD3&assignmentId=05cd2574-8cef-4e54-ac3f-f63e2e5cae41&projectId=9076ac92-be42-43a2-9634-8b67c7fe93a7","DDC6F13BCC9843248E56210F2FF52DD3-2025-05-22-19-30-22","","null","","images/semantic_sequence/maintaining_a_car_semantic/maintaining_a_car_semantic_5.png","null","",""
"","","","","","image-button-response","99","862825","0.0-14.0-1.0-1.3","DDC6F13BCC9843248E56210F2FF52DD3","DDC6F13BCC9843248E56210F2FF52DD3","05cd2574-8cef-4e54-ac3f-f63e2e5cae41","9076ac92-be42-43a2-9634-8b67c7fe93a7","{""num_scrambled_semantic"":""8"",""num_scrambled_causal"":""4"",""num_scrambled_schematic"":""4"",""participantId"":""DDC6F13BCC9843248E56210F2FF52DD3"",""assignmentId"":""05cd2574-8cef-4e54-ac3f-f63e2e5cae41"",""projectId"":""9076ac92-be42-43a2-9634-8b67c7fe93a7""}","https://test12345.live/?num_scrambled_semantic=8&num_scrambled_causal=4&num_scrambled_schematic=4&participantId=DDC6F13BCC9843248E56210F2FF52DD3&assignmentId=05cd2574-8cef-4e54-ac3f-f63e2e5cae41&projectId=9076ac92-be42-43a2-9634-8b67c7fe93a7","DDC6F13BCC9843248E56210F2FF52DD3-2025-05-22-19-30-22","","1751","","images/semantic_sequence/maintaining_a_car_semantic/maintaining_a_car_semantic_5.png","0","",""
"","","","","","image-button-response","100","864631","0.0-14.0-1.0-2.3","DDC6F13BCC9843248E56210F2FF52DD3","DDC6F13BCC9843248E56210F2FF52DD3","05cd2574-8cef-4e54-ac3f-f63e2e5cae41","9076ac92-be42-43a2-9634-8b67c7fe93a7","{""num_scrambled_semantic"":""8"",""num_scrambled_causal"":""4"",""num_scrambled_schematic"":""4"",""participantId"":""DDC6F13BCC9843248E56210F2FF52DD3"",""assignmentId"":""05cd2574-8cef-4e54-ac3f-f63e2e5cae41"",""projectId"":""9076ac92-be42-43a2-9634-8b67c7fe93a7""}","https://test12345.live/?num_scrambled_semantic=8&num_scrambled_causal=4&num_scrambled_schematic=4&participantId=DDC6F13BCC9843248E56210F2FF52DD3&assignmentId=05cd2574-8cef-4e54-ac3f-f63e2e5cae41&projectId=9076ac92-be42-43a2-9634-8b67c7fe93a7","DDC6F13BCC9843248E56210F2FF52DD3-2025-05-22-19-30-22","","null","","[]","null","",""
"","","","","","image-button-response","101","869146","0.0-14.0-1.0-0.4","DDC6F13BCC9843248E56210F2FF52DD3","DDC6F13BCC9843248E56210F2FF52DD3","05cd2574-8cef-4e54-ac3f-f63e2e5cae41","9076ac92-be42-43a2-9634-8b67c7fe93a7","{""num_scrambled_semantic"":""8"",""num_scrambled_causal"":""4"",""num_scrambled_schematic"":""4"",""participantId"":""DDC6F13BCC9843248E56210F2FF52DD3"",""assignmentId"":""05cd2574-8cef-4e54-ac3f-f63e2e5cae41"",""projectId"":""9076ac92-be42-43a2-9634-8b67c7fe93a7""}","https://test12345.live/?num_scrambled_semantic=8&num_scrambled_causal=4&num_scrambled_schematic=4&participantId=DDC6F13BCC9843248E56210F2FF52DD3&assignmentId=05cd2574-8cef-4e54-ac3f-f63e2e5cae41&projectId=9076ac92-be42-43a2-9634-8b67c7fe93a7","DDC6F13BCC9843248E56210F2FF52DD3-2025-05-22-19-30-22","","null","","images/semantic_sequence/maintaining_a_car_semantic/maintaining_a_car_semantic_9.png","null","",""
"","","","","","image-button-response","102","873052","0.0-14.0-1.0-1.4","DDC6F13BCC9843248E56210F2FF52DD3","DDC6F13BCC9843248E56210F2FF52DD3","05cd2574-8cef-4e54-ac3f-f63e2e5cae41","9076ac92-be42-43a2-9634-8b67c7fe93a7","{""num_scrambled_semantic"":""8"",""num_scrambled_causal"":""4"",""num_scrambled_schematic"":""4"",""participantId"":""DDC6F13BCC9843248E56210F2FF52DD3"",""assignmentId"":""05cd2574-8cef-4e54-ac3f-f63e2e5cae41"",""projectId"":""9076ac92-be42-43a2-9634-8b67c7fe93a7""}","https://test12345.live/?num_scrambled_semantic=8&num_scrambled_causal=4&num_scrambled_schematic=4&participantId=DDC6F13BCC9843248E56210F2FF52DD3&assignmentId=05cd2574-8cef-4e54-ac3f-f63e2e5cae41&projectId=9076ac92-be42-43a2-9634-8b67c7fe93a7","DDC6F13BCC9843248E56210F2FF52DD3-2025-05-22-19-30-22","","3905","","images/semantic_sequence/maintaining_a_car_semantic/maintaining_a_car_semantic_9.png","0","",""
"","","","","","image-button-response","103","874868","0.0-14.0-1.0-2.4","DDC6F13BCC9843248E56210F2FF52DD3","DDC6F13BCC9843248E56210F2FF52DD3","05cd2574-8cef-4e54-ac3f-f63e2e5cae41","9076ac92-be42-43a2-9634-8b67c7fe93a7","{""num_scrambled_semantic"":""8"",""num_scrambled_causal"":""4"",""num_scrambled_schematic"":""4"",""participantId"":""DDC6F13BCC9843248E56210F2FF52DD3"",""assignmentId"":""05cd2574-8cef-4e54-ac3f-f63e2e5cae41"",""projectId"":""9076ac92-be42-43a2-9634-8b67c7fe93a7""}","https://test12345.live/?num_scrambled_semantic=8&num_scrambled_causal=4&num_scrambled_schematic=4&participantId=DDC6F13BCC9843248E56210F2FF52DD3&assignmentId=05cd2574-8cef-4e54-ac3f-f63e2e5cae41&projectId=9076ac92-be42-43a2-9634-8b67c7fe93a7","DDC6F13BCC9843248E56210F2FF52DD3-2025-05-22-19-30-22","","null","","[]","null","",""
"","","","","","image-button-response","104","879382","0.0-14.0-1.0-0.5","DDC6F13BCC9843248E56210F2FF52DD3","DDC6F13BCC9843248E56210F2FF52DD3","05cd2574-8cef-4e54-ac3f-f63e2e5cae41","9076ac92-be42-43a2-9634-8b67c7fe93a7","{""num_scrambled_semantic"":""8"",""num_scrambled_causal"":""4"",""num_scrambled_schematic"":""4"",""participantId"":""DDC6F13BCC9843248E56210F2FF52DD3"",""assignmentId"":""05cd2574-8cef-4e54-ac3f-f63e2e5cae41"",""projectId"":""9076ac92-be42-43a2-9634-8b67c7fe93a7""}","https://test12345.live/?num_scrambled_semantic=8&num_scrambled_causal=4&num_scrambled_schematic=4&participantId=DDC6F13BCC9843248E56210F2FF52DD3&assignmentId=05cd2574-8cef-4e54-ac3f-f63e2e5cae41&projectId=9076ac92-be42-43a2-9634-8b67c7fe93a7","DDC6F13BCC9843248E56210F2FF52DD3-2025-05-22-19-30-22","","null","","images/semantic_sequence/maintaining_a_car_semantic/maintaining_a_car_semantic_4.png","null","",""
"","","","","","image-button-response","105","881201","0.0-14.0-1.0-1.5","DDC6F13BCC9843248E56210F2FF52DD3","DDC6F13BCC9843248E56210F2FF52DD3","05cd2574-8cef-4e54-ac3f-f63e2e5cae41","9076ac92-be42-43a2-9634-8b67c7fe93a7","{""num_scrambled_semantic"":""8"",""num_scrambled_causal"":""4"",""num_scrambled_schematic"":""4"",""participantId"":""DDC6F13BCC9843248E56210F2FF52DD3"",""assignmentId"":""05cd2574-8cef-4e54-ac3f-f63e2e5cae41"",""projectId"":""9076ac92-be42-43a2-9634-8b67c7fe93a7""}","https://test12345.live/?num_scrambled_semantic=8&num_scrambled_causal=4&num_scrambled_schematic=4&participantId=DDC6F13BCC9843248E56210F2FF52DD3&assignmentId=05cd2574-8cef-4e54-ac3f-f63e2e5cae41&projectId=9076ac92-be42-43a2-9634-8b67c7fe93a7","DDC6F13BCC9843248E56210F2FF52DD3-2025-05-22-19-30-22","","1819","","images/semantic_sequence/maintaining_a_car_semantic/maintaining_a_car_semantic_4.png","0","",""
"","","","","","image-button-response","106","883008","0.0-14.0-1.0-2.5","DDC6F13BCC9843248E56210F2FF52DD3","DDC6F13BCC9843248E56210F2FF52DD3","05cd2574-8cef-4e54-ac3f-f63e2e5cae41","9076ac92-be42-43a2-9634-8b67c7fe93a7","{""num_scrambled_semantic"":""8"",""num_scrambled_causal"":""4"",""num_scrambled_schematic"":""4"",""participantId"":""DDC6F13BCC9843248E56210F2FF52DD3"",""assignmentId"":""05cd2574-8cef-4e54-ac3f-f63e2e5cae41"",""projectId"":""9076ac92-be42-43a2-9634-8b67c7fe93a7""}","https://test12345.live/?num_scrambled_semantic=8&num_scrambled_causal=4&num_scrambled_schematic=4&participantId=DDC6F13BCC9843248E56210F2FF52DD3&assignmentId=05cd2574-8cef-4e54-ac3f-f63e2e5cae41&projectId=9076ac92-be42-43a2-9634-8b67c7fe93a7","DDC6F13BCC9843248E56210F2FF52DD3-2025-05-22-19-30-22","","null","","[]","null","",""
"","","","","","image-button-response","107","887514","0.0-14.0-1.0-0.6","DDC6F13BCC9843248E56210F2FF52DD3","DDC6F13BCC9843248E56210F2FF52DD3","05cd2574-8cef-4e54-ac3f-f63e2e5cae41","9076ac92-be42-43a2-9634-8b67c7fe93a7","{""num_scrambled_semantic"":""8"",""num_scrambled_causal"":""4"",""num_scrambled_schematic"":""4"",""participantId"":""DDC6F13BCC9843248E56210F2FF52DD3"",""assignmentId"":""05cd2574-8cef-4e54-ac3f-f63e2e5cae41"",""projectId"":""9076ac92-be42-43a2-9634-8b67c7fe93a7""}","https://test12345.live/?num_scrambled_semantic=8&num_scrambled_causal=4&num_scrambled_schematic=4&participantId=DDC6F13BCC9843248E56210F2FF52DD3&assignmentId=05cd2574-8cef-4e54-ac3f-f63e2e5cae41&projectId=9076ac92-be42-43a2-9634-8b67c7fe93a7","DDC6F13BCC9843248E56210F2FF52DD3-2025-05-22-19-30-22","","null","","images/semantic_sequence/maintaining_a_car_semantic/maintaining_a_car_semantic_ten.png","null","",""
"","","","","","image-button-response","108","891069","0.0-14.0-1.0-1.6","DDC6F13BCC9843248E56210F2FF52DD3","DDC6F13BCC9843248E56210F2FF52DD3","05cd2574-8cef-4e54-ac3f-f63e2e5cae41","9076ac92-be42-43a2-9634-8b67c7fe93a7","{""num_scrambled_semantic"":""8"",""num_scrambled_causal"":""4"",""num_scrambled_schematic"":""4"",""participantId"":""DDC6F13BCC9843248E56210F2FF52DD3"",""assignmentId"":""05cd2574-8cef-4e54-ac3f-f63e2e5cae41"",""projectId"":""9076ac92-be42-43a2-9634-8b67c7fe93a7""}","https://test12345.live/?num_scrambled_semantic=8&num_scrambled_causal=4&num_scrambled_schematic=4&participantId=DDC6F13BCC9843248E56210F2FF52DD3&assignmentId=05cd2574-8cef-4e54-ac3f-f63e2e5cae41&projectId=9076ac92-be42-43a2-9634-8b67c7fe93a7","DDC6F13BCC9843248E56210F2FF52DD3-2025-05-22-19-30-22","","3554","","images/semantic_sequence/maintaining_a_car_semantic/maintaining_a_car_semantic_ten.png","0","",""
"","","","","","image-button-response","109","892876","0.0-14.0-1.0-2.6","DDC6F13BCC9843248E56210F2FF52DD3","DDC6F13BCC9843248E56210F2FF52DD3","05cd2574-8cef-4e54-ac3f-f63e2e5cae41","9076ac92-be42-43a2-9634-8b67c7fe93a7","{""num_scrambled_semantic"":""8"",""num_scrambled_causal"":""4"",""num_scrambled_schematic"":""4"",""participantId"":""DDC6F13BCC9843248E56210F2FF52DD3"",""assignmentId"":""05cd2574-8cef-4e54-ac3f-f63e2e5cae41"",""projectId"":""9076ac92-be42-43a2-9634-8b67c7fe93a7""}","https://test12345.live/?num_scrambled_semantic=8&num_scrambled_causal=4&num_scrambled_schematic=4&participantId=DDC6F13BCC9843248E56210F2FF52DD3&assignmentId=05cd2574-8cef-4e54-ac3f-f63e2e5cae41&projectId=9076ac92-be42-43a2-9634-8b67c7fe93a7","DDC6F13BCC9843248E56210F2FF52DD3-2025-05-22-19-30-22","","null","","[]","null","",""
"","","","","","image-button-response","110","897378","0.0-14.0-1.0-0.7","DDC6F13BCC9843248E56210F2FF52DD3","DDC6F13BCC9843248E56210F2FF52DD3","05cd2574-8cef-4e54-ac3f-f63e2e5cae41","9076ac92-be42-43a2-9634-8b67c7fe93a7","{""num_scrambled_semantic"":""8"",""num_scrambled_causal"":""4"",""num_scrambled_schematic"":""4"",""participantId"":""DDC6F13BCC9843248E56210F2FF52DD3"",""assignmentId"":""05cd2574-8cef-4e54-ac3f-f63e2e5cae41"",""projectId"":""9076ac92-be42-43a2-9634-8b67c7fe93a7""}","https://test12345.live/?num_scrambled_semantic=8&num_scrambled_causal=4&num_scrambled_schematic=4&participantId=DDC6F13BCC9843248E56210F2FF52DD3&assignmentId=05cd2574-8cef-4e54-ac3f-f63e2e5cae41&projectId=9076ac92-be42-43a2-9634-8b67c7fe93a7","DDC6F13BCC9843248E56210F2FF52DD3-2025-05-22-19-30-22","","null","","images/semantic_sequence/maintaining_a_car_semantic/maintaining_a_car_semantic_3.png","null","",""
"","","","","","image-button-response","111","900744","0.0-14.0-1.0-1.7","DDC6F13BCC9843248E56210F2FF52DD3","DDC6F13BCC9843248E56210F2FF52DD3","05cd2574-8cef-4e54-ac3f-f63e2e5cae41","9076ac92-be42-43a2-9634-8b67c7fe93a7","{""num_scrambled_semantic"":""8"",""num_scrambled_causal"":""4"",""num_scrambled_schematic"":""4"",""participantId"":""DDC6F13BCC9843248E56210F2FF52DD3"",""assignmentId"":""05cd2574-8cef-4e54-ac3f-f63e2e5cae41"",""projectId"":""9076ac92-be42-43a2-9634-8b67c7fe93a7""}","https://test12345.live/?num_scrambled_semantic=8&num_scrambled_causal=4&num_scrambled_schematic=4&participantId=DDC6F13BCC9843248E56210F2FF52DD3&assignmentId=05cd2574-8cef-4e54-ac3f-f63e2e5cae41&projectId=9076ac92-be42-43a2-9634-8b67c7fe93a7","DDC6F13BCC9843248E56210F2FF52DD3-2025-05-22-19-30-22","","3366","","images/semantic_sequence/maintaining_a_car_semantic/maintaining_a_car_semantic_3.png","0","",""
"","","","","","image-button-response","112","902559","0.0-14.0-1.0-2.7","DDC6F13BCC9843248E56210F2FF52DD3","DDC6F13BCC9843248E56210F2FF52DD3","05cd2574-8cef-4e54-ac3f-f63e2e5cae41","9076ac92-be42-43a2-9634-8b67c7fe93a7","{""num_scrambled_semantic"":""8"",""num_scrambled_causal"":""4"",""num_scrambled_schematic"":""4"",""participantId"":""DDC6F13BCC9843248E56210F2FF52DD3"",""assignmentId"":""05cd2574-8cef-4e54-ac3f-f63e2e5cae41"",""projectId"":""9076ac92-be42-43a2-9634-8b67c7fe93a7""}","https://test12345.live/?num_scrambled_semantic=8&num_scrambled_causal=4&num_scrambled_schematic=4&participantId=DDC6F13BCC9843248E56210F2FF52DD3&assignmentId=05cd2574-8cef-4e54-ac3f-f63e2e5cae41&projectId=9076ac92-be42-43a2-9634-8b67c7fe93a7","DDC6F13BCC9843248E56210F2FF52DD3-2025-05-22-19-30-22","","null","","[]","null","",""
"","","","","","image-button-response","113","907072","0.0-14.0-1.0-0.8","DDC6F13BCC9843248E56210F2FF52DD3","DDC6F13BCC9843248E56210F2FF52DD3","05cd2574-8cef-4e54-ac3f-f63e2e5cae41","9076ac92-be42-43a2-9634-8b67c7fe93a7","{""num_scrambled_semantic"":""8"",""num_scrambled_causal"":""4"",""num_scrambled_schematic"":""4"",""participantId"":""DDC6F13BCC9843248E56210F2FF52DD3"",""assignmentId"":""05cd2574-8cef-4e54-ac3f-f63e2e5cae41"",""projectId"":""9076ac92-be42-43a2-9634-8b67c7fe93a7""}","https://test12345.live/?num_scrambled_semantic=8&num_scrambled_causal=4&num_scrambled_schematic=4&participantId=DDC6F13BCC9843248E56210F2FF52DD3&assignmentId=05cd2574-8cef-4e54-ac3f-f63e2e5cae41&projectId=9076ac92-be42-43a2-9634-8b67c7fe93a7","DDC6F13BCC9843248E56210F2FF52DD3-2025-05-22-19-30-22","","null","","images/semantic_sequence/maintaining_a_car_semantic/maintaining_a_car_semantic_8.png","null","",""
