"success","timeout","failed_images","failed_audio","failed_video","trial_type","trial_index","time_elapsed","internal_node_id","subject","subject_id","study_id","session_id","urlvar","current_url","audio_id","view_history","rt","device_id","stimulus","response","estimated_stimulus_onset","seq_name"
"true","false","[]","[]","[]","preload","0","9488","0.0-0.0","DDF654B04475461CAA83D9BFD3636F52","DDF654B04475461CAA83D9BFD3636F52","0198bcf7-7265-755d-a99b-4906c022bf25","0198bbb8-fd11-701d-9147-68794ad37298","{""num_scrambled_semantic"":""8"",""num_scrambled_causal"":""4"",""num_scrambled_schematic"":""4"",""participantId"":""DDF654B04475461CAA83D9BFD3636F52"",""assignmentId"":""0198bcf7-7265-755d-a99b-4906c022bf25"",""projectId"":""0198bbb8-fd11-701d-9147-68794ad37298""}","https://test12345.live/?num_scrambled_semantic=8&num_scrambled_causal=4&num_scrambled_schematic=4&participantId=DDF654B04475461CAA83D9BFD3636F52&assignmentId=0198bcf7-7265-755d-a99b-4906c022bf25&projectId=0198bbb8-fd11-701d-9147-68794ad37298","DDF654B04475461CAA83D9BFD3636F52-2025-08-18-12-14-33","","","","","","",""
"","","","","","instructions","1","34537","0.0-1.0","DDF654B04475461CAA83D9BFD3636F52","DDF654B04475461CAA83D9BFD3636F52","0198bcf7-7265-755d-a99b-4906c022bf25","0198bbb8-fd11-701d-9147-68794ad37298","{""num_scrambled_semantic"":""8"",""num_scrambled_causal"":""4"",""num_scrambled_schematic"":""4"",""participantId"":""DDF654B04475461CAA83D9BFD3636F52"",""assignmentId"":""0198bcf7-7265-755d-a99b-4906c022bf25"",""projectId"":""0198bbb8-fd11-701d-9147-68794ad37298""}","https://test12345.live/?num_scrambled_semantic=8&num_scrambled_causal=4&num_scrambled_schematic=4&participantId=DDF654B04475461CAA83D9BFD3636F52&assignmentId=0198bcf7-7265-755d-a99b-4906c022bf25&projectId=0198bbb8-fd11-701d-9147-68794ad37298","DDF654B04475461CAA83D9BFD3636F52-2025-08-18-12-14-33","[{""page_index"":0,""viewing_time"":25048}]","25048","","","","",""
"","","","","","instructions","2","40595","0.0-2.0","DDF654B04475461CAA83D9BFD3636F52","DDF654B04475461CAA83D9BFD3636F52","0198bcf7-7265-755d-a99b-4906c022bf25","0198bbb8-fd11-701d-9147-68794ad37298","{""num_scrambled_semantic"":""8"",""num_scrambled_causal"":""4"",""num_scrambled_schematic"":""4"",""participantId"":""DDF654B04475461CAA83D9BFD3636F52"",""assignmentId"":""0198bcf7-7265-755d-a99b-4906c022bf25"",""projectId"":""0198bbb8-fd11-701d-9147-68794ad37298""}","https://test12345.live/?num_scrambled_semantic=8&num_scrambled_causal=4&num_scrambled_schematic=4&participantId=DDF654B04475461CAA83D9BFD3636F52&assignmentId=0198bcf7-7265-755d-a99b-4906c022bf25&projectId=0198bbb8-fd11-701d-9147-68794ad37298","DDF654B04475461CAA83D9BFD3636F52-2025-08-18-12-14-33","[{""page_index"":0,""viewing_time"":6057}]","6057","","","","",""
"true","","","","","fullscreen","3","44334","0.0-3.0","DDF654B04475461CAA83D9BFD3636F52","DDF654B04475461CAA83D9BFD3636F52","0198bcf7-7265-755d-a99b-4906c022bf25","0198bbb8-fd11-701d-9147-68794ad37298","{""num_scrambled_semantic"":""8"",""num_scrambled_causal"":""4"",""num_scrambled_schematic"":""4"",""participantId"":""DDF654B04475461CAA83D9BFD3636F52"",""assignmentId"":""0198bcf7-7265-755d-a99b-4906c022bf25"",""projectId"":""0198bbb8-fd11-701d-9147-68794ad37298""}","https://test12345.live/?num_scrambled_semantic=8&num_scrambled_causal=4&num_scrambled_schematic=4&participantId=DDF654B04475461CAA83D9BFD3636F52&assignmentId=0198bcf7-7265-755d-a99b-4906c022bf25&projectId=0198bbb8-fd11-701d-9147-68794ad37298","DDF654B04475461CAA83D9BFD3636F52-2025-08-18-12-14-33","","2733","","","","",""
"","","","","","initialize-microphone","4","53239","0.0-4.0-0.0","DDF654B04475461CAA83D9BFD3636F52","DDF654B04475461CAA83D9BFD3636F52","0198bcf7-7265-755d-a99b-4906c022bf25","0198bbb8-fd11-701d-9147-68794ad37298","{""num_scrambled_semantic"":""8"",""num_scrambled_causal"":""4"",""num_scrambled_schematic"":""4"",""participantId"":""DDF654B04475461CAA83D9BFD3636F52"",""assignmentId"":""0198bcf7-7265-755d-a99b-4906c022bf25"",""projectId"":""0198bbb8-fd11-701d-9147-68794ad37298""}","https://test12345.live/?num_scrambled_semantic=8&num_scrambled_causal=4&num_scrambled_schematic=4&participantId=DDF654B04475461CAA83D9BFD3636F52&assignmentId=0198bcf7-7265-755d-a99b-4906c022bf25&projectId=0198bbb8-fd11-701d-9147-68794ad37298","DDF654B04475461CAA83D9BFD3636F52-2025-08-18-12-14-33","","","bc86366c32ecc83f7e6ec0dd08937bb7e5191c19a28ff64afd09099d52788d42","","","",""
"","","","","","html-audio-response","5","90491","0.0-4.0-1.0","DDF654B04475461CAA83D9BFD3636F52","DDF654B04475461CAA83D9BFD3636F52","0198bcf7-7265-755d-a99b-4906c022bf25","0198bbb8-fd11-701d-9147-68794ad37298","{""num_scrambled_semantic"":""8"",""num_scrambled_causal"":""4"",""num_scrambled_schematic"":""4"",""participantId"":""DDF654B04475461CAA83D9BFD3636F52"",""assignmentId"":""0198bcf7-7265-755d-a99b-4906c022bf25"",""projectId"":""0198bbb8-fd11-701d-9147-68794ad37298""}","https://test12345.live/?num_scrambled_semantic=8&num_scrambled_causal=4&num_scrambled_schematic=4&participantId=DDF654B04475461CAA83D9BFD3636F52&assignmentId=0198bcf7-7265-755d-a99b-4906c022bf25&projectId=0198bbb8-fd11-701d-9147-68794ad37298","DDF654B04475461CAA83D9BFD3636F52-2025-08-18-12-14-33","","9429","","<span style=""color: red; font-size: 24px""> NOW RECORDING</span>
        <p>Please test Microphone</p>","","4",""
"","","","","","html-button-response","6","93323","0.0-4.0-2.0","DDF654B04475461CAA83D9BFD3636F52","DDF654B04475461CAA83D9BFD3636F52","0198bcf7-7265-755d-a99b-4906c022bf25","0198bbb8-fd11-701d-9147-68794ad37298","{""num_scrambled_semantic"":""8"",""num_scrambled_causal"":""4"",""num_scrambled_schematic"":""4"",""participantId"":""DDF654B04475461CAA83D9BFD3636F52"",""assignmentId"":""0198bcf7-7265-755d-a99b-4906c022bf25"",""projectId"":""0198bbb8-fd11-701d-9147-68794ad37298""}","https://test12345.live/?num_scrambled_semantic=8&num_scrambled_causal=4&num_scrambled_schematic=4&participantId=DDF654B04475461CAA83D9BFD3636F52&assignmentId=0198bcf7-7265-755d-a99b-4906c022bf25&projectId=0198bbb8-fd11-701d-9147-68794ad37298","DDF654B04475461CAA83D9BFD3636F52-2025-08-18-12-14-33","","2831","","<p style=""font-size:48px; color:red;"">Is Microphone OK?</p>","1","",""
"","","","","","instructions","7","132793","0.0-5.0","DDF654B04475461CAA83D9BFD3636F52","DDF654B04475461CAA83D9BFD3636F52","0198bcf7-7265-755d-a99b-4906c022bf25","0198bbb8-fd11-701d-9147-68794ad37298","{""num_scrambled_semantic"":""8"",""num_scrambled_causal"":""4"",""num_scrambled_schematic"":""4"",""participantId"":""DDF654B04475461CAA83D9BFD3636F52"",""assignmentId"":""0198bcf7-7265-755d-a99b-4906c022bf25"",""projectId"":""0198bbb8-fd11-701d-9147-68794ad37298""}","https://test12345.live/?num_scrambled_semantic=8&num_scrambled_causal=4&num_scrambled_schematic=4&participantId=DDF654B04475461CAA83D9BFD3636F52&assignmentId=0198bcf7-7265-755d-a99b-4906c022bf25&projectId=0198bbb8-fd11-701d-9147-68794ad37298","DDF654B04475461CAA83D9BFD3636F52-2025-08-18-12-14-33","[{""page_index"":0,""viewing_time"":32203},{""page_index"":1,""viewing_time"":7266}]","39469","","","","",""
"","","","","","image-button-response","8","138804","0.0-6.0-0.0","DDF654B04475461CAA83D9BFD3636F52","DDF654B04475461CAA83D9BFD3636F52","0198bcf7-7265-755d-a99b-4906c022bf25","0198bbb8-fd11-701d-9147-68794ad37298","{""num_scrambled_semantic"":""8"",""num_scrambled_causal"":""4"",""num_scrambled_schematic"":""4"",""participantId"":""DDF654B04475461CAA83D9BFD3636F52"",""assignmentId"":""0198bcf7-7265-755d-a99b-4906c022bf25"",""projectId"":""0198bbb8-fd11-701d-9147-68794ad37298""}","https://test12345.live/?num_scrambled_semantic=8&num_scrambled_causal=4&num_scrambled_schematic=4&participantId=DDF654B04475461CAA83D9BFD3636F52&assignmentId=0198bcf7-7265-755d-a99b-4906c022bf25&projectId=0198bbb8-fd11-701d-9147-68794ad37298","DDF654B04475461CAA83D9BFD3636F52-2025-08-18-12-14-33","","null","","images/instructions/movie_0.png","null","",""
"","","","","","image-button-response","9","143324","0.0-6.0-1.0-0.0","DDF654B04475461CAA83D9BFD3636F52","DDF654B04475461CAA83D9BFD3636F52","0198bcf7-7265-755d-a99b-4906c022bf25","0198bbb8-fd11-701d-9147-68794ad37298","{""num_scrambled_semantic"":""8"",""num_scrambled_causal"":""4"",""num_scrambled_schematic"":""4"",""participantId"":""DDF654B04475461CAA83D9BFD3636F52"",""assignmentId"":""0198bcf7-7265-755d-a99b-4906c022bf25"",""projectId"":""0198bbb8-fd11-701d-9147-68794ad37298""}","https://test12345.live/?num_scrambled_semantic=8&num_scrambled_causal=4&num_scrambled_schematic=4&participantId=DDF654B04475461CAA83D9BFD3636F52&assignmentId=0198bcf7-7265-755d-a99b-4906c022bf25&projectId=0198bbb8-fd11-701d-9147-68794ad37298","DDF654B04475461CAA83D9BFD3636F52-2025-08-18-12-14-33","","null","","images/instructions/movie_1.png","null","",""
"","","","","","image-button-response","10","147334","0.0-6.0-1.0-1.0","DDF654B04475461CAA83D9BFD3636F52","DDF654B04475461CAA83D9BFD3636F52","0198bcf7-7265-755d-a99b-4906c022bf25","0198bbb8-fd11-701d-9147-68794ad37298","{""num_scrambled_semantic"":""8"",""num_scrambled_causal"":""4"",""num_scrambled_schematic"":""4"",""participantId"":""DDF654B04475461CAA83D9BFD3636F52"",""assignmentId"":""0198bcf7-7265-755d-a99b-4906c022bf25"",""projectId"":""0198bbb8-fd11-701d-9147-68794ad37298""}","https://test12345.live/?num_scrambled_semantic=8&num_scrambled_causal=4&num_scrambled_schematic=4&participantId=DDF654B04475461CAA83D9BFD3636F52&assignmentId=0198bcf7-7265-755d-a99b-4906c022bf25&projectId=0198bbb8-fd11-701d-9147-68794ad37298","DDF654B04475461CAA83D9BFD3636F52-2025-08-18-12-14-33","","null","","images/instructions/movie_1.png","null","",""
"","","","","","image-button-response","11","158143","0.0-6.0-1.0-2.0","DDF654B04475461CAA83D9BFD3636F52","DDF654B04475461CAA83D9BFD3636F52","0198bcf7-7265-755d-a99b-4906c022bf25","0198bbb8-fd11-701d-9147-68794ad37298","{""num_scrambled_semantic"":""8"",""num_scrambled_causal"":""4"",""num_scrambled_schematic"":""4"",""participantId"":""DDF654B04475461CAA83D9BFD3636F52"",""assignmentId"":""0198bcf7-7265-755d-a99b-4906c022bf25"",""projectId"":""0198bbb8-fd11-701d-9147-68794ad37298""}","https://test12345.live/?num_scrambled_semantic=8&num_scrambled_causal=4&num_scrambled_schematic=4&participantId=DDF654B04475461CAA83D9BFD3636F52&assignmentId=0198bcf7-7265-755d-a99b-4906c022bf25&projectId=0198bbb8-fd11-701d-9147-68794ad37298","DDF654B04475461CAA83D9BFD3636F52-2025-08-18-12-14-33","","null","","[]","null","",""
"","","","","","image-button-response","12","162646","0.0-6.0-1.0-0.1","DDF654B04475461CAA83D9BFD3636F52","DDF654B04475461CAA83D9BFD3636F52","0198bcf7-7265-755d-a99b-4906c022bf25","0198bbb8-fd11-701d-9147-68794ad37298","{""num_scrambled_semantic"":""8"",""num_scrambled_causal"":""4"",""num_scrambled_schematic"":""4"",""participantId"":""DDF654B04475461CAA83D9BFD3636F52"",""assignmentId"":""0198bcf7-7265-755d-a99b-4906c022bf25"",""projectId"":""0198bbb8-fd11-701d-9147-68794ad37298""}","https://test12345.live/?num_scrambled_semantic=8&num_scrambled_causal=4&num_scrambled_schematic=4&participantId=DDF654B04475461CAA83D9BFD3636F52&assignmentId=0198bcf7-7265-755d-a99b-4906c022bf25&projectId=0198bbb8-fd11-701d-9147-68794ad37298","DDF654B04475461CAA83D9BFD3636F52-2025-08-18-12-14-33","","null","","images/instructions/movie_2.png","null","",""
"","","","","","image-button-response","13","164083","0.0-6.0-1.0-1.1","DDF654B04475461CAA83D9BFD3636F52","DDF654B04475461CAA83D9BFD3636F52","0198bcf7-7265-755d-a99b-4906c022bf25","0198bbb8-fd11-701d-9147-68794ad37298","{""num_scrambled_semantic"":""8"",""num_scrambled_causal"":""4"",""num_scrambled_schematic"":""4"",""participantId"":""DDF654B04475461CAA83D9BFD3636F52"",""assignmentId"":""0198bcf7-7265-755d-a99b-4906c022bf25"",""projectId"":""0198bbb8-fd11-701d-9147-68794ad37298""}","https://test12345.live/?num_scrambled_semantic=8&num_scrambled_causal=4&num_scrambled_schematic=4&participantId=DDF654B04475461CAA83D9BFD3636F52&assignmentId=0198bcf7-7265-755d-a99b-4906c022bf25&projectId=0198bbb8-fd11-701d-9147-68794ad37298","DDF654B04475461CAA83D9BFD3636F52-2025-08-18-12-14-33","","1435","","images/instructions/movie_2.png","1","",""
"","","","","","image-button-response","14","174903","0.0-6.0-1.0-2.1","DDF654B04475461CAA83D9BFD3636F52","DDF654B04475461CAA83D9BFD3636F52","0198bcf7-7265-755d-a99b-4906c022bf25","0198bbb8-fd11-701d-9147-68794ad37298","{""num_scrambled_semantic"":""8"",""num_scrambled_causal"":""4"",""num_scrambled_schematic"":""4"",""participantId"":""DDF654B04475461CAA83D9BFD3636F52"",""assignmentId"":""0198bcf7-7265-755d-a99b-4906c022bf25"",""projectId"":""0198bbb8-fd11-701d-9147-68794ad37298""}","https://test12345.live/?num_scrambled_semantic=8&num_scrambled_causal=4&num_scrambled_schematic=4&participantId=DDF654B04475461CAA83D9BFD3636F52&assignmentId=0198bcf7-7265-755d-a99b-4906c022bf25&projectId=0198bbb8-fd11-701d-9147-68794ad37298","DDF654B04475461CAA83D9BFD3636F52-2025-08-18-12-14-33","","null","","[]","null","",""
"","","","","","image-button-response","15","179423","0.0-6.0-1.0-0.2","DDF654B04475461CAA83D9BFD3636F52","DDF654B04475461CAA83D9BFD3636F52","0198bcf7-7265-755d-a99b-4906c022bf25","0198bbb8-fd11-701d-9147-68794ad37298","{""num_scrambled_semantic"":""8"",""num_scrambled_causal"":""4"",""num_scrambled_schematic"":""4"",""participantId"":""DDF654B04475461CAA83D9BFD3636F52"",""assignmentId"":""0198bcf7-7265-755d-a99b-4906c022bf25"",""projectId"":""0198bbb8-fd11-701d-9147-68794ad37298""}","https://test12345.live/?num_scrambled_semantic=8&num_scrambled_causal=4&num_scrambled_schematic=4&participantId=DDF654B04475461CAA83D9BFD3636F52&assignmentId=0198bcf7-7265-755d-a99b-4906c022bf25&projectId=0198bbb8-fd11-701d-9147-68794ad37298","DDF654B04475461CAA83D9BFD3636F52-2025-08-18-12-14-33","","null","","images/instructions/movie_3.png","null","",""
"","","","","","image-button-response","16","180613","0.0-6.0-1.0-1.2","DDF654B04475461CAA83D9BFD3636F52","DDF654B04475461CAA83D9BFD3636F52","0198bcf7-7265-755d-a99b-4906c022bf25","0198bbb8-fd11-701d-9147-68794ad37298","{""num_scrambled_semantic"":""8"",""num_scrambled_causal"":""4"",""num_scrambled_schematic"":""4"",""participantId"":""DDF654B04475461CAA83D9BFD3636F52"",""assignmentId"":""0198bcf7-7265-755d-a99b-4906c022bf25"",""projectId"":""0198bbb8-fd11-701d-9147-68794ad37298""}","https://test12345.live/?num_scrambled_semantic=8&num_scrambled_causal=4&num_scrambled_schematic=4&participantId=DDF654B04475461CAA83D9BFD3636F52&assignmentId=0198bcf7-7265-755d-a99b-4906c022bf25&projectId=0198bbb8-fd11-701d-9147-68794ad37298","DDF654B04475461CAA83D9BFD3636F52-2025-08-18-12-14-33","","1187","","images/instructions/movie_3.png","0","",""
"","","","","","image-button-response","17","191423","0.0-6.0-1.0-2.2","DDF654B04475461CAA83D9BFD3636F52","DDF654B04475461CAA83D9BFD3636F52","0198bcf7-7265-755d-a99b-4906c022bf25","0198bbb8-fd11-701d-9147-68794ad37298","{""num_scrambled_semantic"":""8"",""num_scrambled_causal"":""4"",""num_scrambled_schematic"":""4"",""participantId"":""DDF654B04475461CAA83D9BFD3636F52"",""assignmentId"":""0198bcf7-7265-755d-a99b-4906c022bf25"",""projectId"":""0198bbb8-fd11-701d-9147-68794ad37298""}","https://test12345.live/?num_scrambled_semantic=8&num_scrambled_causal=4&num_scrambled_schematic=4&participantId=DDF654B04475461CAA83D9BFD3636F52&assignmentId=0198bcf7-7265-755d-a99b-4906c022bf25&projectId=0198bbb8-fd11-701d-9147-68794ad37298","DDF654B04475461CAA83D9BFD3636F52-2025-08-18-12-14-33","","null","","[]","null","",""
"","","","","","image-button-response","18","195933","0.0-6.0-1.0-0.3","DDF654B04475461CAA83D9BFD3636F52","DDF654B04475461CAA83D9BFD3636F52","0198bcf7-7265-755d-a99b-4906c022bf25","0198bbb8-fd11-701d-9147-68794ad37298","{""num_scrambled_semantic"":""8"",""num_scrambled_causal"":""4"",""num_scrambled_schematic"":""4"",""participantId"":""DDF654B04475461CAA83D9BFD3636F52"",""assignmentId"":""0198bcf7-7265-755d-a99b-4906c022bf25"",""projectId"":""0198bbb8-fd11-701d-9147-68794ad37298""}","https://test12345.live/?num_scrambled_semantic=8&num_scrambled_causal=4&num_scrambled_schematic=4&participantId=DDF654B04475461CAA83D9BFD3636F52&assignmentId=0198bcf7-7265-755d-a99b-4906c022bf25&projectId=0198bbb8-fd11-701d-9147-68794ad37298","DDF654B04475461CAA83D9BFD3636F52-2025-08-18-12-14-33","","null","","images/instructions/movie_4.png","null","",""
"","","","","","image-button-response","19","197335","0.0-6.0-1.0-1.3","DDF654B04475461CAA83D9BFD3636F52","DDF654B04475461CAA83D9BFD3636F52","0198bcf7-7265-755d-a99b-4906c022bf25","0198bbb8-fd11-701d-9147-68794ad37298","{""num_scrambled_semantic"":""8"",""num_scrambled_causal"":""4"",""num_scrambled_schematic"":""4"",""participantId"":""DDF654B04475461CAA83D9BFD3636F52"",""assignmentId"":""0198bcf7-7265-755d-a99b-4906c022bf25"",""projectId"":""0198bbb8-fd11-701d-9147-68794ad37298""}","https://test12345.live/?num_scrambled_semantic=8&num_scrambled_causal=4&num_scrambled_schematic=4&participantId=DDF654B04475461CAA83D9BFD3636F52&assignmentId=0198bcf7-7265-755d-a99b-4906c022bf25&projectId=0198bbb8-fd11-701d-9147-68794ad37298","DDF654B04475461CAA83D9BFD3636F52-2025-08-18-12-14-33","","1399","","images/instructions/movie_4.png","0","",""
"","","","","","image-button-response","20","208144","0.0-6.0-1.0-2.3","DDF654B04475461CAA83D9BFD3636F52","DDF654B04475461CAA83D9BFD3636F52","0198bcf7-7265-755d-a99b-4906c022bf25","0198bbb8-fd11-701d-9147-68794ad37298","{""num_scrambled_semantic"":""8"",""num_scrambled_causal"":""4"",""num_scrambled_schematic"":""4"",""participantId"":""DDF654B04475461CAA83D9BFD3636F52"",""assignmentId"":""0198bcf7-7265-755d-a99b-4906c022bf25"",""projectId"":""0198bbb8-fd11-701d-9147-68794ad37298""}","https://test12345.live/?num_scrambled_semantic=8&num_scrambled_causal=4&num_scrambled_schematic=4&participantId=DDF654B04475461CAA83D9BFD3636F52&assignmentId=0198bcf7-7265-755d-a99b-4906c022bf25&projectId=0198bbb8-fd11-701d-9147-68794ad37298","DDF654B04475461CAA83D9BFD3636F52-2025-08-18-12-14-33","","null","","[]","null","",""
"","","","","","instructions","21","222843","0.0-7.0","DDF654B04475461CAA83D9BFD3636F52","DDF654B04475461CAA83D9BFD3636F52","0198bcf7-7265-755d-a99b-4906c022bf25","0198bbb8-fd11-701d-9147-68794ad37298","{""num_scrambled_semantic"":""8"",""num_scrambled_causal"":""4"",""num_scrambled_schematic"":""4"",""participantId"":""DDF654B04475461CAA83D9BFD3636F52"",""assignmentId"":""0198bcf7-7265-755d-a99b-4906c022bf25"",""projectId"":""0198bbb8-fd11-701d-9147-68794ad37298""}","https://test12345.live/?num_scrambled_semantic=8&num_scrambled_causal=4&num_scrambled_schematic=4&participantId=DDF654B04475461CAA83D9BFD3636F52&assignmentId=0198bcf7-7265-755d-a99b-4906c022bf25&projectId=0198bbb8-fd11-701d-9147-68794ad37298","DDF654B04475461CAA83D9BFD3636F52-2025-08-18-12-14-33","[{""page_index"":0,""viewing_time"":13092},{""page_index"":1,""viewing_time"":1606}]","14698","","","","",""
"","","","","","html-audio-response","22","312695","0.0-8.0","DDF654B04475461CAA83D9BFD3636F52","DDF654B04475461CAA83D9BFD3636F52","0198bcf7-7265-755d-a99b-4906c022bf25","0198bbb8-fd11-701d-9147-68794ad37298","{""num_scrambled_semantic"":""8"",""num_scrambled_causal"":""4"",""num_scrambled_schematic"":""4"",""participantId"":""DDF654B04475461CAA83D9BFD3636F52"",""assignmentId"":""0198bcf7-7265-755d-a99b-4906c022bf25"",""projectId"":""0198bbb8-fd11-701d-9147-68794ad37298""}","https://test12345.live/?num_scrambled_semantic=8&num_scrambled_causal=4&num_scrambled_schematic=4&participantId=DDF654B04475461CAA83D9BFD3636F52&assignmentId=0198bcf7-7265-755d-a99b-4906c022bf25&projectId=0198bbb8-fd11-701d-9147-68794ad37298","DDF654B04475461CAA83D9BFD3636F52-2025-08-18-12-14-33","","43673","","[""<span style=\""color: red; font-size: 24px\""> NOW RECORDING</span><p>Please say out loud all the images you saw, as many as you can remember. The images can be said in any order.</p>""]","","9",""
"","","","","","instructions","23","315513","0.0-9.0","DDF654B04475461CAA83D9BFD3636F52","DDF654B04475461CAA83D9BFD3636F52","0198bcf7-7265-755d-a99b-4906c022bf25","0198bbb8-fd11-701d-9147-68794ad37298","{""num_scrambled_semantic"":""8"",""num_scrambled_causal"":""4"",""num_scrambled_schematic"":""4"",""participantId"":""DDF654B04475461CAA83D9BFD3636F52"",""assignmentId"":""0198bcf7-7265-755d-a99b-4906c022bf25"",""projectId"":""0198bbb8-fd11-701d-9147-68794ad37298""}","https://test12345.live/?num_scrambled_semantic=8&num_scrambled_causal=4&num_scrambled_schematic=4&participantId=DDF654B04475461CAA83D9BFD3636F52&assignmentId=0198bcf7-7265-755d-a99b-4906c022bf25&projectId=0198bbb8-fd11-701d-9147-68794ad37298","DDF654B04475461CAA83D9BFD3636F52-2025-08-18-12-14-33","[{""page_index"":0,""viewing_time"":2811}]","2811","","","","",""
"","","","","","image-button-response","24","321513","0.0-10.0-0.0","DDF654B04475461CAA83D9BFD3636F52","DDF654B04475461CAA83D9BFD3636F52","0198bcf7-7265-755d-a99b-4906c022bf25","0198bbb8-fd11-701d-9147-68794ad37298","{""num_scrambled_semantic"":""8"",""num_scrambled_causal"":""4"",""num_scrambled_schematic"":""4"",""participantId"":""DDF654B04475461CAA83D9BFD3636F52"",""assignmentId"":""0198bcf7-7265-755d-a99b-4906c022bf25"",""projectId"":""0198bbb8-fd11-701d-9147-68794ad37298""}","https://test12345.live/?num_scrambled_semantic=8&num_scrambled_causal=4&num_scrambled_schematic=4&participantId=DDF654B04475461CAA83D9BFD3636F52&assignmentId=0198bcf7-7265-755d-a99b-4906c022bf25&projectId=0198bbb8-fd11-701d-9147-68794ad37298","DDF654B04475461CAA83D9BFD3636F52-2025-08-18-12-14-33","","null","","images/semantic_sequence/cat_care_semantic/cat_care_semantic_0.png","null","",""
"","","","","","image-button-response","25","326033","0.0-10.0-1.0-0.0","DDF654B04475461CAA83D9BFD3636F52","DDF654B04475461CAA83D9BFD3636F52","0198bcf7-7265-755d-a99b-4906c022bf25","0198bbb8-fd11-701d-9147-68794ad37298","{""num_scrambled_semantic"":""8"",""num_scrambled_causal"":""4"",""num_scrambled_schematic"":""4"",""participantId"":""DDF654B04475461CAA83D9BFD3636F52"",""assignmentId"":""0198bcf7-7265-755d-a99b-4906c022bf25"",""projectId"":""0198bbb8-fd11-701d-9147-68794ad37298""}","https://test12345.live/?num_scrambled_semantic=8&num_scrambled_causal=4&num_scrambled_schematic=4&participantId=DDF654B04475461CAA83D9BFD3636F52&assignmentId=0198bcf7-7265-755d-a99b-4906c022bf25&projectId=0198bbb8-fd11-701d-9147-68794ad37298","DDF654B04475461CAA83D9BFD3636F52-2025-08-18-12-14-33","","null","","images/semantic_sequence/cat_care_semantic/cat_care_semantic_1.png","null","",""
"","","","","","image-button-response","26","330035","0.0-10.0-1.0-1.0","DDF654B04475461CAA83D9BFD3636F52","DDF654B04475461CAA83D9BFD3636F52","0198bcf7-7265-755d-a99b-4906c022bf25","0198bbb8-fd11-701d-9147-68794ad37298","{""num_scrambled_semantic"":""8"",""num_scrambled_causal"":""4"",""num_scrambled_schematic"":""4"",""participantId"":""DDF654B04475461CAA83D9BFD3636F52"",""assignmentId"":""0198bcf7-7265-755d-a99b-4906c022bf25"",""projectId"":""0198bbb8-fd11-701d-9147-68794ad37298""}","https://test12345.live/?num_scrambled_semantic=8&num_scrambled_causal=4&num_scrambled_schematic=4&participantId=DDF654B04475461CAA83D9BFD3636F52&assignmentId=0198bcf7-7265-755d-a99b-4906c022bf25&projectId=0198bbb8-fd11-701d-9147-68794ad37298","DDF654B04475461CAA83D9BFD3636F52-2025-08-18-12-14-33","","null","","images/semantic_sequence/cat_care_semantic/cat_care_semantic_1.png","null","",""
"","","","","","image-button-response","27","340843","0.0-10.0-1.0-2.0","DDF654B04475461CAA83D9BFD3636F52","DDF654B04475461CAA83D9BFD3636F52","0198bcf7-7265-755d-a99b-4906c022bf25","0198bbb8-fd11-701d-9147-68794ad37298","{""num_scrambled_semantic"":""8"",""num_scrambled_causal"":""4"",""num_scrambled_schematic"":""4"",""participantId"":""DDF654B04475461CAA83D9BFD3636F52"",""assignmentId"":""0198bcf7-7265-755d-a99b-4906c022bf25"",""projectId"":""0198bbb8-fd11-701d-9147-68794ad37298""}","https://test12345.live/?num_scrambled_semantic=8&num_scrambled_causal=4&num_scrambled_schematic=4&participantId=DDF654B04475461CAA83D9BFD3636F52&assignmentId=0198bcf7-7265-755d-a99b-4906c022bf25&projectId=0198bbb8-fd11-701d-9147-68794ad37298","DDF654B04475461CAA83D9BFD3636F52-2025-08-18-12-14-33","","null","","[]","null","",""
"","","","","","image-button-response","28","345353","0.0-10.0-1.0-0.1","DDF654B04475461CAA83D9BFD3636F52","DDF654B04475461CAA83D9BFD3636F52","0198bcf7-7265-755d-a99b-4906c022bf25","0198bbb8-fd11-701d-9147-68794ad37298","{""num_scrambled_semantic"":""8"",""num_scrambled_causal"":""4"",""num_scrambled_schematic"":""4"",""participantId"":""DDF654B04475461CAA83D9BFD3636F52"",""assignmentId"":""0198bcf7-7265-755d-a99b-4906c022bf25"",""projectId"":""0198bbb8-fd11-701d-9147-68794ad37298""}","https://test12345.live/?num_scrambled_semantic=8&num_scrambled_causal=4&num_scrambled_schematic=4&participantId=DDF654B04475461CAA83D9BFD3636F52&assignmentId=0198bcf7-7265-755d-a99b-4906c022bf25&projectId=0198bbb8-fd11-701d-9147-68794ad37298","DDF654B04475461CAA83D9BFD3636F52-2025-08-18-12-14-33","","null","","images/semantic_sequence/cat_care_semantic/cat_care_semantic_4.png","null","",""
"","","","","","image-button-response","29","346945","0.0-10.0-1.0-1.1","DDF654B04475461CAA83D9BFD3636F52","DDF654B04475461CAA83D9BFD3636F52","0198bcf7-7265-755d-a99b-4906c022bf25","0198bbb8-fd11-701d-9147-68794ad37298","{""num_scrambled_semantic"":""8"",""num_scrambled_causal"":""4"",""num_scrambled_schematic"":""4"",""participantId"":""DDF654B04475461CAA83D9BFD3636F52"",""assignmentId"":""0198bcf7-7265-755d-a99b-4906c022bf25"",""projectId"":""0198bbb8-fd11-701d-9147-68794ad37298""}","https://test12345.live/?num_scrambled_semantic=8&num_scrambled_causal=4&num_scrambled_schematic=4&participantId=DDF654B04475461CAA83D9BFD3636F52&assignmentId=0198bcf7-7265-755d-a99b-4906c022bf25&projectId=0198bbb8-fd11-701d-9147-68794ad37298","DDF654B04475461CAA83D9BFD3636F52-2025-08-18-12-14-33","","1590","","images/semantic_sequence/cat_care_semantic/cat_care_semantic_4.png","0","",""
"","","","","","image-button-response","30","357763","0.0-10.0-1.0-2.1","DDF654B04475461CAA83D9BFD3636F52","DDF654B04475461CAA83D9BFD3636F52","0198bcf7-7265-755d-a99b-4906c022bf25","0198bbb8-fd11-701d-9147-68794ad37298","{""num_scrambled_semantic"":""8"",""num_scrambled_causal"":""4"",""num_scrambled_schematic"":""4"",""participantId"":""DDF654B04475461CAA83D9BFD3636F52"",""assignmentId"":""0198bcf7-7265-755d-a99b-4906c022bf25"",""projectId"":""0198bbb8-fd11-701d-9147-68794ad37298""}","https://test12345.live/?num_scrambled_semantic=8&num_scrambled_causal=4&num_scrambled_schematic=4&participantId=DDF654B04475461CAA83D9BFD3636F52&assignmentId=0198bcf7-7265-755d-a99b-4906c022bf25&projectId=0198bbb8-fd11-701d-9147-68794ad37298","DDF654B04475461CAA83D9BFD3636F52-2025-08-18-12-14-33","","null","","[]","null","",""
"","","","","","image-button-response","31","362283","0.0-10.0-1.0-0.2","DDF654B04475461CAA83D9BFD3636F52","DDF654B04475461CAA83D9BFD3636F52","0198bcf7-7265-755d-a99b-4906c022bf25","0198bbb8-fd11-701d-9147-68794ad37298","{""num_scrambled_semantic"":""8"",""num_scrambled_causal"":""4"",""num_scrambled_schematic"":""4"",""participantId"":""DDF654B04475461CAA83D9BFD3636F52"",""assignmentId"":""0198bcf7-7265-755d-a99b-4906c022bf25"",""projectId"":""0198bbb8-fd11-701d-9147-68794ad37298""}","https://test12345.live/?num_scrambled_semantic=8&num_scrambled_causal=4&num_scrambled_schematic=4&participantId=DDF654B04475461CAA83D9BFD3636F52&assignmentId=0198bcf7-7265-755d-a99b-4906c022bf25&projectId=0198bbb8-fd11-701d-9147-68794ad37298","DDF654B04475461CAA83D9BFD3636F52-2025-08-18-12-14-33","","null","","images/semantic_sequence/cat_care_semantic/cat_care_semantic_8.png","null","",""
"","","","","","image-button-response","32","364144","0.0-10.0-1.0-1.2","DDF654B04475461CAA83D9BFD3636F52","DDF654B04475461CAA83D9BFD3636F52","0198bcf7-7265-755d-a99b-4906c022bf25","0198bbb8-fd11-701d-9147-68794ad37298","{""num_scrambled_semantic"":""8"",""num_scrambled_causal"":""4"",""num_scrambled_schematic"":""4"",""participantId"":""DDF654B04475461CAA83D9BFD3636F52"",""assignmentId"":""0198bcf7-7265-755d-a99b-4906c022bf25"",""projectId"":""0198bbb8-fd11-701d-9147-68794ad37298""}","https://test12345.live/?num_scrambled_semantic=8&num_scrambled_causal=4&num_scrambled_schematic=4&participantId=DDF654B04475461CAA83D9BFD3636F52&assignmentId=0198bcf7-7265-755d-a99b-4906c022bf25&projectId=0198bbb8-fd11-701d-9147-68794ad37298","DDF654B04475461CAA83D9BFD3636F52-2025-08-18-12-14-33","","1859","","images/semantic_sequence/cat_care_semantic/cat_care_semantic_8.png","0","",""
"","","","","","image-button-response","33","374953","0.0-10.0-1.0-2.2","DDF654B04475461CAA83D9BFD3636F52","DDF654B04475461CAA83D9BFD3636F52","0198bcf7-7265-755d-a99b-4906c022bf25","0198bbb8-fd11-701d-9147-68794ad37298","{""num_scrambled_semantic"":""8"",""num_scrambled_causal"":""4"",""num_scrambled_schematic"":""4"",""participantId"":""DDF654B04475461CAA83D9BFD3636F52"",""assignmentId"":""0198bcf7-7265-755d-a99b-4906c022bf25"",""projectId"":""0198bbb8-fd11-701d-9147-68794ad37298""}","https://test12345.live/?num_scrambled_semantic=8&num_scrambled_causal=4&num_scrambled_schematic=4&participantId=DDF654B04475461CAA83D9BFD3636F52&assignmentId=0198bcf7-7265-755d-a99b-4906c022bf25&projectId=0198bbb8-fd11-701d-9147-68794ad37298","DDF654B04475461CAA83D9BFD3636F52-2025-08-18-12-14-33","","null","","[]","null","",""
"","","","","","image-button-response","34","379463","0.0-10.0-1.0-0.3","DDF654B04475461CAA83D9BFD3636F52","DDF654B04475461CAA83D9BFD3636F52","0198bcf7-7265-755d-a99b-4906c022bf25","0198bbb8-fd11-701d-9147-68794ad37298","{""num_scrambled_semantic"":""8"",""num_scrambled_causal"":""4"",""num_scrambled_schematic"":""4"",""participantId"":""DDF654B04475461CAA83D9BFD3636F52"",""assignmentId"":""0198bcf7-7265-755d-a99b-4906c022bf25"",""projectId"":""0198bbb8-fd11-701d-9147-68794ad37298""}","https://test12345.live/?num_scrambled_semantic=8&num_scrambled_causal=4&num_scrambled_schematic=4&participantId=DDF654B04475461CAA83D9BFD3636F52&assignmentId=0198bcf7-7265-755d-a99b-4906c022bf25&projectId=0198bbb8-fd11-701d-9147-68794ad37298","DDF654B04475461CAA83D9BFD3636F52-2025-08-18-12-14-33","","null","","images/semantic_sequence/cat_care_semantic/cat_care_semantic_5.png","null","",""
"","","","","","image-button-response","35","381440","0.0-10.0-1.0-1.3","DDF654B04475461CAA83D9BFD3636F52","DDF654B04475461CAA83D9BFD3636F52","0198bcf7-7265-755d-a99b-4906c022bf25","0198bbb8-fd11-701d-9147-68794ad37298","{""num_scrambled_semantic"":""8"",""num_scrambled_causal"":""4"",""num_scrambled_schematic"":""4"",""participantId"":""DDF654B04475461CAA83D9BFD3636F52"",""assignmentId"":""0198bcf7-7265-755d-a99b-4906c022bf25"",""projectId"":""0198bbb8-fd11-701d-9147-68794ad37298""}","https://test12345.live/?num_scrambled_semantic=8&num_scrambled_causal=4&num_scrambled_schematic=4&participantId=DDF654B04475461CAA83D9BFD3636F52&assignmentId=0198bcf7-7265-755d-a99b-4906c022bf25&projectId=0198bbb8-fd11-701d-9147-68794ad37298","DDF654B04475461CAA83D9BFD3636F52-2025-08-18-12-14-33","","1975","","images/semantic_sequence/cat_care_semantic/cat_care_semantic_5.png","0","",""
"","","","","","image-button-response","36","392241","0.0-10.0-1.0-2.3","DDF654B04475461CAA83D9BFD3636F52","DDF654B04475461CAA83D9BFD3636F52","0198bcf7-7265-755d-a99b-4906c022bf25","0198bbb8-fd11-701d-9147-68794ad37298","{""num_scrambled_semantic"":""8"",""num_scrambled_causal"":""4"",""num_scrambled_schematic"":""4"",""participantId"":""DDF654B04475461CAA83D9BFD3636F52"",""assignmentId"":""0198bcf7-7265-755d-a99b-4906c022bf25"",""projectId"":""0198bbb8-fd11-701d-9147-68794ad37298""}","https://test12345.live/?num_scrambled_semantic=8&num_scrambled_causal=4&num_scrambled_schematic=4&participantId=DDF654B04475461CAA83D9BFD3636F52&assignmentId=0198bcf7-7265-755d-a99b-4906c022bf25&projectId=0198bbb8-fd11-701d-9147-68794ad37298","DDF654B04475461CAA83D9BFD3636F52-2025-08-18-12-14-33","","null","","[]","null","",""
"","","","","","image-button-response","37","396743","0.0-10.0-1.0-0.4","DDF654B04475461CAA83D9BFD3636F52","DDF654B04475461CAA83D9BFD3636F52","0198bcf7-7265-755d-a99b-4906c022bf25","0198bbb8-fd11-701d-9147-68794ad37298","{""num_scrambled_semantic"":""8"",""num_scrambled_causal"":""4"",""num_scrambled_schematic"":""4"",""participantId"":""DDF654B04475461CAA83D9BFD3636F52"",""assignmentId"":""0198bcf7-7265-755d-a99b-4906c022bf25"",""projectId"":""0198bbb8-fd11-701d-9147-68794ad37298""}","https://test12345.live/?num_scrambled_semantic=8&num_scrambled_causal=4&num_scrambled_schematic=4&participantId=DDF654B04475461CAA83D9BFD3636F52&assignmentId=0198bcf7-7265-755d-a99b-4906c022bf25&projectId=0198bbb8-fd11-701d-9147-68794ad37298","DDF654B04475461CAA83D9BFD3636F52-2025-08-18-12-14-33","","null","","images/semantic_sequence/cat_care_semantic/cat_care_semantic_2.png","null","",""
"","","","","","image-button-response","38","398390","0.0-10.0-1.0-1.4","DDF654B04475461CAA83D9BFD3636F52","DDF654B04475461CAA83D9BFD3636F52","0198bcf7-7265-755d-a99b-4906c022bf25","0198bbb8-fd11-701d-9147-68794ad37298","{""num_scrambled_semantic"":""8"",""num_scrambled_causal"":""4"",""num_scrambled_schematic"":""4"",""participantId"":""DDF654B04475461CAA83D9BFD3636F52"",""assignmentId"":""0198bcf7-7265-755d-a99b-4906c022bf25"",""projectId"":""0198bbb8-fd11-701d-9147-68794ad37298""}","https://test12345.live/?num_scrambled_semantic=8&num_scrambled_causal=4&num_scrambled_schematic=4&participantId=DDF654B04475461CAA83D9BFD3636F52&assignmentId=0198bcf7-7265-755d-a99b-4906c022bf25&projectId=0198bbb8-fd11-701d-9147-68794ad37298","DDF654B04475461CAA83D9BFD3636F52-2025-08-18-12-14-33","","1645","","images/semantic_sequence/cat_care_semantic/cat_care_semantic_2.png","0","",""
"","","","","","image-button-response","39","409203","0.0-10.0-1.0-2.4","DDF654B04475461CAA83D9BFD3636F52","DDF654B04475461CAA83D9BFD3636F52","0198bcf7-7265-755d-a99b-4906c022bf25","0198bbb8-fd11-701d-9147-68794ad37298","{""num_scrambled_semantic"":""8"",""num_scrambled_causal"":""4"",""num_scrambled_schematic"":""4"",""participantId"":""DDF654B04475461CAA83D9BFD3636F52"",""assignmentId"":""0198bcf7-7265-755d-a99b-4906c022bf25"",""projectId"":""0198bbb8-fd11-701d-9147-68794ad37298""}","https://test12345.live/?num_scrambled_semantic=8&num_scrambled_causal=4&num_scrambled_schematic=4&participantId=DDF654B04475461CAA83D9BFD3636F52&assignmentId=0198bcf7-7265-755d-a99b-4906c022bf25&projectId=0198bbb8-fd11-701d-9147-68794ad37298","DDF654B04475461CAA83D9BFD3636F52-2025-08-18-12-14-33","","null","","[]","null","",""
"","","","","","image-button-response","40","413713","0.0-10.0-1.0-0.5","DDF654B04475461CAA83D9BFD3636F52","DDF654B04475461CAA83D9BFD3636F52","0198bcf7-7265-755d-a99b-4906c022bf25","0198bbb8-fd11-701d-9147-68794ad37298","{""num_scrambled_semantic"":""8"",""num_scrambled_causal"":""4"",""num_scrambled_schematic"":""4"",""participantId"":""DDF654B04475461CAA83D9BFD3636F52"",""assignmentId"":""0198bcf7-7265-755d-a99b-4906c022bf25"",""projectId"":""0198bbb8-fd11-701d-9147-68794ad37298""}","https://test12345.live/?num_scrambled_semantic=8&num_scrambled_causal=4&num_scrambled_schematic=4&participantId=DDF654B04475461CAA83D9BFD3636F52&assignmentId=0198bcf7-7265-755d-a99b-4906c022bf25&projectId=0198bbb8-fd11-701d-9147-68794ad37298","DDF654B04475461CAA83D9BFD3636F52-2025-08-18-12-14-33","","null","","images/semantic_sequence/cat_care_semantic/cat_care_semantic_ten.png","null","",""
"","","","","","image-button-response","41","415064","0.0-10.0-1.0-1.5","DDF654B04475461CAA83D9BFD3636F52","DDF654B04475461CAA83D9BFD3636F52","0198bcf7-7265-755d-a99b-4906c022bf25","0198bbb8-fd11-701d-9147-68794ad37298","{""num_scrambled_semantic"":""8"",""num_scrambled_causal"":""4"",""num_scrambled_schematic"":""4"",""participantId"":""DDF654B04475461CAA83D9BFD3636F52"",""assignmentId"":""0198bcf7-7265-755d-a99b-4906c022bf25"",""projectId"":""0198bbb8-fd11-701d-9147-68794ad37298""}","https://test12345.live/?num_scrambled_semantic=8&num_scrambled_causal=4&num_scrambled_schematic=4&participantId=DDF654B04475461CAA83D9BFD3636F52&assignmentId=0198bcf7-7265-755d-a99b-4906c022bf25&projectId=0198bbb8-fd11-701d-9147-68794ad37298","DDF654B04475461CAA83D9BFD3636F52-2025-08-18-12-14-33","","1349","","images/semantic_sequence/cat_care_semantic/cat_care_semantic_ten.png","1","",""
"","","","","","image-button-response","42","425883","0.0-10.0-1.0-2.5","DDF654B04475461CAA83D9BFD3636F52","DDF654B04475461CAA83D9BFD3636F52","0198bcf7-7265-755d-a99b-4906c022bf25","0198bbb8-fd11-701d-9147-68794ad37298","{""num_scrambled_semantic"":""8"",""num_scrambled_causal"":""4"",""num_scrambled_schematic"":""4"",""participantId"":""DDF654B04475461CAA83D9BFD3636F52"",""assignmentId"":""0198bcf7-7265-755d-a99b-4906c022bf25"",""projectId"":""0198bbb8-fd11-701d-9147-68794ad37298""}","https://test12345.live/?num_scrambled_semantic=8&num_scrambled_causal=4&num_scrambled_schematic=4&participantId=DDF654B04475461CAA83D9BFD3636F52&assignmentId=0198bcf7-7265-755d-a99b-4906c022bf25&projectId=0198bbb8-fd11-701d-9147-68794ad37298","DDF654B04475461CAA83D9BFD3636F52-2025-08-18-12-14-33","","null","","[]","null","",""
"","","","","","image-button-response","43","430394","0.0-10.0-1.0-0.6","DDF654B04475461CAA83D9BFD3636F52","DDF654B04475461CAA83D9BFD3636F52","0198bcf7-7265-755d-a99b-4906c022bf25","0198bbb8-fd11-701d-9147-68794ad37298","{""num_scrambled_semantic"":""8"",""num_scrambled_causal"":""4"",""num_scrambled_schematic"":""4"",""participantId"":""DDF654B04475461CAA83D9BFD3636F52"",""assignmentId"":""0198bcf7-7265-755d-a99b-4906c022bf25"",""projectId"":""0198bbb8-fd11-701d-9147-68794ad37298""}","https://test12345.live/?num_scrambled_semantic=8&num_scrambled_causal=4&num_scrambled_schematic=4&participantId=DDF654B04475461CAA83D9BFD3636F52&assignmentId=0198bcf7-7265-755d-a99b-4906c022bf25&projectId=0198bbb8-fd11-701d-9147-68794ad37298","DDF654B04475461CAA83D9BFD3636F52-2025-08-18-12-14-33","","null","","images/semantic_sequence/cat_care_semantic/cat_care_semantic_3.png","null","",""
"","","","","","image-button-response","44","431670","0.0-10.0-1.0-1.6","DDF654B04475461CAA83D9BFD3636F52","DDF654B04475461CAA83D9BFD3636F52","0198bcf7-7265-755d-a99b-4906c022bf25","0198bbb8-fd11-701d-9147-68794ad37298","{""num_scrambled_semantic"":""8"",""num_scrambled_causal"":""4"",""num_scrambled_schematic"":""4"",""participantId"":""DDF654B04475461CAA83D9BFD3636F52"",""assignmentId"":""0198bcf7-7265-755d-a99b-4906c022bf25"",""projectId"":""0198bbb8-fd11-701d-9147-68794ad37298""}","https://test12345.live/?num_scrambled_semantic=8&num_scrambled_causal=4&num_scrambled_schematic=4&participantId=DDF654B04475461CAA83D9BFD3636F52&assignmentId=0198bcf7-7265-755d-a99b-4906c022bf25&projectId=0198bbb8-fd11-701d-9147-68794ad37298","DDF654B04475461CAA83D9BFD3636F52-2025-08-18-12-14-33","","1274","","images/semantic_sequence/cat_care_semantic/cat_care_semantic_3.png","0","",""
"","","","","","image-button-response","45","442483","0.0-10.0-1.0-2.6","DDF654B04475461CAA83D9BFD3636F52","DDF654B04475461CAA83D9BFD3636F52","0198bcf7-7265-755d-a99b-4906c022bf25","0198bbb8-fd11-701d-9147-68794ad37298","{""num_scrambled_semantic"":""8"",""num_scrambled_causal"":""4"",""num_scrambled_schematic"":""4"",""participantId"":""DDF654B04475461CAA83D9BFD3636F52"",""assignmentId"":""0198bcf7-7265-755d-a99b-4906c022bf25"",""projectId"":""0198bbb8-fd11-701d-9147-68794ad37298""}","https://test12345.live/?num_scrambled_semantic=8&num_scrambled_causal=4&num_scrambled_schematic=4&participantId=DDF654B04475461CAA83D9BFD3636F52&assignmentId=0198bcf7-7265-755d-a99b-4906c022bf25&projectId=0198bbb8-fd11-701d-9147-68794ad37298","DDF654B04475461CAA83D9BFD3636F52-2025-08-18-12-14-33","","null","","[]","null","",""
"","","","","","image-button-response","46","446994","0.0-10.0-1.0-0.7","DDF654B04475461CAA83D9BFD3636F52","DDF654B04475461CAA83D9BFD3636F52","0198bcf7-7265-755d-a99b-4906c022bf25","0198bbb8-fd11-701d-9147-68794ad37298","{""num_scrambled_semantic"":""8"",""num_scrambled_causal"":""4"",""num_scrambled_schematic"":""4"",""participantId"":""DDF654B04475461CAA83D9BFD3636F52"",""assignmentId"":""0198bcf7-7265-755d-a99b-4906c022bf25"",""projectId"":""0198bbb8-fd11-701d-9147-68794ad37298""}","https://test12345.live/?num_scrambled_semantic=8&num_scrambled_causal=4&num_scrambled_schematic=4&participantId=DDF654B04475461CAA83D9BFD3636F52&assignmentId=0198bcf7-7265-755d-a99b-4906c022bf25&projectId=0198bbb8-fd11-701d-9147-68794ad37298","DDF654B04475461CAA83D9BFD3636F52-2025-08-18-12-14-33","","null","","images/semantic_sequence/cat_care_semantic/cat_care_semantic_6.png","null","",""
"","","","","","image-button-response","47","448552","0.0-10.0-1.0-1.7","DDF654B04475461CAA83D9BFD3636F52","DDF654B04475461CAA83D9BFD3636F52","0198bcf7-7265-755d-a99b-4906c022bf25","0198bbb8-fd11-701d-9147-68794ad37298","{""num_scrambled_semantic"":""8"",""num_scrambled_causal"":""4"",""num_scrambled_schematic"":""4"",""participantId"":""DDF654B04475461CAA83D9BFD3636F52"",""assignmentId"":""0198bcf7-7265-755d-a99b-4906c022bf25"",""projectId"":""0198bbb8-fd11-701d-9147-68794ad37298""}","https://test12345.live/?num_scrambled_semantic=8&num_scrambled_causal=4&num_scrambled_schematic=4&participantId=DDF654B04475461CAA83D9BFD3636F52&assignmentId=0198bcf7-7265-755d-a99b-4906c022bf25&projectId=0198bbb8-fd11-701d-9147-68794ad37298","DDF654B04475461CAA83D9BFD3636F52-2025-08-18-12-14-33","","1557","","images/semantic_sequence/cat_care_semantic/cat_care_semantic_6.png","0","",""
"","","","","","image-button-response","48","459353","0.0-10.0-1.0-2.7","DDF654B04475461CAA83D9BFD3636F52","DDF654B04475461CAA83D9BFD3636F52","0198bcf7-7265-755d-a99b-4906c022bf25","0198bbb8-fd11-701d-9147-68794ad37298","{""num_scrambled_semantic"":""8"",""num_scrambled_causal"":""4"",""num_scrambled_schematic"":""4"",""participantId"":""DDF654B04475461CAA83D9BFD3636F52"",""assignmentId"":""0198bcf7-7265-755d-a99b-4906c022bf25"",""projectId"":""0198bbb8-fd11-701d-9147-68794ad37298""}","https://test12345.live/?num_scrambled_semantic=8&num_scrambled_causal=4&num_scrambled_schematic=4&participantId=DDF654B04475461CAA83D9BFD3636F52&assignmentId=0198bcf7-7265-755d-a99b-4906c022bf25&projectId=0198bbb8-fd11-701d-9147-68794ad37298","DDF654B04475461CAA83D9BFD3636F52-2025-08-18-12-14-33","","null","","[]","null","",""
"","","","","","image-button-response","49","463855","0.0-10.0-1.0-0.8","DDF654B04475461CAA83D9BFD3636F52","DDF654B04475461CAA83D9BFD3636F52","0198bcf7-7265-755d-a99b-4906c022bf25","0198bbb8-fd11-701d-9147-68794ad37298","{""num_scrambled_semantic"":""8"",""num_scrambled_causal"":""4"",""num_scrambled_schematic"":""4"",""participantId"":""DDF654B04475461CAA83D9BFD3636F52"",""assignmentId"":""0198bcf7-7265-755d-a99b-4906c022bf25"",""projectId"":""0198bbb8-fd11-701d-9147-68794ad37298""}","https://test12345.live/?num_scrambled_semantic=8&num_scrambled_causal=4&num_scrambled_schematic=4&participantId=DDF654B04475461CAA83D9BFD3636F52&assignmentId=0198bcf7-7265-755d-a99b-4906c022bf25&projectId=0198bbb8-fd11-701d-9147-68794ad37298","DDF654B04475461CAA83D9BFD3636F52-2025-08-18-12-14-33","","null","","images/semantic_sequence/cat_care_semantic/cat_care_semantic_7.png","null","",""
"","","","","","image-button-response","50","465768","0.0-10.0-1.0-1.8","DDF654B04475461CAA83D9BFD3636F52","DDF654B04475461CAA83D9BFD3636F52","0198bcf7-7265-755d-a99b-4906c022bf25","0198bbb8-fd11-701d-9147-68794ad37298","{""num_scrambled_semantic"":""8"",""num_scrambled_causal"":""4"",""num_scrambled_schematic"":""4"",""participantId"":""DDF654B04475461CAA83D9BFD3636F52"",""assignmentId"":""0198bcf7-7265-755d-a99b-4906c022bf25"",""projectId"":""0198bbb8-fd11-701d-9147-68794ad37298""}","https://test12345.live/?num_scrambled_semantic=8&num_scrambled_causal=4&num_scrambled_schematic=4&participantId=DDF654B04475461CAA83D9BFD3636F52&assignmentId=0198bcf7-7265-755d-a99b-4906c022bf25&projectId=0198bbb8-fd11-701d-9147-68794ad37298","DDF654B04475461CAA83D9BFD3636F52-2025-08-18-12-14-33","","1911","","images/semantic_sequence/cat_care_semantic/cat_care_semantic_7.png","0","",""
"","","","","","image-button-response","51","476573","0.0-10.0-1.0-2.8","DDF654B04475461CAA83D9BFD3636F52","DDF654B04475461CAA83D9BFD3636F52","0198bcf7-7265-755d-a99b-4906c022bf25","0198bbb8-fd11-701d-9147-68794ad37298","{""num_scrambled_semantic"":""8"",""num_scrambled_causal"":""4"",""num_scrambled_schematic"":""4"",""participantId"":""DDF654B04475461CAA83D9BFD3636F52"",""assignmentId"":""0198bcf7-7265-755d-a99b-4906c022bf25"",""projectId"":""0198bbb8-fd11-701d-9147-68794ad37298""}","https://test12345.live/?num_scrambled_semantic=8&num_scrambled_causal=4&num_scrambled_schematic=4&participantId=DDF654B04475461CAA83D9BFD3636F52&assignmentId=0198bcf7-7265-755d-a99b-4906c022bf25&projectId=0198bbb8-fd11-701d-9147-68794ad37298","DDF654B04475461CAA83D9BFD3636F52-2025-08-18-12-14-33","","null","","[]","null","",""
"","","","","","image-button-response","52","481083","0.0-10.0-1.0-0.9","DDF654B04475461CAA83D9BFD3636F52","DDF654B04475461CAA83D9BFD3636F52","0198bcf7-7265-755d-a99b-4906c022bf25","0198bbb8-fd11-701d-9147-68794ad37298","{""num_scrambled_semantic"":""8"",""num_scrambled_causal"":""4"",""num_scrambled_schematic"":""4"",""participantId"":""DDF654B04475461CAA83D9BFD3636F52"",""assignmentId"":""0198bcf7-7265-755d-a99b-4906c022bf25"",""projectId"":""0198bbb8-fd11-701d-9147-68794ad37298""}","https://test12345.live/?num_scrambled_semantic=8&num_scrambled_causal=4&num_scrambled_schematic=4&participantId=DDF654B04475461CAA83D9BFD3636F52&assignmentId=0198bcf7-7265-755d-a99b-4906c022bf25&projectId=0198bbb8-fd11-701d-9147-68794ad37298","DDF654B04475461CAA83D9BFD3636F52-2025-08-18-12-14-33","","null","","images/semantic_sequence/cat_care_semantic/cat_care_semantic_9.png","null","",""
"","","","","","image-button-response","53","482622","0.0-10.0-1.0-1.9","DDF654B04475461CAA83D9BFD3636F52","DDF654B04475461CAA83D9BFD3636F52","0198bcf7-7265-755d-a99b-4906c022bf25","0198bbb8-fd11-701d-9147-68794ad37298","{""num_scrambled_semantic"":""8"",""num_scrambled_causal"":""4"",""num_scrambled_schematic"":""4"",""participantId"":""DDF654B04475461CAA83D9BFD3636F52"",""assignmentId"":""0198bcf7-7265-755d-a99b-4906c022bf25"",""projectId"":""0198bbb8-fd11-701d-9147-68794ad37298""}","https://test12345.live/?num_scrambled_semantic=8&num_scrambled_causal=4&num_scrambled_schematic=4&participantId=DDF654B04475461CAA83D9BFD3636F52&assignmentId=0198bcf7-7265-755d-a99b-4906c022bf25&projectId=0198bbb8-fd11-701d-9147-68794ad37298","DDF654B04475461CAA83D9BFD3636F52-2025-08-18-12-14-33","","1537","","images/semantic_sequence/cat_care_semantic/cat_care_semantic_9.png","0","",""
"","","","","","image-button-response","54","493423","0.0-10.0-1.0-2.9","DDF654B04475461CAA83D9BFD3636F52","DDF654B04475461CAA83D9BFD3636F52","0198bcf7-7265-755d-a99b-4906c022bf25","0198bbb8-fd11-701d-9147-68794ad37298","{""num_scrambled_semantic"":""8"",""num_scrambled_causal"":""4"",""num_scrambled_schematic"":""4"",""participantId"":""DDF654B04475461CAA83D9BFD3636F52"",""assignmentId"":""0198bcf7-7265-755d-a99b-4906c022bf25"",""projectId"":""0198bbb8-fd11-701d-9147-68794ad37298""}","https://test12345.live/?num_scrambled_semantic=8&num_scrambled_causal=4&num_scrambled_schematic=4&participantId=DDF654B04475461CAA83D9BFD3636F52&assignmentId=0198bcf7-7265-755d-a99b-4906c022bf25&projectId=0198bbb8-fd11-701d-9147-68794ad37298","DDF654B04475461CAA83D9BFD3636F52-2025-08-18-12-14-33","","null","","[]","null","",""
"","","","","","html-audio-response","55","595502","0.0-11.0","DDF654B04475461CAA83D9BFD3636F52","DDF654B04475461CAA83D9BFD3636F52","0198bcf7-7265-755d-a99b-4906c022bf25","0198bbb8-fd11-701d-9147-68794ad37298","{""num_scrambled_semantic"":""8"",""num_scrambled_causal"":""4"",""num_scrambled_schematic"":""4"",""participantId"":""DDF654B04475461CAA83D9BFD3636F52"",""assignmentId"":""0198bcf7-7265-755d-a99b-4906c022bf25"",""projectId"":""0198bbb8-fd11-701d-9147-68794ad37298""}","https://test12345.live/?num_scrambled_semantic=8&num_scrambled_causal=4&num_scrambled_schematic=4&participantId=DDF654B04475461CAA83D9BFD3636F52&assignmentId=0198bcf7-7265-755d-a99b-4906c022bf25&projectId=0198bbb8-fd11-701d-9147-68794ad37298","DDF654B04475461CAA83D9BFD3636F52-2025-08-18-12-14-33","","null","","[""<span style=\""color: red; font-size: 24px\""> NOW RECORDING</span><p>Please say out loud all the images you saw, as many as you can remember. The images can be said in any order.</p>""]","","2","cat_care_semantic"
"","","","","","image-button-response","56","601524","0.0-12.0-0.0","DDF654B04475461CAA83D9BFD3636F52","DDF654B04475461CAA83D9BFD3636F52","0198bcf7-7265-755d-a99b-4906c022bf25","0198bbb8-fd11-701d-9147-68794ad37298","{""num_scrambled_semantic"":""8"",""num_scrambled_causal"":""4"",""num_scrambled_schematic"":""4"",""participantId"":""DDF654B04475461CAA83D9BFD3636F52"",""assignmentId"":""0198bcf7-7265-755d-a99b-4906c022bf25"",""projectId"":""0198bbb8-fd11-701d-9147-68794ad37298""}","https://test12345.live/?num_scrambled_semantic=8&num_scrambled_causal=4&num_scrambled_schematic=4&participantId=DDF654B04475461CAA83D9BFD3636F52&assignmentId=0198bcf7-7265-755d-a99b-4906c022bf25&projectId=0198bbb8-fd11-701d-9147-68794ad37298","DDF654B04475461CAA83D9BFD3636F52-2025-08-18-12-14-33","","null","","images/semantic_sequence/redecorating_semantic/redecorating_semantic_0.png","null","",""
"","","","","","image-button-response","57","606043","0.0-12.0-1.0-0.0","DDF654B04475461CAA83D9BFD3636F52","DDF654B04475461CAA83D9BFD3636F52","0198bcf7-7265-755d-a99b-4906c022bf25","0198bbb8-fd11-701d-9147-68794ad37298","{""num_scrambled_semantic"":""8"",""num_scrambled_causal"":""4"",""num_scrambled_schematic"":""4"",""participantId"":""DDF654B04475461CAA83D9BFD3636F52"",""assignmentId"":""0198bcf7-7265-755d-a99b-4906c022bf25"",""projectId"":""0198bbb8-fd11-701d-9147-68794ad37298""}","https://test12345.live/?num_scrambled_semantic=8&num_scrambled_causal=4&num_scrambled_schematic=4&participantId=DDF654B04475461CAA83D9BFD3636F52&assignmentId=0198bcf7-7265-755d-a99b-4906c022bf25&projectId=0198bbb8-fd11-701d-9147-68794ad37298","DDF654B04475461CAA83D9BFD3636F52-2025-08-18-12-14-33","","null","","images/semantic_sequence/redecorating_semantic/redecorating_semantic_6.png","null","",""
"","","","","","image-button-response","58","608583","0.0-12.0-1.0-1.0","DDF654B04475461CAA83D9BFD3636F52","DDF654B04475461CAA83D9BFD3636F52","0198bcf7-7265-755d-a99b-4906c022bf25","0198bbb8-fd11-701d-9147-68794ad37298","{""num_scrambled_semantic"":""8"",""num_scrambled_causal"":""4"",""num_scrambled_schematic"":""4"",""participantId"":""DDF654B04475461CAA83D9BFD3636F52"",""assignmentId"":""0198bcf7-7265-755d-a99b-4906c022bf25"",""projectId"":""0198bbb8-fd11-701d-9147-68794ad37298""}","https://test12345.live/?num_scrambled_semantic=8&num_scrambled_causal=4&num_scrambled_schematic=4&participantId=DDF654B04475461CAA83D9BFD3636F52&assignmentId=0198bcf7-7265-755d-a99b-4906c022bf25&projectId=0198bbb8-fd11-701d-9147-68794ad37298","DDF654B04475461CAA83D9BFD3636F52-2025-08-18-12-14-33","","2538","","images/semantic_sequence/redecorating_semantic/redecorating_semantic_6.png","0","",""
"","","","","","image-button-response","59","619393","0.0-12.0-1.0-2.0","DDF654B04475461CAA83D9BFD3636F52","DDF654B04475461CAA83D9BFD3636F52","0198bcf7-7265-755d-a99b-4906c022bf25","0198bbb8-fd11-701d-9147-68794ad37298","{""num_scrambled_semantic"":""8"",""num_scrambled_causal"":""4"",""num_scrambled_schematic"":""4"",""participantId"":""DDF654B04475461CAA83D9BFD3636F52"",""assignmentId"":""0198bcf7-7265-755d-a99b-4906c022bf25"",""projectId"":""0198bbb8-fd11-701d-9147-68794ad37298""}","https://test12345.live/?num_scrambled_semantic=8&num_scrambled_causal=4&num_scrambled_schematic=4&participantId=DDF654B04475461CAA83D9BFD3636F52&assignmentId=0198bcf7-7265-755d-a99b-4906c022bf25&projectId=0198bbb8-fd11-701d-9147-68794ad37298","DDF654B04475461CAA83D9BFD3636F52-2025-08-18-12-14-33","","null","","[]","null","",""
"","","","","","image-button-response","60","623897","0.0-12.0-1.0-0.1","DDF654B04475461CAA83D9BFD3636F52","DDF654B04475461CAA83D9BFD3636F52","0198bcf7-7265-755d-a99b-4906c022bf25","0198bbb8-fd11-701d-9147-68794ad37298","{""num_scrambled_semantic"":""8"",""num_scrambled_causal"":""4"",""num_scrambled_schematic"":""4"",""participantId"":""DDF654B04475461CAA83D9BFD3636F52"",""assignmentId"":""0198bcf7-7265-755d-a99b-4906c022bf25"",""projectId"":""0198bbb8-fd11-701d-9147-68794ad37298""}","https://test12345.live/?num_scrambled_semantic=8&num_scrambled_causal=4&num_scrambled_schematic=4&participantId=DDF654B04475461CAA83D9BFD3636F52&assignmentId=0198bcf7-7265-755d-a99b-4906c022bf25&projectId=0198bbb8-fd11-701d-9147-68794ad37298","DDF654B04475461CAA83D9BFD3636F52-2025-08-18-12-14-33","","null","","images/semantic_sequence/redecorating_semantic/redecorating_semantic_7.png","null","",""
"","","","","","image-button-response","61","625959","0.0-12.0-1.0-1.1","DDF654B04475461CAA83D9BFD3636F52","DDF654B04475461CAA83D9BFD3636F52","0198bcf7-7265-755d-a99b-4906c022bf25","0198bbb8-fd11-701d-9147-68794ad37298","{""num_scrambled_semantic"":""8"",""num_scrambled_causal"":""4"",""num_scrambled_schematic"":""4"",""participantId"":""DDF654B04475461CAA83D9BFD3636F52"",""assignmentId"":""0198bcf7-7265-755d-a99b-4906c022bf25"",""projectId"":""0198bbb8-fd11-701d-9147-68794ad37298""}","https://test12345.live/?num_scrambled_semantic=8&num_scrambled_causal=4&num_scrambled_schematic=4&participantId=DDF654B04475461CAA83D9BFD3636F52&assignmentId=0198bcf7-7265-755d-a99b-4906c022bf25&projectId=0198bbb8-fd11-701d-9147-68794ad37298","DDF654B04475461CAA83D9BFD3636F52-2025-08-18-12-14-33","","2060","","images/semantic_sequence/redecorating_semantic/redecorating_semantic_7.png","0","",""
"","","","","","image-button-response","62","636773","0.0-12.0-1.0-2.1","DDF654B04475461CAA83D9BFD3636F52","DDF654B04475461CAA83D9BFD3636F52","0198bcf7-7265-755d-a99b-4906c022bf25","0198bbb8-fd11-701d-9147-68794ad37298","{""num_scrambled_semantic"":""8"",""num_scrambled_causal"":""4"",""num_scrambled_schematic"":""4"",""participantId"":""DDF654B04475461CAA83D9BFD3636F52"",""assignmentId"":""0198bcf7-7265-755d-a99b-4906c022bf25"",""projectId"":""0198bbb8-fd11-701d-9147-68794ad37298""}","https://test12345.live/?num_scrambled_semantic=8&num_scrambled_causal=4&num_scrambled_schematic=4&participantId=DDF654B04475461CAA83D9BFD3636F52&assignmentId=0198bcf7-7265-755d-a99b-4906c022bf25&projectId=0198bbb8-fd11-701d-9147-68794ad37298","DDF654B04475461CAA83D9BFD3636F52-2025-08-18-12-14-33","","null","","[]","null","",""
"","","","","","image-button-response","63","641284","0.0-12.0-1.0-0.2","DDF654B04475461CAA83D9BFD3636F52","DDF654B04475461CAA83D9BFD3636F52","0198bcf7-7265-755d-a99b-4906c022bf25","0198bbb8-fd11-701d-9147-68794ad37298","{""num_scrambled_semantic"":""8"",""num_scrambled_causal"":""4"",""num_scrambled_schematic"":""4"",""participantId"":""DDF654B04475461CAA83D9BFD3636F52"",""assignmentId"":""0198bcf7-7265-755d-a99b-4906c022bf25"",""projectId"":""0198bbb8-fd11-701d-9147-68794ad37298""}","https://test12345.live/?num_scrambled_semantic=8&num_scrambled_causal=4&num_scrambled_schematic=4&participantId=DDF654B04475461CAA83D9BFD3636F52&assignmentId=0198bcf7-7265-755d-a99b-4906c022bf25&projectId=0198bbb8-fd11-701d-9147-68794ad37298","DDF654B04475461CAA83D9BFD3636F52-2025-08-18-12-14-33","","null","","images/semantic_sequence/redecorating_semantic/redecorating_semantic_3.png","null","",""
"","","","","","image-button-response","64","642582","0.0-12.0-1.0-1.2","DDF654B04475461CAA83D9BFD3636F52","DDF654B04475461CAA83D9BFD3636F52","0198bcf7-7265-755d-a99b-4906c022bf25","0198bbb8-fd11-701d-9147-68794ad37298","{""num_scrambled_semantic"":""8"",""num_scrambled_causal"":""4"",""num_scrambled_schematic"":""4"",""participantId"":""DDF654B04475461CAA83D9BFD3636F52"",""assignmentId"":""0198bcf7-7265-755d-a99b-4906c022bf25"",""projectId"":""0198bbb8-fd11-701d-9147-68794ad37298""}","https://test12345.live/?num_scrambled_semantic=8&num_scrambled_causal=4&num_scrambled_schematic=4&participantId=DDF654B04475461CAA83D9BFD3636F52&assignmentId=0198bcf7-7265-755d-a99b-4906c022bf25&projectId=0198bbb8-fd11-701d-9147-68794ad37298","DDF654B04475461CAA83D9BFD3636F52-2025-08-18-12-14-33","","1296","","images/semantic_sequence/redecorating_semantic/redecorating_semantic_3.png","0","",""
"","","","","","image-button-response","65","653393","0.0-12.0-1.0-2.2","DDF654B04475461CAA83D9BFD3636F52","DDF654B04475461CAA83D9BFD3636F52","0198bcf7-7265-755d-a99b-4906c022bf25","0198bbb8-fd11-701d-9147-68794ad37298","{""num_scrambled_semantic"":""8"",""num_scrambled_causal"":""4"",""num_scrambled_schematic"":""4"",""participantId"":""DDF654B04475461CAA83D9BFD3636F52"",""assignmentId"":""0198bcf7-7265-755d-a99b-4906c022bf25"",""projectId"":""0198bbb8-fd11-701d-9147-68794ad37298""}","https://test12345.live/?num_scrambled_semantic=8&num_scrambled_causal=4&num_scrambled_schematic=4&participantId=DDF654B04475461CAA83D9BFD3636F52&assignmentId=0198bcf7-7265-755d-a99b-4906c022bf25&projectId=0198bbb8-fd11-701d-9147-68794ad37298","DDF654B04475461CAA83D9BFD3636F52-2025-08-18-12-14-33","","null","","[]","null","",""
"","","","","","image-button-response","66","657903","0.0-12.0-1.0-0.3","DDF654B04475461CAA83D9BFD3636F52","DDF654B04475461CAA83D9BFD3636F52","0198bcf7-7265-755d-a99b-4906c022bf25","0198bbb8-fd11-701d-9147-68794ad37298","{""num_scrambled_semantic"":""8"",""num_scrambled_causal"":""4"",""num_scrambled_schematic"":""4"",""participantId"":""DDF654B04475461CAA83D9BFD3636F52"",""assignmentId"":""0198bcf7-7265-755d-a99b-4906c022bf25"",""projectId"":""0198bbb8-fd11-701d-9147-68794ad37298""}","https://test12345.live/?num_scrambled_semantic=8&num_scrambled_causal=4&num_scrambled_schematic=4&participantId=DDF654B04475461CAA83D9BFD3636F52&assignmentId=0198bcf7-7265-755d-a99b-4906c022bf25&projectId=0198bbb8-fd11-701d-9147-68794ad37298","DDF654B04475461CAA83D9BFD3636F52-2025-08-18-12-14-33","","null","","images/semantic_sequence/redecorating_semantic/redecorating_semantic_9.png","null","",""
"","","","","","image-button-response","67","659811","0.0-12.0-1.0-1.3","DDF654B04475461CAA83D9BFD3636F52","DDF654B04475461CAA83D9BFD3636F52","0198bcf7-7265-755d-a99b-4906c022bf25","0198bbb8-fd11-701d-9147-68794ad37298","{""num_scrambled_semantic"":""8"",""num_scrambled_causal"":""4"",""num_scrambled_schematic"":""4"",""participantId"":""DDF654B04475461CAA83D9BFD3636F52"",""assignmentId"":""0198bcf7-7265-755d-a99b-4906c022bf25"",""projectId"":""0198bbb8-fd11-701d-9147-68794ad37298""}","https://test12345.live/?num_scrambled_semantic=8&num_scrambled_causal=4&num_scrambled_schematic=4&participantId=DDF654B04475461CAA83D9BFD3636F52&assignmentId=0198bcf7-7265-755d-a99b-4906c022bf25&projectId=0198bbb8-fd11-701d-9147-68794ad37298","DDF654B04475461CAA83D9BFD3636F52-2025-08-18-12-14-33","","1907","","images/semantic_sequence/redecorating_semantic/redecorating_semantic_9.png","0","",""
"","","","","","image-button-response","68","670623","0.0-12.0-1.0-2.3","DDF654B04475461CAA83D9BFD3636F52","DDF654B04475461CAA83D9BFD3636F52","0198bcf7-7265-755d-a99b-4906c022bf25","0198bbb8-fd11-701d-9147-68794ad37298","{""num_scrambled_semantic"":""8"",""num_scrambled_causal"":""4"",""num_scrambled_schematic"":""4"",""participantId"":""DDF654B04475461CAA83D9BFD3636F52"",""assignmentId"":""0198bcf7-7265-755d-a99b-4906c022bf25"",""projectId"":""0198bbb8-fd11-701d-9147-68794ad37298""}","https://test12345.live/?num_scrambled_semantic=8&num_scrambled_causal=4&num_scrambled_schematic=4&participantId=DDF654B04475461CAA83D9BFD3636F52&assignmentId=0198bcf7-7265-755d-a99b-4906c022bf25&projectId=0198bbb8-fd11-701d-9147-68794ad37298","DDF654B04475461CAA83D9BFD3636F52-2025-08-18-12-14-33","","null","","[]","null","",""
"","","","","","image-button-response","69","675143","0.0-12.0-1.0-0.4","DDF654B04475461CAA83D9BFD3636F52","DDF654B04475461CAA83D9BFD3636F52","0198bcf7-7265-755d-a99b-4906c022bf25","0198bbb8-fd11-701d-9147-68794ad37298","{""num_scrambled_semantic"":""8"",""num_scrambled_causal"":""4"",""num_scrambled_schematic"":""4"",""participantId"":""DDF654B04475461CAA83D9BFD3636F52"",""assignmentId"":""0198bcf7-7265-755d-a99b-4906c022bf25"",""projectId"":""0198bbb8-fd11-701d-9147-68794ad37298""}","https://test12345.live/?num_scrambled_semantic=8&num_scrambled_causal=4&num_scrambled_schematic=4&participantId=DDF654B04475461CAA83D9BFD3636F52&assignmentId=0198bcf7-7265-755d-a99b-4906c022bf25&projectId=0198bbb8-fd11-701d-9147-68794ad37298","DDF654B04475461CAA83D9BFD3636F52-2025-08-18-12-14-33","","null","","images/semantic_sequence/redecorating_semantic/redecorating_semantic_5.png","null","",""
"","","","","","image-button-response","70","676845","0.0-12.0-1.0-1.4","DDF654B04475461CAA83D9BFD3636F52","DDF654B04475461CAA83D9BFD3636F52","0198bcf7-7265-755d-a99b-4906c022bf25","0198bbb8-fd11-701d-9147-68794ad37298","{""num_scrambled_semantic"":""8"",""num_scrambled_causal"":""4"",""num_scrambled_schematic"":""4"",""participantId"":""DDF654B04475461CAA83D9BFD3636F52"",""assignmentId"":""0198bcf7-7265-755d-a99b-4906c022bf25"",""projectId"":""0198bbb8-fd11-701d-9147-68794ad37298""}","https://test12345.live/?num_scrambled_semantic=8&num_scrambled_causal=4&num_scrambled_schematic=4&participantId=DDF654B04475461CAA83D9BFD3636F52&assignmentId=0198bcf7-7265-755d-a99b-4906c022bf25&projectId=0198bbb8-fd11-701d-9147-68794ad37298","DDF654B04475461CAA83D9BFD3636F52-2025-08-18-12-14-33","","1701","","images/semantic_sequence/redecorating_semantic/redecorating_semantic_5.png","0","",""
"","","","","","image-button-response","71","687663","0.0-12.0-1.0-2.4","DDF654B04475461CAA83D9BFD3636F52","DDF654B04475461CAA83D9BFD3636F52","0198bcf7-7265-755d-a99b-4906c022bf25","0198bbb8-fd11-701d-9147-68794ad37298","{""num_scrambled_semantic"":""8"",""num_scrambled_causal"":""4"",""num_scrambled_schematic"":""4"",""participantId"":""DDF654B04475461CAA83D9BFD3636F52"",""assignmentId"":""0198bcf7-7265-755d-a99b-4906c022bf25"",""projectId"":""0198bbb8-fd11-701d-9147-68794ad37298""}","https://test12345.live/?num_scrambled_semantic=8&num_scrambled_causal=4&num_scrambled_schematic=4&participantId=DDF654B04475461CAA83D9BFD3636F52&assignmentId=0198bcf7-7265-755d-a99b-4906c022bf25&projectId=0198bbb8-fd11-701d-9147-68794ad37298","DDF654B04475461CAA83D9BFD3636F52-2025-08-18-12-14-33","","null","","[]","null","",""
"","","","","","image-button-response","72","692183","0.0-12.0-1.0-0.5","DDF654B04475461CAA83D9BFD3636F52","DDF654B04475461CAA83D9BFD3636F52","0198bcf7-7265-755d-a99b-4906c022bf25","0198bbb8-fd11-701d-9147-68794ad37298","{""num_scrambled_semantic"":""8"",""num_scrambled_causal"":""4"",""num_scrambled_schematic"":""4"",""participantId"":""DDF654B04475461CAA83D9BFD3636F52"",""assignmentId"":""0198bcf7-7265-755d-a99b-4906c022bf25"",""projectId"":""0198bbb8-fd11-701d-9147-68794ad37298""}","https://test12345.live/?num_scrambled_semantic=8&num_scrambled_causal=4&num_scrambled_schematic=4&participantId=DDF654B04475461CAA83D9BFD3636F52&assignmentId=0198bcf7-7265-755d-a99b-4906c022bf25&projectId=0198bbb8-fd11-701d-9147-68794ad37298","DDF654B04475461CAA83D9BFD3636F52-2025-08-18-12-14-33","","null","","images/semantic_sequence/redecorating_semantic/redecorating_semantic_ten.png","null","",""
"","","","","","image-button-response","73","694245","0.0-12.0-1.0-1.5","DDF654B04475461CAA83D9BFD3636F52","DDF654B04475461CAA83D9BFD3636F52","0198bcf7-7265-755d-a99b-4906c022bf25","0198bbb8-fd11-701d-9147-68794ad37298","{""num_scrambled_semantic"":""8"",""num_scrambled_causal"":""4"",""num_scrambled_schematic"":""4"",""participantId"":""DDF654B04475461CAA83D9BFD3636F52"",""assignmentId"":""0198bcf7-7265-755d-a99b-4906c022bf25"",""projectId"":""0198bbb8-fd11-701d-9147-68794ad37298""}","https://test12345.live/?num_scrambled_semantic=8&num_scrambled_causal=4&num_scrambled_schematic=4&participantId=DDF654B04475461CAA83D9BFD3636F52&assignmentId=0198bcf7-7265-755d-a99b-4906c022bf25&projectId=0198bbb8-fd11-701d-9147-68794ad37298","DDF654B04475461CAA83D9BFD3636F52-2025-08-18-12-14-33","","2060","","images/semantic_sequence/redecorating_semantic/redecorating_semantic_ten.png","0","",""
"","","","","","image-button-response","74","705063","0.0-12.0-1.0-2.5","DDF654B04475461CAA83D9BFD3636F52","DDF654B04475461CAA83D9BFD3636F52","0198bcf7-7265-755d-a99b-4906c022bf25","0198bbb8-fd11-701d-9147-68794ad37298","{""num_scrambled_semantic"":""8"",""num_scrambled_causal"":""4"",""num_scrambled_schematic"":""4"",""participantId"":""DDF654B04475461CAA83D9BFD3636F52"",""assignmentId"":""0198bcf7-7265-755d-a99b-4906c022bf25"",""projectId"":""0198bbb8-fd11-701d-9147-68794ad37298""}","https://test12345.live/?num_scrambled_semantic=8&num_scrambled_causal=4&num_scrambled_schematic=4&participantId=DDF654B04475461CAA83D9BFD3636F52&assignmentId=0198bcf7-7265-755d-a99b-4906c022bf25&projectId=0198bbb8-fd11-701d-9147-68794ad37298","DDF654B04475461CAA83D9BFD3636F52-2025-08-18-12-14-33","","null","","[]","null","",""
"","","","","","image-button-response","75","709583","0.0-12.0-1.0-0.6","DDF654B04475461CAA83D9BFD3636F52","DDF654B04475461CAA83D9BFD3636F52","0198bcf7-7265-755d-a99b-4906c022bf25","0198bbb8-fd11-701d-9147-68794ad37298","{""num_scrambled_semantic"":""8"",""num_scrambled_causal"":""4"",""num_scrambled_schematic"":""4"",""participantId"":""DDF654B04475461CAA83D9BFD3636F52"",""assignmentId"":""0198bcf7-7265-755d-a99b-4906c022bf25"",""projectId"":""0198bbb8-fd11-701d-9147-68794ad37298""}","https://test12345.live/?num_scrambled_semantic=8&num_scrambled_causal=4&num_scrambled_schematic=4&participantId=DDF654B04475461CAA83D9BFD3636F52&assignmentId=0198bcf7-7265-755d-a99b-4906c022bf25&projectId=0198bbb8-fd11-701d-9147-68794ad37298","DDF654B04475461CAA83D9BFD3636F52-2025-08-18-12-14-33","","null","","images/semantic_sequence/redecorating_semantic/redecorating_semantic_1.png","null","",""
"","","","","","image-button-response","76","713593","0.0-12.0-1.0-1.6","DDF654B04475461CAA83D9BFD3636F52","DDF654B04475461CAA83D9BFD3636F52","0198bcf7-7265-755d-a99b-4906c022bf25","0198bbb8-fd11-701d-9147-68794ad37298","{""num_scrambled_semantic"":""8"",""num_scrambled_causal"":""4"",""num_scrambled_schematic"":""4"",""participantId"":""DDF654B04475461CAA83D9BFD3636F52"",""assignmentId"":""0198bcf7-7265-755d-a99b-4906c022bf25"",""projectId"":""0198bbb8-fd11-701d-9147-68794ad37298""}","https://test12345.live/?num_scrambled_semantic=8&num_scrambled_causal=4&num_scrambled_schematic=4&participantId=DDF654B04475461CAA83D9BFD3636F52&assignmentId=0198bcf7-7265-755d-a99b-4906c022bf25&projectId=0198bbb8-fd11-701d-9147-68794ad37298","DDF654B04475461CAA83D9BFD3636F52-2025-08-18-12-14-33","","null","","images/semantic_sequence/redecorating_semantic/redecorating_semantic_1.png","null","",""
"","","","","","image-button-response","77","724404","0.0-12.0-1.0-2.6","DDF654B04475461CAA83D9BFD3636F52","DDF654B04475461CAA83D9BFD3636F52","0198bcf7-7265-755d-a99b-4906c022bf25","0198bbb8-fd11-701d-9147-68794ad37298","{""num_scrambled_semantic"":""8"",""num_scrambled_causal"":""4"",""num_scrambled_schematic"":""4"",""participantId"":""DDF654B04475461CAA83D9BFD3636F52"",""assignmentId"":""0198bcf7-7265-755d-a99b-4906c022bf25"",""projectId"":""0198bbb8-fd11-701d-9147-68794ad37298""}","https://test12345.live/?num_scrambled_semantic=8&num_scrambled_causal=4&num_scrambled_schematic=4&participantId=DDF654B04475461CAA83D9BFD3636F52&assignmentId=0198bcf7-7265-755d-a99b-4906c022bf25&projectId=0198bbb8-fd11-701d-9147-68794ad37298","DDF654B04475461CAA83D9BFD3636F52-2025-08-18-12-14-33","","null","","[]","null","",""
"","","","","","image-button-response","78","728907","0.0-12.0-1.0-0.7","DDF654B04475461CAA83D9BFD3636F52","DDF654B04475461CAA83D9BFD3636F52","0198bcf7-7265-755d-a99b-4906c022bf25","0198bbb8-fd11-701d-9147-68794ad37298","{""num_scrambled_semantic"":""8"",""num_scrambled_causal"":""4"",""num_scrambled_schematic"":""4"",""participantId"":""DDF654B04475461CAA83D9BFD3636F52"",""assignmentId"":""0198bcf7-7265-755d-a99b-4906c022bf25"",""projectId"":""0198bbb8-fd11-701d-9147-68794ad37298""}","https://test12345.live/?num_scrambled_semantic=8&num_scrambled_causal=4&num_scrambled_schematic=4&participantId=DDF654B04475461CAA83D9BFD3636F52&assignmentId=0198bcf7-7265-755d-a99b-4906c022bf25&projectId=0198bbb8-fd11-701d-9147-68794ad37298","DDF654B04475461CAA83D9BFD3636F52-2025-08-18-12-14-33","","null","","images/semantic_sequence/redecorating_semantic/redecorating_semantic_8.png","null","",""
"","","","","","image-button-response","79","730103","0.0-12.0-1.0-1.7","DDF654B04475461CAA83D9BFD3636F52","DDF654B04475461CAA83D9BFD3636F52","0198bcf7-7265-755d-a99b-4906c022bf25","0198bbb8-fd11-701d-9147-68794ad37298","{""num_scrambled_semantic"":""8"",""num_scrambled_causal"":""4"",""num_scrambled_schematic"":""4"",""participantId"":""DDF654B04475461CAA83D9BFD3636F52"",""assignmentId"":""0198bcf7-7265-755d-a99b-4906c022bf25"",""projectId"":""0198bbb8-fd11-701d-9147-68794ad37298""}","https://test12345.live/?num_scrambled_semantic=8&num_scrambled_causal=4&num_scrambled_schematic=4&participantId=DDF654B04475461CAA83D9BFD3636F52&assignmentId=0198bcf7-7265-755d-a99b-4906c022bf25&projectId=0198bbb8-fd11-701d-9147-68794ad37298","DDF654B04475461CAA83D9BFD3636F52-2025-08-18-12-14-33","","1194","","images/semantic_sequence/redecorating_semantic/redecorating_semantic_8.png","0","",""
"","","","","","image-button-response","80","740923","0.0-12.0-1.0-2.7","DDF654B04475461CAA83D9BFD3636F52","DDF654B04475461CAA83D9BFD3636F52","0198bcf7-7265-755d-a99b-4906c022bf25","0198bbb8-fd11-701d-9147-68794ad37298","{""num_scrambled_semantic"":""8"",""num_scrambled_causal"":""4"",""num_scrambled_schematic"":""4"",""participantId"":""DDF654B04475461CAA83D9BFD3636F52"",""assignmentId"":""0198bcf7-7265-755d-a99b-4906c022bf25"",""projectId"":""0198bbb8-fd11-701d-9147-68794ad37298""}","https://test12345.live/?num_scrambled_semantic=8&num_scrambled_causal=4&num_scrambled_schematic=4&participantId=DDF654B04475461CAA83D9BFD3636F52&assignmentId=0198bcf7-7265-755d-a99b-4906c022bf25&projectId=0198bbb8-fd11-701d-9147-68794ad37298","DDF654B04475461CAA83D9BFD3636F52-2025-08-18-12-14-33","","null","","[]","null","",""
"","","","","","image-button-response","81","745433","0.0-12.0-1.0-0.8","DDF654B04475461CAA83D9BFD3636F52","DDF654B04475461CAA83D9BFD3636F52","0198bcf7-7265-755d-a99b-4906c022bf25","0198bbb8-fd11-701d-9147-68794ad37298","{""num_scrambled_semantic"":""8"",""num_scrambled_causal"":""4"",""num_scrambled_schematic"":""4"",""participantId"":""DDF654B04475461CAA83D9BFD3636F52"",""assignmentId"":""0198bcf7-7265-755d-a99b-4906c022bf25"",""projectId"":""0198bbb8-fd11-701d-9147-68794ad37298""}","https://test12345.live/?num_scrambled_semantic=8&num_scrambled_causal=4&num_scrambled_schematic=4&participantId=DDF654B04475461CAA83D9BFD3636F52&assignmentId=0198bcf7-7265-755d-a99b-4906c022bf25&projectId=0198bbb8-fd11-701d-9147-68794ad37298","DDF654B04475461CAA83D9BFD3636F52-2025-08-18-12-14-33","","null","","images/semantic_sequence/redecorating_semantic/redecorating_semantic_4.png","null","",""
"","","","","","image-button-response","82","746569","0.0-12.0-1.0-1.8","DDF654B04475461CAA83D9BFD3636F52","DDF654B04475461CAA83D9BFD3636F52","0198bcf7-7265-755d-a99b-4906c022bf25","0198bbb8-fd11-701d-9147-68794ad37298","{""num_scrambled_semantic"":""8"",""num_scrambled_causal"":""4"",""num_scrambled_schematic"":""4"",""participantId"":""DDF654B04475461CAA83D9BFD3636F52"",""assignmentId"":""0198bcf7-7265-755d-a99b-4906c022bf25"",""projectId"":""0198bbb8-fd11-701d-9147-68794ad37298""}","https://test12345.live/?num_scrambled_semantic=8&num_scrambled_causal=4&num_scrambled_schematic=4&participantId=DDF654B04475461CAA83D9BFD3636F52&assignmentId=0198bcf7-7265-755d-a99b-4906c022bf25&projectId=0198bbb8-fd11-701d-9147-68794ad37298","DDF654B04475461CAA83D9BFD3636F52-2025-08-18-12-14-33","","1135","","images/semantic_sequence/redecorating_semantic/redecorating_semantic_4.png","0","",""
"","","","","","image-button-response","83","757383","0.0-12.0-1.0-2.8","DDF654B04475461CAA83D9BFD3636F52","DDF654B04475461CAA83D9BFD3636F52","0198bcf7-7265-755d-a99b-4906c022bf25","0198bbb8-fd11-701d-9147-68794ad37298","{""num_scrambled_semantic"":""8"",""num_scrambled_causal"":""4"",""num_scrambled_schematic"":""4"",""participantId"":""DDF654B04475461CAA83D9BFD3636F52"",""assignmentId"":""0198bcf7-7265-755d-a99b-4906c022bf25"",""projectId"":""0198bbb8-fd11-701d-9147-68794ad37298""}","https://test12345.live/?num_scrambled_semantic=8&num_scrambled_causal=4&num_scrambled_schematic=4&participantId=DDF654B04475461CAA83D9BFD3636F52&assignmentId=0198bcf7-7265-755d-a99b-4906c022bf25&projectId=0198bbb8-fd11-701d-9147-68794ad37298","DDF654B04475461CAA83D9BFD3636F52-2025-08-18-12-14-33","","null","","[]","null","",""
"","","","","","image-button-response","84","761894","0.0-12.0-1.0-0.9","DDF654B04475461CAA83D9BFD3636F52","DDF654B04475461CAA83D9BFD3636F52","0198bcf7-7265-755d-a99b-4906c022bf25","0198bbb8-fd11-701d-9147-68794ad37298","{""num_scrambled_semantic"":""8"",""num_scrambled_causal"":""4"",""num_scrambled_schematic"":""4"",""participantId"":""DDF654B04475461CAA83D9BFD3636F52"",""assignmentId"":""0198bcf7-7265-755d-a99b-4906c022bf25"",""projectId"":""0198bbb8-fd11-701d-9147-68794ad37298""}","https://test12345.live/?num_scrambled_semantic=8&num_scrambled_causal=4&num_scrambled_schematic=4&participantId=DDF654B04475461CAA83D9BFD3636F52&assignmentId=0198bcf7-7265-755d-a99b-4906c022bf25&projectId=0198bbb8-fd11-701d-9147-68794ad37298","DDF654B04475461CAA83D9BFD3636F52-2025-08-18-12-14-33","","null","","images/semantic_sequence/redecorating_semantic/redecorating_semantic_2.png","null","",""
"","","","","","image-button-response","85","763315","0.0-12.0-1.0-1.9","DDF654B04475461CAA83D9BFD3636F52","DDF654B04475461CAA83D9BFD3636F52","0198bcf7-7265-755d-a99b-4906c022bf25","0198bbb8-fd11-701d-9147-68794ad37298","{""num_scrambled_semantic"":""8"",""num_scrambled_causal"":""4"",""num_scrambled_schematic"":""4"",""participantId"":""DDF654B04475461CAA83D9BFD3636F52"",""assignmentId"":""0198bcf7-7265-755d-a99b-4906c022bf25"",""projectId"":""0198bbb8-fd11-701d-9147-68794ad37298""}","https://test12345.live/?num_scrambled_semantic=8&num_scrambled_causal=4&num_scrambled_schematic=4&participantId=DDF654B04475461CAA83D9BFD3636F52&assignmentId=0198bcf7-7265-755d-a99b-4906c022bf25&projectId=0198bbb8-fd11-701d-9147-68794ad37298","DDF654B04475461CAA83D9BFD3636F52-2025-08-18-12-14-33","","1420","","images/semantic_sequence/redecorating_semantic/redecorating_semantic_2.png","0","",""
"","","","","","image-button-response","86","774119","0.0-12.0-1.0-2.9","DDF654B04475461CAA83D9BFD3636F52","DDF654B04475461CAA83D9BFD3636F52","0198bcf7-7265-755d-a99b-4906c022bf25","0198bbb8-fd11-701d-9147-68794ad37298","{""num_scrambled_semantic"":""8"",""num_scrambled_causal"":""4"",""num_scrambled_schematic"":""4"",""participantId"":""DDF654B04475461CAA83D9BFD3636F52"",""assignmentId"":""0198bcf7-7265-755d-a99b-4906c022bf25"",""projectId"":""0198bbb8-fd11-701d-9147-68794ad37298""}","https://test12345.live/?num_scrambled_semantic=8&num_scrambled_causal=4&num_scrambled_schematic=4&participantId=DDF654B04475461CAA83D9BFD3636F52&assignmentId=0198bcf7-7265-755d-a99b-4906c022bf25&projectId=0198bbb8-fd11-701d-9147-68794ad37298","DDF654B04475461CAA83D9BFD3636F52-2025-08-18-12-14-33","","null","","[]","null","",""
"","","","","","html-audio-response","87","842375","0.0-13.0","DDF654B04475461CAA83D9BFD3636F52","DDF654B04475461CAA83D9BFD3636F52","0198bcf7-7265-755d-a99b-4906c022bf25","0198bbb8-fd11-701d-9147-68794ad37298","{""num_scrambled_semantic"":""8"",""num_scrambled_causal"":""4"",""num_scrambled_schematic"":""4"",""participantId"":""DDF654B04475461CAA83D9BFD3636F52"",""assignmentId"":""0198bcf7-7265-755d-a99b-4906c022bf25"",""projectId"":""0198bbb8-fd11-701d-9147-68794ad37298""}","https://test12345.live/?num_scrambled_semantic=8&num_scrambled_causal=4&num_scrambled_schematic=4&participantId=DDF654B04475461CAA83D9BFD3636F52&assignmentId=0198bcf7-7265-755d-a99b-4906c022bf25&projectId=0198bbb8-fd11-701d-9147-68794ad37298","DDF654B04475461CAA83D9BFD3636F52-2025-08-18-12-14-33","","null","","[""<span style=\""color: red; font-size: 24px\""> NOW RECORDING</span><p>Please say out loud all the images you saw, as many as you can remember. The images can be said in any order.</p>""]","","1","redecorating_semantic"
"","","","","","image-button-response","88","848403","0.0-14.0-0.0","DDF654B04475461CAA83D9BFD3636F52","DDF654B04475461CAA83D9BFD3636F52","0198bcf7-7265-755d-a99b-4906c022bf25","0198bbb8-fd11-701d-9147-68794ad37298","{""num_scrambled_semantic"":""8"",""num_scrambled_causal"":""4"",""num_scrambled_schematic"":""4"",""participantId"":""DDF654B04475461CAA83D9BFD3636F52"",""assignmentId"":""0198bcf7-7265-755d-a99b-4906c022bf25"",""projectId"":""0198bbb8-fd11-701d-9147-68794ad37298""}","https://test12345.live/?num_scrambled_semantic=8&num_scrambled_causal=4&num_scrambled_schematic=4&participantId=DDF654B04475461CAA83D9BFD3636F52&assignmentId=0198bcf7-7265-755d-a99b-4906c022bf25&projectId=0198bbb8-fd11-701d-9147-68794ad37298","DDF654B04475461CAA83D9BFD3636F52-2025-08-18-12-14-33","","null","","images/semantic_sequence/physical_activity_semantic/physical_activity_semantic_0.png","null","",""
"","","","","","image-button-response","89","852913","0.0-14.0-1.0-0.0","DDF654B04475461CAA83D9BFD3636F52","DDF654B04475461CAA83D9BFD3636F52","0198bcf7-7265-755d-a99b-4906c022bf25","0198bbb8-fd11-701d-9147-68794ad37298","{""num_scrambled_semantic"":""8"",""num_scrambled_causal"":""4"",""num_scrambled_schematic"":""4"",""participantId"":""DDF654B04475461CAA83D9BFD3636F52"",""assignmentId"":""0198bcf7-7265-755d-a99b-4906c022bf25"",""projectId"":""0198bbb8-fd11-701d-9147-68794ad37298""}","https://test12345.live/?num_scrambled_semantic=8&num_scrambled_causal=4&num_scrambled_schematic=4&participantId=DDF654B04475461CAA83D9BFD3636F52&assignmentId=0198bcf7-7265-755d-a99b-4906c022bf25&projectId=0198bbb8-fd11-701d-9147-68794ad37298","DDF654B04475461CAA83D9BFD3636F52-2025-08-18-12-14-33","","null","","images/semantic_sequence/physical_activity_semantic/physical_activity_semantic_1.png","null","",""
"","","","","","image-button-response","90","856565","0.0-14.0-1.0-1.0","DDF654B04475461CAA83D9BFD3636F52","DDF654B04475461CAA83D9BFD3636F52","0198bcf7-7265-755d-a99b-4906c022bf25","0198bbb8-fd11-701d-9147-68794ad37298","{""num_scrambled_semantic"":""8"",""num_scrambled_causal"":""4"",""num_scrambled_schematic"":""4"",""participantId"":""DDF654B04475461CAA83D9BFD3636F52"",""assignmentId"":""0198bcf7-7265-755d-a99b-4906c022bf25"",""projectId"":""0198bbb8-fd11-701d-9147-68794ad37298""}","https://test12345.live/?num_scrambled_semantic=8&num_scrambled_causal=4&num_scrambled_schematic=4&participantId=DDF654B04475461CAA83D9BFD3636F52&assignmentId=0198bcf7-7265-755d-a99b-4906c022bf25&projectId=0198bbb8-fd11-701d-9147-68794ad37298","DDF654B04475461CAA83D9BFD3636F52-2025-08-18-12-14-33","","3650","","images/semantic_sequence/physical_activity_semantic/physical_activity_semantic_1.png","0","",""
"","","","","","image-button-response","91","867374","0.0-14.0-1.0-2.0","DDF654B04475461CAA83D9BFD3636F52","DDF654B04475461CAA83D9BFD3636F52","0198bcf7-7265-755d-a99b-4906c022bf25","0198bbb8-fd11-701d-9147-68794ad37298","{""num_scrambled_semantic"":""8"",""num_scrambled_causal"":""4"",""num_scrambled_schematic"":""4"",""participantId"":""DDF654B04475461CAA83D9BFD3636F52"",""assignmentId"":""0198bcf7-7265-755d-a99b-4906c022bf25"",""projectId"":""0198bbb8-fd11-701d-9147-68794ad37298""}","https://test12345.live/?num_scrambled_semantic=8&num_scrambled_causal=4&num_scrambled_schematic=4&participantId=DDF654B04475461CAA83D9BFD3636F52&assignmentId=0198bcf7-7265-755d-a99b-4906c022bf25&projectId=0198bbb8-fd11-701d-9147-68794ad37298","DDF654B04475461CAA83D9BFD3636F52-2025-08-18-12-14-33","","null","","[]","null","",""
"","","","","","image-button-response","92","871883","0.0-14.0-1.0-0.1","DDF654B04475461CAA83D9BFD3636F52","DDF654B04475461CAA83D9BFD3636F52","0198bcf7-7265-755d-a99b-4906c022bf25","0198bbb8-fd11-701d-9147-68794ad37298","{""num_scrambled_semantic"":""8"",""num_scrambled_causal"":""4"",""num_scrambled_schematic"":""4"",""participantId"":""DDF654B04475461CAA83D9BFD3636F52"",""assignmentId"":""0198bcf7-7265-755d-a99b-4906c022bf25"",""projectId"":""0198bbb8-fd11-701d-9147-68794ad37298""}","https://test12345.live/?num_scrambled_semantic=8&num_scrambled_causal=4&num_scrambled_schematic=4&participantId=DDF654B04475461CAA83D9BFD3636F52&assignmentId=0198bcf7-7265-755d-a99b-4906c022bf25&projectId=0198bbb8-fd11-701d-9147-68794ad37298","DDF654B04475461CAA83D9BFD3636F52-2025-08-18-12-14-33","","null","","images/semantic_sequence/physical_activity_semantic/physical_activity_semantic_7.png","null","",""
"","","","","","image-button-response","93","873003","0.0-14.0-1.0-1.1","DDF654B04475461CAA83D9BFD3636F52","DDF654B04475461CAA83D9BFD3636F52","0198bcf7-7265-755d-a99b-4906c022bf25","0198bbb8-fd11-701d-9147-68794ad37298","{""num_scrambled_semantic"":""8"",""num_scrambled_causal"":""4"",""num_scrambled_schematic"":""4"",""participantId"":""DDF654B04475461CAA83D9BFD3636F52"",""assignmentId"":""0198bcf7-7265-755d-a99b-4906c022bf25"",""projectId"":""0198bbb8-fd11-701d-9147-68794ad37298""}","https://test12345.live/?num_scrambled_semantic=8&num_scrambled_causal=4&num_scrambled_schematic=4&participantId=DDF654B04475461CAA83D9BFD3636F52&assignmentId=0198bcf7-7265-755d-a99b-4906c022bf25&projectId=0198bbb8-fd11-701d-9147-68794ad37298","DDF654B04475461CAA83D9BFD3636F52-2025-08-18-12-14-33","","1118","","images/semantic_sequence/physical_activity_semantic/physical_activity_semantic_7.png","0","",""
"","","","","","image-button-response","94","883813","0.0-14.0-1.0-2.1","DDF654B04475461CAA83D9BFD3636F52","DDF654B04475461CAA83D9BFD3636F52","0198bcf7-7265-755d-a99b-4906c022bf25","0198bbb8-fd11-701d-9147-68794ad37298","{""num_scrambled_semantic"":""8"",""num_scrambled_causal"":""4"",""num_scrambled_schematic"":""4"",""participantId"":""DDF654B04475461CAA83D9BFD3636F52"",""assignmentId"":""0198bcf7-7265-755d-a99b-4906c022bf25"",""projectId"":""0198bbb8-fd11-701d-9147-68794ad37298""}","https://test12345.live/?num_scrambled_semantic=8&num_scrambled_causal=4&num_scrambled_schematic=4&participantId=DDF654B04475461CAA83D9BFD3636F52&assignmentId=0198bcf7-7265-755d-a99b-4906c022bf25&projectId=0198bbb8-fd11-701d-9147-68794ad37298","DDF654B04475461CAA83D9BFD3636F52-2025-08-18-12-14-33","","null","","[]","null","",""
"","","","","","image-button-response","95","888323","0.0-14.0-1.0-0.2","DDF654B04475461CAA83D9BFD3636F52","DDF654B04475461CAA83D9BFD3636F52","0198bcf7-7265-755d-a99b-4906c022bf25","0198bbb8-fd11-701d-9147-68794ad37298","{""num_scrambled_semantic"":""8"",""num_scrambled_causal"":""4"",""num_scrambled_schematic"":""4"",""participantId"":""DDF654B04475461CAA83D9BFD3636F52"",""assignmentId"":""0198bcf7-7265-755d-a99b-4906c022bf25"",""projectId"":""0198bbb8-fd11-701d-9147-68794ad37298""}","https://test12345.live/?num_scrambled_semantic=8&num_scrambled_causal=4&num_scrambled_schematic=4&participantId=DDF654B04475461CAA83D9BFD3636F52&assignmentId=0198bcf7-7265-755d-a99b-4906c022bf25&projectId=0198bbb8-fd11-701d-9147-68794ad37298","DDF654B04475461CAA83D9BFD3636F52-2025-08-18-12-14-33","","null","","images/semantic_sequence/physical_activity_semantic/physical_activity_semantic_2.png","null","",""
"","","","","","image-button-response","96","889835","0.0-14.0-1.0-1.2","DDF654B04475461CAA83D9BFD3636F52","DDF654B04475461CAA83D9BFD3636F52","0198bcf7-7265-755d-a99b-4906c022bf25","0198bbb8-fd11-701d-9147-68794ad37298","{""num_scrambled_semantic"":""8"",""num_scrambled_causal"":""4"",""num_scrambled_schematic"":""4"",""participantId"":""DDF654B04475461CAA83D9BFD3636F52"",""assignmentId"":""0198bcf7-7265-755d-a99b-4906c022bf25"",""projectId"":""0198bbb8-fd11-701d-9147-68794ad37298""}","https://test12345.live/?num_scrambled_semantic=8&num_scrambled_causal=4&num_scrambled_schematic=4&participantId=DDF654B04475461CAA83D9BFD3636F52&assignmentId=0198bcf7-7265-755d-a99b-4906c022bf25&projectId=0198bbb8-fd11-701d-9147-68794ad37298","DDF654B04475461CAA83D9BFD3636F52-2025-08-18-12-14-33","","1510","","images/semantic_sequence/physical_activity_semantic/physical_activity_semantic_2.png","0","",""
"","","","","","image-button-response","97","900653","0.0-14.0-1.0-2.2","DDF654B04475461CAA83D9BFD3636F52","DDF654B04475461CAA83D9BFD3636F52","0198bcf7-7265-755d-a99b-4906c022bf25","0198bbb8-fd11-701d-9147-68794ad37298","{""num_scrambled_semantic"":""8"",""num_scrambled_causal"":""4"",""num_scrambled_schematic"":""4"",""participantId"":""DDF654B04475461CAA83D9BFD3636F52"",""assignmentId"":""0198bcf7-7265-755d-a99b-4906c022bf25"",""projectId"":""0198bbb8-fd11-701d-9147-68794ad37298""}","https://test12345.live/?num_scrambled_semantic=8&num_scrambled_causal=4&num_scrambled_schematic=4&participantId=DDF654B04475461CAA83D9BFD3636F52&assignmentId=0198bcf7-7265-755d-a99b-4906c022bf25&projectId=0198bbb8-fd11-701d-9147-68794ad37298","DDF654B04475461CAA83D9BFD3636F52-2025-08-18-12-14-33","","null","","[]","null","",""
"","","","","","image-button-response","98","905163","0.0-14.0-1.0-0.3","DDF654B04475461CAA83D9BFD3636F52","DDF654B04475461CAA83D9BFD3636F52","0198bcf7-7265-755d-a99b-4906c022bf25","0198bbb8-fd11-701d-9147-68794ad37298","{""num_scrambled_semantic"":""8"",""num_scrambled_causal"":""4"",""num_scrambled_schematic"":""4"",""participantId"":""DDF654B04475461CAA83D9BFD3636F52"",""assignmentId"":""0198bcf7-7265-755d-a99b-4906c022bf25"",""projectId"":""0198bbb8-fd11-701d-9147-68794ad37298""}","https://test12345.live/?num_scrambled_semantic=8&num_scrambled_causal=4&num_scrambled_schematic=4&participantId=DDF654B04475461CAA83D9BFD3636F52&assignmentId=0198bcf7-7265-755d-a99b-4906c022bf25&projectId=0198bbb8-fd11-701d-9147-68794ad37298","DDF654B04475461CAA83D9BFD3636F52-2025-08-18-12-14-33","","null","","images/semantic_sequence/physical_activity_semantic/physical_activity_semantic_3.png","null","",""
"","","","","","image-button-response","99","906617","0.0-14.0-1.0-1.3","DDF654B04475461CAA83D9BFD3636F52","DDF654B04475461CAA83D9BFD3636F52","0198bcf7-7265-755d-a99b-4906c022bf25","0198bbb8-fd11-701d-9147-68794ad37298","{""num_scrambled_semantic"":""8"",""num_scrambled_causal"":""4"",""num_scrambled_schematic"":""4"",""participantId"":""DDF654B04475461CAA83D9BFD3636F52"",""assignmentId"":""0198bcf7-7265-755d-a99b-4906c022bf25"",""projectId"":""0198bbb8-fd11-701d-9147-68794ad37298""}","https://test12345.live/?num_scrambled_semantic=8&num_scrambled_causal=4&num_scrambled_schematic=4&participantId=DDF654B04475461CAA83D9BFD3636F52&assignmentId=0198bcf7-7265-755d-a99b-4906c022bf25&projectId=0198bbb8-fd11-701d-9147-68794ad37298","DDF654B04475461CAA83D9BFD3636F52-2025-08-18-12-14-33","","1453","","images/semantic_sequence/physical_activity_semantic/physical_activity_semantic_3.png","0","",""
"","","","","","image-button-response","100","917433","0.0-14.0-1.0-2.3","DDF654B04475461CAA83D9BFD3636F52","DDF654B04475461CAA83D9BFD3636F52","0198bcf7-7265-755d-a99b-4906c022bf25","0198bbb8-fd11-701d-9147-68794ad37298","{""num_scrambled_semantic"":""8"",""num_scrambled_causal"":""4"",""num_scrambled_schematic"":""4"",""participantId"":""DDF654B04475461CAA83D9BFD3636F52"",""assignmentId"":""0198bcf7-7265-755d-a99b-4906c022bf25"",""projectId"":""0198bbb8-fd11-701d-9147-68794ad37298""}","https://test12345.live/?num_scrambled_semantic=8&num_scrambled_causal=4&num_scrambled_schematic=4&participantId=DDF654B04475461CAA83D9BFD3636F52&assignmentId=0198bcf7-7265-755d-a99b-4906c022bf25&projectId=0198bbb8-fd11-701d-9147-68794ad37298","DDF654B04475461CAA83D9BFD3636F52-2025-08-18-12-14-33","","null","","[]","null","",""
"","","","","","image-button-response","101","921943","0.0-14.0-1.0-0.4","DDF654B04475461CAA83D9BFD3636F52","DDF654B04475461CAA83D9BFD3636F52","0198bcf7-7265-755d-a99b-4906c022bf25","0198bbb8-fd11-701d-9147-68794ad37298","{""num_scrambled_semantic"":""8"",""num_scrambled_causal"":""4"",""num_scrambled_schematic"":""4"",""participantId"":""DDF654B04475461CAA83D9BFD3636F52"",""assignmentId"":""0198bcf7-7265-755d-a99b-4906c022bf25"",""projectId"":""0198bbb8-fd11-701d-9147-68794ad37298""}","https://test12345.live/?num_scrambled_semantic=8&num_scrambled_causal=4&num_scrambled_schematic=4&participantId=DDF654B04475461CAA83D9BFD3636F52&assignmentId=0198bcf7-7265-755d-a99b-4906c022bf25&projectId=0198bbb8-fd11-701d-9147-68794ad37298","DDF654B04475461CAA83D9BFD3636F52-2025-08-18-12-14-33","","null","","images/semantic_sequence/physical_activity_semantic/physical_activity_semantic_6.png","null","",""
"","","","","","image-button-response","102","923327","0.0-14.0-1.0-1.4","DDF654B04475461CAA83D9BFD3636F52","DDF654B04475461CAA83D9BFD3636F52","0198bcf7-7265-755d-a99b-4906c022bf25","0198bbb8-fd11-701d-9147-68794ad37298","{""num_scrambled_semantic"":""8"",""num_scrambled_causal"":""4"",""num_scrambled_schematic"":""4"",""participantId"":""DDF654B04475461CAA83D9BFD3636F52"",""assignmentId"":""0198bcf7-7265-755d-a99b-4906c022bf25"",""projectId"":""0198bbb8-fd11-701d-9147-68794ad37298""}","https://test12345.live/?num_scrambled_semantic=8&num_scrambled_causal=4&num_scrambled_schematic=4&participantId=DDF654B04475461CAA83D9BFD3636F52&assignmentId=0198bcf7-7265-755d-a99b-4906c022bf25&projectId=0198bbb8-fd11-701d-9147-68794ad37298","DDF654B04475461CAA83D9BFD3636F52-2025-08-18-12-14-33","","1383","","images/semantic_sequence/physical_activity_semantic/physical_activity_semantic_6.png","0","",""
"","","","","","image-button-response","103","934133","0.0-14.0-1.0-2.4","DDF654B04475461CAA83D9BFD3636F52","DDF654B04475461CAA83D9BFD3636F52","0198bcf7-7265-755d-a99b-4906c022bf25","0198bbb8-fd11-701d-9147-68794ad37298","{""num_scrambled_semantic"":""8"",""num_scrambled_causal"":""4"",""num_scrambled_schematic"":""4"",""participantId"":""DDF654B04475461CAA83D9BFD3636F52"",""assignmentId"":""0198bcf7-7265-755d-a99b-4906c022bf25"",""projectId"":""0198bbb8-fd11-701d-9147-68794ad37298""}","https://test12345.live/?num_scrambled_semantic=8&num_scrambled_causal=4&num_scrambled_schematic=4&participantId=DDF654B04475461CAA83D9BFD3636F52&assignmentId=0198bcf7-7265-755d-a99b-4906c022bf25&projectId=0198bbb8-fd11-701d-9147-68794ad37298","DDF654B04475461CAA83D9BFD3636F52-2025-08-18-12-14-33","","null","","[]","null","",""
"","","","","","image-button-response","104","938644","0.0-14.0-1.0-0.5","DDF654B04475461CAA83D9BFD3636F52","DDF654B04475461CAA83D9BFD3636F52","0198bcf7-7265-755d-a99b-4906c022bf25","0198bbb8-fd11-701d-9147-68794ad37298","{""num_scrambled_semantic"":""8"",""num_scrambled_causal"":""4"",""num_scrambled_schematic"":""4"",""participantId"":""DDF654B04475461CAA83D9BFD3636F52"",""assignmentId"":""0198bcf7-7265-755d-a99b-4906c022bf25"",""projectId"":""0198bbb8-fd11-701d-9147-68794ad37298""}","https://test12345.live/?num_scrambled_semantic=8&num_scrambled_causal=4&num_scrambled_schematic=4&participantId=DDF654B04475461CAA83D9BFD3636F52&assignmentId=0198bcf7-7265-755d-a99b-4906c022bf25&projectId=0198bbb8-fd11-701d-9147-68794ad37298","DDF654B04475461CAA83D9BFD3636F52-2025-08-18-12-14-33","","null","","images/semantic_sequence/physical_activity_semantic/physical_activity_semantic_4.png","null","",""
"","","","","","image-button-response","105","940383","0.0-14.0-1.0-1.5","DDF654B04475461CAA83D9BFD3636F52","DDF654B04475461CAA83D9BFD3636F52","0198bcf7-7265-755d-a99b-4906c022bf25","0198bbb8-fd11-701d-9147-68794ad37298","{""num_scrambled_semantic"":""8"",""num_scrambled_causal"":""4"",""num_scrambled_schematic"":""4"",""participantId"":""DDF654B04475461CAA83D9BFD3636F52"",""assignmentId"":""0198bcf7-7265-755d-a99b-4906c022bf25"",""projectId"":""0198bbb8-fd11-701d-9147-68794ad37298""}","https://test12345.live/?num_scrambled_semantic=8&num_scrambled_causal=4&num_scrambled_schematic=4&participantId=DDF654B04475461CAA83D9BFD3636F52&assignmentId=0198bcf7-7265-755d-a99b-4906c022bf25&projectId=0198bbb8-fd11-701d-9147-68794ad37298","DDF654B04475461CAA83D9BFD3636F52-2025-08-18-12-14-33","","1737","","images/semantic_sequence/physical_activity_semantic/physical_activity_semantic_4.png","0","",""
"","","","","","image-button-response","106","951194","0.0-14.0-1.0-2.5","DDF654B04475461CAA83D9BFD3636F52","DDF654B04475461CAA83D9BFD3636F52","0198bcf7-7265-755d-a99b-4906c022bf25","0198bbb8-fd11-701d-9147-68794ad37298","{""num_scrambled_semantic"":""8"",""num_scrambled_causal"":""4"",""num_scrambled_schematic"":""4"",""participantId"":""DDF654B04475461CAA83D9BFD3636F52"",""assignmentId"":""0198bcf7-7265-755d-a99b-4906c022bf25"",""projectId"":""0198bbb8-fd11-701d-9147-68794ad37298""}","https://test12345.live/?num_scrambled_semantic=8&num_scrambled_causal=4&num_scrambled_schematic=4&participantId=DDF654B04475461CAA83D9BFD3636F52&assignmentId=0198bcf7-7265-755d-a99b-4906c022bf25&projectId=0198bbb8-fd11-701d-9147-68794ad37298","DDF654B04475461CAA83D9BFD3636F52-2025-08-18-12-14-33","","null","","[]","null","",""
"","","","","","image-button-response","107","955703","0.0-14.0-1.0-0.6","DDF654B04475461CAA83D9BFD3636F52","DDF654B04475461CAA83D9BFD3636F52","0198bcf7-7265-755d-a99b-4906c022bf25","0198bbb8-fd11-701d-9147-68794ad37298","{""num_scrambled_semantic"":""8"",""num_scrambled_causal"":""4"",""num_scrambled_schematic"":""4"",""participantId"":""DDF654B04475461CAA83D9BFD3636F52"",""assignmentId"":""0198bcf7-7265-755d-a99b-4906c022bf25"",""projectId"":""0198bbb8-fd11-701d-9147-68794ad37298""}","https://test12345.live/?num_scrambled_semantic=8&num_scrambled_causal=4&num_scrambled_schematic=4&participantId=DDF654B04475461CAA83D9BFD3636F52&assignmentId=0198bcf7-7265-755d-a99b-4906c022bf25&projectId=0198bbb8-fd11-701d-9147-68794ad37298","DDF654B04475461CAA83D9BFD3636F52-2025-08-18-12-14-33","","null","","images/semantic_sequence/physical_activity_semantic/physical_activity_semantic_9.png","null","",""
"","","","","","image-button-response","108","957389","0.0-14.0-1.0-1.6","DDF654B04475461CAA83D9BFD3636F52","DDF654B04475461CAA83D9BFD3636F52","0198bcf7-7265-755d-a99b-4906c022bf25","0198bbb8-fd11-701d-9147-68794ad37298","{""num_scrambled_semantic"":""8"",""num_scrambled_causal"":""4"",""num_scrambled_schematic"":""4"",""participantId"":""DDF654B04475461CAA83D9BFD3636F52"",""assignmentId"":""0198bcf7-7265-755d-a99b-4906c022bf25"",""projectId"":""0198bbb8-fd11-701d-9147-68794ad37298""}","https://test12345.live/?num_scrambled_semantic=8&num_scrambled_causal=4&num_scrambled_schematic=4&participantId=DDF654B04475461CAA83D9BFD3636F52&assignmentId=0198bcf7-7265-755d-a99b-4906c022bf25&projectId=0198bbb8-fd11-701d-9147-68794ad37298","DDF654B04475461CAA83D9BFD3636F52-2025-08-18-12-14-33","","1683","","images/semantic_sequence/physical_activity_semantic/physical_activity_semantic_9.png","0","",""
"","","","","","image-button-response","109","968193","0.0-14.0-1.0-2.6","DDF654B04475461CAA83D9BFD3636F52","DDF654B04475461CAA83D9BFD3636F52","0198bcf7-7265-755d-a99b-4906c022bf25","0198bbb8-fd11-701d-9147-68794ad37298","{""num_scrambled_semantic"":""8"",""num_scrambled_causal"":""4"",""num_scrambled_schematic"":""4"",""participantId"":""DDF654B04475461CAA83D9BFD3636F52"",""assignmentId"":""0198bcf7-7265-755d-a99b-4906c022bf25"",""projectId"":""0198bbb8-fd11-701d-9147-68794ad37298""}","https://test12345.live/?num_scrambled_semantic=8&num_scrambled_causal=4&num_scrambled_schematic=4&participantId=DDF654B04475461CAA83D9BFD3636F52&assignmentId=0198bcf7-7265-755d-a99b-4906c022bf25&projectId=0198bbb8-fd11-701d-9147-68794ad37298","DDF654B04475461CAA83D9BFD3636F52-2025-08-18-12-14-33","","null","","[]","null","",""
"","","","","","image-button-response","110","972703","0.0-14.0-1.0-0.7","DDF654B04475461CAA83D9BFD3636F52","DDF654B04475461CAA83D9BFD3636F52","0198bcf7-7265-755d-a99b-4906c022bf25","0198bbb8-fd11-701d-9147-68794ad37298","{""num_scrambled_semantic"":""8"",""num_scrambled_causal"":""4"",""num_scrambled_schematic"":""4"",""participantId"":""DDF654B04475461CAA83D9BFD3636F52"",""assignmentId"":""0198bcf7-7265-755d-a99b-4906c022bf25"",""projectId"":""0198bbb8-fd11-701d-9147-68794ad37298""}","https://test12345.live/?num_scrambled_semantic=8&num_scrambled_causal=4&num_scrambled_schematic=4&participantId=DDF654B04475461CAA83D9BFD3636F52&assignmentId=0198bcf7-7265-755d-a99b-4906c022bf25&projectId=0198bbb8-fd11-701d-9147-68794ad37298","DDF654B04475461CAA83D9BFD3636F52-2025-08-18-12-14-33","","null","","images/semantic_sequence/physical_activity_semantic/physical_activity_semantic_ten.png","null","",""
"","","","","","image-button-response","111","974239","0.0-14.0-1.0-1.7","DDF654B04475461CAA83D9BFD3636F52","DDF654B04475461CAA83D9BFD3636F52","0198bcf7-7265-755d-a99b-4906c022bf25","0198bbb8-fd11-701d-9147-68794ad37298","{""num_scrambled_semantic"":""8"",""num_scrambled_causal"":""4"",""num_scrambled_schematic"":""4"",""participantId"":""DDF654B04475461CAA83D9BFD3636F52"",""assignmentId"":""0198bcf7-7265-755d-a99b-4906c022bf25"",""projectId"":""0198bbb8-fd11-701d-9147-68794ad37298""}","https://test12345.live/?num_scrambled_semantic=8&num_scrambled_causal=4&num_scrambled_schematic=4&participantId=DDF654B04475461CAA83D9BFD3636F52&assignmentId=0198bcf7-7265-755d-a99b-4906c022bf25&projectId=0198bbb8-fd11-701d-9147-68794ad37298","DDF654B04475461CAA83D9BFD3636F52-2025-08-18-12-14-33","","1534","","images/semantic_sequence/physical_activity_semantic/physical_activity_semantic_ten.png","0","",""
"","","","","","image-button-response","112","985054","0.0-14.0-1.0-2.7","DDF654B04475461CAA83D9BFD3636F52","DDF654B04475461CAA83D9BFD3636F52","0198bcf7-7265-755d-a99b-4906c022bf25","0198bbb8-fd11-701d-9147-68794ad37298","{""num_scrambled_semantic"":""8"",""num_scrambled_causal"":""4"",""num_scrambled_schematic"":""4"",""participantId"":""DDF654B04475461CAA83D9BFD3636F52"",""assignmentId"":""0198bcf7-7265-755d-a99b-4906c022bf25"",""projectId"":""0198bbb8-fd11-701d-9147-68794ad37298""}","https://test12345.live/?num_scrambled_semantic=8&num_scrambled_causal=4&num_scrambled_schematic=4&participantId=DDF654B04475461CAA83D9BFD3636F52&assignmentId=0198bcf7-7265-755d-a99b-4906c022bf25&projectId=0198bbb8-fd11-701d-9147-68794ad37298","DDF654B04475461CAA83D9BFD3636F52-2025-08-18-12-14-33","","null","","[]","null","",""
"","","","","","image-button-response","113","989563","0.0-14.0-1.0-0.8","DDF654B04475461CAA83D9BFD3636F52","DDF654B04475461CAA83D9BFD3636F52","0198bcf7-7265-755d-a99b-4906c022bf25","0198bbb8-fd11-701d-9147-68794ad37298","{""num_scrambled_semantic"":""8"",""num_scrambled_causal"":""4"",""num_scrambled_schematic"":""4"",""participantId"":""DDF654B04475461CAA83D9BFD3636F52"",""assignmentId"":""0198bcf7-7265-755d-a99b-4906c022bf25"",""projectId"":""0198bbb8-fd11-701d-9147-68794ad37298""}","https://test12345.live/?num_scrambled_semantic=8&num_scrambled_causal=4&num_scrambled_schematic=4&participantId=DDF654B04475461CAA83D9BFD3636F52&assignmentId=0198bcf7-7265-755d-a99b-4906c022bf25&projectId=0198bbb8-fd11-701d-9147-68794ad37298","DDF654B04475461CAA83D9BFD3636F52-2025-08-18-12-14-33","","null","","images/semantic_sequence/physical_activity_semantic/physical_activity_semantic_5.png","null","",""
