"success","timeout","failed_images","failed_audio","failed_video","trial_type","trial_index","time_elapsed","internal_node_id","subject","subject_id","study_id","session_id","urlvar","current_url","audio_id","view_history","rt","device_id","stimulus","response","estimated_stimulus_onset","seq_name"
"true","false","[]","[]","[]","preload","0","2805","0.0-0.0","DDF9CC347F5D4544A341532EF7995E62","DDF9CC347F5D4544A341532EF7995E62","24c5c726-9304-4eee-b970-589ee456f68c","a6b6d205-fa41-4c5b-a7a5-7fc4b51b0cea","{""num_scrambled_semantic"":""8"",""num_scrambled_causal"":""4"",""num_scrambled_schematic"":""4"",""participantId"":""DDF9CC347F5D4544A341532EF7995E62"",""assignmentId"":""24c5c726-9304-4eee-b970-589ee456f68c"",""projectId"":""a6b6d205-fa41-4c5b-a7a5-7fc4b51b0cea""}","https://test12345.live/?num_scrambled_semantic=8&num_scrambled_causal=4&num_scrambled_schematic=4&participantId=DDF9CC347F5D4544A341532EF7995E62&assignmentId=24c5c726-9304-4eee-b970-589ee456f68c&projectId=a6b6d205-fa41-4c5b-a7a5-7fc4b51b0cea","DDF9CC347F5D4544A341532EF7995E62-2025-05-27-17-14-37","","","","","","",""
"","","","","","instructions","1","9494","0.0-1.0","DDF9CC347F5D4544A341532EF7995E62","DDF9CC347F5D4544A341532EF7995E62","24c5c726-9304-4eee-b970-589ee456f68c","a6b6d205-fa41-4c5b-a7a5-7fc4b51b0cea","{""num_scrambled_semantic"":""8"",""num_scrambled_causal"":""4"",""num_scrambled_schematic"":""4"",""participantId"":""DDF9CC347F5D4544A341532EF7995E62"",""assignmentId"":""24c5c726-9304-4eee-b970-589ee456f68c"",""projectId"":""a6b6d205-fa41-4c5b-a7a5-7fc4b51b0cea""}","https://test12345.live/?num_scrambled_semantic=8&num_scrambled_causal=4&num_scrambled_schematic=4&participantId=DDF9CC347F5D4544A341532EF7995E62&assignmentId=24c5c726-9304-4eee-b970-589ee456f68c&projectId=a6b6d205-fa41-4c5b-a7a5-7fc4b51b0cea","DDF9CC347F5D4544A341532EF7995E62-2025-05-27-17-14-37","[{""page_index"":0,""viewing_time"":6686}]","6687","","","","",""
"","","","","","instructions","2","13136","0.0-2.0","DDF9CC347F5D4544A341532EF7995E62","DDF9CC347F5D4544A341532EF7995E62","24c5c726-9304-4eee-b970-589ee456f68c","a6b6d205-fa41-4c5b-a7a5-7fc4b51b0cea","{""num_scrambled_semantic"":""8"",""num_scrambled_causal"":""4"",""num_scrambled_schematic"":""4"",""participantId"":""DDF9CC347F5D4544A341532EF7995E62"",""assignmentId"":""24c5c726-9304-4eee-b970-589ee456f68c"",""projectId"":""a6b6d205-fa41-4c5b-a7a5-7fc4b51b0cea""}","https://test12345.live/?num_scrambled_semantic=8&num_scrambled_causal=4&num_scrambled_schematic=4&participantId=DDF9CC347F5D4544A341532EF7995E62&assignmentId=24c5c726-9304-4eee-b970-589ee456f68c&projectId=a6b6d205-fa41-4c5b-a7a5-7fc4b51b0cea","DDF9CC347F5D4544A341532EF7995E62-2025-05-27-17-14-37","[{""page_index"":0,""viewing_time"":3634}]","3643","","","","",""
"true","","","","","fullscreen","3","15230","0.0-3.0","DDF9CC347F5D4544A341532EF7995E62","DDF9CC347F5D4544A341532EF7995E62","24c5c726-9304-4eee-b970-589ee456f68c","a6b6d205-fa41-4c5b-a7a5-7fc4b51b0cea","{""num_scrambled_semantic"":""8"",""num_scrambled_causal"":""4"",""num_scrambled_schematic"":""4"",""participantId"":""DDF9CC347F5D4544A341532EF7995E62"",""assignmentId"":""24c5c726-9304-4eee-b970-589ee456f68c"",""projectId"":""a6b6d205-fa41-4c5b-a7a5-7fc4b51b0cea""}","https://test12345.live/?num_scrambled_semantic=8&num_scrambled_causal=4&num_scrambled_schematic=4&participantId=DDF9CC347F5D4544A341532EF7995E62&assignmentId=24c5c726-9304-4eee-b970-589ee456f68c&projectId=a6b6d205-fa41-4c5b-a7a5-7fc4b51b0cea","DDF9CC347F5D4544A341532EF7995E62-2025-05-27-17-14-37","","1091","","","","",""
"","","","","","initialize-microphone","4","22594","0.0-4.0-0.0","DDF9CC347F5D4544A341532EF7995E62","DDF9CC347F5D4544A341532EF7995E62","24c5c726-9304-4eee-b970-589ee456f68c","a6b6d205-fa41-4c5b-a7a5-7fc4b51b0cea","{""num_scrambled_semantic"":""8"",""num_scrambled_causal"":""4"",""num_scrambled_schematic"":""4"",""participantId"":""DDF9CC347F5D4544A341532EF7995E62"",""assignmentId"":""24c5c726-9304-4eee-b970-589ee456f68c"",""projectId"":""a6b6d205-fa41-4c5b-a7a5-7fc4b51b0cea""}","https://test12345.live/?num_scrambled_semantic=8&num_scrambled_causal=4&num_scrambled_schematic=4&participantId=DDF9CC347F5D4544A341532EF7995E62&assignmentId=24c5c726-9304-4eee-b970-589ee456f68c&projectId=a6b6d205-fa41-4c5b-a7a5-7fc4b51b0cea","DDF9CC347F5D4544A341532EF7995E62-2025-05-27-17-14-37","","","BFE335255BD3B1028FF8C5AA6E9CA36E154C890B","","","",""
"","","","","","html-audio-response","5","28730","0.0-4.0-1.0","DDF9CC347F5D4544A341532EF7995E62","DDF9CC347F5D4544A341532EF7995E62","24c5c726-9304-4eee-b970-589ee456f68c","a6b6d205-fa41-4c5b-a7a5-7fc4b51b0cea","{""num_scrambled_semantic"":""8"",""num_scrambled_causal"":""4"",""num_scrambled_schematic"":""4"",""participantId"":""DDF9CC347F5D4544A341532EF7995E62"",""assignmentId"":""24c5c726-9304-4eee-b970-589ee456f68c"",""projectId"":""a6b6d205-fa41-4c5b-a7a5-7fc4b51b0cea""}","https://test12345.live/?num_scrambled_semantic=8&num_scrambled_causal=4&num_scrambled_schematic=4&participantId=DDF9CC347F5D4544A341532EF7995E62&assignmentId=24c5c726-9304-4eee-b970-589ee456f68c&projectId=a6b6d205-fa41-4c5b-a7a5-7fc4b51b0cea","DDF9CC347F5D4544A341532EF7995E62-2025-05-27-17-14-37","","3631","","<span style=""color: red; font-size: 24px""> NOW RECORDING</span>
        <p>Please test Microphone</p>","","1",""
"","","","","","html-button-response","6","30978","0.0-4.0-2.0","DDF9CC347F5D4544A341532EF7995E62","DDF9CC347F5D4544A341532EF7995E62","24c5c726-9304-4eee-b970-589ee456f68c","a6b6d205-fa41-4c5b-a7a5-7fc4b51b0cea","{""num_scrambled_semantic"":""8"",""num_scrambled_causal"":""4"",""num_scrambled_schematic"":""4"",""participantId"":""DDF9CC347F5D4544A341532EF7995E62"",""assignmentId"":""24c5c726-9304-4eee-b970-589ee456f68c"",""projectId"":""a6b6d205-fa41-4c5b-a7a5-7fc4b51b0cea""}","https://test12345.live/?num_scrambled_semantic=8&num_scrambled_causal=4&num_scrambled_schematic=4&participantId=DDF9CC347F5D4544A341532EF7995E62&assignmentId=24c5c726-9304-4eee-b970-589ee456f68c&projectId=a6b6d205-fa41-4c5b-a7a5-7fc4b51b0cea","DDF9CC347F5D4544A341532EF7995E62-2025-05-27-17-14-37","","2246","","<p style=""font-size:48px; color:red;"">Is Microphone OK?</p>","0","",""
"","","","","","initialize-microphone","7","37182","0.0-4.1-0.1","DDF9CC347F5D4544A341532EF7995E62","DDF9CC347F5D4544A341532EF7995E62","24c5c726-9304-4eee-b970-589ee456f68c","a6b6d205-fa41-4c5b-a7a5-7fc4b51b0cea","{""num_scrambled_semantic"":""8"",""num_scrambled_causal"":""4"",""num_scrambled_schematic"":""4"",""participantId"":""DDF9CC347F5D4544A341532EF7995E62"",""assignmentId"":""24c5c726-9304-4eee-b970-589ee456f68c"",""projectId"":""a6b6d205-fa41-4c5b-a7a5-7fc4b51b0cea""}","https://test12345.live/?num_scrambled_semantic=8&num_scrambled_causal=4&num_scrambled_schematic=4&participantId=DDF9CC347F5D4544A341532EF7995E62&assignmentId=24c5c726-9304-4eee-b970-589ee456f68c&projectId=a6b6d205-fa41-4c5b-a7a5-7fc4b51b0cea","DDF9CC347F5D4544A341532EF7995E62-2025-05-27-17-14-37","","","BFE335255BD3B1028FF8C5AA6E9CA36E154C890B","","","",""
"","","","","","html-audio-response","8","42062","0.0-4.1-1.1","DDF9CC347F5D4544A341532EF7995E62","DDF9CC347F5D4544A341532EF7995E62","24c5c726-9304-4eee-b970-589ee456f68c","a6b6d205-fa41-4c5b-a7a5-7fc4b51b0cea","{""num_scrambled_semantic"":""8"",""num_scrambled_causal"":""4"",""num_scrambled_schematic"":""4"",""participantId"":""DDF9CC347F5D4544A341532EF7995E62"",""assignmentId"":""24c5c726-9304-4eee-b970-589ee456f68c"",""projectId"":""a6b6d205-fa41-4c5b-a7a5-7fc4b51b0cea""}","https://test12345.live/?num_scrambled_semantic=8&num_scrambled_causal=4&num_scrambled_schematic=4&participantId=DDF9CC347F5D4544A341532EF7995E62&assignmentId=24c5c726-9304-4eee-b970-589ee456f68c&projectId=a6b6d205-fa41-4c5b-a7a5-7fc4b51b0cea","DDF9CC347F5D4544A341532EF7995E62-2025-05-27-17-14-37","","3328","","<span style=""color: red; font-size: 24px""> NOW RECORDING</span>
        <p>Please test Microphone</p>","","1",""
"","","","","","html-button-response","9","42929","0.0-4.1-2.1","DDF9CC347F5D4544A341532EF7995E62","DDF9CC347F5D4544A341532EF7995E62","24c5c726-9304-4eee-b970-589ee456f68c","a6b6d205-fa41-4c5b-a7a5-7fc4b51b0cea","{""num_scrambled_semantic"":""8"",""num_scrambled_causal"":""4"",""num_scrambled_schematic"":""4"",""participantId"":""DDF9CC347F5D4544A341532EF7995E62"",""assignmentId"":""24c5c726-9304-4eee-b970-589ee456f68c"",""projectId"":""a6b6d205-fa41-4c5b-a7a5-7fc4b51b0cea""}","https://test12345.live/?num_scrambled_semantic=8&num_scrambled_causal=4&num_scrambled_schematic=4&participantId=DDF9CC347F5D4544A341532EF7995E62&assignmentId=24c5c726-9304-4eee-b970-589ee456f68c&projectId=a6b6d205-fa41-4c5b-a7a5-7fc4b51b0cea","DDF9CC347F5D4544A341532EF7995E62-2025-05-27-17-14-37","","865","","<p style=""font-size:48px; color:red;"">Is Microphone OK?</p>","1","",""
"","","","","","instructions","10","49144","0.0-5.0","DDF9CC347F5D4544A341532EF7995E62","DDF9CC347F5D4544A341532EF7995E62","24c5c726-9304-4eee-b970-589ee456f68c","a6b6d205-fa41-4c5b-a7a5-7fc4b51b0cea","{""num_scrambled_semantic"":""8"",""num_scrambled_causal"":""4"",""num_scrambled_schematic"":""4"",""participantId"":""DDF9CC347F5D4544A341532EF7995E62"",""assignmentId"":""24c5c726-9304-4eee-b970-589ee456f68c"",""projectId"":""a6b6d205-fa41-4c5b-a7a5-7fc4b51b0cea""}","https://test12345.live/?num_scrambled_semantic=8&num_scrambled_causal=4&num_scrambled_schematic=4&participantId=DDF9CC347F5D4544A341532EF7995E62&assignmentId=24c5c726-9304-4eee-b970-589ee456f68c&projectId=a6b6d205-fa41-4c5b-a7a5-7fc4b51b0cea","DDF9CC347F5D4544A341532EF7995E62-2025-05-27-17-14-37","[{""page_index"":0,""viewing_time"":2999},{""page_index"":1,""viewing_time"":3215}]","6215","","","","",""
"","","","","","image-button-response","11","55157","0.0-6.0-0.0","DDF9CC347F5D4544A341532EF7995E62","DDF9CC347F5D4544A341532EF7995E62","24c5c726-9304-4eee-b970-589ee456f68c","a6b6d205-fa41-4c5b-a7a5-7fc4b51b0cea","{""num_scrambled_semantic"":""8"",""num_scrambled_causal"":""4"",""num_scrambled_schematic"":""4"",""participantId"":""DDF9CC347F5D4544A341532EF7995E62"",""assignmentId"":""24c5c726-9304-4eee-b970-589ee456f68c"",""projectId"":""a6b6d205-fa41-4c5b-a7a5-7fc4b51b0cea""}","https://test12345.live/?num_scrambled_semantic=8&num_scrambled_causal=4&num_scrambled_schematic=4&participantId=DDF9CC347F5D4544A341532EF7995E62&assignmentId=24c5c726-9304-4eee-b970-589ee456f68c&projectId=a6b6d205-fa41-4c5b-a7a5-7fc4b51b0cea","DDF9CC347F5D4544A341532EF7995E62-2025-05-27-17-14-37","","null","","images/instructions/movie_0.png","null","",""
"","","","","","image-button-response","12","59688","0.0-6.0-1.0-0.0","DDF9CC347F5D4544A341532EF7995E62","DDF9CC347F5D4544A341532EF7995E62","24c5c726-9304-4eee-b970-589ee456f68c","a6b6d205-fa41-4c5b-a7a5-7fc4b51b0cea","{""num_scrambled_semantic"":""8"",""num_scrambled_causal"":""4"",""num_scrambled_schematic"":""4"",""participantId"":""DDF9CC347F5D4544A341532EF7995E62"",""assignmentId"":""24c5c726-9304-4eee-b970-589ee456f68c"",""projectId"":""a6b6d205-fa41-4c5b-a7a5-7fc4b51b0cea""}","https://test12345.live/?num_scrambled_semantic=8&num_scrambled_causal=4&num_scrambled_schematic=4&participantId=DDF9CC347F5D4544A341532EF7995E62&assignmentId=24c5c726-9304-4eee-b970-589ee456f68c&projectId=a6b6d205-fa41-4c5b-a7a5-7fc4b51b0cea","DDF9CC347F5D4544A341532EF7995E62-2025-05-27-17-14-37","","null","","images/instructions/movie_1.png","null","",""
"","","","","","image-button-response","13","62195","0.0-6.0-1.0-1.0","DDF9CC347F5D4544A341532EF7995E62","DDF9CC347F5D4544A341532EF7995E62","24c5c726-9304-4eee-b970-589ee456f68c","a6b6d205-fa41-4c5b-a7a5-7fc4b51b0cea","{""num_scrambled_semantic"":""8"",""num_scrambled_causal"":""4"",""num_scrambled_schematic"":""4"",""participantId"":""DDF9CC347F5D4544A341532EF7995E62"",""assignmentId"":""24c5c726-9304-4eee-b970-589ee456f68c"",""projectId"":""a6b6d205-fa41-4c5b-a7a5-7fc4b51b0cea""}","https://test12345.live/?num_scrambled_semantic=8&num_scrambled_causal=4&num_scrambled_schematic=4&participantId=DDF9CC347F5D4544A341532EF7995E62&assignmentId=24c5c726-9304-4eee-b970-589ee456f68c&projectId=a6b6d205-fa41-4c5b-a7a5-7fc4b51b0cea","DDF9CC347F5D4544A341532EF7995E62-2025-05-27-17-14-37","","2506","","images/instructions/movie_1.png","0","",""
"","","","","","image-button-response","14","63996","0.0-6.0-1.0-2.0","DDF9CC347F5D4544A341532EF7995E62","DDF9CC347F5D4544A341532EF7995E62","24c5c726-9304-4eee-b970-589ee456f68c","a6b6d205-fa41-4c5b-a7a5-7fc4b51b0cea","{""num_scrambled_semantic"":""8"",""num_scrambled_causal"":""4"",""num_scrambled_schematic"":""4"",""participantId"":""DDF9CC347F5D4544A341532EF7995E62"",""assignmentId"":""24c5c726-9304-4eee-b970-589ee456f68c"",""projectId"":""a6b6d205-fa41-4c5b-a7a5-7fc4b51b0cea""}","https://test12345.live/?num_scrambled_semantic=8&num_scrambled_causal=4&num_scrambled_schematic=4&participantId=DDF9CC347F5D4544A341532EF7995E62&assignmentId=24c5c726-9304-4eee-b970-589ee456f68c&projectId=a6b6d205-fa41-4c5b-a7a5-7fc4b51b0cea","DDF9CC347F5D4544A341532EF7995E62-2025-05-27-17-14-37","","null","","[]","null","",""
"","","","","","image-button-response","15","68518","0.0-6.0-1.0-0.1","DDF9CC347F5D4544A341532EF7995E62","DDF9CC347F5D4544A341532EF7995E62","24c5c726-9304-4eee-b970-589ee456f68c","a6b6d205-fa41-4c5b-a7a5-7fc4b51b0cea","{""num_scrambled_semantic"":""8"",""num_scrambled_causal"":""4"",""num_scrambled_schematic"":""4"",""participantId"":""DDF9CC347F5D4544A341532EF7995E62"",""assignmentId"":""24c5c726-9304-4eee-b970-589ee456f68c"",""projectId"":""a6b6d205-fa41-4c5b-a7a5-7fc4b51b0cea""}","https://test12345.live/?num_scrambled_semantic=8&num_scrambled_causal=4&num_scrambled_schematic=4&participantId=DDF9CC347F5D4544A341532EF7995E62&assignmentId=24c5c726-9304-4eee-b970-589ee456f68c&projectId=a6b6d205-fa41-4c5b-a7a5-7fc4b51b0cea","DDF9CC347F5D4544A341532EF7995E62-2025-05-27-17-14-37","","null","","images/instructions/movie_2.png","null","",""
"","","","","","image-button-response","16","70043","0.0-6.0-1.0-1.1","DDF9CC347F5D4544A341532EF7995E62","DDF9CC347F5D4544A341532EF7995E62","24c5c726-9304-4eee-b970-589ee456f68c","a6b6d205-fa41-4c5b-a7a5-7fc4b51b0cea","{""num_scrambled_semantic"":""8"",""num_scrambled_causal"":""4"",""num_scrambled_schematic"":""4"",""participantId"":""DDF9CC347F5D4544A341532EF7995E62"",""assignmentId"":""24c5c726-9304-4eee-b970-589ee456f68c"",""projectId"":""a6b6d205-fa41-4c5b-a7a5-7fc4b51b0cea""}","https://test12345.live/?num_scrambled_semantic=8&num_scrambled_causal=4&num_scrambled_schematic=4&participantId=DDF9CC347F5D4544A341532EF7995E62&assignmentId=24c5c726-9304-4eee-b970-589ee456f68c&projectId=a6b6d205-fa41-4c5b-a7a5-7fc4b51b0cea","DDF9CC347F5D4544A341532EF7995E62-2025-05-27-17-14-37","","1524","","images/instructions/movie_2.png","1","",""
"","","","","","image-button-response","17","71845","0.0-6.0-1.0-2.1","DDF9CC347F5D4544A341532EF7995E62","DDF9CC347F5D4544A341532EF7995E62","24c5c726-9304-4eee-b970-589ee456f68c","a6b6d205-fa41-4c5b-a7a5-7fc4b51b0cea","{""num_scrambled_semantic"":""8"",""num_scrambled_causal"":""4"",""num_scrambled_schematic"":""4"",""participantId"":""DDF9CC347F5D4544A341532EF7995E62"",""assignmentId"":""24c5c726-9304-4eee-b970-589ee456f68c"",""projectId"":""a6b6d205-fa41-4c5b-a7a5-7fc4b51b0cea""}","https://test12345.live/?num_scrambled_semantic=8&num_scrambled_causal=4&num_scrambled_schematic=4&participantId=DDF9CC347F5D4544A341532EF7995E62&assignmentId=24c5c726-9304-4eee-b970-589ee456f68c&projectId=a6b6d205-fa41-4c5b-a7a5-7fc4b51b0cea","DDF9CC347F5D4544A341532EF7995E62-2025-05-27-17-14-37","","null","","[]","null","",""
"","","","","","image-button-response","18","76371","0.0-6.0-1.0-0.2","DDF9CC347F5D4544A341532EF7995E62","DDF9CC347F5D4544A341532EF7995E62","24c5c726-9304-4eee-b970-589ee456f68c","a6b6d205-fa41-4c5b-a7a5-7fc4b51b0cea","{""num_scrambled_semantic"":""8"",""num_scrambled_causal"":""4"",""num_scrambled_schematic"":""4"",""participantId"":""DDF9CC347F5D4544A341532EF7995E62"",""assignmentId"":""24c5c726-9304-4eee-b970-589ee456f68c"",""projectId"":""a6b6d205-fa41-4c5b-a7a5-7fc4b51b0cea""}","https://test12345.live/?num_scrambled_semantic=8&num_scrambled_causal=4&num_scrambled_schematic=4&participantId=DDF9CC347F5D4544A341532EF7995E62&assignmentId=24c5c726-9304-4eee-b970-589ee456f68c&projectId=a6b6d205-fa41-4c5b-a7a5-7fc4b51b0cea","DDF9CC347F5D4544A341532EF7995E62-2025-05-27-17-14-37","","null","","images/instructions/movie_3.png","null","",""
"","","","","","image-button-response","19","77146","0.0-6.0-1.0-1.2","DDF9CC347F5D4544A341532EF7995E62","DDF9CC347F5D4544A341532EF7995E62","24c5c726-9304-4eee-b970-589ee456f68c","a6b6d205-fa41-4c5b-a7a5-7fc4b51b0cea","{""num_scrambled_semantic"":""8"",""num_scrambled_causal"":""4"",""num_scrambled_schematic"":""4"",""participantId"":""DDF9CC347F5D4544A341532EF7995E62"",""assignmentId"":""24c5c726-9304-4eee-b970-589ee456f68c"",""projectId"":""a6b6d205-fa41-4c5b-a7a5-7fc4b51b0cea""}","https://test12345.live/?num_scrambled_semantic=8&num_scrambled_causal=4&num_scrambled_schematic=4&participantId=DDF9CC347F5D4544A341532EF7995E62&assignmentId=24c5c726-9304-4eee-b970-589ee456f68c&projectId=a6b6d205-fa41-4c5b-a7a5-7fc4b51b0cea","DDF9CC347F5D4544A341532EF7995E62-2025-05-27-17-14-37","","773","","images/instructions/movie_3.png","0","",""
"","","","","","image-button-response","20","78948","0.0-6.0-1.0-2.2","DDF9CC347F5D4544A341532EF7995E62","DDF9CC347F5D4544A341532EF7995E62","24c5c726-9304-4eee-b970-589ee456f68c","a6b6d205-fa41-4c5b-a7a5-7fc4b51b0cea","{""num_scrambled_semantic"":""8"",""num_scrambled_causal"":""4"",""num_scrambled_schematic"":""4"",""participantId"":""DDF9CC347F5D4544A341532EF7995E62"",""assignmentId"":""24c5c726-9304-4eee-b970-589ee456f68c"",""projectId"":""a6b6d205-fa41-4c5b-a7a5-7fc4b51b0cea""}","https://test12345.live/?num_scrambled_semantic=8&num_scrambled_causal=4&num_scrambled_schematic=4&participantId=DDF9CC347F5D4544A341532EF7995E62&assignmentId=24c5c726-9304-4eee-b970-589ee456f68c&projectId=a6b6d205-fa41-4c5b-a7a5-7fc4b51b0cea","DDF9CC347F5D4544A341532EF7995E62-2025-05-27-17-14-37","","null","","[]","null","",""
"","","","","","image-button-response","21","83472","0.0-6.0-1.0-0.3","DDF9CC347F5D4544A341532EF7995E62","DDF9CC347F5D4544A341532EF7995E62","24c5c726-9304-4eee-b970-589ee456f68c","a6b6d205-fa41-4c5b-a7a5-7fc4b51b0cea","{""num_scrambled_semantic"":""8"",""num_scrambled_causal"":""4"",""num_scrambled_schematic"":""4"",""participantId"":""DDF9CC347F5D4544A341532EF7995E62"",""assignmentId"":""24c5c726-9304-4eee-b970-589ee456f68c"",""projectId"":""a6b6d205-fa41-4c5b-a7a5-7fc4b51b0cea""}","https://test12345.live/?num_scrambled_semantic=8&num_scrambled_causal=4&num_scrambled_schematic=4&participantId=DDF9CC347F5D4544A341532EF7995E62&assignmentId=24c5c726-9304-4eee-b970-589ee456f68c&projectId=a6b6d205-fa41-4c5b-a7a5-7fc4b51b0cea","DDF9CC347F5D4544A341532EF7995E62-2025-05-27-17-14-37","","null","","images/instructions/movie_4.png","null","",""
"","","","","","image-button-response","22","84194","0.0-6.0-1.0-1.3","DDF9CC347F5D4544A341532EF7995E62","DDF9CC347F5D4544A341532EF7995E62","24c5c726-9304-4eee-b970-589ee456f68c","a6b6d205-fa41-4c5b-a7a5-7fc4b51b0cea","{""num_scrambled_semantic"":""8"",""num_scrambled_causal"":""4"",""num_scrambled_schematic"":""4"",""participantId"":""DDF9CC347F5D4544A341532EF7995E62"",""assignmentId"":""24c5c726-9304-4eee-b970-589ee456f68c"",""projectId"":""a6b6d205-fa41-4c5b-a7a5-7fc4b51b0cea""}","https://test12345.live/?num_scrambled_semantic=8&num_scrambled_causal=4&num_scrambled_schematic=4&participantId=DDF9CC347F5D4544A341532EF7995E62&assignmentId=24c5c726-9304-4eee-b970-589ee456f68c&projectId=a6b6d205-fa41-4c5b-a7a5-7fc4b51b0cea","DDF9CC347F5D4544A341532EF7995E62-2025-05-27-17-14-37","","722","","images/instructions/movie_4.png","0","",""
"","","","","","image-button-response","23","85996","0.0-6.0-1.0-2.3","DDF9CC347F5D4544A341532EF7995E62","DDF9CC347F5D4544A341532EF7995E62","24c5c726-9304-4eee-b970-589ee456f68c","a6b6d205-fa41-4c5b-a7a5-7fc4b51b0cea","{""num_scrambled_semantic"":""8"",""num_scrambled_causal"":""4"",""num_scrambled_schematic"":""4"",""participantId"":""DDF9CC347F5D4544A341532EF7995E62"",""assignmentId"":""24c5c726-9304-4eee-b970-589ee456f68c"",""projectId"":""a6b6d205-fa41-4c5b-a7a5-7fc4b51b0cea""}","https://test12345.live/?num_scrambled_semantic=8&num_scrambled_causal=4&num_scrambled_schematic=4&participantId=DDF9CC347F5D4544A341532EF7995E62&assignmentId=24c5c726-9304-4eee-b970-589ee456f68c&projectId=a6b6d205-fa41-4c5b-a7a5-7fc4b51b0cea","DDF9CC347F5D4544A341532EF7995E62-2025-05-27-17-14-37","","null","","[]","null","",""
"","","","","","instructions","24","96145","0.0-7.0","DDF9CC347F5D4544A341532EF7995E62","DDF9CC347F5D4544A341532EF7995E62","24c5c726-9304-4eee-b970-589ee456f68c","a6b6d205-fa41-4c5b-a7a5-7fc4b51b0cea","{""num_scrambled_semantic"":""8"",""num_scrambled_causal"":""4"",""num_scrambled_schematic"":""4"",""participantId"":""DDF9CC347F5D4544A341532EF7995E62"",""assignmentId"":""24c5c726-9304-4eee-b970-589ee456f68c"",""projectId"":""a6b6d205-fa41-4c5b-a7a5-7fc4b51b0cea""}","https://test12345.live/?num_scrambled_semantic=8&num_scrambled_causal=4&num_scrambled_schematic=4&participantId=DDF9CC347F5D4544A341532EF7995E62&assignmentId=24c5c726-9304-4eee-b970-589ee456f68c&projectId=a6b6d205-fa41-4c5b-a7a5-7fc4b51b0cea","DDF9CC347F5D4544A341532EF7995E62-2025-05-27-17-14-37","[{""page_index"":0,""viewing_time"":8430},{""page_index"":1,""viewing_time"":1718}]","10148","","","","",""
"","","","","","html-audio-response","25","114377","0.0-8.0","DDF9CC347F5D4544A341532EF7995E62","DDF9CC347F5D4544A341532EF7995E62","24c5c726-9304-4eee-b970-589ee456f68c","a6b6d205-fa41-4c5b-a7a5-7fc4b51b0cea","{""num_scrambled_semantic"":""8"",""num_scrambled_causal"":""4"",""num_scrambled_schematic"":""4"",""participantId"":""DDF9CC347F5D4544A341532EF7995E62"",""assignmentId"":""24c5c726-9304-4eee-b970-589ee456f68c"",""projectId"":""a6b6d205-fa41-4c5b-a7a5-7fc4b51b0cea""}","https://test12345.live/?num_scrambled_semantic=8&num_scrambled_causal=4&num_scrambled_schematic=4&participantId=DDF9CC347F5D4544A341532EF7995E62&assignmentId=24c5c726-9304-4eee-b970-589ee456f68c&projectId=a6b6d205-fa41-4c5b-a7a5-7fc4b51b0cea","DDF9CC347F5D4544A341532EF7995E62-2025-05-27-17-14-37","","16138","","[""<span style=\""color: red; font-size: 24px\""> NOW RECORDING</span><p>Please say out loud all the images you saw in the exact order you saw them. Try to recall as many images as you can, but remember: getting the order right is more important than the number of images you recall.</p>""]","","12",""
"","","","","","instructions","26","115629","0.0-9.0","DDF9CC347F5D4544A341532EF7995E62","DDF9CC347F5D4544A341532EF7995E62","24c5c726-9304-4eee-b970-589ee456f68c","a6b6d205-fa41-4c5b-a7a5-7fc4b51b0cea","{""num_scrambled_semantic"":""8"",""num_scrambled_causal"":""4"",""num_scrambled_schematic"":""4"",""participantId"":""DDF9CC347F5D4544A341532EF7995E62"",""assignmentId"":""24c5c726-9304-4eee-b970-589ee456f68c"",""projectId"":""a6b6d205-fa41-4c5b-a7a5-7fc4b51b0cea""}","https://test12345.live/?num_scrambled_semantic=8&num_scrambled_causal=4&num_scrambled_schematic=4&participantId=DDF9CC347F5D4544A341532EF7995E62&assignmentId=24c5c726-9304-4eee-b970-589ee456f68c&projectId=a6b6d205-fa41-4c5b-a7a5-7fc4b51b0cea","DDF9CC347F5D4544A341532EF7995E62-2025-05-27-17-14-37","[{""page_index"":0,""viewing_time"":1249}]","1250","","","","",""
"","","","","","image-button-response","27","121640","0.0-10.0-0.0","DDF9CC347F5D4544A341532EF7995E62","DDF9CC347F5D4544A341532EF7995E62","24c5c726-9304-4eee-b970-589ee456f68c","a6b6d205-fa41-4c5b-a7a5-7fc4b51b0cea","{""num_scrambled_semantic"":""8"",""num_scrambled_causal"":""4"",""num_scrambled_schematic"":""4"",""participantId"":""DDF9CC347F5D4544A341532EF7995E62"",""assignmentId"":""24c5c726-9304-4eee-b970-589ee456f68c"",""projectId"":""a6b6d205-fa41-4c5b-a7a5-7fc4b51b0cea""}","https://test12345.live/?num_scrambled_semantic=8&num_scrambled_causal=4&num_scrambled_schematic=4&participantId=DDF9CC347F5D4544A341532EF7995E62&assignmentId=24c5c726-9304-4eee-b970-589ee456f68c&projectId=a6b6d205-fa41-4c5b-a7a5-7fc4b51b0cea","DDF9CC347F5D4544A341532EF7995E62-2025-05-27-17-14-37","","null","","images/schematic_sequence/flight_scheme/flight_scheme_0.png","null","",""
"","","","","","image-button-response","28","126161","0.0-10.0-1.0-0.0","DDF9CC347F5D4544A341532EF7995E62","DDF9CC347F5D4544A341532EF7995E62","24c5c726-9304-4eee-b970-589ee456f68c","a6b6d205-fa41-4c5b-a7a5-7fc4b51b0cea","{""num_scrambled_semantic"":""8"",""num_scrambled_causal"":""4"",""num_scrambled_schematic"":""4"",""participantId"":""DDF9CC347F5D4544A341532EF7995E62"",""assignmentId"":""24c5c726-9304-4eee-b970-589ee456f68c"",""projectId"":""a6b6d205-fa41-4c5b-a7a5-7fc4b51b0cea""}","https://test12345.live/?num_scrambled_semantic=8&num_scrambled_causal=4&num_scrambled_schematic=4&participantId=DDF9CC347F5D4544A341532EF7995E62&assignmentId=24c5c726-9304-4eee-b970-589ee456f68c&projectId=a6b6d205-fa41-4c5b-a7a5-7fc4b51b0cea","DDF9CC347F5D4544A341532EF7995E62-2025-05-27-17-14-37","","null","","images/schematic_sequence/flight_scheme/flight_scheme_1.png","null","",""
"","","","","","image-button-response","29","130164","0.0-10.0-1.0-1.0","DDF9CC347F5D4544A341532EF7995E62","DDF9CC347F5D4544A341532EF7995E62","24c5c726-9304-4eee-b970-589ee456f68c","a6b6d205-fa41-4c5b-a7a5-7fc4b51b0cea","{""num_scrambled_semantic"":""8"",""num_scrambled_causal"":""4"",""num_scrambled_schematic"":""4"",""participantId"":""DDF9CC347F5D4544A341532EF7995E62"",""assignmentId"":""24c5c726-9304-4eee-b970-589ee456f68c"",""projectId"":""a6b6d205-fa41-4c5b-a7a5-7fc4b51b0cea""}","https://test12345.live/?num_scrambled_semantic=8&num_scrambled_causal=4&num_scrambled_schematic=4&participantId=DDF9CC347F5D4544A341532EF7995E62&assignmentId=24c5c726-9304-4eee-b970-589ee456f68c&projectId=a6b6d205-fa41-4c5b-a7a5-7fc4b51b0cea","DDF9CC347F5D4544A341532EF7995E62-2025-05-27-17-14-37","","null","","images/schematic_sequence/flight_scheme/flight_scheme_1.png","null","",""
"","","","","","image-button-response","30","131966","0.0-10.0-1.0-2.0","DDF9CC347F5D4544A341532EF7995E62","DDF9CC347F5D4544A341532EF7995E62","24c5c726-9304-4eee-b970-589ee456f68c","a6b6d205-fa41-4c5b-a7a5-7fc4b51b0cea","{""num_scrambled_semantic"":""8"",""num_scrambled_causal"":""4"",""num_scrambled_schematic"":""4"",""participantId"":""DDF9CC347F5D4544A341532EF7995E62"",""assignmentId"":""24c5c726-9304-4eee-b970-589ee456f68c"",""projectId"":""a6b6d205-fa41-4c5b-a7a5-7fc4b51b0cea""}","https://test12345.live/?num_scrambled_semantic=8&num_scrambled_causal=4&num_scrambled_schematic=4&participantId=DDF9CC347F5D4544A341532EF7995E62&assignmentId=24c5c726-9304-4eee-b970-589ee456f68c&projectId=a6b6d205-fa41-4c5b-a7a5-7fc4b51b0cea","DDF9CC347F5D4544A341532EF7995E62-2025-05-27-17-14-37","","null","","[]","null","",""
"","","","","","image-button-response","31","136490","0.0-10.0-1.0-0.1","DDF9CC347F5D4544A341532EF7995E62","DDF9CC347F5D4544A341532EF7995E62","24c5c726-9304-4eee-b970-589ee456f68c","a6b6d205-fa41-4c5b-a7a5-7fc4b51b0cea","{""num_scrambled_semantic"":""8"",""num_scrambled_causal"":""4"",""num_scrambled_schematic"":""4"",""participantId"":""DDF9CC347F5D4544A341532EF7995E62"",""assignmentId"":""24c5c726-9304-4eee-b970-589ee456f68c"",""projectId"":""a6b6d205-fa41-4c5b-a7a5-7fc4b51b0cea""}","https://test12345.live/?num_scrambled_semantic=8&num_scrambled_causal=4&num_scrambled_schematic=4&participantId=DDF9CC347F5D4544A341532EF7995E62&assignmentId=24c5c726-9304-4eee-b970-589ee456f68c&projectId=a6b6d205-fa41-4c5b-a7a5-7fc4b51b0cea","DDF9CC347F5D4544A341532EF7995E62-2025-05-27-17-14-37","","null","","images/schematic_sequence/flight_scheme/flight_scheme_2.png","null","",""
"","","","","","image-button-response","32","138245","0.0-10.0-1.0-1.1","DDF9CC347F5D4544A341532EF7995E62","DDF9CC347F5D4544A341532EF7995E62","24c5c726-9304-4eee-b970-589ee456f68c","a6b6d205-fa41-4c5b-a7a5-7fc4b51b0cea","{""num_scrambled_semantic"":""8"",""num_scrambled_causal"":""4"",""num_scrambled_schematic"":""4"",""participantId"":""DDF9CC347F5D4544A341532EF7995E62"",""assignmentId"":""24c5c726-9304-4eee-b970-589ee456f68c"",""projectId"":""a6b6d205-fa41-4c5b-a7a5-7fc4b51b0cea""}","https://test12345.live/?num_scrambled_semantic=8&num_scrambled_causal=4&num_scrambled_schematic=4&participantId=DDF9CC347F5D4544A341532EF7995E62&assignmentId=24c5c726-9304-4eee-b970-589ee456f68c&projectId=a6b6d205-fa41-4c5b-a7a5-7fc4b51b0cea","DDF9CC347F5D4544A341532EF7995E62-2025-05-27-17-14-37","","1753","","images/schematic_sequence/flight_scheme/flight_scheme_2.png","1","",""
"","","","","","image-button-response","33","140048","0.0-10.0-1.0-2.1","DDF9CC347F5D4544A341532EF7995E62","DDF9CC347F5D4544A341532EF7995E62","24c5c726-9304-4eee-b970-589ee456f68c","a6b6d205-fa41-4c5b-a7a5-7fc4b51b0cea","{""num_scrambled_semantic"":""8"",""num_scrambled_causal"":""4"",""num_scrambled_schematic"":""4"",""participantId"":""DDF9CC347F5D4544A341532EF7995E62"",""assignmentId"":""24c5c726-9304-4eee-b970-589ee456f68c"",""projectId"":""a6b6d205-fa41-4c5b-a7a5-7fc4b51b0cea""}","https://test12345.live/?num_scrambled_semantic=8&num_scrambled_causal=4&num_scrambled_schematic=4&participantId=DDF9CC347F5D4544A341532EF7995E62&assignmentId=24c5c726-9304-4eee-b970-589ee456f68c&projectId=a6b6d205-fa41-4c5b-a7a5-7fc4b51b0cea","DDF9CC347F5D4544A341532EF7995E62-2025-05-27-17-14-37","","null","","[]","null","",""
"","","","","","image-button-response","34","144571","0.0-10.0-1.0-0.2","DDF9CC347F5D4544A341532EF7995E62","DDF9CC347F5D4544A341532EF7995E62","24c5c726-9304-4eee-b970-589ee456f68c","a6b6d205-fa41-4c5b-a7a5-7fc4b51b0cea","{""num_scrambled_semantic"":""8"",""num_scrambled_causal"":""4"",""num_scrambled_schematic"":""4"",""participantId"":""DDF9CC347F5D4544A341532EF7995E62"",""assignmentId"":""24c5c726-9304-4eee-b970-589ee456f68c"",""projectId"":""a6b6d205-fa41-4c5b-a7a5-7fc4b51b0cea""}","https://test12345.live/?num_scrambled_semantic=8&num_scrambled_causal=4&num_scrambled_schematic=4&participantId=DDF9CC347F5D4544A341532EF7995E62&assignmentId=24c5c726-9304-4eee-b970-589ee456f68c&projectId=a6b6d205-fa41-4c5b-a7a5-7fc4b51b0cea","DDF9CC347F5D4544A341532EF7995E62-2025-05-27-17-14-37","","null","","images/schematic_sequence/flight_scheme/flight_scheme_3.png","null","",""
"","","","","","image-button-response","35","145711","0.0-10.0-1.0-1.2","DDF9CC347F5D4544A341532EF7995E62","DDF9CC347F5D4544A341532EF7995E62","24c5c726-9304-4eee-b970-589ee456f68c","a6b6d205-fa41-4c5b-a7a5-7fc4b51b0cea","{""num_scrambled_semantic"":""8"",""num_scrambled_causal"":""4"",""num_scrambled_schematic"":""4"",""participantId"":""DDF9CC347F5D4544A341532EF7995E62"",""assignmentId"":""24c5c726-9304-4eee-b970-589ee456f68c"",""projectId"":""a6b6d205-fa41-4c5b-a7a5-7fc4b51b0cea""}","https://test12345.live/?num_scrambled_semantic=8&num_scrambled_causal=4&num_scrambled_schematic=4&participantId=DDF9CC347F5D4544A341532EF7995E62&assignmentId=24c5c726-9304-4eee-b970-589ee456f68c&projectId=a6b6d205-fa41-4c5b-a7a5-7fc4b51b0cea","DDF9CC347F5D4544A341532EF7995E62-2025-05-27-17-14-37","","1138","","images/schematic_sequence/flight_scheme/flight_scheme_3.png","0","",""
"","","","","","image-button-response","36","147512","0.0-10.0-1.0-2.2","DDF9CC347F5D4544A341532EF7995E62","DDF9CC347F5D4544A341532EF7995E62","24c5c726-9304-4eee-b970-589ee456f68c","a6b6d205-fa41-4c5b-a7a5-7fc4b51b0cea","{""num_scrambled_semantic"":""8"",""num_scrambled_causal"":""4"",""num_scrambled_schematic"":""4"",""participantId"":""DDF9CC347F5D4544A341532EF7995E62"",""assignmentId"":""24c5c726-9304-4eee-b970-589ee456f68c"",""projectId"":""a6b6d205-fa41-4c5b-a7a5-7fc4b51b0cea""}","https://test12345.live/?num_scrambled_semantic=8&num_scrambled_causal=4&num_scrambled_schematic=4&participantId=DDF9CC347F5D4544A341532EF7995E62&assignmentId=24c5c726-9304-4eee-b970-589ee456f68c&projectId=a6b6d205-fa41-4c5b-a7a5-7fc4b51b0cea","DDF9CC347F5D4544A341532EF7995E62-2025-05-27-17-14-37","","null","","[]","null","",""
"","","","","","image-button-response","37","152039","0.0-10.0-1.0-0.3","DDF9CC347F5D4544A341532EF7995E62","DDF9CC347F5D4544A341532EF7995E62","24c5c726-9304-4eee-b970-589ee456f68c","a6b6d205-fa41-4c5b-a7a5-7fc4b51b0cea","{""num_scrambled_semantic"":""8"",""num_scrambled_causal"":""4"",""num_scrambled_schematic"":""4"",""participantId"":""DDF9CC347F5D4544A341532EF7995E62"",""assignmentId"":""24c5c726-9304-4eee-b970-589ee456f68c"",""projectId"":""a6b6d205-fa41-4c5b-a7a5-7fc4b51b0cea""}","https://test12345.live/?num_scrambled_semantic=8&num_scrambled_causal=4&num_scrambled_schematic=4&participantId=DDF9CC347F5D4544A341532EF7995E62&assignmentId=24c5c726-9304-4eee-b970-589ee456f68c&projectId=a6b6d205-fa41-4c5b-a7a5-7fc4b51b0cea","DDF9CC347F5D4544A341532EF7995E62-2025-05-27-17-14-37","","null","","images/schematic_sequence/flight_scheme/flight_scheme_4.png","null","",""
"","","","","","image-button-response","38","153045","0.0-10.0-1.0-1.3","DDF9CC347F5D4544A341532EF7995E62","DDF9CC347F5D4544A341532EF7995E62","24c5c726-9304-4eee-b970-589ee456f68c","a6b6d205-fa41-4c5b-a7a5-7fc4b51b0cea","{""num_scrambled_semantic"":""8"",""num_scrambled_causal"":""4"",""num_scrambled_schematic"":""4"",""participantId"":""DDF9CC347F5D4544A341532EF7995E62"",""assignmentId"":""24c5c726-9304-4eee-b970-589ee456f68c"",""projectId"":""a6b6d205-fa41-4c5b-a7a5-7fc4b51b0cea""}","https://test12345.live/?num_scrambled_semantic=8&num_scrambled_causal=4&num_scrambled_schematic=4&participantId=DDF9CC347F5D4544A341532EF7995E62&assignmentId=24c5c726-9304-4eee-b970-589ee456f68c&projectId=a6b6d205-fa41-4c5b-a7a5-7fc4b51b0cea","DDF9CC347F5D4544A341532EF7995E62-2025-05-27-17-14-37","","1004","","images/schematic_sequence/flight_scheme/flight_scheme_4.png","0","",""
"","","","","","image-button-response","39","154846","0.0-10.0-1.0-2.3","DDF9CC347F5D4544A341532EF7995E62","DDF9CC347F5D4544A341532EF7995E62","24c5c726-9304-4eee-b970-589ee456f68c","a6b6d205-fa41-4c5b-a7a5-7fc4b51b0cea","{""num_scrambled_semantic"":""8"",""num_scrambled_causal"":""4"",""num_scrambled_schematic"":""4"",""participantId"":""DDF9CC347F5D4544A341532EF7995E62"",""assignmentId"":""24c5c726-9304-4eee-b970-589ee456f68c"",""projectId"":""a6b6d205-fa41-4c5b-a7a5-7fc4b51b0cea""}","https://test12345.live/?num_scrambled_semantic=8&num_scrambled_causal=4&num_scrambled_schematic=4&participantId=DDF9CC347F5D4544A341532EF7995E62&assignmentId=24c5c726-9304-4eee-b970-589ee456f68c&projectId=a6b6d205-fa41-4c5b-a7a5-7fc4b51b0cea","DDF9CC347F5D4544A341532EF7995E62-2025-05-27-17-14-37","","null","","[]","null","",""
"","","","","","image-button-response","40","159369","0.0-10.0-1.0-0.4","DDF9CC347F5D4544A341532EF7995E62","DDF9CC347F5D4544A341532EF7995E62","24c5c726-9304-4eee-b970-589ee456f68c","a6b6d205-fa41-4c5b-a7a5-7fc4b51b0cea","{""num_scrambled_semantic"":""8"",""num_scrambled_causal"":""4"",""num_scrambled_schematic"":""4"",""participantId"":""DDF9CC347F5D4544A341532EF7995E62"",""assignmentId"":""24c5c726-9304-4eee-b970-589ee456f68c"",""projectId"":""a6b6d205-fa41-4c5b-a7a5-7fc4b51b0cea""}","https://test12345.live/?num_scrambled_semantic=8&num_scrambled_causal=4&num_scrambled_schematic=4&participantId=DDF9CC347F5D4544A341532EF7995E62&assignmentId=24c5c726-9304-4eee-b970-589ee456f68c&projectId=a6b6d205-fa41-4c5b-a7a5-7fc4b51b0cea","DDF9CC347F5D4544A341532EF7995E62-2025-05-27-17-14-37","","null","","images/schematic_sequence/flight_scheme/flight_scheme_5.png","null","",""
"","","","","","image-button-response","41","160147","0.0-10.0-1.0-1.4","DDF9CC347F5D4544A341532EF7995E62","DDF9CC347F5D4544A341532EF7995E62","24c5c726-9304-4eee-b970-589ee456f68c","a6b6d205-fa41-4c5b-a7a5-7fc4b51b0cea","{""num_scrambled_semantic"":""8"",""num_scrambled_causal"":""4"",""num_scrambled_schematic"":""4"",""participantId"":""DDF9CC347F5D4544A341532EF7995E62"",""assignmentId"":""24c5c726-9304-4eee-b970-589ee456f68c"",""projectId"":""a6b6d205-fa41-4c5b-a7a5-7fc4b51b0cea""}","https://test12345.live/?num_scrambled_semantic=8&num_scrambled_causal=4&num_scrambled_schematic=4&participantId=DDF9CC347F5D4544A341532EF7995E62&assignmentId=24c5c726-9304-4eee-b970-589ee456f68c&projectId=a6b6d205-fa41-4c5b-a7a5-7fc4b51b0cea","DDF9CC347F5D4544A341532EF7995E62-2025-05-27-17-14-37","","776","","images/schematic_sequence/flight_scheme/flight_scheme_5.png","0","",""
"","","","","","image-button-response","42","161948","0.0-10.0-1.0-2.4","DDF9CC347F5D4544A341532EF7995E62","DDF9CC347F5D4544A341532EF7995E62","24c5c726-9304-4eee-b970-589ee456f68c","a6b6d205-fa41-4c5b-a7a5-7fc4b51b0cea","{""num_scrambled_semantic"":""8"",""num_scrambled_causal"":""4"",""num_scrambled_schematic"":""4"",""participantId"":""DDF9CC347F5D4544A341532EF7995E62"",""assignmentId"":""24c5c726-9304-4eee-b970-589ee456f68c"",""projectId"":""a6b6d205-fa41-4c5b-a7a5-7fc4b51b0cea""}","https://test12345.live/?num_scrambled_semantic=8&num_scrambled_causal=4&num_scrambled_schematic=4&participantId=DDF9CC347F5D4544A341532EF7995E62&assignmentId=24c5c726-9304-4eee-b970-589ee456f68c&projectId=a6b6d205-fa41-4c5b-a7a5-7fc4b51b0cea","DDF9CC347F5D4544A341532EF7995E62-2025-05-27-17-14-37","","null","","[]","null","",""
"","","","","","image-button-response","43","166469","0.0-10.0-1.0-0.5","DDF9CC347F5D4544A341532EF7995E62","DDF9CC347F5D4544A341532EF7995E62","24c5c726-9304-4eee-b970-589ee456f68c","a6b6d205-fa41-4c5b-a7a5-7fc4b51b0cea","{""num_scrambled_semantic"":""8"",""num_scrambled_causal"":""4"",""num_scrambled_schematic"":""4"",""participantId"":""DDF9CC347F5D4544A341532EF7995E62"",""assignmentId"":""24c5c726-9304-4eee-b970-589ee456f68c"",""projectId"":""a6b6d205-fa41-4c5b-a7a5-7fc4b51b0cea""}","https://test12345.live/?num_scrambled_semantic=8&num_scrambled_causal=4&num_scrambled_schematic=4&participantId=DDF9CC347F5D4544A341532EF7995E62&assignmentId=24c5c726-9304-4eee-b970-589ee456f68c&projectId=a6b6d205-fa41-4c5b-a7a5-7fc4b51b0cea","DDF9CC347F5D4544A341532EF7995E62-2025-05-27-17-14-37","","null","","images/schematic_sequence/flight_scheme/flight_scheme_6.png","null","",""
"","","","","","image-button-response","44","167110","0.0-10.0-1.0-1.5","DDF9CC347F5D4544A341532EF7995E62","DDF9CC347F5D4544A341532EF7995E62","24c5c726-9304-4eee-b970-589ee456f68c","a6b6d205-fa41-4c5b-a7a5-7fc4b51b0cea","{""num_scrambled_semantic"":""8"",""num_scrambled_causal"":""4"",""num_scrambled_schematic"":""4"",""participantId"":""DDF9CC347F5D4544A341532EF7995E62"",""assignmentId"":""24c5c726-9304-4eee-b970-589ee456f68c"",""projectId"":""a6b6d205-fa41-4c5b-a7a5-7fc4b51b0cea""}","https://test12345.live/?num_scrambled_semantic=8&num_scrambled_causal=4&num_scrambled_schematic=4&participantId=DDF9CC347F5D4544A341532EF7995E62&assignmentId=24c5c726-9304-4eee-b970-589ee456f68c&projectId=a6b6d205-fa41-4c5b-a7a5-7fc4b51b0cea","DDF9CC347F5D4544A341532EF7995E62-2025-05-27-17-14-37","","641","","images/schematic_sequence/flight_scheme/flight_scheme_6.png","1","",""
"","","","","","image-button-response","45","168912","0.0-10.0-1.0-2.5","DDF9CC347F5D4544A341532EF7995E62","DDF9CC347F5D4544A341532EF7995E62","24c5c726-9304-4eee-b970-589ee456f68c","a6b6d205-fa41-4c5b-a7a5-7fc4b51b0cea","{""num_scrambled_semantic"":""8"",""num_scrambled_causal"":""4"",""num_scrambled_schematic"":""4"",""participantId"":""DDF9CC347F5D4544A341532EF7995E62"",""assignmentId"":""24c5c726-9304-4eee-b970-589ee456f68c"",""projectId"":""a6b6d205-fa41-4c5b-a7a5-7fc4b51b0cea""}","https://test12345.live/?num_scrambled_semantic=8&num_scrambled_causal=4&num_scrambled_schematic=4&participantId=DDF9CC347F5D4544A341532EF7995E62&assignmentId=24c5c726-9304-4eee-b970-589ee456f68c&projectId=a6b6d205-fa41-4c5b-a7a5-7fc4b51b0cea","DDF9CC347F5D4544A341532EF7995E62-2025-05-27-17-14-37","","null","","[]","null","",""
"","","","","","image-button-response","46","173427","0.0-10.0-1.0-0.6","DDF9CC347F5D4544A341532EF7995E62","DDF9CC347F5D4544A341532EF7995E62","24c5c726-9304-4eee-b970-589ee456f68c","a6b6d205-fa41-4c5b-a7a5-7fc4b51b0cea","{""num_scrambled_semantic"":""8"",""num_scrambled_causal"":""4"",""num_scrambled_schematic"":""4"",""participantId"":""DDF9CC347F5D4544A341532EF7995E62"",""assignmentId"":""24c5c726-9304-4eee-b970-589ee456f68c"",""projectId"":""a6b6d205-fa41-4c5b-a7a5-7fc4b51b0cea""}","https://test12345.live/?num_scrambled_semantic=8&num_scrambled_causal=4&num_scrambled_schematic=4&participantId=DDF9CC347F5D4544A341532EF7995E62&assignmentId=24c5c726-9304-4eee-b970-589ee456f68c&projectId=a6b6d205-fa41-4c5b-a7a5-7fc4b51b0cea","DDF9CC347F5D4544A341532EF7995E62-2025-05-27-17-14-37","","null","","images/schematic_sequence/flight_scheme/flight_scheme_7.png","null","",""
"","","","","","image-button-response","47","175512","0.0-10.0-1.0-1.6","DDF9CC347F5D4544A341532EF7995E62","DDF9CC347F5D4544A341532EF7995E62","24c5c726-9304-4eee-b970-589ee456f68c","a6b6d205-fa41-4c5b-a7a5-7fc4b51b0cea","{""num_scrambled_semantic"":""8"",""num_scrambled_causal"":""4"",""num_scrambled_schematic"":""4"",""participantId"":""DDF9CC347F5D4544A341532EF7995E62"",""assignmentId"":""24c5c726-9304-4eee-b970-589ee456f68c"",""projectId"":""a6b6d205-fa41-4c5b-a7a5-7fc4b51b0cea""}","https://test12345.live/?num_scrambled_semantic=8&num_scrambled_causal=4&num_scrambled_schematic=4&participantId=DDF9CC347F5D4544A341532EF7995E62&assignmentId=24c5c726-9304-4eee-b970-589ee456f68c&projectId=a6b6d205-fa41-4c5b-a7a5-7fc4b51b0cea","DDF9CC347F5D4544A341532EF7995E62-2025-05-27-17-14-37","","2082","","images/schematic_sequence/flight_scheme/flight_scheme_7.png","1","",""
"","","","","","image-button-response","48","177313","0.0-10.0-1.0-2.6","DDF9CC347F5D4544A341532EF7995E62","DDF9CC347F5D4544A341532EF7995E62","24c5c726-9304-4eee-b970-589ee456f68c","a6b6d205-fa41-4c5b-a7a5-7fc4b51b0cea","{""num_scrambled_semantic"":""8"",""num_scrambled_causal"":""4"",""num_scrambled_schematic"":""4"",""participantId"":""DDF9CC347F5D4544A341532EF7995E62"",""assignmentId"":""24c5c726-9304-4eee-b970-589ee456f68c"",""projectId"":""a6b6d205-fa41-4c5b-a7a5-7fc4b51b0cea""}","https://test12345.live/?num_scrambled_semantic=8&num_scrambled_causal=4&num_scrambled_schematic=4&participantId=DDF9CC347F5D4544A341532EF7995E62&assignmentId=24c5c726-9304-4eee-b970-589ee456f68c&projectId=a6b6d205-fa41-4c5b-a7a5-7fc4b51b0cea","DDF9CC347F5D4544A341532EF7995E62-2025-05-27-17-14-37","","null","","[]","null","",""
"","","","","","image-button-response","49","181836","0.0-10.0-1.0-0.7","DDF9CC347F5D4544A341532EF7995E62","DDF9CC347F5D4544A341532EF7995E62","24c5c726-9304-4eee-b970-589ee456f68c","a6b6d205-fa41-4c5b-a7a5-7fc4b51b0cea","{""num_scrambled_semantic"":""8"",""num_scrambled_causal"":""4"",""num_scrambled_schematic"":""4"",""participantId"":""DDF9CC347F5D4544A341532EF7995E62"",""assignmentId"":""24c5c726-9304-4eee-b970-589ee456f68c"",""projectId"":""a6b6d205-fa41-4c5b-a7a5-7fc4b51b0cea""}","https://test12345.live/?num_scrambled_semantic=8&num_scrambled_causal=4&num_scrambled_schematic=4&participantId=DDF9CC347F5D4544A341532EF7995E62&assignmentId=24c5c726-9304-4eee-b970-589ee456f68c&projectId=a6b6d205-fa41-4c5b-a7a5-7fc4b51b0cea","DDF9CC347F5D4544A341532EF7995E62-2025-05-27-17-14-37","","null","","images/schematic_sequence/flight_scheme/flight_scheme_8.png","null","",""
"","","","","","image-button-response","50","182895","0.0-10.0-1.0-1.7","DDF9CC347F5D4544A341532EF7995E62","DDF9CC347F5D4544A341532EF7995E62","24c5c726-9304-4eee-b970-589ee456f68c","a6b6d205-fa41-4c5b-a7a5-7fc4b51b0cea","{""num_scrambled_semantic"":""8"",""num_scrambled_causal"":""4"",""num_scrambled_schematic"":""4"",""participantId"":""DDF9CC347F5D4544A341532EF7995E62"",""assignmentId"":""24c5c726-9304-4eee-b970-589ee456f68c"",""projectId"":""a6b6d205-fa41-4c5b-a7a5-7fc4b51b0cea""}","https://test12345.live/?num_scrambled_semantic=8&num_scrambled_causal=4&num_scrambled_schematic=4&participantId=DDF9CC347F5D4544A341532EF7995E62&assignmentId=24c5c726-9304-4eee-b970-589ee456f68c&projectId=a6b6d205-fa41-4c5b-a7a5-7fc4b51b0cea","DDF9CC347F5D4544A341532EF7995E62-2025-05-27-17-14-37","","1057","","images/schematic_sequence/flight_scheme/flight_scheme_8.png","1","",""
"","","","","","image-button-response","51","184697","0.0-10.0-1.0-2.7","DDF9CC347F5D4544A341532EF7995E62","DDF9CC347F5D4544A341532EF7995E62","24c5c726-9304-4eee-b970-589ee456f68c","a6b6d205-fa41-4c5b-a7a5-7fc4b51b0cea","{""num_scrambled_semantic"":""8"",""num_scrambled_causal"":""4"",""num_scrambled_schematic"":""4"",""participantId"":""DDF9CC347F5D4544A341532EF7995E62"",""assignmentId"":""24c5c726-9304-4eee-b970-589ee456f68c"",""projectId"":""a6b6d205-fa41-4c5b-a7a5-7fc4b51b0cea""}","https://test12345.live/?num_scrambled_semantic=8&num_scrambled_causal=4&num_scrambled_schematic=4&participantId=DDF9CC347F5D4544A341532EF7995E62&assignmentId=24c5c726-9304-4eee-b970-589ee456f68c&projectId=a6b6d205-fa41-4c5b-a7a5-7fc4b51b0cea","DDF9CC347F5D4544A341532EF7995E62-2025-05-27-17-14-37","","null","","[]","null","",""
"","","","","","image-button-response","52","189214","0.0-10.0-1.0-0.8","DDF9CC347F5D4544A341532EF7995E62","DDF9CC347F5D4544A341532EF7995E62","24c5c726-9304-4eee-b970-589ee456f68c","a6b6d205-fa41-4c5b-a7a5-7fc4b51b0cea","{""num_scrambled_semantic"":""8"",""num_scrambled_causal"":""4"",""num_scrambled_schematic"":""4"",""participantId"":""DDF9CC347F5D4544A341532EF7995E62"",""assignmentId"":""24c5c726-9304-4eee-b970-589ee456f68c"",""projectId"":""a6b6d205-fa41-4c5b-a7a5-7fc4b51b0cea""}","https://test12345.live/?num_scrambled_semantic=8&num_scrambled_causal=4&num_scrambled_schematic=4&participantId=DDF9CC347F5D4544A341532EF7995E62&assignmentId=24c5c726-9304-4eee-b970-589ee456f68c&projectId=a6b6d205-fa41-4c5b-a7a5-7fc4b51b0cea","DDF9CC347F5D4544A341532EF7995E62-2025-05-27-17-14-37","","null","","images/schematic_sequence/flight_scheme/flight_scheme_9.png","null","",""
"","","","","","image-button-response","53","189960","0.0-10.0-1.0-1.8","DDF9CC347F5D4544A341532EF7995E62","DDF9CC347F5D4544A341532EF7995E62","24c5c726-9304-4eee-b970-589ee456f68c","a6b6d205-fa41-4c5b-a7a5-7fc4b51b0cea","{""num_scrambled_semantic"":""8"",""num_scrambled_causal"":""4"",""num_scrambled_schematic"":""4"",""participantId"":""DDF9CC347F5D4544A341532EF7995E62"",""assignmentId"":""24c5c726-9304-4eee-b970-589ee456f68c"",""projectId"":""a6b6d205-fa41-4c5b-a7a5-7fc4b51b0cea""}","https://test12345.live/?num_scrambled_semantic=8&num_scrambled_causal=4&num_scrambled_schematic=4&participantId=DDF9CC347F5D4544A341532EF7995E62&assignmentId=24c5c726-9304-4eee-b970-589ee456f68c&projectId=a6b6d205-fa41-4c5b-a7a5-7fc4b51b0cea","DDF9CC347F5D4544A341532EF7995E62-2025-05-27-17-14-37","","745","","images/schematic_sequence/flight_scheme/flight_scheme_9.png","1","",""
"","","","","","image-button-response","54","191762","0.0-10.0-1.0-2.8","DDF9CC347F5D4544A341532EF7995E62","DDF9CC347F5D4544A341532EF7995E62","24c5c726-9304-4eee-b970-589ee456f68c","a6b6d205-fa41-4c5b-a7a5-7fc4b51b0cea","{""num_scrambled_semantic"":""8"",""num_scrambled_causal"":""4"",""num_scrambled_schematic"":""4"",""participantId"":""DDF9CC347F5D4544A341532EF7995E62"",""assignmentId"":""24c5c726-9304-4eee-b970-589ee456f68c"",""projectId"":""a6b6d205-fa41-4c5b-a7a5-7fc4b51b0cea""}","https://test12345.live/?num_scrambled_semantic=8&num_scrambled_causal=4&num_scrambled_schematic=4&participantId=DDF9CC347F5D4544A341532EF7995E62&assignmentId=24c5c726-9304-4eee-b970-589ee456f68c&projectId=a6b6d205-fa41-4c5b-a7a5-7fc4b51b0cea","DDF9CC347F5D4544A341532EF7995E62-2025-05-27-17-14-37","","null","","[]","null","",""
"","","","","","image-button-response","55","196285","0.0-10.0-1.0-0.9","DDF9CC347F5D4544A341532EF7995E62","DDF9CC347F5D4544A341532EF7995E62","24c5c726-9304-4eee-b970-589ee456f68c","a6b6d205-fa41-4c5b-a7a5-7fc4b51b0cea","{""num_scrambled_semantic"":""8"",""num_scrambled_causal"":""4"",""num_scrambled_schematic"":""4"",""participantId"":""DDF9CC347F5D4544A341532EF7995E62"",""assignmentId"":""24c5c726-9304-4eee-b970-589ee456f68c"",""projectId"":""a6b6d205-fa41-4c5b-a7a5-7fc4b51b0cea""}","https://test12345.live/?num_scrambled_semantic=8&num_scrambled_causal=4&num_scrambled_schematic=4&participantId=DDF9CC347F5D4544A341532EF7995E62&assignmentId=24c5c726-9304-4eee-b970-589ee456f68c&projectId=a6b6d205-fa41-4c5b-a7a5-7fc4b51b0cea","DDF9CC347F5D4544A341532EF7995E62-2025-05-27-17-14-37","","null","","images/schematic_sequence/flight_scheme/flight_scheme_ten.png","null","",""
"","","","","","image-button-response","56","196928","0.0-10.0-1.0-1.9","DDF9CC347F5D4544A341532EF7995E62","DDF9CC347F5D4544A341532EF7995E62","24c5c726-9304-4eee-b970-589ee456f68c","a6b6d205-fa41-4c5b-a7a5-7fc4b51b0cea","{""num_scrambled_semantic"":""8"",""num_scrambled_causal"":""4"",""num_scrambled_schematic"":""4"",""participantId"":""DDF9CC347F5D4544A341532EF7995E62"",""assignmentId"":""24c5c726-9304-4eee-b970-589ee456f68c"",""projectId"":""a6b6d205-fa41-4c5b-a7a5-7fc4b51b0cea""}","https://test12345.live/?num_scrambled_semantic=8&num_scrambled_causal=4&num_scrambled_schematic=4&participantId=DDF9CC347F5D4544A341532EF7995E62&assignmentId=24c5c726-9304-4eee-b970-589ee456f68c&projectId=a6b6d205-fa41-4c5b-a7a5-7fc4b51b0cea","DDF9CC347F5D4544A341532EF7995E62-2025-05-27-17-14-37","","641","","images/schematic_sequence/flight_scheme/flight_scheme_ten.png","0","",""
"","","","","","image-button-response","57","198729","0.0-10.0-1.0-2.9","DDF9CC347F5D4544A341532EF7995E62","DDF9CC347F5D4544A341532EF7995E62","24c5c726-9304-4eee-b970-589ee456f68c","a6b6d205-fa41-4c5b-a7a5-7fc4b51b0cea","{""num_scrambled_semantic"":""8"",""num_scrambled_causal"":""4"",""num_scrambled_schematic"":""4"",""participantId"":""DDF9CC347F5D4544A341532EF7995E62"",""assignmentId"":""24c5c726-9304-4eee-b970-589ee456f68c"",""projectId"":""a6b6d205-fa41-4c5b-a7a5-7fc4b51b0cea""}","https://test12345.live/?num_scrambled_semantic=8&num_scrambled_causal=4&num_scrambled_schematic=4&participantId=DDF9CC347F5D4544A341532EF7995E62&assignmentId=24c5c726-9304-4eee-b970-589ee456f68c&projectId=a6b6d205-fa41-4c5b-a7a5-7fc4b51b0cea","DDF9CC347F5D4544A341532EF7995E62-2025-05-27-17-14-37","","null","","[]","null","",""
"","","","","","html-audio-response","58","227678","0.0-11.0","DDF9CC347F5D4544A341532EF7995E62","DDF9CC347F5D4544A341532EF7995E62","24c5c726-9304-4eee-b970-589ee456f68c","a6b6d205-fa41-4c5b-a7a5-7fc4b51b0cea","{""num_scrambled_semantic"":""8"",""num_scrambled_causal"":""4"",""num_scrambled_schematic"":""4"",""participantId"":""DDF9CC347F5D4544A341532EF7995E62"",""assignmentId"":""24c5c726-9304-4eee-b970-589ee456f68c"",""projectId"":""a6b6d205-fa41-4c5b-a7a5-7fc4b51b0cea""}","https://test12345.live/?num_scrambled_semantic=8&num_scrambled_causal=4&num_scrambled_schematic=4&participantId=DDF9CC347F5D4544A341532EF7995E62&assignmentId=24c5c726-9304-4eee-b970-589ee456f68c&projectId=a6b6d205-fa41-4c5b-a7a5-7fc4b51b0cea","DDF9CC347F5D4544A341532EF7995E62-2025-05-27-17-14-37","","22207","","[""<span style=\""color: red; font-size: 24px\""> NOW RECORDING</span><p>Please say out loud all the images you saw, in the exact order you saw them. Try to recall as many images as you can, but remember: getting the order right is more important than the number of images you recall.</p>""]","","10","flight_scheme"
"","","","","","image-button-response","59","233689","0.0-12.0-0.0","DDF9CC347F5D4544A341532EF7995E62","DDF9CC347F5D4544A341532EF7995E62","24c5c726-9304-4eee-b970-589ee456f68c","a6b6d205-fa41-4c5b-a7a5-7fc4b51b0cea","{""num_scrambled_semantic"":""8"",""num_scrambled_causal"":""4"",""num_scrambled_schematic"":""4"",""participantId"":""DDF9CC347F5D4544A341532EF7995E62"",""assignmentId"":""24c5c726-9304-4eee-b970-589ee456f68c"",""projectId"":""a6b6d205-fa41-4c5b-a7a5-7fc4b51b0cea""}","https://test12345.live/?num_scrambled_semantic=8&num_scrambled_causal=4&num_scrambled_schematic=4&participantId=DDF9CC347F5D4544A341532EF7995E62&assignmentId=24c5c726-9304-4eee-b970-589ee456f68c&projectId=a6b6d205-fa41-4c5b-a7a5-7fc4b51b0cea","DDF9CC347F5D4544A341532EF7995E62-2025-05-27-17-14-37","","null","","images/semantic_sequence/creative_activities_semantic/creative_activities_semantic_0.png","null","",""
"","","","","","image-button-response","60","238211","0.0-12.0-1.0-0.0","DDF9CC347F5D4544A341532EF7995E62","DDF9CC347F5D4544A341532EF7995E62","24c5c726-9304-4eee-b970-589ee456f68c","a6b6d205-fa41-4c5b-a7a5-7fc4b51b0cea","{""num_scrambled_semantic"":""8"",""num_scrambled_causal"":""4"",""num_scrambled_schematic"":""4"",""participantId"":""DDF9CC347F5D4544A341532EF7995E62"",""assignmentId"":""24c5c726-9304-4eee-b970-589ee456f68c"",""projectId"":""a6b6d205-fa41-4c5b-a7a5-7fc4b51b0cea""}","https://test12345.live/?num_scrambled_semantic=8&num_scrambled_causal=4&num_scrambled_schematic=4&participantId=DDF9CC347F5D4544A341532EF7995E62&assignmentId=24c5c726-9304-4eee-b970-589ee456f68c&projectId=a6b6d205-fa41-4c5b-a7a5-7fc4b51b0cea","DDF9CC347F5D4544A341532EF7995E62-2025-05-27-17-14-37","","null","","images/semantic_sequence/creative_activities_semantic/creative_activities_semantic_9.png","null","",""
"","","","","","image-button-response","61","240329","0.0-12.0-1.0-1.0","DDF9CC347F5D4544A341532EF7995E62","DDF9CC347F5D4544A341532EF7995E62","24c5c726-9304-4eee-b970-589ee456f68c","a6b6d205-fa41-4c5b-a7a5-7fc4b51b0cea","{""num_scrambled_semantic"":""8"",""num_scrambled_causal"":""4"",""num_scrambled_schematic"":""4"",""participantId"":""DDF9CC347F5D4544A341532EF7995E62"",""assignmentId"":""24c5c726-9304-4eee-b970-589ee456f68c"",""projectId"":""a6b6d205-fa41-4c5b-a7a5-7fc4b51b0cea""}","https://test12345.live/?num_scrambled_semantic=8&num_scrambled_causal=4&num_scrambled_schematic=4&participantId=DDF9CC347F5D4544A341532EF7995E62&assignmentId=24c5c726-9304-4eee-b970-589ee456f68c&projectId=a6b6d205-fa41-4c5b-a7a5-7fc4b51b0cea","DDF9CC347F5D4544A341532EF7995E62-2025-05-27-17-14-37","","2116","","images/semantic_sequence/creative_activities_semantic/creative_activities_semantic_9.png","0","",""
"","","","","","image-button-response","62","242130","0.0-12.0-1.0-2.0","DDF9CC347F5D4544A341532EF7995E62","DDF9CC347F5D4544A341532EF7995E62","24c5c726-9304-4eee-b970-589ee456f68c","a6b6d205-fa41-4c5b-a7a5-7fc4b51b0cea","{""num_scrambled_semantic"":""8"",""num_scrambled_causal"":""4"",""num_scrambled_schematic"":""4"",""participantId"":""DDF9CC347F5D4544A341532EF7995E62"",""assignmentId"":""24c5c726-9304-4eee-b970-589ee456f68c"",""projectId"":""a6b6d205-fa41-4c5b-a7a5-7fc4b51b0cea""}","https://test12345.live/?num_scrambled_semantic=8&num_scrambled_causal=4&num_scrambled_schematic=4&participantId=DDF9CC347F5D4544A341532EF7995E62&assignmentId=24c5c726-9304-4eee-b970-589ee456f68c&projectId=a6b6d205-fa41-4c5b-a7a5-7fc4b51b0cea","DDF9CC347F5D4544A341532EF7995E62-2025-05-27-17-14-37","","null","","[]","null","",""
"","","","","","image-button-response","63","246658","0.0-12.0-1.0-0.1","DDF9CC347F5D4544A341532EF7995E62","DDF9CC347F5D4544A341532EF7995E62","24c5c726-9304-4eee-b970-589ee456f68c","a6b6d205-fa41-4c5b-a7a5-7fc4b51b0cea","{""num_scrambled_semantic"":""8"",""num_scrambled_causal"":""4"",""num_scrambled_schematic"":""4"",""participantId"":""DDF9CC347F5D4544A341532EF7995E62"",""assignmentId"":""24c5c726-9304-4eee-b970-589ee456f68c"",""projectId"":""a6b6d205-fa41-4c5b-a7a5-7fc4b51b0cea""}","https://test12345.live/?num_scrambled_semantic=8&num_scrambled_causal=4&num_scrambled_schematic=4&participantId=DDF9CC347F5D4544A341532EF7995E62&assignmentId=24c5c726-9304-4eee-b970-589ee456f68c&projectId=a6b6d205-fa41-4c5b-a7a5-7fc4b51b0cea","DDF9CC347F5D4544A341532EF7995E62-2025-05-27-17-14-37","","null","","images/semantic_sequence/creative_activities_semantic/creative_activities_semantic_4.png","null","",""
"","","","","","image-button-response","64","247994","0.0-12.0-1.0-1.1","DDF9CC347F5D4544A341532EF7995E62","DDF9CC347F5D4544A341532EF7995E62","24c5c726-9304-4eee-b970-589ee456f68c","a6b6d205-fa41-4c5b-a7a5-7fc4b51b0cea","{""num_scrambled_semantic"":""8"",""num_scrambled_causal"":""4"",""num_scrambled_schematic"":""4"",""participantId"":""DDF9CC347F5D4544A341532EF7995E62"",""assignmentId"":""24c5c726-9304-4eee-b970-589ee456f68c"",""projectId"":""a6b6d205-fa41-4c5b-a7a5-7fc4b51b0cea""}","https://test12345.live/?num_scrambled_semantic=8&num_scrambled_causal=4&num_scrambled_schematic=4&participantId=DDF9CC347F5D4544A341532EF7995E62&assignmentId=24c5c726-9304-4eee-b970-589ee456f68c&projectId=a6b6d205-fa41-4c5b-a7a5-7fc4b51b0cea","DDF9CC347F5D4544A341532EF7995E62-2025-05-27-17-14-37","","1336","","images/semantic_sequence/creative_activities_semantic/creative_activities_semantic_4.png","0","",""
"","","","","","image-button-response","65","249796","0.0-12.0-1.0-2.1","DDF9CC347F5D4544A341532EF7995E62","DDF9CC347F5D4544A341532EF7995E62","24c5c726-9304-4eee-b970-589ee456f68c","a6b6d205-fa41-4c5b-a7a5-7fc4b51b0cea","{""num_scrambled_semantic"":""8"",""num_scrambled_causal"":""4"",""num_scrambled_schematic"":""4"",""participantId"":""DDF9CC347F5D4544A341532EF7995E62"",""assignmentId"":""24c5c726-9304-4eee-b970-589ee456f68c"",""projectId"":""a6b6d205-fa41-4c5b-a7a5-7fc4b51b0cea""}","https://test12345.live/?num_scrambled_semantic=8&num_scrambled_causal=4&num_scrambled_schematic=4&participantId=DDF9CC347F5D4544A341532EF7995E62&assignmentId=24c5c726-9304-4eee-b970-589ee456f68c&projectId=a6b6d205-fa41-4c5b-a7a5-7fc4b51b0cea","DDF9CC347F5D4544A341532EF7995E62-2025-05-27-17-14-37","","null","","[]","null","",""
"","","","","","image-button-response","66","254330","0.0-12.0-1.0-0.2","DDF9CC347F5D4544A341532EF7995E62","DDF9CC347F5D4544A341532EF7995E62","24c5c726-9304-4eee-b970-589ee456f68c","a6b6d205-fa41-4c5b-a7a5-7fc4b51b0cea","{""num_scrambled_semantic"":""8"",""num_scrambled_causal"":""4"",""num_scrambled_schematic"":""4"",""participantId"":""DDF9CC347F5D4544A341532EF7995E62"",""assignmentId"":""24c5c726-9304-4eee-b970-589ee456f68c"",""projectId"":""a6b6d205-fa41-4c5b-a7a5-7fc4b51b0cea""}","https://test12345.live/?num_scrambled_semantic=8&num_scrambled_causal=4&num_scrambled_schematic=4&participantId=DDF9CC347F5D4544A341532EF7995E62&assignmentId=24c5c726-9304-4eee-b970-589ee456f68c&projectId=a6b6d205-fa41-4c5b-a7a5-7fc4b51b0cea","DDF9CC347F5D4544A341532EF7995E62-2025-05-27-17-14-37","","null","","images/semantic_sequence/creative_activities_semantic/creative_activities_semantic_ten.png","null","",""
"","","","","","image-button-response","67","255529","0.0-12.0-1.0-1.2","DDF9CC347F5D4544A341532EF7995E62","DDF9CC347F5D4544A341532EF7995E62","24c5c726-9304-4eee-b970-589ee456f68c","a6b6d205-fa41-4c5b-a7a5-7fc4b51b0cea","{""num_scrambled_semantic"":""8"",""num_scrambled_causal"":""4"",""num_scrambled_schematic"":""4"",""participantId"":""DDF9CC347F5D4544A341532EF7995E62"",""assignmentId"":""24c5c726-9304-4eee-b970-589ee456f68c"",""projectId"":""a6b6d205-fa41-4c5b-a7a5-7fc4b51b0cea""}","https://test12345.live/?num_scrambled_semantic=8&num_scrambled_causal=4&num_scrambled_schematic=4&participantId=DDF9CC347F5D4544A341532EF7995E62&assignmentId=24c5c726-9304-4eee-b970-589ee456f68c&projectId=a6b6d205-fa41-4c5b-a7a5-7fc4b51b0cea","DDF9CC347F5D4544A341532EF7995E62-2025-05-27-17-14-37","","1199","","images/semantic_sequence/creative_activities_semantic/creative_activities_semantic_ten.png","0","",""
"","","","","","image-button-response","68","257331","0.0-12.0-1.0-2.2","DDF9CC347F5D4544A341532EF7995E62","DDF9CC347F5D4544A341532EF7995E62","24c5c726-9304-4eee-b970-589ee456f68c","a6b6d205-fa41-4c5b-a7a5-7fc4b51b0cea","{""num_scrambled_semantic"":""8"",""num_scrambled_causal"":""4"",""num_scrambled_schematic"":""4"",""participantId"":""DDF9CC347F5D4544A341532EF7995E62"",""assignmentId"":""24c5c726-9304-4eee-b970-589ee456f68c"",""projectId"":""a6b6d205-fa41-4c5b-a7a5-7fc4b51b0cea""}","https://test12345.live/?num_scrambled_semantic=8&num_scrambled_causal=4&num_scrambled_schematic=4&participantId=DDF9CC347F5D4544A341532EF7995E62&assignmentId=24c5c726-9304-4eee-b970-589ee456f68c&projectId=a6b6d205-fa41-4c5b-a7a5-7fc4b51b0cea","DDF9CC347F5D4544A341532EF7995E62-2025-05-27-17-14-37","","null","","[]","null","",""
"","","","","","image-button-response","69","261861","0.0-12.0-1.0-0.3","DDF9CC347F5D4544A341532EF7995E62","DDF9CC347F5D4544A341532EF7995E62","24c5c726-9304-4eee-b970-589ee456f68c","a6b6d205-fa41-4c5b-a7a5-7fc4b51b0cea","{""num_scrambled_semantic"":""8"",""num_scrambled_causal"":""4"",""num_scrambled_schematic"":""4"",""participantId"":""DDF9CC347F5D4544A341532EF7995E62"",""assignmentId"":""24c5c726-9304-4eee-b970-589ee456f68c"",""projectId"":""a6b6d205-fa41-4c5b-a7a5-7fc4b51b0cea""}","https://test12345.live/?num_scrambled_semantic=8&num_scrambled_causal=4&num_scrambled_schematic=4&participantId=DDF9CC347F5D4544A341532EF7995E62&assignmentId=24c5c726-9304-4eee-b970-589ee456f68c&projectId=a6b6d205-fa41-4c5b-a7a5-7fc4b51b0cea","DDF9CC347F5D4544A341532EF7995E62-2025-05-27-17-14-37","","null","","images/semantic_sequence/creative_activities_semantic/creative_activities_semantic_8.png","null","",""
"","","","","","image-button-response","70","262762","0.0-12.0-1.0-1.3","DDF9CC347F5D4544A341532EF7995E62","DDF9CC347F5D4544A341532EF7995E62","24c5c726-9304-4eee-b970-589ee456f68c","a6b6d205-fa41-4c5b-a7a5-7fc4b51b0cea","{""num_scrambled_semantic"":""8"",""num_scrambled_causal"":""4"",""num_scrambled_schematic"":""4"",""participantId"":""DDF9CC347F5D4544A341532EF7995E62"",""assignmentId"":""24c5c726-9304-4eee-b970-589ee456f68c"",""projectId"":""a6b6d205-fa41-4c5b-a7a5-7fc4b51b0cea""}","https://test12345.live/?num_scrambled_semantic=8&num_scrambled_causal=4&num_scrambled_schematic=4&participantId=DDF9CC347F5D4544A341532EF7995E62&assignmentId=24c5c726-9304-4eee-b970-589ee456f68c&projectId=a6b6d205-fa41-4c5b-a7a5-7fc4b51b0cea","DDF9CC347F5D4544A341532EF7995E62-2025-05-27-17-14-37","","899","","images/semantic_sequence/creative_activities_semantic/creative_activities_semantic_8.png","0","",""
"","","","","","image-button-response","71","264563","0.0-12.0-1.0-2.3","DDF9CC347F5D4544A341532EF7995E62","DDF9CC347F5D4544A341532EF7995E62","24c5c726-9304-4eee-b970-589ee456f68c","a6b6d205-fa41-4c5b-a7a5-7fc4b51b0cea","{""num_scrambled_semantic"":""8"",""num_scrambled_causal"":""4"",""num_scrambled_schematic"":""4"",""participantId"":""DDF9CC347F5D4544A341532EF7995E62"",""assignmentId"":""24c5c726-9304-4eee-b970-589ee456f68c"",""projectId"":""a6b6d205-fa41-4c5b-a7a5-7fc4b51b0cea""}","https://test12345.live/?num_scrambled_semantic=8&num_scrambled_causal=4&num_scrambled_schematic=4&participantId=DDF9CC347F5D4544A341532EF7995E62&assignmentId=24c5c726-9304-4eee-b970-589ee456f68c&projectId=a6b6d205-fa41-4c5b-a7a5-7fc4b51b0cea","DDF9CC347F5D4544A341532EF7995E62-2025-05-27-17-14-37","","null","","[]","null","",""
"","","","","","image-button-response","72","269091","0.0-12.0-1.0-0.4","DDF9CC347F5D4544A341532EF7995E62","DDF9CC347F5D4544A341532EF7995E62","24c5c726-9304-4eee-b970-589ee456f68c","a6b6d205-fa41-4c5b-a7a5-7fc4b51b0cea","{""num_scrambled_semantic"":""8"",""num_scrambled_causal"":""4"",""num_scrambled_schematic"":""4"",""participantId"":""DDF9CC347F5D4544A341532EF7995E62"",""assignmentId"":""24c5c726-9304-4eee-b970-589ee456f68c"",""projectId"":""a6b6d205-fa41-4c5b-a7a5-7fc4b51b0cea""}","https://test12345.live/?num_scrambled_semantic=8&num_scrambled_causal=4&num_scrambled_schematic=4&participantId=DDF9CC347F5D4544A341532EF7995E62&assignmentId=24c5c726-9304-4eee-b970-589ee456f68c&projectId=a6b6d205-fa41-4c5b-a7a5-7fc4b51b0cea","DDF9CC347F5D4544A341532EF7995E62-2025-05-27-17-14-37","","null","","images/semantic_sequence/creative_activities_semantic/creative_activities_semantic_6.png","null","",""
"","","","","","image-button-response","73","269779","0.0-12.0-1.0-1.4","DDF9CC347F5D4544A341532EF7995E62","DDF9CC347F5D4544A341532EF7995E62","24c5c726-9304-4eee-b970-589ee456f68c","a6b6d205-fa41-4c5b-a7a5-7fc4b51b0cea","{""num_scrambled_semantic"":""8"",""num_scrambled_causal"":""4"",""num_scrambled_schematic"":""4"",""participantId"":""DDF9CC347F5D4544A341532EF7995E62"",""assignmentId"":""24c5c726-9304-4eee-b970-589ee456f68c"",""projectId"":""a6b6d205-fa41-4c5b-a7a5-7fc4b51b0cea""}","https://test12345.live/?num_scrambled_semantic=8&num_scrambled_causal=4&num_scrambled_schematic=4&participantId=DDF9CC347F5D4544A341532EF7995E62&assignmentId=24c5c726-9304-4eee-b970-589ee456f68c&projectId=a6b6d205-fa41-4c5b-a7a5-7fc4b51b0cea","DDF9CC347F5D4544A341532EF7995E62-2025-05-27-17-14-37","","687","","images/semantic_sequence/creative_activities_semantic/creative_activities_semantic_6.png","0","",""
"","","","","","image-button-response","74","271581","0.0-12.0-1.0-2.4","DDF9CC347F5D4544A341532EF7995E62","DDF9CC347F5D4544A341532EF7995E62","24c5c726-9304-4eee-b970-589ee456f68c","a6b6d205-fa41-4c5b-a7a5-7fc4b51b0cea","{""num_scrambled_semantic"":""8"",""num_scrambled_causal"":""4"",""num_scrambled_schematic"":""4"",""participantId"":""DDF9CC347F5D4544A341532EF7995E62"",""assignmentId"":""24c5c726-9304-4eee-b970-589ee456f68c"",""projectId"":""a6b6d205-fa41-4c5b-a7a5-7fc4b51b0cea""}","https://test12345.live/?num_scrambled_semantic=8&num_scrambled_causal=4&num_scrambled_schematic=4&participantId=DDF9CC347F5D4544A341532EF7995E62&assignmentId=24c5c726-9304-4eee-b970-589ee456f68c&projectId=a6b6d205-fa41-4c5b-a7a5-7fc4b51b0cea","DDF9CC347F5D4544A341532EF7995E62-2025-05-27-17-14-37","","null","","[]","null","",""
"","","","","","image-button-response","75","276108","0.0-12.0-1.0-0.5","DDF9CC347F5D4544A341532EF7995E62","DDF9CC347F5D4544A341532EF7995E62","24c5c726-9304-4eee-b970-589ee456f68c","a6b6d205-fa41-4c5b-a7a5-7fc4b51b0cea","{""num_scrambled_semantic"":""8"",""num_scrambled_causal"":""4"",""num_scrambled_schematic"":""4"",""participantId"":""DDF9CC347F5D4544A341532EF7995E62"",""assignmentId"":""24c5c726-9304-4eee-b970-589ee456f68c"",""projectId"":""a6b6d205-fa41-4c5b-a7a5-7fc4b51b0cea""}","https://test12345.live/?num_scrambled_semantic=8&num_scrambled_causal=4&num_scrambled_schematic=4&participantId=DDF9CC347F5D4544A341532EF7995E62&assignmentId=24c5c726-9304-4eee-b970-589ee456f68c&projectId=a6b6d205-fa41-4c5b-a7a5-7fc4b51b0cea","DDF9CC347F5D4544A341532EF7995E62-2025-05-27-17-14-37","","null","","images/semantic_sequence/creative_activities_semantic/creative_activities_semantic_3.png","null","",""
"","","","","","image-button-response","76","276761","0.0-12.0-1.0-1.5","DDF9CC347F5D4544A341532EF7995E62","DDF9CC347F5D4544A341532EF7995E62","24c5c726-9304-4eee-b970-589ee456f68c","a6b6d205-fa41-4c5b-a7a5-7fc4b51b0cea","{""num_scrambled_semantic"":""8"",""num_scrambled_causal"":""4"",""num_scrambled_schematic"":""4"",""participantId"":""DDF9CC347F5D4544A341532EF7995E62"",""assignmentId"":""24c5c726-9304-4eee-b970-589ee456f68c"",""projectId"":""a6b6d205-fa41-4c5b-a7a5-7fc4b51b0cea""}","https://test12345.live/?num_scrambled_semantic=8&num_scrambled_causal=4&num_scrambled_schematic=4&participantId=DDF9CC347F5D4544A341532EF7995E62&assignmentId=24c5c726-9304-4eee-b970-589ee456f68c&projectId=a6b6d205-fa41-4c5b-a7a5-7fc4b51b0cea","DDF9CC347F5D4544A341532EF7995E62-2025-05-27-17-14-37","","651","","images/semantic_sequence/creative_activities_semantic/creative_activities_semantic_3.png","0","",""
"","","","","","image-button-response","77","278562","0.0-12.0-1.0-2.5","DDF9CC347F5D4544A341532EF7995E62","DDF9CC347F5D4544A341532EF7995E62","24c5c726-9304-4eee-b970-589ee456f68c","a6b6d205-fa41-4c5b-a7a5-7fc4b51b0cea","{""num_scrambled_semantic"":""8"",""num_scrambled_causal"":""4"",""num_scrambled_schematic"":""4"",""participantId"":""DDF9CC347F5D4544A341532EF7995E62"",""assignmentId"":""24c5c726-9304-4eee-b970-589ee456f68c"",""projectId"":""a6b6d205-fa41-4c5b-a7a5-7fc4b51b0cea""}","https://test12345.live/?num_scrambled_semantic=8&num_scrambled_causal=4&num_scrambled_schematic=4&participantId=DDF9CC347F5D4544A341532EF7995E62&assignmentId=24c5c726-9304-4eee-b970-589ee456f68c&projectId=a6b6d205-fa41-4c5b-a7a5-7fc4b51b0cea","DDF9CC347F5D4544A341532EF7995E62-2025-05-27-17-14-37","","null","","[]","null","",""
"","","","","","image-button-response","78","283083","0.0-12.0-1.0-0.6","DDF9CC347F5D4544A341532EF7995E62","DDF9CC347F5D4544A341532EF7995E62","24c5c726-9304-4eee-b970-589ee456f68c","a6b6d205-fa41-4c5b-a7a5-7fc4b51b0cea","{""num_scrambled_semantic"":""8"",""num_scrambled_causal"":""4"",""num_scrambled_schematic"":""4"",""participantId"":""DDF9CC347F5D4544A341532EF7995E62"",""assignmentId"":""24c5c726-9304-4eee-b970-589ee456f68c"",""projectId"":""a6b6d205-fa41-4c5b-a7a5-7fc4b51b0cea""}","https://test12345.live/?num_scrambled_semantic=8&num_scrambled_causal=4&num_scrambled_schematic=4&participantId=DDF9CC347F5D4544A341532EF7995E62&assignmentId=24c5c726-9304-4eee-b970-589ee456f68c&projectId=a6b6d205-fa41-4c5b-a7a5-7fc4b51b0cea","DDF9CC347F5D4544A341532EF7995E62-2025-05-27-17-14-37","","null","","images/semantic_sequence/creative_activities_semantic/creative_activities_semantic_7.png","null","",""
"","","","","","image-button-response","79","283711","0.0-12.0-1.0-1.6","DDF9CC347F5D4544A341532EF7995E62","DDF9CC347F5D4544A341532EF7995E62","24c5c726-9304-4eee-b970-589ee456f68c","a6b6d205-fa41-4c5b-a7a5-7fc4b51b0cea","{""num_scrambled_semantic"":""8"",""num_scrambled_causal"":""4"",""num_scrambled_schematic"":""4"",""participantId"":""DDF9CC347F5D4544A341532EF7995E62"",""assignmentId"":""24c5c726-9304-4eee-b970-589ee456f68c"",""projectId"":""a6b6d205-fa41-4c5b-a7a5-7fc4b51b0cea""}","https://test12345.live/?num_scrambled_semantic=8&num_scrambled_causal=4&num_scrambled_schematic=4&participantId=DDF9CC347F5D4544A341532EF7995E62&assignmentId=24c5c726-9304-4eee-b970-589ee456f68c&projectId=a6b6d205-fa41-4c5b-a7a5-7fc4b51b0cea","DDF9CC347F5D4544A341532EF7995E62-2025-05-27-17-14-37","","626","","images/semantic_sequence/creative_activities_semantic/creative_activities_semantic_7.png","0","",""
"","","","","","image-button-response","80","285512","0.0-12.0-1.0-2.6","DDF9CC347F5D4544A341532EF7995E62","DDF9CC347F5D4544A341532EF7995E62","24c5c726-9304-4eee-b970-589ee456f68c","a6b6d205-fa41-4c5b-a7a5-7fc4b51b0cea","{""num_scrambled_semantic"":""8"",""num_scrambled_causal"":""4"",""num_scrambled_schematic"":""4"",""participantId"":""DDF9CC347F5D4544A341532EF7995E62"",""assignmentId"":""24c5c726-9304-4eee-b970-589ee456f68c"",""projectId"":""a6b6d205-fa41-4c5b-a7a5-7fc4b51b0cea""}","https://test12345.live/?num_scrambled_semantic=8&num_scrambled_causal=4&num_scrambled_schematic=4&participantId=DDF9CC347F5D4544A341532EF7995E62&assignmentId=24c5c726-9304-4eee-b970-589ee456f68c&projectId=a6b6d205-fa41-4c5b-a7a5-7fc4b51b0cea","DDF9CC347F5D4544A341532EF7995E62-2025-05-27-17-14-37","","null","","[]","null","",""
"","","","","","image-button-response","81","290028","0.0-12.0-1.0-0.7","DDF9CC347F5D4544A341532EF7995E62","DDF9CC347F5D4544A341532EF7995E62","24c5c726-9304-4eee-b970-589ee456f68c","a6b6d205-fa41-4c5b-a7a5-7fc4b51b0cea","{""num_scrambled_semantic"":""8"",""num_scrambled_causal"":""4"",""num_scrambled_schematic"":""4"",""participantId"":""DDF9CC347F5D4544A341532EF7995E62"",""assignmentId"":""24c5c726-9304-4eee-b970-589ee456f68c"",""projectId"":""a6b6d205-fa41-4c5b-a7a5-7fc4b51b0cea""}","https://test12345.live/?num_scrambled_semantic=8&num_scrambled_causal=4&num_scrambled_schematic=4&participantId=DDF9CC347F5D4544A341532EF7995E62&assignmentId=24c5c726-9304-4eee-b970-589ee456f68c&projectId=a6b6d205-fa41-4c5b-a7a5-7fc4b51b0cea","DDF9CC347F5D4544A341532EF7995E62-2025-05-27-17-14-37","","null","","images/semantic_sequence/creative_activities_semantic/creative_activities_semantic_5.png","null","",""
"","","","","","image-button-response","82","290644","0.0-12.0-1.0-1.7","DDF9CC347F5D4544A341532EF7995E62","DDF9CC347F5D4544A341532EF7995E62","24c5c726-9304-4eee-b970-589ee456f68c","a6b6d205-fa41-4c5b-a7a5-7fc4b51b0cea","{""num_scrambled_semantic"":""8"",""num_scrambled_causal"":""4"",""num_scrambled_schematic"":""4"",""participantId"":""DDF9CC347F5D4544A341532EF7995E62"",""assignmentId"":""24c5c726-9304-4eee-b970-589ee456f68c"",""projectId"":""a6b6d205-fa41-4c5b-a7a5-7fc4b51b0cea""}","https://test12345.live/?num_scrambled_semantic=8&num_scrambled_causal=4&num_scrambled_schematic=4&participantId=DDF9CC347F5D4544A341532EF7995E62&assignmentId=24c5c726-9304-4eee-b970-589ee456f68c&projectId=a6b6d205-fa41-4c5b-a7a5-7fc4b51b0cea","DDF9CC347F5D4544A341532EF7995E62-2025-05-27-17-14-37","","615","","images/semantic_sequence/creative_activities_semantic/creative_activities_semantic_5.png","0","",""
"","","","","","image-button-response","83","292446","0.0-12.0-1.0-2.7","DDF9CC347F5D4544A341532EF7995E62","DDF9CC347F5D4544A341532EF7995E62","24c5c726-9304-4eee-b970-589ee456f68c","a6b6d205-fa41-4c5b-a7a5-7fc4b51b0cea","{""num_scrambled_semantic"":""8"",""num_scrambled_causal"":""4"",""num_scrambled_schematic"":""4"",""participantId"":""DDF9CC347F5D4544A341532EF7995E62"",""assignmentId"":""24c5c726-9304-4eee-b970-589ee456f68c"",""projectId"":""a6b6d205-fa41-4c5b-a7a5-7fc4b51b0cea""}","https://test12345.live/?num_scrambled_semantic=8&num_scrambled_causal=4&num_scrambled_schematic=4&participantId=DDF9CC347F5D4544A341532EF7995E62&assignmentId=24c5c726-9304-4eee-b970-589ee456f68c&projectId=a6b6d205-fa41-4c5b-a7a5-7fc4b51b0cea","DDF9CC347F5D4544A341532EF7995E62-2025-05-27-17-14-37","","null","","[]","null","",""
"","","","","","image-button-response","84","296969","0.0-12.0-1.0-0.8","DDF9CC347F5D4544A341532EF7995E62","DDF9CC347F5D4544A341532EF7995E62","24c5c726-9304-4eee-b970-589ee456f68c","a6b6d205-fa41-4c5b-a7a5-7fc4b51b0cea","{""num_scrambled_semantic"":""8"",""num_scrambled_causal"":""4"",""num_scrambled_schematic"":""4"",""participantId"":""DDF9CC347F5D4544A341532EF7995E62"",""assignmentId"":""24c5c726-9304-4eee-b970-589ee456f68c"",""projectId"":""a6b6d205-fa41-4c5b-a7a5-7fc4b51b0cea""}","https://test12345.live/?num_scrambled_semantic=8&num_scrambled_causal=4&num_scrambled_schematic=4&participantId=DDF9CC347F5D4544A341532EF7995E62&assignmentId=24c5c726-9304-4eee-b970-589ee456f68c&projectId=a6b6d205-fa41-4c5b-a7a5-7fc4b51b0cea","DDF9CC347F5D4544A341532EF7995E62-2025-05-27-17-14-37","","null","","images/semantic_sequence/creative_activities_semantic/creative_activities_semantic_1.png","null","",""
"","","","","","image-button-response","85","300129","0.0-12.0-1.0-1.8","DDF9CC347F5D4544A341532EF7995E62","DDF9CC347F5D4544A341532EF7995E62","24c5c726-9304-4eee-b970-589ee456f68c","a6b6d205-fa41-4c5b-a7a5-7fc4b51b0cea","{""num_scrambled_semantic"":""8"",""num_scrambled_causal"":""4"",""num_scrambled_schematic"":""4"",""participantId"":""DDF9CC347F5D4544A341532EF7995E62"",""assignmentId"":""24c5c726-9304-4eee-b970-589ee456f68c"",""projectId"":""a6b6d205-fa41-4c5b-a7a5-7fc4b51b0cea""}","https://test12345.live/?num_scrambled_semantic=8&num_scrambled_causal=4&num_scrambled_schematic=4&participantId=DDF9CC347F5D4544A341532EF7995E62&assignmentId=24c5c726-9304-4eee-b970-589ee456f68c&projectId=a6b6d205-fa41-4c5b-a7a5-7fc4b51b0cea","DDF9CC347F5D4544A341532EF7995E62-2025-05-27-17-14-37","","3158","","images/semantic_sequence/creative_activities_semantic/creative_activities_semantic_1.png","0","",""
"","","","","","image-button-response","86","301931","0.0-12.0-1.0-2.8","DDF9CC347F5D4544A341532EF7995E62","DDF9CC347F5D4544A341532EF7995E62","24c5c726-9304-4eee-b970-589ee456f68c","a6b6d205-fa41-4c5b-a7a5-7fc4b51b0cea","{""num_scrambled_semantic"":""8"",""num_scrambled_causal"":""4"",""num_scrambled_schematic"":""4"",""participantId"":""DDF9CC347F5D4544A341532EF7995E62"",""assignmentId"":""24c5c726-9304-4eee-b970-589ee456f68c"",""projectId"":""a6b6d205-fa41-4c5b-a7a5-7fc4b51b0cea""}","https://test12345.live/?num_scrambled_semantic=8&num_scrambled_causal=4&num_scrambled_schematic=4&participantId=DDF9CC347F5D4544A341532EF7995E62&assignmentId=24c5c726-9304-4eee-b970-589ee456f68c&projectId=a6b6d205-fa41-4c5b-a7a5-7fc4b51b0cea","DDF9CC347F5D4544A341532EF7995E62-2025-05-27-17-14-37","","null","","[]","null","",""
"","","","","","image-button-response","87","306460","0.0-12.0-1.0-0.9","DDF9CC347F5D4544A341532EF7995E62","DDF9CC347F5D4544A341532EF7995E62","24c5c726-9304-4eee-b970-589ee456f68c","a6b6d205-fa41-4c5b-a7a5-7fc4b51b0cea","{""num_scrambled_semantic"":""8"",""num_scrambled_causal"":""4"",""num_scrambled_schematic"":""4"",""participantId"":""DDF9CC347F5D4544A341532EF7995E62"",""assignmentId"":""24c5c726-9304-4eee-b970-589ee456f68c"",""projectId"":""a6b6d205-fa41-4c5b-a7a5-7fc4b51b0cea""}","https://test12345.live/?num_scrambled_semantic=8&num_scrambled_causal=4&num_scrambled_schematic=4&participantId=DDF9CC347F5D4544A341532EF7995E62&assignmentId=24c5c726-9304-4eee-b970-589ee456f68c&projectId=a6b6d205-fa41-4c5b-a7a5-7fc4b51b0cea","DDF9CC347F5D4544A341532EF7995E62-2025-05-27-17-14-37","","null","","images/semantic_sequence/creative_activities_semantic/creative_activities_semantic_2.png","null","",""
"","","","","","image-button-response","88","307128","0.0-12.0-1.0-1.9","DDF9CC347F5D4544A341532EF7995E62","DDF9CC347F5D4544A341532EF7995E62","24c5c726-9304-4eee-b970-589ee456f68c","a6b6d205-fa41-4c5b-a7a5-7fc4b51b0cea","{""num_scrambled_semantic"":""8"",""num_scrambled_causal"":""4"",""num_scrambled_schematic"":""4"",""participantId"":""DDF9CC347F5D4544A341532EF7995E62"",""assignmentId"":""24c5c726-9304-4eee-b970-589ee456f68c"",""projectId"":""a6b6d205-fa41-4c5b-a7a5-7fc4b51b0cea""}","https://test12345.live/?num_scrambled_semantic=8&num_scrambled_causal=4&num_scrambled_schematic=4&participantId=DDF9CC347F5D4544A341532EF7995E62&assignmentId=24c5c726-9304-4eee-b970-589ee456f68c&projectId=a6b6d205-fa41-4c5b-a7a5-7fc4b51b0cea","DDF9CC347F5D4544A341532EF7995E62-2025-05-27-17-14-37","","668","","images/semantic_sequence/creative_activities_semantic/creative_activities_semantic_2.png","0","",""
"","","","","","image-button-response","89","308929","0.0-12.0-1.0-2.9","DDF9CC347F5D4544A341532EF7995E62","DDF9CC347F5D4544A341532EF7995E62","24c5c726-9304-4eee-b970-589ee456f68c","a6b6d205-fa41-4c5b-a7a5-7fc4b51b0cea","{""num_scrambled_semantic"":""8"",""num_scrambled_causal"":""4"",""num_scrambled_schematic"":""4"",""participantId"":""DDF9CC347F5D4544A341532EF7995E62"",""assignmentId"":""24c5c726-9304-4eee-b970-589ee456f68c"",""projectId"":""a6b6d205-fa41-4c5b-a7a5-7fc4b51b0cea""}","https://test12345.live/?num_scrambled_semantic=8&num_scrambled_causal=4&num_scrambled_schematic=4&participantId=DDF9CC347F5D4544A341532EF7995E62&assignmentId=24c5c726-9304-4eee-b970-589ee456f68c&projectId=a6b6d205-fa41-4c5b-a7a5-7fc4b51b0cea","DDF9CC347F5D4544A341532EF7995E62-2025-05-27-17-14-37","","null","","[]","null","",""
"","","","","","html-audio-response","90","324878","0.0-13.0","DDF9CC347F5D4544A341532EF7995E62","DDF9CC347F5D4544A341532EF7995E62","24c5c726-9304-4eee-b970-589ee456f68c","a6b6d205-fa41-4c5b-a7a5-7fc4b51b0cea","{""num_scrambled_semantic"":""8"",""num_scrambled_causal"":""4"",""num_scrambled_schematic"":""4"",""participantId"":""DDF9CC347F5D4544A341532EF7995E62"",""assignmentId"":""24c5c726-9304-4eee-b970-589ee456f68c"",""projectId"":""a6b6d205-fa41-4c5b-a7a5-7fc4b51b0cea""}","https://test12345.live/?num_scrambled_semantic=8&num_scrambled_causal=4&num_scrambled_schematic=4&participantId=DDF9CC347F5D4544A341532EF7995E62&assignmentId=24c5c726-9304-4eee-b970-589ee456f68c&projectId=a6b6d205-fa41-4c5b-a7a5-7fc4b51b0cea","DDF9CC347F5D4544A341532EF7995E62-2025-05-27-17-14-37","","11382","","[""<span style=\""color: red; font-size: 24px\""> NOW RECORDING</span><p>Please say out loud all the images you saw, in the exact order you saw them. Try to recall as many images as you can, but remember: getting the order right is more important than the number of images you recall.</p>""]","","1","creative_activities_semantic"
"","","","","","image-button-response","91","330891","0.0-14.0-0.0","DDF9CC347F5D4544A341532EF7995E62","DDF9CC347F5D4544A341532EF7995E62","24c5c726-9304-4eee-b970-589ee456f68c","a6b6d205-fa41-4c5b-a7a5-7fc4b51b0cea","{""num_scrambled_semantic"":""8"",""num_scrambled_causal"":""4"",""num_scrambled_schematic"":""4"",""participantId"":""DDF9CC347F5D4544A341532EF7995E62"",""assignmentId"":""24c5c726-9304-4eee-b970-589ee456f68c"",""projectId"":""a6b6d205-fa41-4c5b-a7a5-7fc4b51b0cea""}","https://test12345.live/?num_scrambled_semantic=8&num_scrambled_causal=4&num_scrambled_schematic=4&participantId=DDF9CC347F5D4544A341532EF7995E62&assignmentId=24c5c726-9304-4eee-b970-589ee456f68c&projectId=a6b6d205-fa41-4c5b-a7a5-7fc4b51b0cea","DDF9CC347F5D4544A341532EF7995E62-2025-05-27-17-14-37","","null","","images/causal_sequence/dog_causal/dog_causal_0.png","null","",""
"","","","","","image-button-response","92","335422","0.0-14.0-1.0-0.0","DDF9CC347F5D4544A341532EF7995E62","DDF9CC347F5D4544A341532EF7995E62","24c5c726-9304-4eee-b970-589ee456f68c","a6b6d205-fa41-4c5b-a7a5-7fc4b51b0cea","{""num_scrambled_semantic"":""8"",""num_scrambled_causal"":""4"",""num_scrambled_schematic"":""4"",""participantId"":""DDF9CC347F5D4544A341532EF7995E62"",""assignmentId"":""24c5c726-9304-4eee-b970-589ee456f68c"",""projectId"":""a6b6d205-fa41-4c5b-a7a5-7fc4b51b0cea""}","https://test12345.live/?num_scrambled_semantic=8&num_scrambled_causal=4&num_scrambled_schematic=4&participantId=DDF9CC347F5D4544A341532EF7995E62&assignmentId=24c5c726-9304-4eee-b970-589ee456f68c&projectId=a6b6d205-fa41-4c5b-a7a5-7fc4b51b0cea","DDF9CC347F5D4544A341532EF7995E62-2025-05-27-17-14-37","","null","","images/causal_sequence/dog_causal/dog_causal_6.png","null","",""
"","","","","","image-button-response","93","337262","0.0-14.0-1.0-1.0","DDF9CC347F5D4544A341532EF7995E62","DDF9CC347F5D4544A341532EF7995E62","24c5c726-9304-4eee-b970-589ee456f68c","a6b6d205-fa41-4c5b-a7a5-7fc4b51b0cea","{""num_scrambled_semantic"":""8"",""num_scrambled_causal"":""4"",""num_scrambled_schematic"":""4"",""participantId"":""DDF9CC347F5D4544A341532EF7995E62"",""assignmentId"":""24c5c726-9304-4eee-b970-589ee456f68c"",""projectId"":""a6b6d205-fa41-4c5b-a7a5-7fc4b51b0cea""}","https://test12345.live/?num_scrambled_semantic=8&num_scrambled_causal=4&num_scrambled_schematic=4&participantId=DDF9CC347F5D4544A341532EF7995E62&assignmentId=24c5c726-9304-4eee-b970-589ee456f68c&projectId=a6b6d205-fa41-4c5b-a7a5-7fc4b51b0cea","DDF9CC347F5D4544A341532EF7995E62-2025-05-27-17-14-37","","1837","","images/causal_sequence/dog_causal/dog_causal_6.png","0","",""
"","","","","","image-button-response","94","339064","0.0-14.0-1.0-2.0","DDF9CC347F5D4544A341532EF7995E62","DDF9CC347F5D4544A341532EF7995E62","24c5c726-9304-4eee-b970-589ee456f68c","a6b6d205-fa41-4c5b-a7a5-7fc4b51b0cea","{""num_scrambled_semantic"":""8"",""num_scrambled_causal"":""4"",""num_scrambled_schematic"":""4"",""participantId"":""DDF9CC347F5D4544A341532EF7995E62"",""assignmentId"":""24c5c726-9304-4eee-b970-589ee456f68c"",""projectId"":""a6b6d205-fa41-4c5b-a7a5-7fc4b51b0cea""}","https://test12345.live/?num_scrambled_semantic=8&num_scrambled_causal=4&num_scrambled_schematic=4&participantId=DDF9CC347F5D4544A341532EF7995E62&assignmentId=24c5c726-9304-4eee-b970-589ee456f68c&projectId=a6b6d205-fa41-4c5b-a7a5-7fc4b51b0cea","DDF9CC347F5D4544A341532EF7995E62-2025-05-27-17-14-37","","null","","[]","null","",""
"","","","","","image-button-response","95","343591","0.0-14.0-1.0-0.1","DDF9CC347F5D4544A341532EF7995E62","DDF9CC347F5D4544A341532EF7995E62","24c5c726-9304-4eee-b970-589ee456f68c","a6b6d205-fa41-4c5b-a7a5-7fc4b51b0cea","{""num_scrambled_semantic"":""8"",""num_scrambled_causal"":""4"",""num_scrambled_schematic"":""4"",""participantId"":""DDF9CC347F5D4544A341532EF7995E62"",""assignmentId"":""24c5c726-9304-4eee-b970-589ee456f68c"",""projectId"":""a6b6d205-fa41-4c5b-a7a5-7fc4b51b0cea""}","https://test12345.live/?num_scrambled_semantic=8&num_scrambled_causal=4&num_scrambled_schematic=4&participantId=DDF9CC347F5D4544A341532EF7995E62&assignmentId=24c5c726-9304-4eee-b970-589ee456f68c&projectId=a6b6d205-fa41-4c5b-a7a5-7fc4b51b0cea","DDF9CC347F5D4544A341532EF7995E62-2025-05-27-17-14-37","","null","","images/causal_sequence/dog_causal/dog_causal_5.png","null","",""
"","","","","","image-button-response","96","344363","0.0-14.0-1.0-1.1","DDF9CC347F5D4544A341532EF7995E62","DDF9CC347F5D4544A341532EF7995E62","24c5c726-9304-4eee-b970-589ee456f68c","a6b6d205-fa41-4c5b-a7a5-7fc4b51b0cea","{""num_scrambled_semantic"":""8"",""num_scrambled_causal"":""4"",""num_scrambled_schematic"":""4"",""participantId"":""DDF9CC347F5D4544A341532EF7995E62"",""assignmentId"":""24c5c726-9304-4eee-b970-589ee456f68c"",""projectId"":""a6b6d205-fa41-4c5b-a7a5-7fc4b51b0cea""}","https://test12345.live/?num_scrambled_semantic=8&num_scrambled_causal=4&num_scrambled_schematic=4&participantId=DDF9CC347F5D4544A341532EF7995E62&assignmentId=24c5c726-9304-4eee-b970-589ee456f68c&projectId=a6b6d205-fa41-4c5b-a7a5-7fc4b51b0cea","DDF9CC347F5D4544A341532EF7995E62-2025-05-27-17-14-37","","770","","images/causal_sequence/dog_causal/dog_causal_5.png","0","",""
"","","","","","image-button-response","97","346164","0.0-14.0-1.0-2.1","DDF9CC347F5D4544A341532EF7995E62","DDF9CC347F5D4544A341532EF7995E62","24c5c726-9304-4eee-b970-589ee456f68c","a6b6d205-fa41-4c5b-a7a5-7fc4b51b0cea","{""num_scrambled_semantic"":""8"",""num_scrambled_causal"":""4"",""num_scrambled_schematic"":""4"",""participantId"":""DDF9CC347F5D4544A341532EF7995E62"",""assignmentId"":""24c5c726-9304-4eee-b970-589ee456f68c"",""projectId"":""a6b6d205-fa41-4c5b-a7a5-7fc4b51b0cea""}","https://test12345.live/?num_scrambled_semantic=8&num_scrambled_causal=4&num_scrambled_schematic=4&participantId=DDF9CC347F5D4544A341532EF7995E62&assignmentId=24c5c726-9304-4eee-b970-589ee456f68c&projectId=a6b6d205-fa41-4c5b-a7a5-7fc4b51b0cea","DDF9CC347F5D4544A341532EF7995E62-2025-05-27-17-14-37","","null","","[]","null","",""
"","","","","","image-button-response","98","350680","0.0-14.0-1.0-0.2","DDF9CC347F5D4544A341532EF7995E62","DDF9CC347F5D4544A341532EF7995E62","24c5c726-9304-4eee-b970-589ee456f68c","a6b6d205-fa41-4c5b-a7a5-7fc4b51b0cea","{""num_scrambled_semantic"":""8"",""num_scrambled_causal"":""4"",""num_scrambled_schematic"":""4"",""participantId"":""DDF9CC347F5D4544A341532EF7995E62"",""assignmentId"":""24c5c726-9304-4eee-b970-589ee456f68c"",""projectId"":""a6b6d205-fa41-4c5b-a7a5-7fc4b51b0cea""}","https://test12345.live/?num_scrambled_semantic=8&num_scrambled_causal=4&num_scrambled_schematic=4&participantId=DDF9CC347F5D4544A341532EF7995E62&assignmentId=24c5c726-9304-4eee-b970-589ee456f68c&projectId=a6b6d205-fa41-4c5b-a7a5-7fc4b51b0cea","DDF9CC347F5D4544A341532EF7995E62-2025-05-27-17-14-37","","null","","images/causal_sequence/dog_causal/dog_causal_1.png","null","",""
"","","","","","image-button-response","99","351278","0.0-14.0-1.0-1.2","DDF9CC347F5D4544A341532EF7995E62","DDF9CC347F5D4544A341532EF7995E62","24c5c726-9304-4eee-b970-589ee456f68c","a6b6d205-fa41-4c5b-a7a5-7fc4b51b0cea","{""num_scrambled_semantic"":""8"",""num_scrambled_causal"":""4"",""num_scrambled_schematic"":""4"",""participantId"":""DDF9CC347F5D4544A341532EF7995E62"",""assignmentId"":""24c5c726-9304-4eee-b970-589ee456f68c"",""projectId"":""a6b6d205-fa41-4c5b-a7a5-7fc4b51b0cea""}","https://test12345.live/?num_scrambled_semantic=8&num_scrambled_causal=4&num_scrambled_schematic=4&participantId=DDF9CC347F5D4544A341532EF7995E62&assignmentId=24c5c726-9304-4eee-b970-589ee456f68c&projectId=a6b6d205-fa41-4c5b-a7a5-7fc4b51b0cea","DDF9CC347F5D4544A341532EF7995E62-2025-05-27-17-14-37","","597","","images/causal_sequence/dog_causal/dog_causal_1.png","0","",""
"","","","","","image-button-response","100","353080","0.0-14.0-1.0-2.2","DDF9CC347F5D4544A341532EF7995E62","DDF9CC347F5D4544A341532EF7995E62","24c5c726-9304-4eee-b970-589ee456f68c","a6b6d205-fa41-4c5b-a7a5-7fc4b51b0cea","{""num_scrambled_semantic"":""8"",""num_scrambled_causal"":""4"",""num_scrambled_schematic"":""4"",""participantId"":""DDF9CC347F5D4544A341532EF7995E62"",""assignmentId"":""24c5c726-9304-4eee-b970-589ee456f68c"",""projectId"":""a6b6d205-fa41-4c5b-a7a5-7fc4b51b0cea""}","https://test12345.live/?num_scrambled_semantic=8&num_scrambled_causal=4&num_scrambled_schematic=4&participantId=DDF9CC347F5D4544A341532EF7995E62&assignmentId=24c5c726-9304-4eee-b970-589ee456f68c&projectId=a6b6d205-fa41-4c5b-a7a5-7fc4b51b0cea","DDF9CC347F5D4544A341532EF7995E62-2025-05-27-17-14-37","","null","","[]","null","",""
"","","","","","image-button-response","101","357609","0.0-14.0-1.0-0.3","DDF9CC347F5D4544A341532EF7995E62","DDF9CC347F5D4544A341532EF7995E62","24c5c726-9304-4eee-b970-589ee456f68c","a6b6d205-fa41-4c5b-a7a5-7fc4b51b0cea","{""num_scrambled_semantic"":""8"",""num_scrambled_causal"":""4"",""num_scrambled_schematic"":""4"",""participantId"":""DDF9CC347F5D4544A341532EF7995E62"",""assignmentId"":""24c5c726-9304-4eee-b970-589ee456f68c"",""projectId"":""a6b6d205-fa41-4c5b-a7a5-7fc4b51b0cea""}","https://test12345.live/?num_scrambled_semantic=8&num_scrambled_causal=4&num_scrambled_schematic=4&participantId=DDF9CC347F5D4544A341532EF7995E62&assignmentId=24c5c726-9304-4eee-b970-589ee456f68c&projectId=a6b6d205-fa41-4c5b-a7a5-7fc4b51b0cea","DDF9CC347F5D4544A341532EF7995E62-2025-05-27-17-14-37","","null","","images/causal_sequence/dog_causal/dog_causal_4.png","null","",""
"","","","","","image-button-response","102","359346","0.0-14.0-1.0-1.3","DDF9CC347F5D4544A341532EF7995E62","DDF9CC347F5D4544A341532EF7995E62","24c5c726-9304-4eee-b970-589ee456f68c","a6b6d205-fa41-4c5b-a7a5-7fc4b51b0cea","{""num_scrambled_semantic"":""8"",""num_scrambled_causal"":""4"",""num_scrambled_schematic"":""4"",""participantId"":""DDF9CC347F5D4544A341532EF7995E62"",""assignmentId"":""24c5c726-9304-4eee-b970-589ee456f68c"",""projectId"":""a6b6d205-fa41-4c5b-a7a5-7fc4b51b0cea""}","https://test12345.live/?num_scrambled_semantic=8&num_scrambled_causal=4&num_scrambled_schematic=4&participantId=DDF9CC347F5D4544A341532EF7995E62&assignmentId=24c5c726-9304-4eee-b970-589ee456f68c&projectId=a6b6d205-fa41-4c5b-a7a5-7fc4b51b0cea","DDF9CC347F5D4544A341532EF7995E62-2025-05-27-17-14-37","","1735","","images/causal_sequence/dog_causal/dog_causal_4.png","0","",""
"","","","","","image-button-response","103","361146","0.0-14.0-1.0-2.3","DDF9CC347F5D4544A341532EF7995E62","DDF9CC347F5D4544A341532EF7995E62","24c5c726-9304-4eee-b970-589ee456f68c","a6b6d205-fa41-4c5b-a7a5-7fc4b51b0cea","{""num_scrambled_semantic"":""8"",""num_scrambled_causal"":""4"",""num_scrambled_schematic"":""4"",""participantId"":""DDF9CC347F5D4544A341532EF7995E62"",""assignmentId"":""24c5c726-9304-4eee-b970-589ee456f68c"",""projectId"":""a6b6d205-fa41-4c5b-a7a5-7fc4b51b0cea""}","https://test12345.live/?num_scrambled_semantic=8&num_scrambled_causal=4&num_scrambled_schematic=4&participantId=DDF9CC347F5D4544A341532EF7995E62&assignmentId=24c5c726-9304-4eee-b970-589ee456f68c&projectId=a6b6d205-fa41-4c5b-a7a5-7fc4b51b0cea","DDF9CC347F5D4544A341532EF7995E62-2025-05-27-17-14-37","","null","","[]","null","",""
"","","","","","image-button-response","104","365663","0.0-14.0-1.0-0.4","DDF9CC347F5D4544A341532EF7995E62","DDF9CC347F5D4544A341532EF7995E62","24c5c726-9304-4eee-b970-589ee456f68c","a6b6d205-fa41-4c5b-a7a5-7fc4b51b0cea","{""num_scrambled_semantic"":""8"",""num_scrambled_causal"":""4"",""num_scrambled_schematic"":""4"",""participantId"":""DDF9CC347F5D4544A341532EF7995E62"",""assignmentId"":""24c5c726-9304-4eee-b970-589ee456f68c"",""projectId"":""a6b6d205-fa41-4c5b-a7a5-7fc4b51b0cea""}","https://test12345.live/?num_scrambled_semantic=8&num_scrambled_causal=4&num_scrambled_schematic=4&participantId=DDF9CC347F5D4544A341532EF7995E62&assignmentId=24c5c726-9304-4eee-b970-589ee456f68c&projectId=a6b6d205-fa41-4c5b-a7a5-7fc4b51b0cea","DDF9CC347F5D4544A341532EF7995E62-2025-05-27-17-14-37","","null","","images/causal_sequence/dog_causal/dog_causal_3.png","null","",""
"","","","","","image-button-response","105","366398","0.0-14.0-1.0-1.4","DDF9CC347F5D4544A341532EF7995E62","DDF9CC347F5D4544A341532EF7995E62","24c5c726-9304-4eee-b970-589ee456f68c","a6b6d205-fa41-4c5b-a7a5-7fc4b51b0cea","{""num_scrambled_semantic"":""8"",""num_scrambled_causal"":""4"",""num_scrambled_schematic"":""4"",""participantId"":""DDF9CC347F5D4544A341532EF7995E62"",""assignmentId"":""24c5c726-9304-4eee-b970-589ee456f68c"",""projectId"":""a6b6d205-fa41-4c5b-a7a5-7fc4b51b0cea""}","https://test12345.live/?num_scrambled_semantic=8&num_scrambled_causal=4&num_scrambled_schematic=4&participantId=DDF9CC347F5D4544A341532EF7995E62&assignmentId=24c5c726-9304-4eee-b970-589ee456f68c&projectId=a6b6d205-fa41-4c5b-a7a5-7fc4b51b0cea","DDF9CC347F5D4544A341532EF7995E62-2025-05-27-17-14-37","","734","","images/causal_sequence/dog_causal/dog_causal_3.png","0","",""
"","","","","","image-button-response","106","368200","0.0-14.0-1.0-2.4","DDF9CC347F5D4544A341532EF7995E62","DDF9CC347F5D4544A341532EF7995E62","24c5c726-9304-4eee-b970-589ee456f68c","a6b6d205-fa41-4c5b-a7a5-7fc4b51b0cea","{""num_scrambled_semantic"":""8"",""num_scrambled_causal"":""4"",""num_scrambled_schematic"":""4"",""participantId"":""DDF9CC347F5D4544A341532EF7995E62"",""assignmentId"":""24c5c726-9304-4eee-b970-589ee456f68c"",""projectId"":""a6b6d205-fa41-4c5b-a7a5-7fc4b51b0cea""}","https://test12345.live/?num_scrambled_semantic=8&num_scrambled_causal=4&num_scrambled_schematic=4&participantId=DDF9CC347F5D4544A341532EF7995E62&assignmentId=24c5c726-9304-4eee-b970-589ee456f68c&projectId=a6b6d205-fa41-4c5b-a7a5-7fc4b51b0cea","DDF9CC347F5D4544A341532EF7995E62-2025-05-27-17-14-37","","null","","[]","null","",""
"","","","","","image-button-response","107","372734","0.0-14.0-1.0-0.5","DDF9CC347F5D4544A341532EF7995E62","DDF9CC347F5D4544A341532EF7995E62","24c5c726-9304-4eee-b970-589ee456f68c","a6b6d205-fa41-4c5b-a7a5-7fc4b51b0cea","{""num_scrambled_semantic"":""8"",""num_scrambled_causal"":""4"",""num_scrambled_schematic"":""4"",""participantId"":""DDF9CC347F5D4544A341532EF7995E62"",""assignmentId"":""24c5c726-9304-4eee-b970-589ee456f68c"",""projectId"":""a6b6d205-fa41-4c5b-a7a5-7fc4b51b0cea""}","https://test12345.live/?num_scrambled_semantic=8&num_scrambled_causal=4&num_scrambled_schematic=4&participantId=DDF9CC347F5D4544A341532EF7995E62&assignmentId=24c5c726-9304-4eee-b970-589ee456f68c&projectId=a6b6d205-fa41-4c5b-a7a5-7fc4b51b0cea","DDF9CC347F5D4544A341532EF7995E62-2025-05-27-17-14-37","","null","","images/causal_sequence/dog_causal/dog_causal_8.png","null","",""
"","","","","","image-button-response","108","373362","0.0-14.0-1.0-1.5","DDF9CC347F5D4544A341532EF7995E62","DDF9CC347F5D4544A341532EF7995E62","24c5c726-9304-4eee-b970-589ee456f68c","a6b6d205-fa41-4c5b-a7a5-7fc4b51b0cea","{""num_scrambled_semantic"":""8"",""num_scrambled_causal"":""4"",""num_scrambled_schematic"":""4"",""participantId"":""DDF9CC347F5D4544A341532EF7995E62"",""assignmentId"":""24c5c726-9304-4eee-b970-589ee456f68c"",""projectId"":""a6b6d205-fa41-4c5b-a7a5-7fc4b51b0cea""}","https://test12345.live/?num_scrambled_semantic=8&num_scrambled_causal=4&num_scrambled_schematic=4&participantId=DDF9CC347F5D4544A341532EF7995E62&assignmentId=24c5c726-9304-4eee-b970-589ee456f68c&projectId=a6b6d205-fa41-4c5b-a7a5-7fc4b51b0cea","DDF9CC347F5D4544A341532EF7995E62-2025-05-27-17-14-37","","601","","images/causal_sequence/dog_causal/dog_causal_8.png","0","",""
"","","","","","image-button-response","109","375163","0.0-14.0-1.0-2.5","DDF9CC347F5D4544A341532EF7995E62","DDF9CC347F5D4544A341532EF7995E62","24c5c726-9304-4eee-b970-589ee456f68c","a6b6d205-fa41-4c5b-a7a5-7fc4b51b0cea","{""num_scrambled_semantic"":""8"",""num_scrambled_causal"":""4"",""num_scrambled_schematic"":""4"",""participantId"":""DDF9CC347F5D4544A341532EF7995E62"",""assignmentId"":""24c5c726-9304-4eee-b970-589ee456f68c"",""projectId"":""a6b6d205-fa41-4c5b-a7a5-7fc4b51b0cea""}","https://test12345.live/?num_scrambled_semantic=8&num_scrambled_causal=4&num_scrambled_schematic=4&participantId=DDF9CC347F5D4544A341532EF7995E62&assignmentId=24c5c726-9304-4eee-b970-589ee456f68c&projectId=a6b6d205-fa41-4c5b-a7a5-7fc4b51b0cea","DDF9CC347F5D4544A341532EF7995E62-2025-05-27-17-14-37","","null","","[]","null","",""
"","","","","","image-button-response","110","379695","0.0-14.0-1.0-0.6","DDF9CC347F5D4544A341532EF7995E62","DDF9CC347F5D4544A341532EF7995E62","24c5c726-9304-4eee-b970-589ee456f68c","a6b6d205-fa41-4c5b-a7a5-7fc4b51b0cea","{""num_scrambled_semantic"":""8"",""num_scrambled_causal"":""4"",""num_scrambled_schematic"":""4"",""participantId"":""DDF9CC347F5D4544A341532EF7995E62"",""assignmentId"":""24c5c726-9304-4eee-b970-589ee456f68c"",""projectId"":""a6b6d205-fa41-4c5b-a7a5-7fc4b51b0cea""}","https://test12345.live/?num_scrambled_semantic=8&num_scrambled_causal=4&num_scrambled_schematic=4&participantId=DDF9CC347F5D4544A341532EF7995E62&assignmentId=24c5c726-9304-4eee-b970-589ee456f68c&projectId=a6b6d205-fa41-4c5b-a7a5-7fc4b51b0cea","DDF9CC347F5D4544A341532EF7995E62-2025-05-27-17-14-37","","null","","images/causal_sequence/dog_causal/dog_causal_7.png","null","",""
"","","","","","image-button-response","111","380398","0.0-14.0-1.0-1.6","DDF9CC347F5D4544A341532EF7995E62","DDF9CC347F5D4544A341532EF7995E62","24c5c726-9304-4eee-b970-589ee456f68c","a6b6d205-fa41-4c5b-a7a5-7fc4b51b0cea","{""num_scrambled_semantic"":""8"",""num_scrambled_causal"":""4"",""num_scrambled_schematic"":""4"",""participantId"":""DDF9CC347F5D4544A341532EF7995E62"",""assignmentId"":""24c5c726-9304-4eee-b970-589ee456f68c"",""projectId"":""a6b6d205-fa41-4c5b-a7a5-7fc4b51b0cea""}","https://test12345.live/?num_scrambled_semantic=8&num_scrambled_causal=4&num_scrambled_schematic=4&participantId=DDF9CC347F5D4544A341532EF7995E62&assignmentId=24c5c726-9304-4eee-b970-589ee456f68c&projectId=a6b6d205-fa41-4c5b-a7a5-7fc4b51b0cea","DDF9CC347F5D4544A341532EF7995E62-2025-05-27-17-14-37","","701","","images/causal_sequence/dog_causal/dog_causal_7.png","0","",""
"","","","","","image-button-response","112","382199","0.0-14.0-1.0-2.6","DDF9CC347F5D4544A341532EF7995E62","DDF9CC347F5D4544A341532EF7995E62","24c5c726-9304-4eee-b970-589ee456f68c","a6b6d205-fa41-4c5b-a7a5-7fc4b51b0cea","{""num_scrambled_semantic"":""8"",""num_scrambled_causal"":""4"",""num_scrambled_schematic"":""4"",""participantId"":""DDF9CC347F5D4544A341532EF7995E62"",""assignmentId"":""24c5c726-9304-4eee-b970-589ee456f68c"",""projectId"":""a6b6d205-fa41-4c5b-a7a5-7fc4b51b0cea""}","https://test12345.live/?num_scrambled_semantic=8&num_scrambled_causal=4&num_scrambled_schematic=4&participantId=DDF9CC347F5D4544A341532EF7995E62&assignmentId=24c5c726-9304-4eee-b970-589ee456f68c&projectId=a6b6d205-fa41-4c5b-a7a5-7fc4b51b0cea","DDF9CC347F5D4544A341532EF7995E62-2025-05-27-17-14-37","","null","","[]","null","",""
"","","","","","image-button-response","113","386725","0.0-14.0-1.0-0.7","DDF9CC347F5D4544A341532EF7995E62","DDF9CC347F5D4544A341532EF7995E62","24c5c726-9304-4eee-b970-589ee456f68c","a6b6d205-fa41-4c5b-a7a5-7fc4b51b0cea","{""num_scrambled_semantic"":""8"",""num_scrambled_causal"":""4"",""num_scrambled_schematic"":""4"",""participantId"":""DDF9CC347F5D4544A341532EF7995E62"",""assignmentId"":""24c5c726-9304-4eee-b970-589ee456f68c"",""projectId"":""a6b6d205-fa41-4c5b-a7a5-7fc4b51b0cea""}","https://test12345.live/?num_scrambled_semantic=8&num_scrambled_causal=4&num_scrambled_schematic=4&participantId=DDF9CC347F5D4544A341532EF7995E62&assignmentId=24c5c726-9304-4eee-b970-589ee456f68c&projectId=a6b6d205-fa41-4c5b-a7a5-7fc4b51b0cea","DDF9CC347F5D4544A341532EF7995E62-2025-05-27-17-14-37","","null","","images/causal_sequence/dog_causal/dog_causal_2.png","null","",""
"","","","","","image-button-response","114","387312","0.0-14.0-1.0-1.7","DDF9CC347F5D4544A341532EF7995E62","DDF9CC347F5D4544A341532EF7995E62","24c5c726-9304-4eee-b970-589ee456f68c","a6b6d205-fa41-4c5b-a7a5-7fc4b51b0cea","{""num_scrambled_semantic"":""8"",""num_scrambled_causal"":""4"",""num_scrambled_schematic"":""4"",""participantId"":""DDF9CC347F5D4544A341532EF7995E62"",""assignmentId"":""24c5c726-9304-4eee-b970-589ee456f68c"",""projectId"":""a6b6d205-fa41-4c5b-a7a5-7fc4b51b0cea""}","https://test12345.live/?num_scrambled_semantic=8&num_scrambled_causal=4&num_scrambled_schematic=4&participantId=DDF9CC347F5D4544A341532EF7995E62&assignmentId=24c5c726-9304-4eee-b970-589ee456f68c&projectId=a6b6d205-fa41-4c5b-a7a5-7fc4b51b0cea","DDF9CC347F5D4544A341532EF7995E62-2025-05-27-17-14-37","","585","","images/causal_sequence/dog_causal/dog_causal_2.png","0","",""
