"success","timeout","failed_images","failed_audio","failed_video","trial_type","trial_index","time_elapsed","internal_node_id","subject","subject_id","study_id","session_id","urlvar","current_url","audio_id","view_history","rt","device_id","stimulus","response","estimated_stimulus_onset","seq_name"
"true","false","[]","[]","[]","preload","0","2917","0.0-0.0","DE8F40AB247A4F45A7D3661EA8139165","DE8F40AB247A4F45A7D3661EA8139165","eadd7b61-ebe1-4ef5-8064-47812133566e","a9f3d40c-5730-405c-b25e-1034c4c56f3f","{""num_scrambled_semantic"":""8"",""num_scrambled_causal"":""4"",""num_scrambled_schematic"":""4"",""participantId"":""DE8F40AB247A4F45A7D3661EA8139165"",""assignmentId"":""eadd7b61-ebe1-4ef5-8064-47812133566e"",""projectId"":""a9f3d40c-5730-405c-b25e-1034c4c56f3f""}","https://test12345.live/?num_scrambled_semantic=8&num_scrambled_causal=4&num_scrambled_schematic=4&participantId=DE8F40AB247A4F45A7D3661EA8139165&assignmentId=eadd7b61-ebe1-4ef5-8064-47812133566e&projectId=a9f3d40c-5730-405c-b25e-1034c4c56f3f","DE8F40AB247A4F45A7D3661EA8139165-2025-08-07-19-17-48","","","","","","",""
"","","","","","instructions","1","102760","0.0-1.0","DE8F40AB247A4F45A7D3661EA8139165","DE8F40AB247A4F45A7D3661EA8139165","eadd7b61-ebe1-4ef5-8064-47812133566e","a9f3d40c-5730-405c-b25e-1034c4c56f3f","{""num_scrambled_semantic"":""8"",""num_scrambled_causal"":""4"",""num_scrambled_schematic"":""4"",""participantId"":""DE8F40AB247A4F45A7D3661EA8139165"",""assignmentId"":""eadd7b61-ebe1-4ef5-8064-47812133566e"",""projectId"":""a9f3d40c-5730-405c-b25e-1034c4c56f3f""}","https://test12345.live/?num_scrambled_semantic=8&num_scrambled_causal=4&num_scrambled_schematic=4&participantId=DE8F40AB247A4F45A7D3661EA8139165&assignmentId=eadd7b61-ebe1-4ef5-8064-47812133566e&projectId=a9f3d40c-5730-405c-b25e-1034c4c56f3f","DE8F40AB247A4F45A7D3661EA8139165-2025-08-07-19-17-48","[{""page_index"":0,""viewing_time"":99842}]","99842","","","","",""
"","","","","","instructions","2","172120","0.0-2.0","DE8F40AB247A4F45A7D3661EA8139165","DE8F40AB247A4F45A7D3661EA8139165","eadd7b61-ebe1-4ef5-8064-47812133566e","a9f3d40c-5730-405c-b25e-1034c4c56f3f","{""num_scrambled_semantic"":""8"",""num_scrambled_causal"":""4"",""num_scrambled_schematic"":""4"",""participantId"":""DE8F40AB247A4F45A7D3661EA8139165"",""assignmentId"":""eadd7b61-ebe1-4ef5-8064-47812133566e"",""projectId"":""a9f3d40c-5730-405c-b25e-1034c4c56f3f""}","https://test12345.live/?num_scrambled_semantic=8&num_scrambled_causal=4&num_scrambled_schematic=4&participantId=DE8F40AB247A4F45A7D3661EA8139165&assignmentId=eadd7b61-ebe1-4ef5-8064-47812133566e&projectId=a9f3d40c-5730-405c-b25e-1034c4c56f3f","DE8F40AB247A4F45A7D3661EA8139165-2025-08-07-19-17-48","[{""page_index"":0,""viewing_time"":69360}]","69360","","","","",""
"true","","","","","fullscreen","3","290705","0.0-3.0","DE8F40AB247A4F45A7D3661EA8139165","DE8F40AB247A4F45A7D3661EA8139165","eadd7b61-ebe1-4ef5-8064-47812133566e","a9f3d40c-5730-405c-b25e-1034c4c56f3f","{""num_scrambled_semantic"":""8"",""num_scrambled_causal"":""4"",""num_scrambled_schematic"":""4"",""participantId"":""DE8F40AB247A4F45A7D3661EA8139165"",""assignmentId"":""eadd7b61-ebe1-4ef5-8064-47812133566e"",""projectId"":""a9f3d40c-5730-405c-b25e-1034c4c56f3f""}","https://test12345.live/?num_scrambled_semantic=8&num_scrambled_causal=4&num_scrambled_schematic=4&participantId=DE8F40AB247A4F45A7D3661EA8139165&assignmentId=eadd7b61-ebe1-4ef5-8064-47812133566e&projectId=a9f3d40c-5730-405c-b25e-1034c4c56f3f","DE8F40AB247A4F45A7D3661EA8139165-2025-08-07-19-17-48","","117581","","","","",""
"","","","","","initialize-microphone","4","294085","0.0-4.0-0.0","DE8F40AB247A4F45A7D3661EA8139165","DE8F40AB247A4F45A7D3661EA8139165","eadd7b61-ebe1-4ef5-8064-47812133566e","a9f3d40c-5730-405c-b25e-1034c4c56f3f","{""num_scrambled_semantic"":""8"",""num_scrambled_causal"":""4"",""num_scrambled_schematic"":""4"",""participantId"":""DE8F40AB247A4F45A7D3661EA8139165"",""assignmentId"":""eadd7b61-ebe1-4ef5-8064-47812133566e"",""projectId"":""a9f3d40c-5730-405c-b25e-1034c4c56f3f""}","https://test12345.live/?num_scrambled_semantic=8&num_scrambled_causal=4&num_scrambled_schematic=4&participantId=DE8F40AB247A4F45A7D3661EA8139165&assignmentId=eadd7b61-ebe1-4ef5-8064-47812133566e&projectId=a9f3d40c-5730-405c-b25e-1034c4c56f3f","DE8F40AB247A4F45A7D3661EA8139165-2025-08-07-19-17-48","","","79f2069efde80b9a0eb4e3591e7cc8d1258d5e3e16830b5cd624c72b1d0c537a","","","",""
"","","","","","html-audio-response","5","302129","0.0-4.0-1.0","DE8F40AB247A4F45A7D3661EA8139165","DE8F40AB247A4F45A7D3661EA8139165","eadd7b61-ebe1-4ef5-8064-47812133566e","a9f3d40c-5730-405c-b25e-1034c4c56f3f","{""num_scrambled_semantic"":""8"",""num_scrambled_causal"":""4"",""num_scrambled_schematic"":""4"",""participantId"":""DE8F40AB247A4F45A7D3661EA8139165"",""assignmentId"":""eadd7b61-ebe1-4ef5-8064-47812133566e"",""projectId"":""a9f3d40c-5730-405c-b25e-1034c4c56f3f""}","https://test12345.live/?num_scrambled_semantic=8&num_scrambled_causal=4&num_scrambled_schematic=4&participantId=DE8F40AB247A4F45A7D3661EA8139165&assignmentId=eadd7b61-ebe1-4ef5-8064-47812133566e&projectId=a9f3d40c-5730-405c-b25e-1034c4c56f3f","DE8F40AB247A4F45A7D3661EA8139165-2025-08-07-19-17-48","","3207","","<span style=""color: red; font-size: 24px""> NOW RECORDING</span>
        <p>Please test Microphone</p>","","1",""
"","","","","","html-button-response","6","303137","0.0-4.0-2.0","DE8F40AB247A4F45A7D3661EA8139165","DE8F40AB247A4F45A7D3661EA8139165","eadd7b61-ebe1-4ef5-8064-47812133566e","a9f3d40c-5730-405c-b25e-1034c4c56f3f","{""num_scrambled_semantic"":""8"",""num_scrambled_causal"":""4"",""num_scrambled_schematic"":""4"",""participantId"":""DE8F40AB247A4F45A7D3661EA8139165"",""assignmentId"":""eadd7b61-ebe1-4ef5-8064-47812133566e"",""projectId"":""a9f3d40c-5730-405c-b25e-1034c4c56f3f""}","https://test12345.live/?num_scrambled_semantic=8&num_scrambled_causal=4&num_scrambled_schematic=4&participantId=DE8F40AB247A4F45A7D3661EA8139165&assignmentId=eadd7b61-ebe1-4ef5-8064-47812133566e&projectId=a9f3d40c-5730-405c-b25e-1034c4c56f3f","DE8F40AB247A4F45A7D3661EA8139165-2025-08-07-19-17-48","","1006","","<p style=""font-size:48px; color:red;"">Is Microphone OK?</p>","1","",""
"","","","","","instructions","7","309640","0.0-5.0","DE8F40AB247A4F45A7D3661EA8139165","DE8F40AB247A4F45A7D3661EA8139165","eadd7b61-ebe1-4ef5-8064-47812133566e","a9f3d40c-5730-405c-b25e-1034c4c56f3f","{""num_scrambled_semantic"":""8"",""num_scrambled_causal"":""4"",""num_scrambled_schematic"":""4"",""participantId"":""DE8F40AB247A4F45A7D3661EA8139165"",""assignmentId"":""eadd7b61-ebe1-4ef5-8064-47812133566e"",""projectId"":""a9f3d40c-5730-405c-b25e-1034c4c56f3f""}","https://test12345.live/?num_scrambled_semantic=8&num_scrambled_causal=4&num_scrambled_schematic=4&participantId=DE8F40AB247A4F45A7D3661EA8139165&assignmentId=eadd7b61-ebe1-4ef5-8064-47812133566e&projectId=a9f3d40c-5730-405c-b25e-1034c4c56f3f","DE8F40AB247A4F45A7D3661EA8139165-2025-08-07-19-17-48","[{""page_index"":0,""viewing_time"":2821},{""page_index"":1,""viewing_time"":3681}]","6502","","","","",""
"","","","","","image-button-response","8","315646","0.0-6.0-0.0","DE8F40AB247A4F45A7D3661EA8139165","DE8F40AB247A4F45A7D3661EA8139165","eadd7b61-ebe1-4ef5-8064-47812133566e","a9f3d40c-5730-405c-b25e-1034c4c56f3f","{""num_scrambled_semantic"":""8"",""num_scrambled_causal"":""4"",""num_scrambled_schematic"":""4"",""participantId"":""DE8F40AB247A4F45A7D3661EA8139165"",""assignmentId"":""eadd7b61-ebe1-4ef5-8064-47812133566e"",""projectId"":""a9f3d40c-5730-405c-b25e-1034c4c56f3f""}","https://test12345.live/?num_scrambled_semantic=8&num_scrambled_causal=4&num_scrambled_schematic=4&participantId=DE8F40AB247A4F45A7D3661EA8139165&assignmentId=eadd7b61-ebe1-4ef5-8064-47812133566e&projectId=a9f3d40c-5730-405c-b25e-1034c4c56f3f","DE8F40AB247A4F45A7D3661EA8139165-2025-08-07-19-17-48","","null","","images/instructions/movie_0.png","null","",""
"","","","","","image-button-response","9","320153","0.0-6.0-1.0-0.0","DE8F40AB247A4F45A7D3661EA8139165","DE8F40AB247A4F45A7D3661EA8139165","eadd7b61-ebe1-4ef5-8064-47812133566e","a9f3d40c-5730-405c-b25e-1034c4c56f3f","{""num_scrambled_semantic"":""8"",""num_scrambled_causal"":""4"",""num_scrambled_schematic"":""4"",""participantId"":""DE8F40AB247A4F45A7D3661EA8139165"",""assignmentId"":""eadd7b61-ebe1-4ef5-8064-47812133566e"",""projectId"":""a9f3d40c-5730-405c-b25e-1034c4c56f3f""}","https://test12345.live/?num_scrambled_semantic=8&num_scrambled_causal=4&num_scrambled_schematic=4&participantId=DE8F40AB247A4F45A7D3661EA8139165&assignmentId=eadd7b61-ebe1-4ef5-8064-47812133566e&projectId=a9f3d40c-5730-405c-b25e-1034c4c56f3f","DE8F40AB247A4F45A7D3661EA8139165-2025-08-07-19-17-48","","null","","images/instructions/movie_1.png","null","",""
"","","","","","image-button-response","10","323124","0.0-6.0-1.0-1.0","DE8F40AB247A4F45A7D3661EA8139165","DE8F40AB247A4F45A7D3661EA8139165","eadd7b61-ebe1-4ef5-8064-47812133566e","a9f3d40c-5730-405c-b25e-1034c4c56f3f","{""num_scrambled_semantic"":""8"",""num_scrambled_causal"":""4"",""num_scrambled_schematic"":""4"",""participantId"":""DE8F40AB247A4F45A7D3661EA8139165"",""assignmentId"":""eadd7b61-ebe1-4ef5-8064-47812133566e"",""projectId"":""a9f3d40c-5730-405c-b25e-1034c4c56f3f""}","https://test12345.live/?num_scrambled_semantic=8&num_scrambled_causal=4&num_scrambled_schematic=4&participantId=DE8F40AB247A4F45A7D3661EA8139165&assignmentId=eadd7b61-ebe1-4ef5-8064-47812133566e&projectId=a9f3d40c-5730-405c-b25e-1034c4c56f3f","DE8F40AB247A4F45A7D3661EA8139165-2025-08-07-19-17-48","","2969","","images/instructions/movie_1.png","0","",""
"","","","","","image-button-response","11","324931","0.0-6.0-1.0-2.0","DE8F40AB247A4F45A7D3661EA8139165","DE8F40AB247A4F45A7D3661EA8139165","eadd7b61-ebe1-4ef5-8064-47812133566e","a9f3d40c-5730-405c-b25e-1034c4c56f3f","{""num_scrambled_semantic"":""8"",""num_scrambled_causal"":""4"",""num_scrambled_schematic"":""4"",""participantId"":""DE8F40AB247A4F45A7D3661EA8139165"",""assignmentId"":""eadd7b61-ebe1-4ef5-8064-47812133566e"",""projectId"":""a9f3d40c-5730-405c-b25e-1034c4c56f3f""}","https://test12345.live/?num_scrambled_semantic=8&num_scrambled_causal=4&num_scrambled_schematic=4&participantId=DE8F40AB247A4F45A7D3661EA8139165&assignmentId=eadd7b61-ebe1-4ef5-8064-47812133566e&projectId=a9f3d40c-5730-405c-b25e-1034c4c56f3f","DE8F40AB247A4F45A7D3661EA8139165-2025-08-07-19-17-48","","null","","[]","null","",""
"","","","","","image-button-response","12","329437","0.0-6.0-1.0-0.1","DE8F40AB247A4F45A7D3661EA8139165","DE8F40AB247A4F45A7D3661EA8139165","eadd7b61-ebe1-4ef5-8064-47812133566e","a9f3d40c-5730-405c-b25e-1034c4c56f3f","{""num_scrambled_semantic"":""8"",""num_scrambled_causal"":""4"",""num_scrambled_schematic"":""4"",""participantId"":""DE8F40AB247A4F45A7D3661EA8139165"",""assignmentId"":""eadd7b61-ebe1-4ef5-8064-47812133566e"",""projectId"":""a9f3d40c-5730-405c-b25e-1034c4c56f3f""}","https://test12345.live/?num_scrambled_semantic=8&num_scrambled_causal=4&num_scrambled_schematic=4&participantId=DE8F40AB247A4F45A7D3661EA8139165&assignmentId=eadd7b61-ebe1-4ef5-8064-47812133566e&projectId=a9f3d40c-5730-405c-b25e-1034c4c56f3f","DE8F40AB247A4F45A7D3661EA8139165-2025-08-07-19-17-48","","null","","images/instructions/movie_2.png","null","",""
"","","","","","image-button-response","13","333445","0.0-6.0-1.0-1.1","DE8F40AB247A4F45A7D3661EA8139165","DE8F40AB247A4F45A7D3661EA8139165","eadd7b61-ebe1-4ef5-8064-47812133566e","a9f3d40c-5730-405c-b25e-1034c4c56f3f","{""num_scrambled_semantic"":""8"",""num_scrambled_causal"":""4"",""num_scrambled_schematic"":""4"",""participantId"":""DE8F40AB247A4F45A7D3661EA8139165"",""assignmentId"":""eadd7b61-ebe1-4ef5-8064-47812133566e"",""projectId"":""a9f3d40c-5730-405c-b25e-1034c4c56f3f""}","https://test12345.live/?num_scrambled_semantic=8&num_scrambled_causal=4&num_scrambled_schematic=4&participantId=DE8F40AB247A4F45A7D3661EA8139165&assignmentId=eadd7b61-ebe1-4ef5-8064-47812133566e&projectId=a9f3d40c-5730-405c-b25e-1034c4c56f3f","DE8F40AB247A4F45A7D3661EA8139165-2025-08-07-19-17-48","","null","","images/instructions/movie_2.png","null","",""
"","","","","","image-button-response","14","335251","0.0-6.0-1.0-2.1","DE8F40AB247A4F45A7D3661EA8139165","DE8F40AB247A4F45A7D3661EA8139165","eadd7b61-ebe1-4ef5-8064-47812133566e","a9f3d40c-5730-405c-b25e-1034c4c56f3f","{""num_scrambled_semantic"":""8"",""num_scrambled_causal"":""4"",""num_scrambled_schematic"":""4"",""participantId"":""DE8F40AB247A4F45A7D3661EA8139165"",""assignmentId"":""eadd7b61-ebe1-4ef5-8064-47812133566e"",""projectId"":""a9f3d40c-5730-405c-b25e-1034c4c56f3f""}","https://test12345.live/?num_scrambled_semantic=8&num_scrambled_causal=4&num_scrambled_schematic=4&participantId=DE8F40AB247A4F45A7D3661EA8139165&assignmentId=eadd7b61-ebe1-4ef5-8064-47812133566e&projectId=a9f3d40c-5730-405c-b25e-1034c4c56f3f","DE8F40AB247A4F45A7D3661EA8139165-2025-08-07-19-17-48","","null","","[]","null","",""
"","","","","","image-button-response","15","339758","0.0-6.0-1.0-0.2","DE8F40AB247A4F45A7D3661EA8139165","DE8F40AB247A4F45A7D3661EA8139165","eadd7b61-ebe1-4ef5-8064-47812133566e","a9f3d40c-5730-405c-b25e-1034c4c56f3f","{""num_scrambled_semantic"":""8"",""num_scrambled_causal"":""4"",""num_scrambled_schematic"":""4"",""participantId"":""DE8F40AB247A4F45A7D3661EA8139165"",""assignmentId"":""eadd7b61-ebe1-4ef5-8064-47812133566e"",""projectId"":""a9f3d40c-5730-405c-b25e-1034c4c56f3f""}","https://test12345.live/?num_scrambled_semantic=8&num_scrambled_causal=4&num_scrambled_schematic=4&participantId=DE8F40AB247A4F45A7D3661EA8139165&assignmentId=eadd7b61-ebe1-4ef5-8064-47812133566e&projectId=a9f3d40c-5730-405c-b25e-1034c4c56f3f","DE8F40AB247A4F45A7D3661EA8139165-2025-08-07-19-17-48","","null","","images/instructions/movie_3.png","null","",""
"","","","","","image-button-response","16","342048","0.0-6.0-1.0-1.2","DE8F40AB247A4F45A7D3661EA8139165","DE8F40AB247A4F45A7D3661EA8139165","eadd7b61-ebe1-4ef5-8064-47812133566e","a9f3d40c-5730-405c-b25e-1034c4c56f3f","{""num_scrambled_semantic"":""8"",""num_scrambled_causal"":""4"",""num_scrambled_schematic"":""4"",""participantId"":""DE8F40AB247A4F45A7D3661EA8139165"",""assignmentId"":""eadd7b61-ebe1-4ef5-8064-47812133566e"",""projectId"":""a9f3d40c-5730-405c-b25e-1034c4c56f3f""}","https://test12345.live/?num_scrambled_semantic=8&num_scrambled_causal=4&num_scrambled_schematic=4&participantId=DE8F40AB247A4F45A7D3661EA8139165&assignmentId=eadd7b61-ebe1-4ef5-8064-47812133566e&projectId=a9f3d40c-5730-405c-b25e-1034c4c56f3f","DE8F40AB247A4F45A7D3661EA8139165-2025-08-07-19-17-48","","2288","","images/instructions/movie_3.png","0","",""
"","","","","","image-button-response","17","343850","0.0-6.0-1.0-2.2","DE8F40AB247A4F45A7D3661EA8139165","DE8F40AB247A4F45A7D3661EA8139165","eadd7b61-ebe1-4ef5-8064-47812133566e","a9f3d40c-5730-405c-b25e-1034c4c56f3f","{""num_scrambled_semantic"":""8"",""num_scrambled_causal"":""4"",""num_scrambled_schematic"":""4"",""participantId"":""DE8F40AB247A4F45A7D3661EA8139165"",""assignmentId"":""eadd7b61-ebe1-4ef5-8064-47812133566e"",""projectId"":""a9f3d40c-5730-405c-b25e-1034c4c56f3f""}","https://test12345.live/?num_scrambled_semantic=8&num_scrambled_causal=4&num_scrambled_schematic=4&participantId=DE8F40AB247A4F45A7D3661EA8139165&assignmentId=eadd7b61-ebe1-4ef5-8064-47812133566e&projectId=a9f3d40c-5730-405c-b25e-1034c4c56f3f","DE8F40AB247A4F45A7D3661EA8139165-2025-08-07-19-17-48","","null","","[]","null","",""
"","","","","","image-button-response","18","348356","0.0-6.0-1.0-0.3","DE8F40AB247A4F45A7D3661EA8139165","DE8F40AB247A4F45A7D3661EA8139165","eadd7b61-ebe1-4ef5-8064-47812133566e","a9f3d40c-5730-405c-b25e-1034c4c56f3f","{""num_scrambled_semantic"":""8"",""num_scrambled_causal"":""4"",""num_scrambled_schematic"":""4"",""participantId"":""DE8F40AB247A4F45A7D3661EA8139165"",""assignmentId"":""eadd7b61-ebe1-4ef5-8064-47812133566e"",""projectId"":""a9f3d40c-5730-405c-b25e-1034c4c56f3f""}","https://test12345.live/?num_scrambled_semantic=8&num_scrambled_causal=4&num_scrambled_schematic=4&participantId=DE8F40AB247A4F45A7D3661EA8139165&assignmentId=eadd7b61-ebe1-4ef5-8064-47812133566e&projectId=a9f3d40c-5730-405c-b25e-1034c4c56f3f","DE8F40AB247A4F45A7D3661EA8139165-2025-08-07-19-17-48","","null","","images/instructions/movie_4.png","null","",""
"","","","","","image-button-response","19","351130","0.0-6.0-1.0-1.3","DE8F40AB247A4F45A7D3661EA8139165","DE8F40AB247A4F45A7D3661EA8139165","eadd7b61-ebe1-4ef5-8064-47812133566e","a9f3d40c-5730-405c-b25e-1034c4c56f3f","{""num_scrambled_semantic"":""8"",""num_scrambled_causal"":""4"",""num_scrambled_schematic"":""4"",""participantId"":""DE8F40AB247A4F45A7D3661EA8139165"",""assignmentId"":""eadd7b61-ebe1-4ef5-8064-47812133566e"",""projectId"":""a9f3d40c-5730-405c-b25e-1034c4c56f3f""}","https://test12345.live/?num_scrambled_semantic=8&num_scrambled_causal=4&num_scrambled_schematic=4&participantId=DE8F40AB247A4F45A7D3661EA8139165&assignmentId=eadd7b61-ebe1-4ef5-8064-47812133566e&projectId=a9f3d40c-5730-405c-b25e-1034c4c56f3f","DE8F40AB247A4F45A7D3661EA8139165-2025-08-07-19-17-48","","2772","","images/instructions/movie_4.png","0","",""
"","","","","","image-button-response","20","352937","0.0-6.0-1.0-2.3","DE8F40AB247A4F45A7D3661EA8139165","DE8F40AB247A4F45A7D3661EA8139165","eadd7b61-ebe1-4ef5-8064-47812133566e","a9f3d40c-5730-405c-b25e-1034c4c56f3f","{""num_scrambled_semantic"":""8"",""num_scrambled_causal"":""4"",""num_scrambled_schematic"":""4"",""participantId"":""DE8F40AB247A4F45A7D3661EA8139165"",""assignmentId"":""eadd7b61-ebe1-4ef5-8064-47812133566e"",""projectId"":""a9f3d40c-5730-405c-b25e-1034c4c56f3f""}","https://test12345.live/?num_scrambled_semantic=8&num_scrambled_causal=4&num_scrambled_schematic=4&participantId=DE8F40AB247A4F45A7D3661EA8139165&assignmentId=eadd7b61-ebe1-4ef5-8064-47812133566e&projectId=a9f3d40c-5730-405c-b25e-1034c4c56f3f","DE8F40AB247A4F45A7D3661EA8139165-2025-08-07-19-17-48","","null","","[]","null","",""
"","","","","","instructions","21","430377","0.0-7.0","DE8F40AB247A4F45A7D3661EA8139165","DE8F40AB247A4F45A7D3661EA8139165","eadd7b61-ebe1-4ef5-8064-47812133566e","a9f3d40c-5730-405c-b25e-1034c4c56f3f","{""num_scrambled_semantic"":""8"",""num_scrambled_causal"":""4"",""num_scrambled_schematic"":""4"",""participantId"":""DE8F40AB247A4F45A7D3661EA8139165"",""assignmentId"":""eadd7b61-ebe1-4ef5-8064-47812133566e"",""projectId"":""a9f3d40c-5730-405c-b25e-1034c4c56f3f""}","https://test12345.live/?num_scrambled_semantic=8&num_scrambled_causal=4&num_scrambled_schematic=4&participantId=DE8F40AB247A4F45A7D3661EA8139165&assignmentId=eadd7b61-ebe1-4ef5-8064-47812133566e&projectId=a9f3d40c-5730-405c-b25e-1034c4c56f3f","DE8F40AB247A4F45A7D3661EA8139165-2025-08-07-19-17-48","[{""page_index"":0,""viewing_time"":75639},{""page_index"":1,""viewing_time"":1800}]","77439","","","","",""
"","","","","","html-audio-response","22","542221","0.0-8.0","DE8F40AB247A4F45A7D3661EA8139165","DE8F40AB247A4F45A7D3661EA8139165","eadd7b61-ebe1-4ef5-8064-47812133566e","a9f3d40c-5730-405c-b25e-1034c4c56f3f","{""num_scrambled_semantic"":""8"",""num_scrambled_causal"":""4"",""num_scrambled_schematic"":""4"",""participantId"":""DE8F40AB247A4F45A7D3661EA8139165"",""assignmentId"":""eadd7b61-ebe1-4ef5-8064-47812133566e"",""projectId"":""a9f3d40c-5730-405c-b25e-1034c4c56f3f""}","https://test12345.live/?num_scrambled_semantic=8&num_scrambled_causal=4&num_scrambled_schematic=4&participantId=DE8F40AB247A4F45A7D3661EA8139165&assignmentId=eadd7b61-ebe1-4ef5-8064-47812133566e&projectId=a9f3d40c-5730-405c-b25e-1034c4c56f3f","DE8F40AB247A4F45A7D3661EA8139165-2025-08-07-19-17-48","","21524","","[""<span style=\""color: red; font-size: 24px\""> NOW RECORDING</span><p>Please say out loud all the images you saw, as many as you can remember. The images can be said in any order.</p>""]","","2",""
"","","","","","instructions","23","543030","0.0-9.0","DE8F40AB247A4F45A7D3661EA8139165","DE8F40AB247A4F45A7D3661EA8139165","eadd7b61-ebe1-4ef5-8064-47812133566e","a9f3d40c-5730-405c-b25e-1034c4c56f3f","{""num_scrambled_semantic"":""8"",""num_scrambled_causal"":""4"",""num_scrambled_schematic"":""4"",""participantId"":""DE8F40AB247A4F45A7D3661EA8139165"",""assignmentId"":""eadd7b61-ebe1-4ef5-8064-47812133566e"",""projectId"":""a9f3d40c-5730-405c-b25e-1034c4c56f3f""}","https://test12345.live/?num_scrambled_semantic=8&num_scrambled_causal=4&num_scrambled_schematic=4&participantId=DE8F40AB247A4F45A7D3661EA8139165&assignmentId=eadd7b61-ebe1-4ef5-8064-47812133566e&projectId=a9f3d40c-5730-405c-b25e-1034c4c56f3f","DE8F40AB247A4F45A7D3661EA8139165-2025-08-07-19-17-48","[{""page_index"":0,""viewing_time"":806}]","806","","","","",""
"","","","","","image-button-response","24","549037","0.0-10.0-0.0","DE8F40AB247A4F45A7D3661EA8139165","DE8F40AB247A4F45A7D3661EA8139165","eadd7b61-ebe1-4ef5-8064-47812133566e","a9f3d40c-5730-405c-b25e-1034c4c56f3f","{""num_scrambled_semantic"":""8"",""num_scrambled_causal"":""4"",""num_scrambled_schematic"":""4"",""participantId"":""DE8F40AB247A4F45A7D3661EA8139165"",""assignmentId"":""eadd7b61-ebe1-4ef5-8064-47812133566e"",""projectId"":""a9f3d40c-5730-405c-b25e-1034c4c56f3f""}","https://test12345.live/?num_scrambled_semantic=8&num_scrambled_causal=4&num_scrambled_schematic=4&participantId=DE8F40AB247A4F45A7D3661EA8139165&assignmentId=eadd7b61-ebe1-4ef5-8064-47812133566e&projectId=a9f3d40c-5730-405c-b25e-1034c4c56f3f","DE8F40AB247A4F45A7D3661EA8139165-2025-08-07-19-17-48","","null","","images/semantic_sequence/physical_activity_semantic/physical_activity_semantic_0.png","null","",""
"","","","","","image-button-response","25","553543","0.0-10.0-1.0-0.0","DE8F40AB247A4F45A7D3661EA8139165","DE8F40AB247A4F45A7D3661EA8139165","eadd7b61-ebe1-4ef5-8064-47812133566e","a9f3d40c-5730-405c-b25e-1034c4c56f3f","{""num_scrambled_semantic"":""8"",""num_scrambled_causal"":""4"",""num_scrambled_schematic"":""4"",""participantId"":""DE8F40AB247A4F45A7D3661EA8139165"",""assignmentId"":""eadd7b61-ebe1-4ef5-8064-47812133566e"",""projectId"":""a9f3d40c-5730-405c-b25e-1034c4c56f3f""}","https://test12345.live/?num_scrambled_semantic=8&num_scrambled_causal=4&num_scrambled_schematic=4&participantId=DE8F40AB247A4F45A7D3661EA8139165&assignmentId=eadd7b61-ebe1-4ef5-8064-47812133566e&projectId=a9f3d40c-5730-405c-b25e-1034c4c56f3f","DE8F40AB247A4F45A7D3661EA8139165-2025-08-07-19-17-48","","null","","images/semantic_sequence/physical_activity_semantic/physical_activity_semantic_7.png","null","",""
"","","","","","image-button-response","26","555459","0.0-10.0-1.0-1.0","DE8F40AB247A4F45A7D3661EA8139165","DE8F40AB247A4F45A7D3661EA8139165","eadd7b61-ebe1-4ef5-8064-47812133566e","a9f3d40c-5730-405c-b25e-1034c4c56f3f","{""num_scrambled_semantic"":""8"",""num_scrambled_causal"":""4"",""num_scrambled_schematic"":""4"",""participantId"":""DE8F40AB247A4F45A7D3661EA8139165"",""assignmentId"":""eadd7b61-ebe1-4ef5-8064-47812133566e"",""projectId"":""a9f3d40c-5730-405c-b25e-1034c4c56f3f""}","https://test12345.live/?num_scrambled_semantic=8&num_scrambled_causal=4&num_scrambled_schematic=4&participantId=DE8F40AB247A4F45A7D3661EA8139165&assignmentId=eadd7b61-ebe1-4ef5-8064-47812133566e&projectId=a9f3d40c-5730-405c-b25e-1034c4c56f3f","DE8F40AB247A4F45A7D3661EA8139165-2025-08-07-19-17-48","","1914","","images/semantic_sequence/physical_activity_semantic/physical_activity_semantic_7.png","0","",""
"","","","","","image-button-response","27","557265","0.0-10.0-1.0-2.0","DE8F40AB247A4F45A7D3661EA8139165","DE8F40AB247A4F45A7D3661EA8139165","eadd7b61-ebe1-4ef5-8064-47812133566e","a9f3d40c-5730-405c-b25e-1034c4c56f3f","{""num_scrambled_semantic"":""8"",""num_scrambled_causal"":""4"",""num_scrambled_schematic"":""4"",""participantId"":""DE8F40AB247A4F45A7D3661EA8139165"",""assignmentId"":""eadd7b61-ebe1-4ef5-8064-47812133566e"",""projectId"":""a9f3d40c-5730-405c-b25e-1034c4c56f3f""}","https://test12345.live/?num_scrambled_semantic=8&num_scrambled_causal=4&num_scrambled_schematic=4&participantId=DE8F40AB247A4F45A7D3661EA8139165&assignmentId=eadd7b61-ebe1-4ef5-8064-47812133566e&projectId=a9f3d40c-5730-405c-b25e-1034c4c56f3f","DE8F40AB247A4F45A7D3661EA8139165-2025-08-07-19-17-48","","null","","[]","null","",""
"","","","","","image-button-response","28","561772","0.0-10.0-1.0-0.1","DE8F40AB247A4F45A7D3661EA8139165","DE8F40AB247A4F45A7D3661EA8139165","eadd7b61-ebe1-4ef5-8064-47812133566e","a9f3d40c-5730-405c-b25e-1034c4c56f3f","{""num_scrambled_semantic"":""8"",""num_scrambled_causal"":""4"",""num_scrambled_schematic"":""4"",""participantId"":""DE8F40AB247A4F45A7D3661EA8139165"",""assignmentId"":""eadd7b61-ebe1-4ef5-8064-47812133566e"",""projectId"":""a9f3d40c-5730-405c-b25e-1034c4c56f3f""}","https://test12345.live/?num_scrambled_semantic=8&num_scrambled_causal=4&num_scrambled_schematic=4&participantId=DE8F40AB247A4F45A7D3661EA8139165&assignmentId=eadd7b61-ebe1-4ef5-8064-47812133566e&projectId=a9f3d40c-5730-405c-b25e-1034c4c56f3f","DE8F40AB247A4F45A7D3661EA8139165-2025-08-07-19-17-48","","null","","images/semantic_sequence/physical_activity_semantic/physical_activity_semantic_2.png","null","",""
"","","","","","image-button-response","29","563664","0.0-10.0-1.0-1.1","DE8F40AB247A4F45A7D3661EA8139165","DE8F40AB247A4F45A7D3661EA8139165","eadd7b61-ebe1-4ef5-8064-47812133566e","a9f3d40c-5730-405c-b25e-1034c4c56f3f","{""num_scrambled_semantic"":""8"",""num_scrambled_causal"":""4"",""num_scrambled_schematic"":""4"",""participantId"":""DE8F40AB247A4F45A7D3661EA8139165"",""assignmentId"":""eadd7b61-ebe1-4ef5-8064-47812133566e"",""projectId"":""a9f3d40c-5730-405c-b25e-1034c4c56f3f""}","https://test12345.live/?num_scrambled_semantic=8&num_scrambled_causal=4&num_scrambled_schematic=4&participantId=DE8F40AB247A4F45A7D3661EA8139165&assignmentId=eadd7b61-ebe1-4ef5-8064-47812133566e&projectId=a9f3d40c-5730-405c-b25e-1034c4c56f3f","DE8F40AB247A4F45A7D3661EA8139165-2025-08-07-19-17-48","","1890","","images/semantic_sequence/physical_activity_semantic/physical_activity_semantic_2.png","0","",""
"","","","","","image-button-response","30","565468","0.0-10.0-1.0-2.1","DE8F40AB247A4F45A7D3661EA8139165","DE8F40AB247A4F45A7D3661EA8139165","eadd7b61-ebe1-4ef5-8064-47812133566e","a9f3d40c-5730-405c-b25e-1034c4c56f3f","{""num_scrambled_semantic"":""8"",""num_scrambled_causal"":""4"",""num_scrambled_schematic"":""4"",""participantId"":""DE8F40AB247A4F45A7D3661EA8139165"",""assignmentId"":""eadd7b61-ebe1-4ef5-8064-47812133566e"",""projectId"":""a9f3d40c-5730-405c-b25e-1034c4c56f3f""}","https://test12345.live/?num_scrambled_semantic=8&num_scrambled_causal=4&num_scrambled_schematic=4&participantId=DE8F40AB247A4F45A7D3661EA8139165&assignmentId=eadd7b61-ebe1-4ef5-8064-47812133566e&projectId=a9f3d40c-5730-405c-b25e-1034c4c56f3f","DE8F40AB247A4F45A7D3661EA8139165-2025-08-07-19-17-48","","null","","[]","null","",""
"","","","","","image-button-response","31","569975","0.0-10.0-1.0-0.2","DE8F40AB247A4F45A7D3661EA8139165","DE8F40AB247A4F45A7D3661EA8139165","eadd7b61-ebe1-4ef5-8064-47812133566e","a9f3d40c-5730-405c-b25e-1034c4c56f3f","{""num_scrambled_semantic"":""8"",""num_scrambled_causal"":""4"",""num_scrambled_schematic"":""4"",""participantId"":""DE8F40AB247A4F45A7D3661EA8139165"",""assignmentId"":""eadd7b61-ebe1-4ef5-8064-47812133566e"",""projectId"":""a9f3d40c-5730-405c-b25e-1034c4c56f3f""}","https://test12345.live/?num_scrambled_semantic=8&num_scrambled_causal=4&num_scrambled_schematic=4&participantId=DE8F40AB247A4F45A7D3661EA8139165&assignmentId=eadd7b61-ebe1-4ef5-8064-47812133566e&projectId=a9f3d40c-5730-405c-b25e-1034c4c56f3f","DE8F40AB247A4F45A7D3661EA8139165-2025-08-07-19-17-48","","null","","images/semantic_sequence/physical_activity_semantic/physical_activity_semantic_6.png","null","",""
"","","","","","image-button-response","32","571681","0.0-10.0-1.0-1.2","DE8F40AB247A4F45A7D3661EA8139165","DE8F40AB247A4F45A7D3661EA8139165","eadd7b61-ebe1-4ef5-8064-47812133566e","a9f3d40c-5730-405c-b25e-1034c4c56f3f","{""num_scrambled_semantic"":""8"",""num_scrambled_causal"":""4"",""num_scrambled_schematic"":""4"",""participantId"":""DE8F40AB247A4F45A7D3661EA8139165"",""assignmentId"":""eadd7b61-ebe1-4ef5-8064-47812133566e"",""projectId"":""a9f3d40c-5730-405c-b25e-1034c4c56f3f""}","https://test12345.live/?num_scrambled_semantic=8&num_scrambled_causal=4&num_scrambled_schematic=4&participantId=DE8F40AB247A4F45A7D3661EA8139165&assignmentId=eadd7b61-ebe1-4ef5-8064-47812133566e&projectId=a9f3d40c-5730-405c-b25e-1034c4c56f3f","DE8F40AB247A4F45A7D3661EA8139165-2025-08-07-19-17-48","","1705","","images/semantic_sequence/physical_activity_semantic/physical_activity_semantic_6.png","0","",""
"","","","","","image-button-response","33","573488","0.0-10.0-1.0-2.2","DE8F40AB247A4F45A7D3661EA8139165","DE8F40AB247A4F45A7D3661EA8139165","eadd7b61-ebe1-4ef5-8064-47812133566e","a9f3d40c-5730-405c-b25e-1034c4c56f3f","{""num_scrambled_semantic"":""8"",""num_scrambled_causal"":""4"",""num_scrambled_schematic"":""4"",""participantId"":""DE8F40AB247A4F45A7D3661EA8139165"",""assignmentId"":""eadd7b61-ebe1-4ef5-8064-47812133566e"",""projectId"":""a9f3d40c-5730-405c-b25e-1034c4c56f3f""}","https://test12345.live/?num_scrambled_semantic=8&num_scrambled_causal=4&num_scrambled_schematic=4&participantId=DE8F40AB247A4F45A7D3661EA8139165&assignmentId=eadd7b61-ebe1-4ef5-8064-47812133566e&projectId=a9f3d40c-5730-405c-b25e-1034c4c56f3f","DE8F40AB247A4F45A7D3661EA8139165-2025-08-07-19-17-48","","null","","[]","null","",""
"","","","","","image-button-response","34","577995","0.0-10.0-1.0-0.3","DE8F40AB247A4F45A7D3661EA8139165","DE8F40AB247A4F45A7D3661EA8139165","eadd7b61-ebe1-4ef5-8064-47812133566e","a9f3d40c-5730-405c-b25e-1034c4c56f3f","{""num_scrambled_semantic"":""8"",""num_scrambled_causal"":""4"",""num_scrambled_schematic"":""4"",""participantId"":""DE8F40AB247A4F45A7D3661EA8139165"",""assignmentId"":""eadd7b61-ebe1-4ef5-8064-47812133566e"",""projectId"":""a9f3d40c-5730-405c-b25e-1034c4c56f3f""}","https://test12345.live/?num_scrambled_semantic=8&num_scrambled_causal=4&num_scrambled_schematic=4&participantId=DE8F40AB247A4F45A7D3661EA8139165&assignmentId=eadd7b61-ebe1-4ef5-8064-47812133566e&projectId=a9f3d40c-5730-405c-b25e-1034c4c56f3f","DE8F40AB247A4F45A7D3661EA8139165-2025-08-07-19-17-48","","null","","images/semantic_sequence/physical_activity_semantic/physical_activity_semantic_5.png","null","",""
"","","","","","image-button-response","35","579354","0.0-10.0-1.0-1.3","DE8F40AB247A4F45A7D3661EA8139165","DE8F40AB247A4F45A7D3661EA8139165","eadd7b61-ebe1-4ef5-8064-47812133566e","a9f3d40c-5730-405c-b25e-1034c4c56f3f","{""num_scrambled_semantic"":""8"",""num_scrambled_causal"":""4"",""num_scrambled_schematic"":""4"",""participantId"":""DE8F40AB247A4F45A7D3661EA8139165"",""assignmentId"":""eadd7b61-ebe1-4ef5-8064-47812133566e"",""projectId"":""a9f3d40c-5730-405c-b25e-1034c4c56f3f""}","https://test12345.live/?num_scrambled_semantic=8&num_scrambled_causal=4&num_scrambled_schematic=4&participantId=DE8F40AB247A4F45A7D3661EA8139165&assignmentId=eadd7b61-ebe1-4ef5-8064-47812133566e&projectId=a9f3d40c-5730-405c-b25e-1034c4c56f3f","DE8F40AB247A4F45A7D3661EA8139165-2025-08-07-19-17-48","","1357","","images/semantic_sequence/physical_activity_semantic/physical_activity_semantic_5.png","0","",""
"","","","","","image-button-response","36","581159","0.0-10.0-1.0-2.3","DE8F40AB247A4F45A7D3661EA8139165","DE8F40AB247A4F45A7D3661EA8139165","eadd7b61-ebe1-4ef5-8064-47812133566e","a9f3d40c-5730-405c-b25e-1034c4c56f3f","{""num_scrambled_semantic"":""8"",""num_scrambled_causal"":""4"",""num_scrambled_schematic"":""4"",""participantId"":""DE8F40AB247A4F45A7D3661EA8139165"",""assignmentId"":""eadd7b61-ebe1-4ef5-8064-47812133566e"",""projectId"":""a9f3d40c-5730-405c-b25e-1034c4c56f3f""}","https://test12345.live/?num_scrambled_semantic=8&num_scrambled_causal=4&num_scrambled_schematic=4&participantId=DE8F40AB247A4F45A7D3661EA8139165&assignmentId=eadd7b61-ebe1-4ef5-8064-47812133566e&projectId=a9f3d40c-5730-405c-b25e-1034c4c56f3f","DE8F40AB247A4F45A7D3661EA8139165-2025-08-07-19-17-48","","null","","[]","null","",""
"","","","","","image-button-response","37","585666","0.0-10.0-1.0-0.4","DE8F40AB247A4F45A7D3661EA8139165","DE8F40AB247A4F45A7D3661EA8139165","eadd7b61-ebe1-4ef5-8064-47812133566e","a9f3d40c-5730-405c-b25e-1034c4c56f3f","{""num_scrambled_semantic"":""8"",""num_scrambled_causal"":""4"",""num_scrambled_schematic"":""4"",""participantId"":""DE8F40AB247A4F45A7D3661EA8139165"",""assignmentId"":""eadd7b61-ebe1-4ef5-8064-47812133566e"",""projectId"":""a9f3d40c-5730-405c-b25e-1034c4c56f3f""}","https://test12345.live/?num_scrambled_semantic=8&num_scrambled_causal=4&num_scrambled_schematic=4&participantId=DE8F40AB247A4F45A7D3661EA8139165&assignmentId=eadd7b61-ebe1-4ef5-8064-47812133566e&projectId=a9f3d40c-5730-405c-b25e-1034c4c56f3f","DE8F40AB247A4F45A7D3661EA8139165-2025-08-07-19-17-48","","null","","images/semantic_sequence/physical_activity_semantic/physical_activity_semantic_1.png","null","",""
"","","","","","image-button-response","38","586885","0.0-10.0-1.0-1.4","DE8F40AB247A4F45A7D3661EA8139165","DE8F40AB247A4F45A7D3661EA8139165","eadd7b61-ebe1-4ef5-8064-47812133566e","a9f3d40c-5730-405c-b25e-1034c4c56f3f","{""num_scrambled_semantic"":""8"",""num_scrambled_causal"":""4"",""num_scrambled_schematic"":""4"",""participantId"":""DE8F40AB247A4F45A7D3661EA8139165"",""assignmentId"":""eadd7b61-ebe1-4ef5-8064-47812133566e"",""projectId"":""a9f3d40c-5730-405c-b25e-1034c4c56f3f""}","https://test12345.live/?num_scrambled_semantic=8&num_scrambled_causal=4&num_scrambled_schematic=4&participantId=DE8F40AB247A4F45A7D3661EA8139165&assignmentId=eadd7b61-ebe1-4ef5-8064-47812133566e&projectId=a9f3d40c-5730-405c-b25e-1034c4c56f3f","DE8F40AB247A4F45A7D3661EA8139165-2025-08-07-19-17-48","","1218","","images/semantic_sequence/physical_activity_semantic/physical_activity_semantic_1.png","0","",""
"","","","","","image-button-response","39","588688","0.0-10.0-1.0-2.4","DE8F40AB247A4F45A7D3661EA8139165","DE8F40AB247A4F45A7D3661EA8139165","eadd7b61-ebe1-4ef5-8064-47812133566e","a9f3d40c-5730-405c-b25e-1034c4c56f3f","{""num_scrambled_semantic"":""8"",""num_scrambled_causal"":""4"",""num_scrambled_schematic"":""4"",""participantId"":""DE8F40AB247A4F45A7D3661EA8139165"",""assignmentId"":""eadd7b61-ebe1-4ef5-8064-47812133566e"",""projectId"":""a9f3d40c-5730-405c-b25e-1034c4c56f3f""}","https://test12345.live/?num_scrambled_semantic=8&num_scrambled_causal=4&num_scrambled_schematic=4&participantId=DE8F40AB247A4F45A7D3661EA8139165&assignmentId=eadd7b61-ebe1-4ef5-8064-47812133566e&projectId=a9f3d40c-5730-405c-b25e-1034c4c56f3f","DE8F40AB247A4F45A7D3661EA8139165-2025-08-07-19-17-48","","null","","[]","null","",""
"","","","","","image-button-response","40","593194","0.0-10.0-1.0-0.5","DE8F40AB247A4F45A7D3661EA8139165","DE8F40AB247A4F45A7D3661EA8139165","eadd7b61-ebe1-4ef5-8064-47812133566e","a9f3d40c-5730-405c-b25e-1034c4c56f3f","{""num_scrambled_semantic"":""8"",""num_scrambled_causal"":""4"",""num_scrambled_schematic"":""4"",""participantId"":""DE8F40AB247A4F45A7D3661EA8139165"",""assignmentId"":""eadd7b61-ebe1-4ef5-8064-47812133566e"",""projectId"":""a9f3d40c-5730-405c-b25e-1034c4c56f3f""}","https://test12345.live/?num_scrambled_semantic=8&num_scrambled_causal=4&num_scrambled_schematic=4&participantId=DE8F40AB247A4F45A7D3661EA8139165&assignmentId=eadd7b61-ebe1-4ef5-8064-47812133566e&projectId=a9f3d40c-5730-405c-b25e-1034c4c56f3f","DE8F40AB247A4F45A7D3661EA8139165-2025-08-07-19-17-48","","null","","images/semantic_sequence/physical_activity_semantic/physical_activity_semantic_9.png","null","",""
"","","","","","image-button-response","41","593972","0.0-10.0-1.0-1.5","DE8F40AB247A4F45A7D3661EA8139165","DE8F40AB247A4F45A7D3661EA8139165","eadd7b61-ebe1-4ef5-8064-47812133566e","a9f3d40c-5730-405c-b25e-1034c4c56f3f","{""num_scrambled_semantic"":""8"",""num_scrambled_causal"":""4"",""num_scrambled_schematic"":""4"",""participantId"":""DE8F40AB247A4F45A7D3661EA8139165"",""assignmentId"":""eadd7b61-ebe1-4ef5-8064-47812133566e"",""projectId"":""a9f3d40c-5730-405c-b25e-1034c4c56f3f""}","https://test12345.live/?num_scrambled_semantic=8&num_scrambled_causal=4&num_scrambled_schematic=4&participantId=DE8F40AB247A4F45A7D3661EA8139165&assignmentId=eadd7b61-ebe1-4ef5-8064-47812133566e&projectId=a9f3d40c-5730-405c-b25e-1034c4c56f3f","DE8F40AB247A4F45A7D3661EA8139165-2025-08-07-19-17-48","","776","","images/semantic_sequence/physical_activity_semantic/physical_activity_semantic_9.png","0","",""
"","","","","","image-button-response","42","595778","0.0-10.0-1.0-2.5","DE8F40AB247A4F45A7D3661EA8139165","DE8F40AB247A4F45A7D3661EA8139165","eadd7b61-ebe1-4ef5-8064-47812133566e","a9f3d40c-5730-405c-b25e-1034c4c56f3f","{""num_scrambled_semantic"":""8"",""num_scrambled_causal"":""4"",""num_scrambled_schematic"":""4"",""participantId"":""DE8F40AB247A4F45A7D3661EA8139165"",""assignmentId"":""eadd7b61-ebe1-4ef5-8064-47812133566e"",""projectId"":""a9f3d40c-5730-405c-b25e-1034c4c56f3f""}","https://test12345.live/?num_scrambled_semantic=8&num_scrambled_causal=4&num_scrambled_schematic=4&participantId=DE8F40AB247A4F45A7D3661EA8139165&assignmentId=eadd7b61-ebe1-4ef5-8064-47812133566e&projectId=a9f3d40c-5730-405c-b25e-1034c4c56f3f","DE8F40AB247A4F45A7D3661EA8139165-2025-08-07-19-17-48","","null","","[]","null","",""
"","","","","","image-button-response","43","600282","0.0-10.0-1.0-0.6","DE8F40AB247A4F45A7D3661EA8139165","DE8F40AB247A4F45A7D3661EA8139165","eadd7b61-ebe1-4ef5-8064-47812133566e","a9f3d40c-5730-405c-b25e-1034c4c56f3f","{""num_scrambled_semantic"":""8"",""num_scrambled_causal"":""4"",""num_scrambled_schematic"":""4"",""participantId"":""DE8F40AB247A4F45A7D3661EA8139165"",""assignmentId"":""eadd7b61-ebe1-4ef5-8064-47812133566e"",""projectId"":""a9f3d40c-5730-405c-b25e-1034c4c56f3f""}","https://test12345.live/?num_scrambled_semantic=8&num_scrambled_causal=4&num_scrambled_schematic=4&participantId=DE8F40AB247A4F45A7D3661EA8139165&assignmentId=eadd7b61-ebe1-4ef5-8064-47812133566e&projectId=a9f3d40c-5730-405c-b25e-1034c4c56f3f","DE8F40AB247A4F45A7D3661EA8139165-2025-08-07-19-17-48","","null","","images/semantic_sequence/physical_activity_semantic/physical_activity_semantic_ten.png","null","",""
"","","","","","image-button-response","44","601654","0.0-10.0-1.0-1.6","DE8F40AB247A4F45A7D3661EA8139165","DE8F40AB247A4F45A7D3661EA8139165","eadd7b61-ebe1-4ef5-8064-47812133566e","a9f3d40c-5730-405c-b25e-1034c4c56f3f","{""num_scrambled_semantic"":""8"",""num_scrambled_causal"":""4"",""num_scrambled_schematic"":""4"",""participantId"":""DE8F40AB247A4F45A7D3661EA8139165"",""assignmentId"":""eadd7b61-ebe1-4ef5-8064-47812133566e"",""projectId"":""a9f3d40c-5730-405c-b25e-1034c4c56f3f""}","https://test12345.live/?num_scrambled_semantic=8&num_scrambled_causal=4&num_scrambled_schematic=4&participantId=DE8F40AB247A4F45A7D3661EA8139165&assignmentId=eadd7b61-ebe1-4ef5-8064-47812133566e&projectId=a9f3d40c-5730-405c-b25e-1034c4c56f3f","DE8F40AB247A4F45A7D3661EA8139165-2025-08-07-19-17-48","","1369","","images/semantic_sequence/physical_activity_semantic/physical_activity_semantic_ten.png","0","",""
"","","","","","image-button-response","45","603460","0.0-10.0-1.0-2.6","DE8F40AB247A4F45A7D3661EA8139165","DE8F40AB247A4F45A7D3661EA8139165","eadd7b61-ebe1-4ef5-8064-47812133566e","a9f3d40c-5730-405c-b25e-1034c4c56f3f","{""num_scrambled_semantic"":""8"",""num_scrambled_causal"":""4"",""num_scrambled_schematic"":""4"",""participantId"":""DE8F40AB247A4F45A7D3661EA8139165"",""assignmentId"":""eadd7b61-ebe1-4ef5-8064-47812133566e"",""projectId"":""a9f3d40c-5730-405c-b25e-1034c4c56f3f""}","https://test12345.live/?num_scrambled_semantic=8&num_scrambled_causal=4&num_scrambled_schematic=4&participantId=DE8F40AB247A4F45A7D3661EA8139165&assignmentId=eadd7b61-ebe1-4ef5-8064-47812133566e&projectId=a9f3d40c-5730-405c-b25e-1034c4c56f3f","DE8F40AB247A4F45A7D3661EA8139165-2025-08-07-19-17-48","","null","","[]","null","",""
"","","","","","image-button-response","46","607963","0.0-10.0-1.0-0.7","DE8F40AB247A4F45A7D3661EA8139165","DE8F40AB247A4F45A7D3661EA8139165","eadd7b61-ebe1-4ef5-8064-47812133566e","a9f3d40c-5730-405c-b25e-1034c4c56f3f","{""num_scrambled_semantic"":""8"",""num_scrambled_causal"":""4"",""num_scrambled_schematic"":""4"",""participantId"":""DE8F40AB247A4F45A7D3661EA8139165"",""assignmentId"":""eadd7b61-ebe1-4ef5-8064-47812133566e"",""projectId"":""a9f3d40c-5730-405c-b25e-1034c4c56f3f""}","https://test12345.live/?num_scrambled_semantic=8&num_scrambled_causal=4&num_scrambled_schematic=4&participantId=DE8F40AB247A4F45A7D3661EA8139165&assignmentId=eadd7b61-ebe1-4ef5-8064-47812133566e&projectId=a9f3d40c-5730-405c-b25e-1034c4c56f3f","DE8F40AB247A4F45A7D3661EA8139165-2025-08-07-19-17-48","","null","","images/semantic_sequence/physical_activity_semantic/physical_activity_semantic_4.png","null","",""
"","","","","","image-button-response","47","609250","0.0-10.0-1.0-1.7","DE8F40AB247A4F45A7D3661EA8139165","DE8F40AB247A4F45A7D3661EA8139165","eadd7b61-ebe1-4ef5-8064-47812133566e","a9f3d40c-5730-405c-b25e-1034c4c56f3f","{""num_scrambled_semantic"":""8"",""num_scrambled_causal"":""4"",""num_scrambled_schematic"":""4"",""participantId"":""DE8F40AB247A4F45A7D3661EA8139165"",""assignmentId"":""eadd7b61-ebe1-4ef5-8064-47812133566e"",""projectId"":""a9f3d40c-5730-405c-b25e-1034c4c56f3f""}","https://test12345.live/?num_scrambled_semantic=8&num_scrambled_causal=4&num_scrambled_schematic=4&participantId=DE8F40AB247A4F45A7D3661EA8139165&assignmentId=eadd7b61-ebe1-4ef5-8064-47812133566e&projectId=a9f3d40c-5730-405c-b25e-1034c4c56f3f","DE8F40AB247A4F45A7D3661EA8139165-2025-08-07-19-17-48","","1286","","images/semantic_sequence/physical_activity_semantic/physical_activity_semantic_4.png","0","",""
"","","","","","image-button-response","48","611057","0.0-10.0-1.0-2.7","DE8F40AB247A4F45A7D3661EA8139165","DE8F40AB247A4F45A7D3661EA8139165","eadd7b61-ebe1-4ef5-8064-47812133566e","a9f3d40c-5730-405c-b25e-1034c4c56f3f","{""num_scrambled_semantic"":""8"",""num_scrambled_causal"":""4"",""num_scrambled_schematic"":""4"",""participantId"":""DE8F40AB247A4F45A7D3661EA8139165"",""assignmentId"":""eadd7b61-ebe1-4ef5-8064-47812133566e"",""projectId"":""a9f3d40c-5730-405c-b25e-1034c4c56f3f""}","https://test12345.live/?num_scrambled_semantic=8&num_scrambled_causal=4&num_scrambled_schematic=4&participantId=DE8F40AB247A4F45A7D3661EA8139165&assignmentId=eadd7b61-ebe1-4ef5-8064-47812133566e&projectId=a9f3d40c-5730-405c-b25e-1034c4c56f3f","DE8F40AB247A4F45A7D3661EA8139165-2025-08-07-19-17-48","","null","","[]","null","",""
"","","","","","image-button-response","49","615560","0.0-10.0-1.0-0.8","DE8F40AB247A4F45A7D3661EA8139165","DE8F40AB247A4F45A7D3661EA8139165","eadd7b61-ebe1-4ef5-8064-47812133566e","a9f3d40c-5730-405c-b25e-1034c4c56f3f","{""num_scrambled_semantic"":""8"",""num_scrambled_causal"":""4"",""num_scrambled_schematic"":""4"",""participantId"":""DE8F40AB247A4F45A7D3661EA8139165"",""assignmentId"":""eadd7b61-ebe1-4ef5-8064-47812133566e"",""projectId"":""a9f3d40c-5730-405c-b25e-1034c4c56f3f""}","https://test12345.live/?num_scrambled_semantic=8&num_scrambled_causal=4&num_scrambled_schematic=4&participantId=DE8F40AB247A4F45A7D3661EA8139165&assignmentId=eadd7b61-ebe1-4ef5-8064-47812133566e&projectId=a9f3d40c-5730-405c-b25e-1034c4c56f3f","DE8F40AB247A4F45A7D3661EA8139165-2025-08-07-19-17-48","","null","","images/semantic_sequence/physical_activity_semantic/physical_activity_semantic_8.png","null","",""
"","","","","","image-button-response","50","617719","0.0-10.0-1.0-1.8","DE8F40AB247A4F45A7D3661EA8139165","DE8F40AB247A4F45A7D3661EA8139165","eadd7b61-ebe1-4ef5-8064-47812133566e","a9f3d40c-5730-405c-b25e-1034c4c56f3f","{""num_scrambled_semantic"":""8"",""num_scrambled_causal"":""4"",""num_scrambled_schematic"":""4"",""participantId"":""DE8F40AB247A4F45A7D3661EA8139165"",""assignmentId"":""eadd7b61-ebe1-4ef5-8064-47812133566e"",""projectId"":""a9f3d40c-5730-405c-b25e-1034c4c56f3f""}","https://test12345.live/?num_scrambled_semantic=8&num_scrambled_causal=4&num_scrambled_schematic=4&participantId=DE8F40AB247A4F45A7D3661EA8139165&assignmentId=eadd7b61-ebe1-4ef5-8064-47812133566e&projectId=a9f3d40c-5730-405c-b25e-1034c4c56f3f","DE8F40AB247A4F45A7D3661EA8139165-2025-08-07-19-17-48","","2157","","images/semantic_sequence/physical_activity_semantic/physical_activity_semantic_8.png","0","",""
"","","","","","image-button-response","51","619525","0.0-10.0-1.0-2.8","DE8F40AB247A4F45A7D3661EA8139165","DE8F40AB247A4F45A7D3661EA8139165","eadd7b61-ebe1-4ef5-8064-47812133566e","a9f3d40c-5730-405c-b25e-1034c4c56f3f","{""num_scrambled_semantic"":""8"",""num_scrambled_causal"":""4"",""num_scrambled_schematic"":""4"",""participantId"":""DE8F40AB247A4F45A7D3661EA8139165"",""assignmentId"":""eadd7b61-ebe1-4ef5-8064-47812133566e"",""projectId"":""a9f3d40c-5730-405c-b25e-1034c4c56f3f""}","https://test12345.live/?num_scrambled_semantic=8&num_scrambled_causal=4&num_scrambled_schematic=4&participantId=DE8F40AB247A4F45A7D3661EA8139165&assignmentId=eadd7b61-ebe1-4ef5-8064-47812133566e&projectId=a9f3d40c-5730-405c-b25e-1034c4c56f3f","DE8F40AB247A4F45A7D3661EA8139165-2025-08-07-19-17-48","","null","","[]","null","",""
"","","","","","image-button-response","52","624028","0.0-10.0-1.0-0.9","DE8F40AB247A4F45A7D3661EA8139165","DE8F40AB247A4F45A7D3661EA8139165","eadd7b61-ebe1-4ef5-8064-47812133566e","a9f3d40c-5730-405c-b25e-1034c4c56f3f","{""num_scrambled_semantic"":""8"",""num_scrambled_causal"":""4"",""num_scrambled_schematic"":""4"",""participantId"":""DE8F40AB247A4F45A7D3661EA8139165"",""assignmentId"":""eadd7b61-ebe1-4ef5-8064-47812133566e"",""projectId"":""a9f3d40c-5730-405c-b25e-1034c4c56f3f""}","https://test12345.live/?num_scrambled_semantic=8&num_scrambled_causal=4&num_scrambled_schematic=4&participantId=DE8F40AB247A4F45A7D3661EA8139165&assignmentId=eadd7b61-ebe1-4ef5-8064-47812133566e&projectId=a9f3d40c-5730-405c-b25e-1034c4c56f3f","DE8F40AB247A4F45A7D3661EA8139165-2025-08-07-19-17-48","","null","","images/semantic_sequence/physical_activity_semantic/physical_activity_semantic_3.png","null","",""
"","","","","","image-button-response","53","625931","0.0-10.0-1.0-1.9","DE8F40AB247A4F45A7D3661EA8139165","DE8F40AB247A4F45A7D3661EA8139165","eadd7b61-ebe1-4ef5-8064-47812133566e","a9f3d40c-5730-405c-b25e-1034c4c56f3f","{""num_scrambled_semantic"":""8"",""num_scrambled_causal"":""4"",""num_scrambled_schematic"":""4"",""participantId"":""DE8F40AB247A4F45A7D3661EA8139165"",""assignmentId"":""eadd7b61-ebe1-4ef5-8064-47812133566e"",""projectId"":""a9f3d40c-5730-405c-b25e-1034c4c56f3f""}","https://test12345.live/?num_scrambled_semantic=8&num_scrambled_causal=4&num_scrambled_schematic=4&participantId=DE8F40AB247A4F45A7D3661EA8139165&assignmentId=eadd7b61-ebe1-4ef5-8064-47812133566e&projectId=a9f3d40c-5730-405c-b25e-1034c4c56f3f","DE8F40AB247A4F45A7D3661EA8139165-2025-08-07-19-17-48","","1902","","images/semantic_sequence/physical_activity_semantic/physical_activity_semantic_3.png","0","",""
"","","","","","image-button-response","54","627738","0.0-10.0-1.0-2.9","DE8F40AB247A4F45A7D3661EA8139165","DE8F40AB247A4F45A7D3661EA8139165","eadd7b61-ebe1-4ef5-8064-47812133566e","a9f3d40c-5730-405c-b25e-1034c4c56f3f","{""num_scrambled_semantic"":""8"",""num_scrambled_causal"":""4"",""num_scrambled_schematic"":""4"",""participantId"":""DE8F40AB247A4F45A7D3661EA8139165"",""assignmentId"":""eadd7b61-ebe1-4ef5-8064-47812133566e"",""projectId"":""a9f3d40c-5730-405c-b25e-1034c4c56f3f""}","https://test12345.live/?num_scrambled_semantic=8&num_scrambled_causal=4&num_scrambled_schematic=4&participantId=DE8F40AB247A4F45A7D3661EA8139165&assignmentId=eadd7b61-ebe1-4ef5-8064-47812133566e&projectId=a9f3d40c-5730-405c-b25e-1034c4c56f3f","DE8F40AB247A4F45A7D3661EA8139165-2025-08-07-19-17-48","","null","","[]","null","",""
"","","","","","html-audio-response","55","715805","0.0-11.0","DE8F40AB247A4F45A7D3661EA8139165","DE8F40AB247A4F45A7D3661EA8139165","eadd7b61-ebe1-4ef5-8064-47812133566e","a9f3d40c-5730-405c-b25e-1034c4c56f3f","{""num_scrambled_semantic"":""8"",""num_scrambled_causal"":""4"",""num_scrambled_schematic"":""4"",""participantId"":""DE8F40AB247A4F45A7D3661EA8139165"",""assignmentId"":""eadd7b61-ebe1-4ef5-8064-47812133566e"",""projectId"":""a9f3d40c-5730-405c-b25e-1034c4c56f3f""}","https://test12345.live/?num_scrambled_semantic=8&num_scrambled_causal=4&num_scrambled_schematic=4&participantId=DE8F40AB247A4F45A7D3661EA8139165&assignmentId=eadd7b61-ebe1-4ef5-8064-47812133566e&projectId=a9f3d40c-5730-405c-b25e-1034c4c56f3f","DE8F40AB247A4F45A7D3661EA8139165-2025-08-07-19-17-48","","35120","","[""<span style=\""color: red; font-size: 24px\""> NOW RECORDING</span><p>Please say out loud all the images you saw, as many as you can remember. The images can be said in any order.</p>""]","","2","physical_activity_semantic"
"","","","","","image-button-response","56","721815","0.0-12.0-0.0","DE8F40AB247A4F45A7D3661EA8139165","DE8F40AB247A4F45A7D3661EA8139165","eadd7b61-ebe1-4ef5-8064-47812133566e","a9f3d40c-5730-405c-b25e-1034c4c56f3f","{""num_scrambled_semantic"":""8"",""num_scrambled_causal"":""4"",""num_scrambled_schematic"":""4"",""participantId"":""DE8F40AB247A4F45A7D3661EA8139165"",""assignmentId"":""eadd7b61-ebe1-4ef5-8064-47812133566e"",""projectId"":""a9f3d40c-5730-405c-b25e-1034c4c56f3f""}","https://test12345.live/?num_scrambled_semantic=8&num_scrambled_causal=4&num_scrambled_schematic=4&participantId=DE8F40AB247A4F45A7D3661EA8139165&assignmentId=eadd7b61-ebe1-4ef5-8064-47812133566e&projectId=a9f3d40c-5730-405c-b25e-1034c4c56f3f","DE8F40AB247A4F45A7D3661EA8139165-2025-08-07-19-17-48","","null","","images/semantic_sequence/maintaining_a_car_semantic/maintaining_a_car_semantic_0.png","null","",""
"","","","","","image-button-response","57","726320","0.0-12.0-1.0-0.0","DE8F40AB247A4F45A7D3661EA8139165","DE8F40AB247A4F45A7D3661EA8139165","eadd7b61-ebe1-4ef5-8064-47812133566e","a9f3d40c-5730-405c-b25e-1034c4c56f3f","{""num_scrambled_semantic"":""8"",""num_scrambled_causal"":""4"",""num_scrambled_schematic"":""4"",""participantId"":""DE8F40AB247A4F45A7D3661EA8139165"",""assignmentId"":""eadd7b61-ebe1-4ef5-8064-47812133566e"",""projectId"":""a9f3d40c-5730-405c-b25e-1034c4c56f3f""}","https://test12345.live/?num_scrambled_semantic=8&num_scrambled_causal=4&num_scrambled_schematic=4&participantId=DE8F40AB247A4F45A7D3661EA8139165&assignmentId=eadd7b61-ebe1-4ef5-8064-47812133566e&projectId=a9f3d40c-5730-405c-b25e-1034c4c56f3f","DE8F40AB247A4F45A7D3661EA8139165-2025-08-07-19-17-48","","null","","images/semantic_sequence/maintaining_a_car_semantic/maintaining_a_car_semantic_1.png","null","",""
"","","","","","image-button-response","58","728797","0.0-12.0-1.0-1.0","DE8F40AB247A4F45A7D3661EA8139165","DE8F40AB247A4F45A7D3661EA8139165","eadd7b61-ebe1-4ef5-8064-47812133566e","a9f3d40c-5730-405c-b25e-1034c4c56f3f","{""num_scrambled_semantic"":""8"",""num_scrambled_causal"":""4"",""num_scrambled_schematic"":""4"",""participantId"":""DE8F40AB247A4F45A7D3661EA8139165"",""assignmentId"":""eadd7b61-ebe1-4ef5-8064-47812133566e"",""projectId"":""a9f3d40c-5730-405c-b25e-1034c4c56f3f""}","https://test12345.live/?num_scrambled_semantic=8&num_scrambled_causal=4&num_scrambled_schematic=4&participantId=DE8F40AB247A4F45A7D3661EA8139165&assignmentId=eadd7b61-ebe1-4ef5-8064-47812133566e&projectId=a9f3d40c-5730-405c-b25e-1034c4c56f3f","DE8F40AB247A4F45A7D3661EA8139165-2025-08-07-19-17-48","","2475","","images/semantic_sequence/maintaining_a_car_semantic/maintaining_a_car_semantic_1.png","0","",""
"","","","","","image-button-response","59","730600","0.0-12.0-1.0-2.0","DE8F40AB247A4F45A7D3661EA8139165","DE8F40AB247A4F45A7D3661EA8139165","eadd7b61-ebe1-4ef5-8064-47812133566e","a9f3d40c-5730-405c-b25e-1034c4c56f3f","{""num_scrambled_semantic"":""8"",""num_scrambled_causal"":""4"",""num_scrambled_schematic"":""4"",""participantId"":""DE8F40AB247A4F45A7D3661EA8139165"",""assignmentId"":""eadd7b61-ebe1-4ef5-8064-47812133566e"",""projectId"":""a9f3d40c-5730-405c-b25e-1034c4c56f3f""}","https://test12345.live/?num_scrambled_semantic=8&num_scrambled_causal=4&num_scrambled_schematic=4&participantId=DE8F40AB247A4F45A7D3661EA8139165&assignmentId=eadd7b61-ebe1-4ef5-8064-47812133566e&projectId=a9f3d40c-5730-405c-b25e-1034c4c56f3f","DE8F40AB247A4F45A7D3661EA8139165-2025-08-07-19-17-48","","null","","[]","null","",""
"","","","","","image-button-response","60","735106","0.0-12.0-1.0-0.1","DE8F40AB247A4F45A7D3661EA8139165","DE8F40AB247A4F45A7D3661EA8139165","eadd7b61-ebe1-4ef5-8064-47812133566e","a9f3d40c-5730-405c-b25e-1034c4c56f3f","{""num_scrambled_semantic"":""8"",""num_scrambled_causal"":""4"",""num_scrambled_schematic"":""4"",""participantId"":""DE8F40AB247A4F45A7D3661EA8139165"",""assignmentId"":""eadd7b61-ebe1-4ef5-8064-47812133566e"",""projectId"":""a9f3d40c-5730-405c-b25e-1034c4c56f3f""}","https://test12345.live/?num_scrambled_semantic=8&num_scrambled_causal=4&num_scrambled_schematic=4&participantId=DE8F40AB247A4F45A7D3661EA8139165&assignmentId=eadd7b61-ebe1-4ef5-8064-47812133566e&projectId=a9f3d40c-5730-405c-b25e-1034c4c56f3f","DE8F40AB247A4F45A7D3661EA8139165-2025-08-07-19-17-48","","null","","images/semantic_sequence/maintaining_a_car_semantic/maintaining_a_car_semantic_8.png","null","",""
"","","","","","image-button-response","61","739070","0.0-12.0-1.0-1.1","DE8F40AB247A4F45A7D3661EA8139165","DE8F40AB247A4F45A7D3661EA8139165","eadd7b61-ebe1-4ef5-8064-47812133566e","a9f3d40c-5730-405c-b25e-1034c4c56f3f","{""num_scrambled_semantic"":""8"",""num_scrambled_causal"":""4"",""num_scrambled_schematic"":""4"",""participantId"":""DE8F40AB247A4F45A7D3661EA8139165"",""assignmentId"":""eadd7b61-ebe1-4ef5-8064-47812133566e"",""projectId"":""a9f3d40c-5730-405c-b25e-1034c4c56f3f""}","https://test12345.live/?num_scrambled_semantic=8&num_scrambled_causal=4&num_scrambled_schematic=4&participantId=DE8F40AB247A4F45A7D3661EA8139165&assignmentId=eadd7b61-ebe1-4ef5-8064-47812133566e&projectId=a9f3d40c-5730-405c-b25e-1034c4c56f3f","DE8F40AB247A4F45A7D3661EA8139165-2025-08-07-19-17-48","","3962","","images/semantic_sequence/maintaining_a_car_semantic/maintaining_a_car_semantic_8.png","0","",""
"","","","","","image-button-response","62","740877","0.0-12.0-1.0-2.1","DE8F40AB247A4F45A7D3661EA8139165","DE8F40AB247A4F45A7D3661EA8139165","eadd7b61-ebe1-4ef5-8064-47812133566e","a9f3d40c-5730-405c-b25e-1034c4c56f3f","{""num_scrambled_semantic"":""8"",""num_scrambled_causal"":""4"",""num_scrambled_schematic"":""4"",""participantId"":""DE8F40AB247A4F45A7D3661EA8139165"",""assignmentId"":""eadd7b61-ebe1-4ef5-8064-47812133566e"",""projectId"":""a9f3d40c-5730-405c-b25e-1034c4c56f3f""}","https://test12345.live/?num_scrambled_semantic=8&num_scrambled_causal=4&num_scrambled_schematic=4&participantId=DE8F40AB247A4F45A7D3661EA8139165&assignmentId=eadd7b61-ebe1-4ef5-8064-47812133566e&projectId=a9f3d40c-5730-405c-b25e-1034c4c56f3f","DE8F40AB247A4F45A7D3661EA8139165-2025-08-07-19-17-48","","null","","[]","null","",""
"","","","","","image-button-response","63","745381","0.0-12.0-1.0-0.2","DE8F40AB247A4F45A7D3661EA8139165","DE8F40AB247A4F45A7D3661EA8139165","eadd7b61-ebe1-4ef5-8064-47812133566e","a9f3d40c-5730-405c-b25e-1034c4c56f3f","{""num_scrambled_semantic"":""8"",""num_scrambled_causal"":""4"",""num_scrambled_schematic"":""4"",""participantId"":""DE8F40AB247A4F45A7D3661EA8139165"",""assignmentId"":""eadd7b61-ebe1-4ef5-8064-47812133566e"",""projectId"":""a9f3d40c-5730-405c-b25e-1034c4c56f3f""}","https://test12345.live/?num_scrambled_semantic=8&num_scrambled_causal=4&num_scrambled_schematic=4&participantId=DE8F40AB247A4F45A7D3661EA8139165&assignmentId=eadd7b61-ebe1-4ef5-8064-47812133566e&projectId=a9f3d40c-5730-405c-b25e-1034c4c56f3f","DE8F40AB247A4F45A7D3661EA8139165-2025-08-07-19-17-48","","null","","images/semantic_sequence/maintaining_a_car_semantic/maintaining_a_car_semantic_4.png","null","",""
"","","","","","image-button-response","64","746460","0.0-12.0-1.0-1.2","DE8F40AB247A4F45A7D3661EA8139165","DE8F40AB247A4F45A7D3661EA8139165","eadd7b61-ebe1-4ef5-8064-47812133566e","a9f3d40c-5730-405c-b25e-1034c4c56f3f","{""num_scrambled_semantic"":""8"",""num_scrambled_causal"":""4"",""num_scrambled_schematic"":""4"",""participantId"":""DE8F40AB247A4F45A7D3661EA8139165"",""assignmentId"":""eadd7b61-ebe1-4ef5-8064-47812133566e"",""projectId"":""a9f3d40c-5730-405c-b25e-1034c4c56f3f""}","https://test12345.live/?num_scrambled_semantic=8&num_scrambled_causal=4&num_scrambled_schematic=4&participantId=DE8F40AB247A4F45A7D3661EA8139165&assignmentId=eadd7b61-ebe1-4ef5-8064-47812133566e&projectId=a9f3d40c-5730-405c-b25e-1034c4c56f3f","DE8F40AB247A4F45A7D3661EA8139165-2025-08-07-19-17-48","","1077","","images/semantic_sequence/maintaining_a_car_semantic/maintaining_a_car_semantic_4.png","0","",""
"","","","","","image-button-response","65","748266","0.0-12.0-1.0-2.2","DE8F40AB247A4F45A7D3661EA8139165","DE8F40AB247A4F45A7D3661EA8139165","eadd7b61-ebe1-4ef5-8064-47812133566e","a9f3d40c-5730-405c-b25e-1034c4c56f3f","{""num_scrambled_semantic"":""8"",""num_scrambled_causal"":""4"",""num_scrambled_schematic"":""4"",""participantId"":""DE8F40AB247A4F45A7D3661EA8139165"",""assignmentId"":""eadd7b61-ebe1-4ef5-8064-47812133566e"",""projectId"":""a9f3d40c-5730-405c-b25e-1034c4c56f3f""}","https://test12345.live/?num_scrambled_semantic=8&num_scrambled_causal=4&num_scrambled_schematic=4&participantId=DE8F40AB247A4F45A7D3661EA8139165&assignmentId=eadd7b61-ebe1-4ef5-8064-47812133566e&projectId=a9f3d40c-5730-405c-b25e-1034c4c56f3f","DE8F40AB247A4F45A7D3661EA8139165-2025-08-07-19-17-48","","null","","[]","null","",""
"","","","","","image-button-response","66","752770","0.0-12.0-1.0-0.3","DE8F40AB247A4F45A7D3661EA8139165","DE8F40AB247A4F45A7D3661EA8139165","eadd7b61-ebe1-4ef5-8064-47812133566e","a9f3d40c-5730-405c-b25e-1034c4c56f3f","{""num_scrambled_semantic"":""8"",""num_scrambled_causal"":""4"",""num_scrambled_schematic"":""4"",""participantId"":""DE8F40AB247A4F45A7D3661EA8139165"",""assignmentId"":""eadd7b61-ebe1-4ef5-8064-47812133566e"",""projectId"":""a9f3d40c-5730-405c-b25e-1034c4c56f3f""}","https://test12345.live/?num_scrambled_semantic=8&num_scrambled_causal=4&num_scrambled_schematic=4&participantId=DE8F40AB247A4F45A7D3661EA8139165&assignmentId=eadd7b61-ebe1-4ef5-8064-47812133566e&projectId=a9f3d40c-5730-405c-b25e-1034c4c56f3f","DE8F40AB247A4F45A7D3661EA8139165-2025-08-07-19-17-48","","null","","images/semantic_sequence/maintaining_a_car_semantic/maintaining_a_car_semantic_9.png","null","",""
"","","","","","image-button-response","67","756776","0.0-12.0-1.0-1.3","DE8F40AB247A4F45A7D3661EA8139165","DE8F40AB247A4F45A7D3661EA8139165","eadd7b61-ebe1-4ef5-8064-47812133566e","a9f3d40c-5730-405c-b25e-1034c4c56f3f","{""num_scrambled_semantic"":""8"",""num_scrambled_causal"":""4"",""num_scrambled_schematic"":""4"",""participantId"":""DE8F40AB247A4F45A7D3661EA8139165"",""assignmentId"":""eadd7b61-ebe1-4ef5-8064-47812133566e"",""projectId"":""a9f3d40c-5730-405c-b25e-1034c4c56f3f""}","https://test12345.live/?num_scrambled_semantic=8&num_scrambled_causal=4&num_scrambled_schematic=4&participantId=DE8F40AB247A4F45A7D3661EA8139165&assignmentId=eadd7b61-ebe1-4ef5-8064-47812133566e&projectId=a9f3d40c-5730-405c-b25e-1034c4c56f3f","DE8F40AB247A4F45A7D3661EA8139165-2025-08-07-19-17-48","","null","","images/semantic_sequence/maintaining_a_car_semantic/maintaining_a_car_semantic_9.png","null","",""
"","","","","","image-button-response","68","758583","0.0-12.0-1.0-2.3","DE8F40AB247A4F45A7D3661EA8139165","DE8F40AB247A4F45A7D3661EA8139165","eadd7b61-ebe1-4ef5-8064-47812133566e","a9f3d40c-5730-405c-b25e-1034c4c56f3f","{""num_scrambled_semantic"":""8"",""num_scrambled_causal"":""4"",""num_scrambled_schematic"":""4"",""participantId"":""DE8F40AB247A4F45A7D3661EA8139165"",""assignmentId"":""eadd7b61-ebe1-4ef5-8064-47812133566e"",""projectId"":""a9f3d40c-5730-405c-b25e-1034c4c56f3f""}","https://test12345.live/?num_scrambled_semantic=8&num_scrambled_causal=4&num_scrambled_schematic=4&participantId=DE8F40AB247A4F45A7D3661EA8139165&assignmentId=eadd7b61-ebe1-4ef5-8064-47812133566e&projectId=a9f3d40c-5730-405c-b25e-1034c4c56f3f","DE8F40AB247A4F45A7D3661EA8139165-2025-08-07-19-17-48","","null","","[]","null","",""
"","","","","","image-button-response","69","763089","0.0-12.0-1.0-0.4","DE8F40AB247A4F45A7D3661EA8139165","DE8F40AB247A4F45A7D3661EA8139165","eadd7b61-ebe1-4ef5-8064-47812133566e","a9f3d40c-5730-405c-b25e-1034c4c56f3f","{""num_scrambled_semantic"":""8"",""num_scrambled_causal"":""4"",""num_scrambled_schematic"":""4"",""participantId"":""DE8F40AB247A4F45A7D3661EA8139165"",""assignmentId"":""eadd7b61-ebe1-4ef5-8064-47812133566e"",""projectId"":""a9f3d40c-5730-405c-b25e-1034c4c56f3f""}","https://test12345.live/?num_scrambled_semantic=8&num_scrambled_causal=4&num_scrambled_schematic=4&participantId=DE8F40AB247A4F45A7D3661EA8139165&assignmentId=eadd7b61-ebe1-4ef5-8064-47812133566e&projectId=a9f3d40c-5730-405c-b25e-1034c4c56f3f","DE8F40AB247A4F45A7D3661EA8139165-2025-08-07-19-17-48","","null","","images/semantic_sequence/maintaining_a_car_semantic/maintaining_a_car_semantic_5.png","null","",""
"","","","","","image-button-response","70","763546","0.0-12.0-1.0-1.4","DE8F40AB247A4F45A7D3661EA8139165","DE8F40AB247A4F45A7D3661EA8139165","eadd7b61-ebe1-4ef5-8064-47812133566e","a9f3d40c-5730-405c-b25e-1034c4c56f3f","{""num_scrambled_semantic"":""8"",""num_scrambled_causal"":""4"",""num_scrambled_schematic"":""4"",""participantId"":""DE8F40AB247A4F45A7D3661EA8139165"",""assignmentId"":""eadd7b61-ebe1-4ef5-8064-47812133566e"",""projectId"":""a9f3d40c-5730-405c-b25e-1034c4c56f3f""}","https://test12345.live/?num_scrambled_semantic=8&num_scrambled_causal=4&num_scrambled_schematic=4&participantId=DE8F40AB247A4F45A7D3661EA8139165&assignmentId=eadd7b61-ebe1-4ef5-8064-47812133566e&projectId=a9f3d40c-5730-405c-b25e-1034c4c56f3f","DE8F40AB247A4F45A7D3661EA8139165-2025-08-07-19-17-48","","455","","images/semantic_sequence/maintaining_a_car_semantic/maintaining_a_car_semantic_5.png","0","",""
"","","","","","image-button-response","71","765350","0.0-12.0-1.0-2.4","DE8F40AB247A4F45A7D3661EA8139165","DE8F40AB247A4F45A7D3661EA8139165","eadd7b61-ebe1-4ef5-8064-47812133566e","a9f3d40c-5730-405c-b25e-1034c4c56f3f","{""num_scrambled_semantic"":""8"",""num_scrambled_causal"":""4"",""num_scrambled_schematic"":""4"",""participantId"":""DE8F40AB247A4F45A7D3661EA8139165"",""assignmentId"":""eadd7b61-ebe1-4ef5-8064-47812133566e"",""projectId"":""a9f3d40c-5730-405c-b25e-1034c4c56f3f""}","https://test12345.live/?num_scrambled_semantic=8&num_scrambled_causal=4&num_scrambled_schematic=4&participantId=DE8F40AB247A4F45A7D3661EA8139165&assignmentId=eadd7b61-ebe1-4ef5-8064-47812133566e&projectId=a9f3d40c-5730-405c-b25e-1034c4c56f3f","DE8F40AB247A4F45A7D3661EA8139165-2025-08-07-19-17-48","","null","","[]","null","",""
"","","","","","image-button-response","72","769857","0.0-12.0-1.0-0.5","DE8F40AB247A4F45A7D3661EA8139165","DE8F40AB247A4F45A7D3661EA8139165","eadd7b61-ebe1-4ef5-8064-47812133566e","a9f3d40c-5730-405c-b25e-1034c4c56f3f","{""num_scrambled_semantic"":""8"",""num_scrambled_causal"":""4"",""num_scrambled_schematic"":""4"",""participantId"":""DE8F40AB247A4F45A7D3661EA8139165"",""assignmentId"":""eadd7b61-ebe1-4ef5-8064-47812133566e"",""projectId"":""a9f3d40c-5730-405c-b25e-1034c4c56f3f""}","https://test12345.live/?num_scrambled_semantic=8&num_scrambled_causal=4&num_scrambled_schematic=4&participantId=DE8F40AB247A4F45A7D3661EA8139165&assignmentId=eadd7b61-ebe1-4ef5-8064-47812133566e&projectId=a9f3d40c-5730-405c-b25e-1034c4c56f3f","DE8F40AB247A4F45A7D3661EA8139165-2025-08-07-19-17-48","","null","","images/semantic_sequence/maintaining_a_car_semantic/maintaining_a_car_semantic_ten.png","null","",""
"","","","","","image-button-response","73","771098","0.0-12.0-1.0-1.5","DE8F40AB247A4F45A7D3661EA8139165","DE8F40AB247A4F45A7D3661EA8139165","eadd7b61-ebe1-4ef5-8064-47812133566e","a9f3d40c-5730-405c-b25e-1034c4c56f3f","{""num_scrambled_semantic"":""8"",""num_scrambled_causal"":""4"",""num_scrambled_schematic"":""4"",""participantId"":""DE8F40AB247A4F45A7D3661EA8139165"",""assignmentId"":""eadd7b61-ebe1-4ef5-8064-47812133566e"",""projectId"":""a9f3d40c-5730-405c-b25e-1034c4c56f3f""}","https://test12345.live/?num_scrambled_semantic=8&num_scrambled_causal=4&num_scrambled_schematic=4&participantId=DE8F40AB247A4F45A7D3661EA8139165&assignmentId=eadd7b61-ebe1-4ef5-8064-47812133566e&projectId=a9f3d40c-5730-405c-b25e-1034c4c56f3f","DE8F40AB247A4F45A7D3661EA8139165-2025-08-07-19-17-48","","1240","","images/semantic_sequence/maintaining_a_car_semantic/maintaining_a_car_semantic_ten.png","0","",""
"","","","","","image-button-response","74","772904","0.0-12.0-1.0-2.5","DE8F40AB247A4F45A7D3661EA8139165","DE8F40AB247A4F45A7D3661EA8139165","eadd7b61-ebe1-4ef5-8064-47812133566e","a9f3d40c-5730-405c-b25e-1034c4c56f3f","{""num_scrambled_semantic"":""8"",""num_scrambled_causal"":""4"",""num_scrambled_schematic"":""4"",""participantId"":""DE8F40AB247A4F45A7D3661EA8139165"",""assignmentId"":""eadd7b61-ebe1-4ef5-8064-47812133566e"",""projectId"":""a9f3d40c-5730-405c-b25e-1034c4c56f3f""}","https://test12345.live/?num_scrambled_semantic=8&num_scrambled_causal=4&num_scrambled_schematic=4&participantId=DE8F40AB247A4F45A7D3661EA8139165&assignmentId=eadd7b61-ebe1-4ef5-8064-47812133566e&projectId=a9f3d40c-5730-405c-b25e-1034c4c56f3f","DE8F40AB247A4F45A7D3661EA8139165-2025-08-07-19-17-48","","null","","[]","null","",""
"","","","","","image-button-response","75","777410","0.0-12.0-1.0-0.6","DE8F40AB247A4F45A7D3661EA8139165","DE8F40AB247A4F45A7D3661EA8139165","eadd7b61-ebe1-4ef5-8064-47812133566e","a9f3d40c-5730-405c-b25e-1034c4c56f3f","{""num_scrambled_semantic"":""8"",""num_scrambled_causal"":""4"",""num_scrambled_schematic"":""4"",""participantId"":""DE8F40AB247A4F45A7D3661EA8139165"",""assignmentId"":""eadd7b61-ebe1-4ef5-8064-47812133566e"",""projectId"":""a9f3d40c-5730-405c-b25e-1034c4c56f3f""}","https://test12345.live/?num_scrambled_semantic=8&num_scrambled_causal=4&num_scrambled_schematic=4&participantId=DE8F40AB247A4F45A7D3661EA8139165&assignmentId=eadd7b61-ebe1-4ef5-8064-47812133566e&projectId=a9f3d40c-5730-405c-b25e-1034c4c56f3f","DE8F40AB247A4F45A7D3661EA8139165-2025-08-07-19-17-48","","null","","images/semantic_sequence/maintaining_a_car_semantic/maintaining_a_car_semantic_7.png","null","",""
"","","","","","image-button-response","76","779437","0.0-12.0-1.0-1.6","DE8F40AB247A4F45A7D3661EA8139165","DE8F40AB247A4F45A7D3661EA8139165","eadd7b61-ebe1-4ef5-8064-47812133566e","a9f3d40c-5730-405c-b25e-1034c4c56f3f","{""num_scrambled_semantic"":""8"",""num_scrambled_causal"":""4"",""num_scrambled_schematic"":""4"",""participantId"":""DE8F40AB247A4F45A7D3661EA8139165"",""assignmentId"":""eadd7b61-ebe1-4ef5-8064-47812133566e"",""projectId"":""a9f3d40c-5730-405c-b25e-1034c4c56f3f""}","https://test12345.live/?num_scrambled_semantic=8&num_scrambled_causal=4&num_scrambled_schematic=4&participantId=DE8F40AB247A4F45A7D3661EA8139165&assignmentId=eadd7b61-ebe1-4ef5-8064-47812133566e&projectId=a9f3d40c-5730-405c-b25e-1034c4c56f3f","DE8F40AB247A4F45A7D3661EA8139165-2025-08-07-19-17-48","","2025","","images/semantic_sequence/maintaining_a_car_semantic/maintaining_a_car_semantic_7.png","0","",""
"","","","","","image-button-response","77","781243","0.0-12.0-1.0-2.6","DE8F40AB247A4F45A7D3661EA8139165","DE8F40AB247A4F45A7D3661EA8139165","eadd7b61-ebe1-4ef5-8064-47812133566e","a9f3d40c-5730-405c-b25e-1034c4c56f3f","{""num_scrambled_semantic"":""8"",""num_scrambled_causal"":""4"",""num_scrambled_schematic"":""4"",""participantId"":""DE8F40AB247A4F45A7D3661EA8139165"",""assignmentId"":""eadd7b61-ebe1-4ef5-8064-47812133566e"",""projectId"":""a9f3d40c-5730-405c-b25e-1034c4c56f3f""}","https://test12345.live/?num_scrambled_semantic=8&num_scrambled_causal=4&num_scrambled_schematic=4&participantId=DE8F40AB247A4F45A7D3661EA8139165&assignmentId=eadd7b61-ebe1-4ef5-8064-47812133566e&projectId=a9f3d40c-5730-405c-b25e-1034c4c56f3f","DE8F40AB247A4F45A7D3661EA8139165-2025-08-07-19-17-48","","null","","[]","null","",""
"","","","","","image-button-response","78","785750","0.0-12.0-1.0-0.7","DE8F40AB247A4F45A7D3661EA8139165","DE8F40AB247A4F45A7D3661EA8139165","eadd7b61-ebe1-4ef5-8064-47812133566e","a9f3d40c-5730-405c-b25e-1034c4c56f3f","{""num_scrambled_semantic"":""8"",""num_scrambled_causal"":""4"",""num_scrambled_schematic"":""4"",""participantId"":""DE8F40AB247A4F45A7D3661EA8139165"",""assignmentId"":""eadd7b61-ebe1-4ef5-8064-47812133566e"",""projectId"":""a9f3d40c-5730-405c-b25e-1034c4c56f3f""}","https://test12345.live/?num_scrambled_semantic=8&num_scrambled_causal=4&num_scrambled_schematic=4&participantId=DE8F40AB247A4F45A7D3661EA8139165&assignmentId=eadd7b61-ebe1-4ef5-8064-47812133566e&projectId=a9f3d40c-5730-405c-b25e-1034c4c56f3f","DE8F40AB247A4F45A7D3661EA8139165-2025-08-07-19-17-48","","null","","images/semantic_sequence/maintaining_a_car_semantic/maintaining_a_car_semantic_3.png","null","",""
"","","","","","image-button-response","79","786408","0.0-12.0-1.0-1.7","DE8F40AB247A4F45A7D3661EA8139165","DE8F40AB247A4F45A7D3661EA8139165","eadd7b61-ebe1-4ef5-8064-47812133566e","a9f3d40c-5730-405c-b25e-1034c4c56f3f","{""num_scrambled_semantic"":""8"",""num_scrambled_causal"":""4"",""num_scrambled_schematic"":""4"",""participantId"":""DE8F40AB247A4F45A7D3661EA8139165"",""assignmentId"":""eadd7b61-ebe1-4ef5-8064-47812133566e"",""projectId"":""a9f3d40c-5730-405c-b25e-1034c4c56f3f""}","https://test12345.live/?num_scrambled_semantic=8&num_scrambled_causal=4&num_scrambled_schematic=4&participantId=DE8F40AB247A4F45A7D3661EA8139165&assignmentId=eadd7b61-ebe1-4ef5-8064-47812133566e&projectId=a9f3d40c-5730-405c-b25e-1034c4c56f3f","DE8F40AB247A4F45A7D3661EA8139165-2025-08-07-19-17-48","","657","","images/semantic_sequence/maintaining_a_car_semantic/maintaining_a_car_semantic_3.png","0","",""
"","","","","","image-button-response","80","788215","0.0-12.0-1.0-2.7","DE8F40AB247A4F45A7D3661EA8139165","DE8F40AB247A4F45A7D3661EA8139165","eadd7b61-ebe1-4ef5-8064-47812133566e","a9f3d40c-5730-405c-b25e-1034c4c56f3f","{""num_scrambled_semantic"":""8"",""num_scrambled_causal"":""4"",""num_scrambled_schematic"":""4"",""participantId"":""DE8F40AB247A4F45A7D3661EA8139165"",""assignmentId"":""eadd7b61-ebe1-4ef5-8064-47812133566e"",""projectId"":""a9f3d40c-5730-405c-b25e-1034c4c56f3f""}","https://test12345.live/?num_scrambled_semantic=8&num_scrambled_causal=4&num_scrambled_schematic=4&participantId=DE8F40AB247A4F45A7D3661EA8139165&assignmentId=eadd7b61-ebe1-4ef5-8064-47812133566e&projectId=a9f3d40c-5730-405c-b25e-1034c4c56f3f","DE8F40AB247A4F45A7D3661EA8139165-2025-08-07-19-17-48","","null","","[]","null","",""
"","","","","","image-button-response","81","792719","0.0-12.0-1.0-0.8","DE8F40AB247A4F45A7D3661EA8139165","DE8F40AB247A4F45A7D3661EA8139165","eadd7b61-ebe1-4ef5-8064-47812133566e","a9f3d40c-5730-405c-b25e-1034c4c56f3f","{""num_scrambled_semantic"":""8"",""num_scrambled_causal"":""4"",""num_scrambled_schematic"":""4"",""participantId"":""DE8F40AB247A4F45A7D3661EA8139165"",""assignmentId"":""eadd7b61-ebe1-4ef5-8064-47812133566e"",""projectId"":""a9f3d40c-5730-405c-b25e-1034c4c56f3f""}","https://test12345.live/?num_scrambled_semantic=8&num_scrambled_causal=4&num_scrambled_schematic=4&participantId=DE8F40AB247A4F45A7D3661EA8139165&assignmentId=eadd7b61-ebe1-4ef5-8064-47812133566e&projectId=a9f3d40c-5730-405c-b25e-1034c4c56f3f","DE8F40AB247A4F45A7D3661EA8139165-2025-08-07-19-17-48","","null","","images/semantic_sequence/maintaining_a_car_semantic/maintaining_a_car_semantic_6.png","null","",""
"","","","","","image-button-response","82","793772","0.0-12.0-1.0-1.8","DE8F40AB247A4F45A7D3661EA8139165","DE8F40AB247A4F45A7D3661EA8139165","eadd7b61-ebe1-4ef5-8064-47812133566e","a9f3d40c-5730-405c-b25e-1034c4c56f3f","{""num_scrambled_semantic"":""8"",""num_scrambled_causal"":""4"",""num_scrambled_schematic"":""4"",""participantId"":""DE8F40AB247A4F45A7D3661EA8139165"",""assignmentId"":""eadd7b61-ebe1-4ef5-8064-47812133566e"",""projectId"":""a9f3d40c-5730-405c-b25e-1034c4c56f3f""}","https://test12345.live/?num_scrambled_semantic=8&num_scrambled_causal=4&num_scrambled_schematic=4&participantId=DE8F40AB247A4F45A7D3661EA8139165&assignmentId=eadd7b61-ebe1-4ef5-8064-47812133566e&projectId=a9f3d40c-5730-405c-b25e-1034c4c56f3f","DE8F40AB247A4F45A7D3661EA8139165-2025-08-07-19-17-48","","1051","","images/semantic_sequence/maintaining_a_car_semantic/maintaining_a_car_semantic_6.png","0","",""
"","","","","","image-button-response","83","795574","0.0-12.0-1.0-2.8","DE8F40AB247A4F45A7D3661EA8139165","DE8F40AB247A4F45A7D3661EA8139165","eadd7b61-ebe1-4ef5-8064-47812133566e","a9f3d40c-5730-405c-b25e-1034c4c56f3f","{""num_scrambled_semantic"":""8"",""num_scrambled_causal"":""4"",""num_scrambled_schematic"":""4"",""participantId"":""DE8F40AB247A4F45A7D3661EA8139165"",""assignmentId"":""eadd7b61-ebe1-4ef5-8064-47812133566e"",""projectId"":""a9f3d40c-5730-405c-b25e-1034c4c56f3f""}","https://test12345.live/?num_scrambled_semantic=8&num_scrambled_causal=4&num_scrambled_schematic=4&participantId=DE8F40AB247A4F45A7D3661EA8139165&assignmentId=eadd7b61-ebe1-4ef5-8064-47812133566e&projectId=a9f3d40c-5730-405c-b25e-1034c4c56f3f","DE8F40AB247A4F45A7D3661EA8139165-2025-08-07-19-17-48","","null","","[]","null","",""
"","","","","","image-button-response","84","800077","0.0-12.0-1.0-0.9","DE8F40AB247A4F45A7D3661EA8139165","DE8F40AB247A4F45A7D3661EA8139165","eadd7b61-ebe1-4ef5-8064-47812133566e","a9f3d40c-5730-405c-b25e-1034c4c56f3f","{""num_scrambled_semantic"":""8"",""num_scrambled_causal"":""4"",""num_scrambled_schematic"":""4"",""participantId"":""DE8F40AB247A4F45A7D3661EA8139165"",""assignmentId"":""eadd7b61-ebe1-4ef5-8064-47812133566e"",""projectId"":""a9f3d40c-5730-405c-b25e-1034c4c56f3f""}","https://test12345.live/?num_scrambled_semantic=8&num_scrambled_causal=4&num_scrambled_schematic=4&participantId=DE8F40AB247A4F45A7D3661EA8139165&assignmentId=eadd7b61-ebe1-4ef5-8064-47812133566e&projectId=a9f3d40c-5730-405c-b25e-1034c4c56f3f","DE8F40AB247A4F45A7D3661EA8139165-2025-08-07-19-17-48","","null","","images/semantic_sequence/maintaining_a_car_semantic/maintaining_a_car_semantic_2.png","null","",""
"","","","","","image-button-response","85","800738","0.0-12.0-1.0-1.9","DE8F40AB247A4F45A7D3661EA8139165","DE8F40AB247A4F45A7D3661EA8139165","eadd7b61-ebe1-4ef5-8064-47812133566e","a9f3d40c-5730-405c-b25e-1034c4c56f3f","{""num_scrambled_semantic"":""8"",""num_scrambled_causal"":""4"",""num_scrambled_schematic"":""4"",""participantId"":""DE8F40AB247A4F45A7D3661EA8139165"",""assignmentId"":""eadd7b61-ebe1-4ef5-8064-47812133566e"",""projectId"":""a9f3d40c-5730-405c-b25e-1034c4c56f3f""}","https://test12345.live/?num_scrambled_semantic=8&num_scrambled_causal=4&num_scrambled_schematic=4&participantId=DE8F40AB247A4F45A7D3661EA8139165&assignmentId=eadd7b61-ebe1-4ef5-8064-47812133566e&projectId=a9f3d40c-5730-405c-b25e-1034c4c56f3f","DE8F40AB247A4F45A7D3661EA8139165-2025-08-07-19-17-48","","660","","images/semantic_sequence/maintaining_a_car_semantic/maintaining_a_car_semantic_2.png","0","",""
"","","","","","image-button-response","86","802544","0.0-12.0-1.0-2.9","DE8F40AB247A4F45A7D3661EA8139165","DE8F40AB247A4F45A7D3661EA8139165","eadd7b61-ebe1-4ef5-8064-47812133566e","a9f3d40c-5730-405c-b25e-1034c4c56f3f","{""num_scrambled_semantic"":""8"",""num_scrambled_causal"":""4"",""num_scrambled_schematic"":""4"",""participantId"":""DE8F40AB247A4F45A7D3661EA8139165"",""assignmentId"":""eadd7b61-ebe1-4ef5-8064-47812133566e"",""projectId"":""a9f3d40c-5730-405c-b25e-1034c4c56f3f""}","https://test12345.live/?num_scrambled_semantic=8&num_scrambled_causal=4&num_scrambled_schematic=4&participantId=DE8F40AB247A4F45A7D3661EA8139165&assignmentId=eadd7b61-ebe1-4ef5-8064-47812133566e&projectId=a9f3d40c-5730-405c-b25e-1034c4c56f3f","DE8F40AB247A4F45A7D3661EA8139165-2025-08-07-19-17-48","","null","","[]","null","",""
"","","","","","html-audio-response","87","880827","0.0-13.0","DE8F40AB247A4F45A7D3661EA8139165","DE8F40AB247A4F45A7D3661EA8139165","eadd7b61-ebe1-4ef5-8064-47812133566e","a9f3d40c-5730-405c-b25e-1034c4c56f3f","{""num_scrambled_semantic"":""8"",""num_scrambled_causal"":""4"",""num_scrambled_schematic"":""4"",""participantId"":""DE8F40AB247A4F45A7D3661EA8139165"",""assignmentId"":""eadd7b61-ebe1-4ef5-8064-47812133566e"",""projectId"":""a9f3d40c-5730-405c-b25e-1034c4c56f3f""}","https://test12345.live/?num_scrambled_semantic=8&num_scrambled_causal=4&num_scrambled_schematic=4&participantId=DE8F40AB247A4F45A7D3661EA8139165&assignmentId=eadd7b61-ebe1-4ef5-8064-47812133566e&projectId=a9f3d40c-5730-405c-b25e-1034c4c56f3f","DE8F40AB247A4F45A7D3661EA8139165-2025-08-07-19-17-48","","18431","","[""<span style=\""color: red; font-size: 24px\""> NOW RECORDING</span><p>Please say out loud all the images you saw, as many as you can remember. The images can be said in any order.</p>""]","","7","maintaining_a_car_semantic"
"","","","","","image-button-response","88","886831","0.0-14.0-0.0","DE8F40AB247A4F45A7D3661EA8139165","DE8F40AB247A4F45A7D3661EA8139165","eadd7b61-ebe1-4ef5-8064-47812133566e","a9f3d40c-5730-405c-b25e-1034c4c56f3f","{""num_scrambled_semantic"":""8"",""num_scrambled_causal"":""4"",""num_scrambled_schematic"":""4"",""participantId"":""DE8F40AB247A4F45A7D3661EA8139165"",""assignmentId"":""eadd7b61-ebe1-4ef5-8064-47812133566e"",""projectId"":""a9f3d40c-5730-405c-b25e-1034c4c56f3f""}","https://test12345.live/?num_scrambled_semantic=8&num_scrambled_causal=4&num_scrambled_schematic=4&participantId=DE8F40AB247A4F45A7D3661EA8139165&assignmentId=eadd7b61-ebe1-4ef5-8064-47812133566e&projectId=a9f3d40c-5730-405c-b25e-1034c4c56f3f","DE8F40AB247A4F45A7D3661EA8139165-2025-08-07-19-17-48","","null","","images/causal_sequence/dog_causal/dog_causal_0.png","null","",""
"","","","","","image-button-response","89","891337","0.0-14.0-1.0-0.0","DE8F40AB247A4F45A7D3661EA8139165","DE8F40AB247A4F45A7D3661EA8139165","eadd7b61-ebe1-4ef5-8064-47812133566e","a9f3d40c-5730-405c-b25e-1034c4c56f3f","{""num_scrambled_semantic"":""8"",""num_scrambled_causal"":""4"",""num_scrambled_schematic"":""4"",""participantId"":""DE8F40AB247A4F45A7D3661EA8139165"",""assignmentId"":""eadd7b61-ebe1-4ef5-8064-47812133566e"",""projectId"":""a9f3d40c-5730-405c-b25e-1034c4c56f3f""}","https://test12345.live/?num_scrambled_semantic=8&num_scrambled_causal=4&num_scrambled_schematic=4&participantId=DE8F40AB247A4F45A7D3661EA8139165&assignmentId=eadd7b61-ebe1-4ef5-8064-47812133566e&projectId=a9f3d40c-5730-405c-b25e-1034c4c56f3f","DE8F40AB247A4F45A7D3661EA8139165-2025-08-07-19-17-48","","null","","images/causal_sequence/dog_causal/dog_causal_9.png","null","",""
"","","","","","image-button-response","90","892639","0.0-14.0-1.0-1.0","DE8F40AB247A4F45A7D3661EA8139165","DE8F40AB247A4F45A7D3661EA8139165","eadd7b61-ebe1-4ef5-8064-47812133566e","a9f3d40c-5730-405c-b25e-1034c4c56f3f","{""num_scrambled_semantic"":""8"",""num_scrambled_causal"":""4"",""num_scrambled_schematic"":""4"",""participantId"":""DE8F40AB247A4F45A7D3661EA8139165"",""assignmentId"":""eadd7b61-ebe1-4ef5-8064-47812133566e"",""projectId"":""a9f3d40c-5730-405c-b25e-1034c4c56f3f""}","https://test12345.live/?num_scrambled_semantic=8&num_scrambled_causal=4&num_scrambled_schematic=4&participantId=DE8F40AB247A4F45A7D3661EA8139165&assignmentId=eadd7b61-ebe1-4ef5-8064-47812133566e&projectId=a9f3d40c-5730-405c-b25e-1034c4c56f3f","DE8F40AB247A4F45A7D3661EA8139165-2025-08-07-19-17-48","","1300","","images/causal_sequence/dog_causal/dog_causal_9.png","0","",""
"","","","","","image-button-response","91","894443","0.0-14.0-1.0-2.0","DE8F40AB247A4F45A7D3661EA8139165","DE8F40AB247A4F45A7D3661EA8139165","eadd7b61-ebe1-4ef5-8064-47812133566e","a9f3d40c-5730-405c-b25e-1034c4c56f3f","{""num_scrambled_semantic"":""8"",""num_scrambled_causal"":""4"",""num_scrambled_schematic"":""4"",""participantId"":""DE8F40AB247A4F45A7D3661EA8139165"",""assignmentId"":""eadd7b61-ebe1-4ef5-8064-47812133566e"",""projectId"":""a9f3d40c-5730-405c-b25e-1034c4c56f3f""}","https://test12345.live/?num_scrambled_semantic=8&num_scrambled_causal=4&num_scrambled_schematic=4&participantId=DE8F40AB247A4F45A7D3661EA8139165&assignmentId=eadd7b61-ebe1-4ef5-8064-47812133566e&projectId=a9f3d40c-5730-405c-b25e-1034c4c56f3f","DE8F40AB247A4F45A7D3661EA8139165-2025-08-07-19-17-48","","null","","[]","null","",""
"","","","","","image-button-response","92","898946","0.0-14.0-1.0-0.1","DE8F40AB247A4F45A7D3661EA8139165","DE8F40AB247A4F45A7D3661EA8139165","eadd7b61-ebe1-4ef5-8064-47812133566e","a9f3d40c-5730-405c-b25e-1034c4c56f3f","{""num_scrambled_semantic"":""8"",""num_scrambled_causal"":""4"",""num_scrambled_schematic"":""4"",""participantId"":""DE8F40AB247A4F45A7D3661EA8139165"",""assignmentId"":""eadd7b61-ebe1-4ef5-8064-47812133566e"",""projectId"":""a9f3d40c-5730-405c-b25e-1034c4c56f3f""}","https://test12345.live/?num_scrambled_semantic=8&num_scrambled_causal=4&num_scrambled_schematic=4&participantId=DE8F40AB247A4F45A7D3661EA8139165&assignmentId=eadd7b61-ebe1-4ef5-8064-47812133566e&projectId=a9f3d40c-5730-405c-b25e-1034c4c56f3f","DE8F40AB247A4F45A7D3661EA8139165-2025-08-07-19-17-48","","null","","images/causal_sequence/dog_causal/dog_causal_7.png","null","",""
"","","","","","image-button-response","93","900145","0.0-14.0-1.0-1.1","DE8F40AB247A4F45A7D3661EA8139165","DE8F40AB247A4F45A7D3661EA8139165","eadd7b61-ebe1-4ef5-8064-47812133566e","a9f3d40c-5730-405c-b25e-1034c4c56f3f","{""num_scrambled_semantic"":""8"",""num_scrambled_causal"":""4"",""num_scrambled_schematic"":""4"",""participantId"":""DE8F40AB247A4F45A7D3661EA8139165"",""assignmentId"":""eadd7b61-ebe1-4ef5-8064-47812133566e"",""projectId"":""a9f3d40c-5730-405c-b25e-1034c4c56f3f""}","https://test12345.live/?num_scrambled_semantic=8&num_scrambled_causal=4&num_scrambled_schematic=4&participantId=DE8F40AB247A4F45A7D3661EA8139165&assignmentId=eadd7b61-ebe1-4ef5-8064-47812133566e&projectId=a9f3d40c-5730-405c-b25e-1034c4c56f3f","DE8F40AB247A4F45A7D3661EA8139165-2025-08-07-19-17-48","","1197","","images/causal_sequence/dog_causal/dog_causal_7.png","0","",""
"","","","","","image-button-response","94","901946","0.0-14.0-1.0-2.1","DE8F40AB247A4F45A7D3661EA8139165","DE8F40AB247A4F45A7D3661EA8139165","eadd7b61-ebe1-4ef5-8064-47812133566e","a9f3d40c-5730-405c-b25e-1034c4c56f3f","{""num_scrambled_semantic"":""8"",""num_scrambled_causal"":""4"",""num_scrambled_schematic"":""4"",""participantId"":""DE8F40AB247A4F45A7D3661EA8139165"",""assignmentId"":""eadd7b61-ebe1-4ef5-8064-47812133566e"",""projectId"":""a9f3d40c-5730-405c-b25e-1034c4c56f3f""}","https://test12345.live/?num_scrambled_semantic=8&num_scrambled_causal=4&num_scrambled_schematic=4&participantId=DE8F40AB247A4F45A7D3661EA8139165&assignmentId=eadd7b61-ebe1-4ef5-8064-47812133566e&projectId=a9f3d40c-5730-405c-b25e-1034c4c56f3f","DE8F40AB247A4F45A7D3661EA8139165-2025-08-07-19-17-48","","null","","[]","null","",""
"","","","","","image-button-response","95","906452","0.0-14.0-1.0-0.2","DE8F40AB247A4F45A7D3661EA8139165","DE8F40AB247A4F45A7D3661EA8139165","eadd7b61-ebe1-4ef5-8064-47812133566e","a9f3d40c-5730-405c-b25e-1034c4c56f3f","{""num_scrambled_semantic"":""8"",""num_scrambled_causal"":""4"",""num_scrambled_schematic"":""4"",""participantId"":""DE8F40AB247A4F45A7D3661EA8139165"",""assignmentId"":""eadd7b61-ebe1-4ef5-8064-47812133566e"",""projectId"":""a9f3d40c-5730-405c-b25e-1034c4c56f3f""}","https://test12345.live/?num_scrambled_semantic=8&num_scrambled_causal=4&num_scrambled_schematic=4&participantId=DE8F40AB247A4F45A7D3661EA8139165&assignmentId=eadd7b61-ebe1-4ef5-8064-47812133566e&projectId=a9f3d40c-5730-405c-b25e-1034c4c56f3f","DE8F40AB247A4F45A7D3661EA8139165-2025-08-07-19-17-48","","null","","images/causal_sequence/dog_causal/dog_causal_1.png","null","",""
"","","","","","image-button-response","96","907955","0.0-14.0-1.0-1.2","DE8F40AB247A4F45A7D3661EA8139165","DE8F40AB247A4F45A7D3661EA8139165","eadd7b61-ebe1-4ef5-8064-47812133566e","a9f3d40c-5730-405c-b25e-1034c4c56f3f","{""num_scrambled_semantic"":""8"",""num_scrambled_causal"":""4"",""num_scrambled_schematic"":""4"",""participantId"":""DE8F40AB247A4F45A7D3661EA8139165"",""assignmentId"":""eadd7b61-ebe1-4ef5-8064-47812133566e"",""projectId"":""a9f3d40c-5730-405c-b25e-1034c4c56f3f""}","https://test12345.live/?num_scrambled_semantic=8&num_scrambled_causal=4&num_scrambled_schematic=4&participantId=DE8F40AB247A4F45A7D3661EA8139165&assignmentId=eadd7b61-ebe1-4ef5-8064-47812133566e&projectId=a9f3d40c-5730-405c-b25e-1034c4c56f3f","DE8F40AB247A4F45A7D3661EA8139165-2025-08-07-19-17-48","","1501","","images/causal_sequence/dog_causal/dog_causal_1.png","0","",""
"","","","","","image-button-response","97","909758","0.0-14.0-1.0-2.2","DE8F40AB247A4F45A7D3661EA8139165","DE8F40AB247A4F45A7D3661EA8139165","eadd7b61-ebe1-4ef5-8064-47812133566e","a9f3d40c-5730-405c-b25e-1034c4c56f3f","{""num_scrambled_semantic"":""8"",""num_scrambled_causal"":""4"",""num_scrambled_schematic"":""4"",""participantId"":""DE8F40AB247A4F45A7D3661EA8139165"",""assignmentId"":""eadd7b61-ebe1-4ef5-8064-47812133566e"",""projectId"":""a9f3d40c-5730-405c-b25e-1034c4c56f3f""}","https://test12345.live/?num_scrambled_semantic=8&num_scrambled_causal=4&num_scrambled_schematic=4&participantId=DE8F40AB247A4F45A7D3661EA8139165&assignmentId=eadd7b61-ebe1-4ef5-8064-47812133566e&projectId=a9f3d40c-5730-405c-b25e-1034c4c56f3f","DE8F40AB247A4F45A7D3661EA8139165-2025-08-07-19-17-48","","null","","[]","null","",""
"","","","","","image-button-response","98","914263","0.0-14.0-1.0-0.3","DE8F40AB247A4F45A7D3661EA8139165","DE8F40AB247A4F45A7D3661EA8139165","eadd7b61-ebe1-4ef5-8064-47812133566e","a9f3d40c-5730-405c-b25e-1034c4c56f3f","{""num_scrambled_semantic"":""8"",""num_scrambled_causal"":""4"",""num_scrambled_schematic"":""4"",""participantId"":""DE8F40AB247A4F45A7D3661EA8139165"",""assignmentId"":""eadd7b61-ebe1-4ef5-8064-47812133566e"",""projectId"":""a9f3d40c-5730-405c-b25e-1034c4c56f3f""}","https://test12345.live/?num_scrambled_semantic=8&num_scrambled_causal=4&num_scrambled_schematic=4&participantId=DE8F40AB247A4F45A7D3661EA8139165&assignmentId=eadd7b61-ebe1-4ef5-8064-47812133566e&projectId=a9f3d40c-5730-405c-b25e-1034c4c56f3f","DE8F40AB247A4F45A7D3661EA8139165-2025-08-07-19-17-48","","null","","images/causal_sequence/dog_causal/dog_causal_3.png","null","",""
"","","","","","image-button-response","99","915131","0.0-14.0-1.0-1.3","DE8F40AB247A4F45A7D3661EA8139165","DE8F40AB247A4F45A7D3661EA8139165","eadd7b61-ebe1-4ef5-8064-47812133566e","a9f3d40c-5730-405c-b25e-1034c4c56f3f","{""num_scrambled_semantic"":""8"",""num_scrambled_causal"":""4"",""num_scrambled_schematic"":""4"",""participantId"":""DE8F40AB247A4F45A7D3661EA8139165"",""assignmentId"":""eadd7b61-ebe1-4ef5-8064-47812133566e"",""projectId"":""a9f3d40c-5730-405c-b25e-1034c4c56f3f""}","https://test12345.live/?num_scrambled_semantic=8&num_scrambled_causal=4&num_scrambled_schematic=4&participantId=DE8F40AB247A4F45A7D3661EA8139165&assignmentId=eadd7b61-ebe1-4ef5-8064-47812133566e&projectId=a9f3d40c-5730-405c-b25e-1034c4c56f3f","DE8F40AB247A4F45A7D3661EA8139165-2025-08-07-19-17-48","","867","","images/causal_sequence/dog_causal/dog_causal_3.png","0","",""
"","","","","","image-button-response","100","916937","0.0-14.0-1.0-2.3","DE8F40AB247A4F45A7D3661EA8139165","DE8F40AB247A4F45A7D3661EA8139165","eadd7b61-ebe1-4ef5-8064-47812133566e","a9f3d40c-5730-405c-b25e-1034c4c56f3f","{""num_scrambled_semantic"":""8"",""num_scrambled_causal"":""4"",""num_scrambled_schematic"":""4"",""participantId"":""DE8F40AB247A4F45A7D3661EA8139165"",""assignmentId"":""eadd7b61-ebe1-4ef5-8064-47812133566e"",""projectId"":""a9f3d40c-5730-405c-b25e-1034c4c56f3f""}","https://test12345.live/?num_scrambled_semantic=8&num_scrambled_causal=4&num_scrambled_schematic=4&participantId=DE8F40AB247A4F45A7D3661EA8139165&assignmentId=eadd7b61-ebe1-4ef5-8064-47812133566e&projectId=a9f3d40c-5730-405c-b25e-1034c4c56f3f","DE8F40AB247A4F45A7D3661EA8139165-2025-08-07-19-17-48","","null","","[]","null","",""
"","","","","","image-button-response","101","921444","0.0-14.0-1.0-0.4","DE8F40AB247A4F45A7D3661EA8139165","DE8F40AB247A4F45A7D3661EA8139165","eadd7b61-ebe1-4ef5-8064-47812133566e","a9f3d40c-5730-405c-b25e-1034c4c56f3f","{""num_scrambled_semantic"":""8"",""num_scrambled_causal"":""4"",""num_scrambled_schematic"":""4"",""participantId"":""DE8F40AB247A4F45A7D3661EA8139165"",""assignmentId"":""eadd7b61-ebe1-4ef5-8064-47812133566e"",""projectId"":""a9f3d40c-5730-405c-b25e-1034c4c56f3f""}","https://test12345.live/?num_scrambled_semantic=8&num_scrambled_causal=4&num_scrambled_schematic=4&participantId=DE8F40AB247A4F45A7D3661EA8139165&assignmentId=eadd7b61-ebe1-4ef5-8064-47812133566e&projectId=a9f3d40c-5730-405c-b25e-1034c4c56f3f","DE8F40AB247A4F45A7D3661EA8139165-2025-08-07-19-17-48","","null","","images/causal_sequence/dog_causal/dog_causal_8.png","null","",""
"","","","","","image-button-response","102","922012","0.0-14.0-1.0-1.4","DE8F40AB247A4F45A7D3661EA8139165","DE8F40AB247A4F45A7D3661EA8139165","eadd7b61-ebe1-4ef5-8064-47812133566e","a9f3d40c-5730-405c-b25e-1034c4c56f3f","{""num_scrambled_semantic"":""8"",""num_scrambled_causal"":""4"",""num_scrambled_schematic"":""4"",""participantId"":""DE8F40AB247A4F45A7D3661EA8139165"",""assignmentId"":""eadd7b61-ebe1-4ef5-8064-47812133566e"",""projectId"":""a9f3d40c-5730-405c-b25e-1034c4c56f3f""}","https://test12345.live/?num_scrambled_semantic=8&num_scrambled_causal=4&num_scrambled_schematic=4&participantId=DE8F40AB247A4F45A7D3661EA8139165&assignmentId=eadd7b61-ebe1-4ef5-8064-47812133566e&projectId=a9f3d40c-5730-405c-b25e-1034c4c56f3f","DE8F40AB247A4F45A7D3661EA8139165-2025-08-07-19-17-48","","567","","images/causal_sequence/dog_causal/dog_causal_8.png","0","",""
"","","","","","image-button-response","103","923818","0.0-14.0-1.0-2.4","DE8F40AB247A4F45A7D3661EA8139165","DE8F40AB247A4F45A7D3661EA8139165","eadd7b61-ebe1-4ef5-8064-47812133566e","a9f3d40c-5730-405c-b25e-1034c4c56f3f","{""num_scrambled_semantic"":""8"",""num_scrambled_causal"":""4"",""num_scrambled_schematic"":""4"",""participantId"":""DE8F40AB247A4F45A7D3661EA8139165"",""assignmentId"":""eadd7b61-ebe1-4ef5-8064-47812133566e"",""projectId"":""a9f3d40c-5730-405c-b25e-1034c4c56f3f""}","https://test12345.live/?num_scrambled_semantic=8&num_scrambled_causal=4&num_scrambled_schematic=4&participantId=DE8F40AB247A4F45A7D3661EA8139165&assignmentId=eadd7b61-ebe1-4ef5-8064-47812133566e&projectId=a9f3d40c-5730-405c-b25e-1034c4c56f3f","DE8F40AB247A4F45A7D3661EA8139165-2025-08-07-19-17-48","","null","","[]","null","",""
"","","","","","image-button-response","104","928324","0.0-14.0-1.0-0.5","DE8F40AB247A4F45A7D3661EA8139165","DE8F40AB247A4F45A7D3661EA8139165","eadd7b61-ebe1-4ef5-8064-47812133566e","a9f3d40c-5730-405c-b25e-1034c4c56f3f","{""num_scrambled_semantic"":""8"",""num_scrambled_causal"":""4"",""num_scrambled_schematic"":""4"",""participantId"":""DE8F40AB247A4F45A7D3661EA8139165"",""assignmentId"":""eadd7b61-ebe1-4ef5-8064-47812133566e"",""projectId"":""a9f3d40c-5730-405c-b25e-1034c4c56f3f""}","https://test12345.live/?num_scrambled_semantic=8&num_scrambled_causal=4&num_scrambled_schematic=4&participantId=DE8F40AB247A4F45A7D3661EA8139165&assignmentId=eadd7b61-ebe1-4ef5-8064-47812133566e&projectId=a9f3d40c-5730-405c-b25e-1034c4c56f3f","DE8F40AB247A4F45A7D3661EA8139165-2025-08-07-19-17-48","","null","","images/causal_sequence/dog_causal/dog_causal_2.png","null","",""
"","","","","","image-button-response","105","929381","0.0-14.0-1.0-1.5","DE8F40AB247A4F45A7D3661EA8139165","DE8F40AB247A4F45A7D3661EA8139165","eadd7b61-ebe1-4ef5-8064-47812133566e","a9f3d40c-5730-405c-b25e-1034c4c56f3f","{""num_scrambled_semantic"":""8"",""num_scrambled_causal"":""4"",""num_scrambled_schematic"":""4"",""participantId"":""DE8F40AB247A4F45A7D3661EA8139165"",""assignmentId"":""eadd7b61-ebe1-4ef5-8064-47812133566e"",""projectId"":""a9f3d40c-5730-405c-b25e-1034c4c56f3f""}","https://test12345.live/?num_scrambled_semantic=8&num_scrambled_causal=4&num_scrambled_schematic=4&participantId=DE8F40AB247A4F45A7D3661EA8139165&assignmentId=eadd7b61-ebe1-4ef5-8064-47812133566e&projectId=a9f3d40c-5730-405c-b25e-1034c4c56f3f","DE8F40AB247A4F45A7D3661EA8139165-2025-08-07-19-17-48","","1055","","images/causal_sequence/dog_causal/dog_causal_2.png","0","",""
"","","","","","image-button-response","106","931191","0.0-14.0-1.0-2.5","DE8F40AB247A4F45A7D3661EA8139165","DE8F40AB247A4F45A7D3661EA8139165","eadd7b61-ebe1-4ef5-8064-47812133566e","a9f3d40c-5730-405c-b25e-1034c4c56f3f","{""num_scrambled_semantic"":""8"",""num_scrambled_causal"":""4"",""num_scrambled_schematic"":""4"",""participantId"":""DE8F40AB247A4F45A7D3661EA8139165"",""assignmentId"":""eadd7b61-ebe1-4ef5-8064-47812133566e"",""projectId"":""a9f3d40c-5730-405c-b25e-1034c4c56f3f""}","https://test12345.live/?num_scrambled_semantic=8&num_scrambled_causal=4&num_scrambled_schematic=4&participantId=DE8F40AB247A4F45A7D3661EA8139165&assignmentId=eadd7b61-ebe1-4ef5-8064-47812133566e&projectId=a9f3d40c-5730-405c-b25e-1034c4c56f3f","DE8F40AB247A4F45A7D3661EA8139165-2025-08-07-19-17-48","","null","","[]","null","",""
"","","","","","image-button-response","107","935698","0.0-14.0-1.0-0.6","DE8F40AB247A4F45A7D3661EA8139165","DE8F40AB247A4F45A7D3661EA8139165","eadd7b61-ebe1-4ef5-8064-47812133566e","a9f3d40c-5730-405c-b25e-1034c4c56f3f","{""num_scrambled_semantic"":""8"",""num_scrambled_causal"":""4"",""num_scrambled_schematic"":""4"",""participantId"":""DE8F40AB247A4F45A7D3661EA8139165"",""assignmentId"":""eadd7b61-ebe1-4ef5-8064-47812133566e"",""projectId"":""a9f3d40c-5730-405c-b25e-1034c4c56f3f""}","https://test12345.live/?num_scrambled_semantic=8&num_scrambled_causal=4&num_scrambled_schematic=4&participantId=DE8F40AB247A4F45A7D3661EA8139165&assignmentId=eadd7b61-ebe1-4ef5-8064-47812133566e&projectId=a9f3d40c-5730-405c-b25e-1034c4c56f3f","DE8F40AB247A4F45A7D3661EA8139165-2025-08-07-19-17-48","","null","","images/causal_sequence/dog_causal/dog_causal_ten.png","null","",""
"","","","","","image-button-response","108","936772","0.0-14.0-1.0-1.6","DE8F40AB247A4F45A7D3661EA8139165","DE8F40AB247A4F45A7D3661EA8139165","eadd7b61-ebe1-4ef5-8064-47812133566e","a9f3d40c-5730-405c-b25e-1034c4c56f3f","{""num_scrambled_semantic"":""8"",""num_scrambled_causal"":""4"",""num_scrambled_schematic"":""4"",""participantId"":""DE8F40AB247A4F45A7D3661EA8139165"",""assignmentId"":""eadd7b61-ebe1-4ef5-8064-47812133566e"",""projectId"":""a9f3d40c-5730-405c-b25e-1034c4c56f3f""}","https://test12345.live/?num_scrambled_semantic=8&num_scrambled_causal=4&num_scrambled_schematic=4&participantId=DE8F40AB247A4F45A7D3661EA8139165&assignmentId=eadd7b61-ebe1-4ef5-8064-47812133566e&projectId=a9f3d40c-5730-405c-b25e-1034c4c56f3f","DE8F40AB247A4F45A7D3661EA8139165-2025-08-07-19-17-48","","1073","","images/causal_sequence/dog_causal/dog_causal_ten.png","0","",""
"","","","","","image-button-response","109","938576","0.0-14.0-1.0-2.6","DE8F40AB247A4F45A7D3661EA8139165","DE8F40AB247A4F45A7D3661EA8139165","eadd7b61-ebe1-4ef5-8064-47812133566e","a9f3d40c-5730-405c-b25e-1034c4c56f3f","{""num_scrambled_semantic"":""8"",""num_scrambled_causal"":""4"",""num_scrambled_schematic"":""4"",""participantId"":""DE8F40AB247A4F45A7D3661EA8139165"",""assignmentId"":""eadd7b61-ebe1-4ef5-8064-47812133566e"",""projectId"":""a9f3d40c-5730-405c-b25e-1034c4c56f3f""}","https://test12345.live/?num_scrambled_semantic=8&num_scrambled_causal=4&num_scrambled_schematic=4&participantId=DE8F40AB247A4F45A7D3661EA8139165&assignmentId=eadd7b61-ebe1-4ef5-8064-47812133566e&projectId=a9f3d40c-5730-405c-b25e-1034c4c56f3f","DE8F40AB247A4F45A7D3661EA8139165-2025-08-07-19-17-48","","null","","[]","null","",""
"","","","","","image-button-response","110","943079","0.0-14.0-1.0-0.7","DE8F40AB247A4F45A7D3661EA8139165","DE8F40AB247A4F45A7D3661EA8139165","eadd7b61-ebe1-4ef5-8064-47812133566e","a9f3d40c-5730-405c-b25e-1034c4c56f3f","{""num_scrambled_semantic"":""8"",""num_scrambled_causal"":""4"",""num_scrambled_schematic"":""4"",""participantId"":""DE8F40AB247A4F45A7D3661EA8139165"",""assignmentId"":""eadd7b61-ebe1-4ef5-8064-47812133566e"",""projectId"":""a9f3d40c-5730-405c-b25e-1034c4c56f3f""}","https://test12345.live/?num_scrambled_semantic=8&num_scrambled_causal=4&num_scrambled_schematic=4&participantId=DE8F40AB247A4F45A7D3661EA8139165&assignmentId=eadd7b61-ebe1-4ef5-8064-47812133566e&projectId=a9f3d40c-5730-405c-b25e-1034c4c56f3f","DE8F40AB247A4F45A7D3661EA8139165-2025-08-07-19-17-48","","null","","images/causal_sequence/dog_causal/dog_causal_5.png","null","",""
"","","","","","image-button-response","111","943639","0.0-14.0-1.0-1.7","DE8F40AB247A4F45A7D3661EA8139165","DE8F40AB247A4F45A7D3661EA8139165","eadd7b61-ebe1-4ef5-8064-47812133566e","a9f3d40c-5730-405c-b25e-1034c4c56f3f","{""num_scrambled_semantic"":""8"",""num_scrambled_causal"":""4"",""num_scrambled_schematic"":""4"",""participantId"":""DE8F40AB247A4F45A7D3661EA8139165"",""assignmentId"":""eadd7b61-ebe1-4ef5-8064-47812133566e"",""projectId"":""a9f3d40c-5730-405c-b25e-1034c4c56f3f""}","https://test12345.live/?num_scrambled_semantic=8&num_scrambled_causal=4&num_scrambled_schematic=4&participantId=DE8F40AB247A4F45A7D3661EA8139165&assignmentId=eadd7b61-ebe1-4ef5-8064-47812133566e&projectId=a9f3d40c-5730-405c-b25e-1034c4c56f3f","DE8F40AB247A4F45A7D3661EA8139165-2025-08-07-19-17-48","","558","","images/causal_sequence/dog_causal/dog_causal_5.png","0","",""
"","","","","","image-button-response","112","945443","0.0-14.0-1.0-2.7","DE8F40AB247A4F45A7D3661EA8139165","DE8F40AB247A4F45A7D3661EA8139165","eadd7b61-ebe1-4ef5-8064-47812133566e","a9f3d40c-5730-405c-b25e-1034c4c56f3f","{""num_scrambled_semantic"":""8"",""num_scrambled_causal"":""4"",""num_scrambled_schematic"":""4"",""participantId"":""DE8F40AB247A4F45A7D3661EA8139165"",""assignmentId"":""eadd7b61-ebe1-4ef5-8064-47812133566e"",""projectId"":""a9f3d40c-5730-405c-b25e-1034c4c56f3f""}","https://test12345.live/?num_scrambled_semantic=8&num_scrambled_causal=4&num_scrambled_schematic=4&participantId=DE8F40AB247A4F45A7D3661EA8139165&assignmentId=eadd7b61-ebe1-4ef5-8064-47812133566e&projectId=a9f3d40c-5730-405c-b25e-1034c4c56f3f","DE8F40AB247A4F45A7D3661EA8139165-2025-08-07-19-17-48","","null","","[]","null","",""
"","","","","","image-button-response","113","949948","0.0-14.0-1.0-0.8","DE8F40AB247A4F45A7D3661EA8139165","DE8F40AB247A4F45A7D3661EA8139165","eadd7b61-ebe1-4ef5-8064-47812133566e","a9f3d40c-5730-405c-b25e-1034c4c56f3f","{""num_scrambled_semantic"":""8"",""num_scrambled_causal"":""4"",""num_scrambled_schematic"":""4"",""participantId"":""DE8F40AB247A4F45A7D3661EA8139165"",""assignmentId"":""eadd7b61-ebe1-4ef5-8064-47812133566e"",""projectId"":""a9f3d40c-5730-405c-b25e-1034c4c56f3f""}","https://test12345.live/?num_scrambled_semantic=8&num_scrambled_causal=4&num_scrambled_schematic=4&participantId=DE8F40AB247A4F45A7D3661EA8139165&assignmentId=eadd7b61-ebe1-4ef5-8064-47812133566e&projectId=a9f3d40c-5730-405c-b25e-1034c4c56f3f","DE8F40AB247A4F45A7D3661EA8139165-2025-08-07-19-17-48","","null","","images/causal_sequence/dog_causal/dog_causal_6.png","null","",""
