"success","timeout","failed_images","failed_audio","failed_video","trial_type","trial_index","time_elapsed","internal_node_id","subject","subject_id","study_id","session_id","urlvar","current_url","audio_id","view_history","rt","device_id","stimulus","response","estimated_stimulus_onset","seq_name"
"true","false","[]","[]","[]","preload","0","4947","0.0-0.0","DF243E04841E4ECB8A3B35D547E6039C","DF243E04841E4ECB8A3B35D547E6039C","6a168f51-95df-430c-86b8-b06a7b00a36c","a9f3d40c-5730-405c-b25e-1034c4c56f3f","{""num_scrambled_semantic"":""8"",""num_scrambled_causal"":""4"",""num_scrambled_schematic"":""4"",""participantId"":""DF243E04841E4ECB8A3B35D547E6039C"",""assignmentId"":""6a168f51-95df-430c-86b8-b06a7b00a36c"",""projectId"":""a9f3d40c-5730-405c-b25e-1034c4c56f3f""}","https://test12345.live/?num_scrambled_semantic=8&num_scrambled_causal=4&num_scrambled_schematic=4&participantId=DF243E04841E4ECB8A3B35D547E6039C&assignmentId=6a168f51-95df-430c-86b8-b06a7b00a36c&projectId=a9f3d40c-5730-405c-b25e-1034c4c56f3f","DF243E04841E4ECB8A3B35D547E6039C-2025-08-07-18-54-28","","","","","","",""
"","","","","","instructions","1","25565","0.0-1.0","DF243E04841E4ECB8A3B35D547E6039C","DF243E04841E4ECB8A3B35D547E6039C","6a168f51-95df-430c-86b8-b06a7b00a36c","a9f3d40c-5730-405c-b25e-1034c4c56f3f","{""num_scrambled_semantic"":""8"",""num_scrambled_causal"":""4"",""num_scrambled_schematic"":""4"",""participantId"":""DF243E04841E4ECB8A3B35D547E6039C"",""assignmentId"":""6a168f51-95df-430c-86b8-b06a7b00a36c"",""projectId"":""a9f3d40c-5730-405c-b25e-1034c4c56f3f""}","https://test12345.live/?num_scrambled_semantic=8&num_scrambled_causal=4&num_scrambled_schematic=4&participantId=DF243E04841E4ECB8A3B35D547E6039C&assignmentId=6a168f51-95df-430c-86b8-b06a7b00a36c&projectId=a9f3d40c-5730-405c-b25e-1034c4c56f3f","DF243E04841E4ECB8A3B35D547E6039C-2025-08-07-18-54-28","[{""page_index"":0,""viewing_time"":20619}]","20619","","","","",""
"","","","","","instructions","2","27864","0.0-2.0","DF243E04841E4ECB8A3B35D547E6039C","DF243E04841E4ECB8A3B35D547E6039C","6a168f51-95df-430c-86b8-b06a7b00a36c","a9f3d40c-5730-405c-b25e-1034c4c56f3f","{""num_scrambled_semantic"":""8"",""num_scrambled_causal"":""4"",""num_scrambled_schematic"":""4"",""participantId"":""DF243E04841E4ECB8A3B35D547E6039C"",""assignmentId"":""6a168f51-95df-430c-86b8-b06a7b00a36c"",""projectId"":""a9f3d40c-5730-405c-b25e-1034c4c56f3f""}","https://test12345.live/?num_scrambled_semantic=8&num_scrambled_causal=4&num_scrambled_schematic=4&participantId=DF243E04841E4ECB8A3B35D547E6039C&assignmentId=6a168f51-95df-430c-86b8-b06a7b00a36c&projectId=a9f3d40c-5730-405c-b25e-1034c4c56f3f","DF243E04841E4ECB8A3B35D547E6039C-2025-08-07-18-54-28","[{""page_index"":0,""viewing_time"":2298}]","2298","","","","",""
"true","","","","","fullscreen","3","30534","0.0-3.0","DF243E04841E4ECB8A3B35D547E6039C","DF243E04841E4ECB8A3B35D547E6039C","6a168f51-95df-430c-86b8-b06a7b00a36c","a9f3d40c-5730-405c-b25e-1034c4c56f3f","{""num_scrambled_semantic"":""8"",""num_scrambled_causal"":""4"",""num_scrambled_schematic"":""4"",""participantId"":""DF243E04841E4ECB8A3B35D547E6039C"",""assignmentId"":""6a168f51-95df-430c-86b8-b06a7b00a36c"",""projectId"":""a9f3d40c-5730-405c-b25e-1034c4c56f3f""}","https://test12345.live/?num_scrambled_semantic=8&num_scrambled_causal=4&num_scrambled_schematic=4&participantId=DF243E04841E4ECB8A3B35D547E6039C&assignmentId=6a168f51-95df-430c-86b8-b06a7b00a36c&projectId=a9f3d40c-5730-405c-b25e-1034c4c56f3f","DF243E04841E4ECB8A3B35D547E6039C-2025-08-07-18-54-28","","1666","","","","",""
"","","","","","initialize-microphone","4","58132","0.0-4.0-0.0","DF243E04841E4ECB8A3B35D547E6039C","DF243E04841E4ECB8A3B35D547E6039C","6a168f51-95df-430c-86b8-b06a7b00a36c","a9f3d40c-5730-405c-b25e-1034c4c56f3f","{""num_scrambled_semantic"":""8"",""num_scrambled_causal"":""4"",""num_scrambled_schematic"":""4"",""participantId"":""DF243E04841E4ECB8A3B35D547E6039C"",""assignmentId"":""6a168f51-95df-430c-86b8-b06a7b00a36c"",""projectId"":""a9f3d40c-5730-405c-b25e-1034c4c56f3f""}","https://test12345.live/?num_scrambled_semantic=8&num_scrambled_causal=4&num_scrambled_schematic=4&participantId=DF243E04841E4ECB8A3B35D547E6039C&assignmentId=6a168f51-95df-430c-86b8-b06a7b00a36c&projectId=a9f3d40c-5730-405c-b25e-1034c4c56f3f","DF243E04841E4ECB8A3B35D547E6039C-2025-08-07-18-54-28","","","01ad97a059eded08f3f0448659186da689fd46613183e6c640c308210937c2e0","","","",""
"","","","","","html-audio-response","5","83732","0.0-4.0-1.0","DF243E04841E4ECB8A3B35D547E6039C","DF243E04841E4ECB8A3B35D547E6039C","6a168f51-95df-430c-86b8-b06a7b00a36c","a9f3d40c-5730-405c-b25e-1034c4c56f3f","{""num_scrambled_semantic"":""8"",""num_scrambled_causal"":""4"",""num_scrambled_schematic"":""4"",""participantId"":""DF243E04841E4ECB8A3B35D547E6039C"",""assignmentId"":""6a168f51-95df-430c-86b8-b06a7b00a36c"",""projectId"":""a9f3d40c-5730-405c-b25e-1034c4c56f3f""}","https://test12345.live/?num_scrambled_semantic=8&num_scrambled_causal=4&num_scrambled_schematic=4&participantId=DF243E04841E4ECB8A3B35D547E6039C&assignmentId=6a168f51-95df-430c-86b8-b06a7b00a36c&projectId=a9f3d40c-5730-405c-b25e-1034c4c56f3f","DF243E04841E4ECB8A3B35D547E6039C-2025-08-07-18-54-28","","4596","","<span style=""color: red; font-size: 24px""> NOW RECORDING</span>
        <p>Please test Microphone</p>","","13",""
"","","","","","html-button-response","6","85032","0.0-4.0-2.0","DF243E04841E4ECB8A3B35D547E6039C","DF243E04841E4ECB8A3B35D547E6039C","6a168f51-95df-430c-86b8-b06a7b00a36c","a9f3d40c-5730-405c-b25e-1034c4c56f3f","{""num_scrambled_semantic"":""8"",""num_scrambled_causal"":""4"",""num_scrambled_schematic"":""4"",""participantId"":""DF243E04841E4ECB8A3B35D547E6039C"",""assignmentId"":""6a168f51-95df-430c-86b8-b06a7b00a36c"",""projectId"":""a9f3d40c-5730-405c-b25e-1034c4c56f3f""}","https://test12345.live/?num_scrambled_semantic=8&num_scrambled_causal=4&num_scrambled_schematic=4&participantId=DF243E04841E4ECB8A3B35D547E6039C&assignmentId=6a168f51-95df-430c-86b8-b06a7b00a36c&projectId=a9f3d40c-5730-405c-b25e-1034c4c56f3f","DF243E04841E4ECB8A3B35D547E6039C-2025-08-07-18-54-28","","1299","","<p style=""font-size:48px; color:red;"">Is Microphone OK?</p>","1","",""
"","","","","","instructions","7","90065","0.0-5.0","DF243E04841E4ECB8A3B35D547E6039C","DF243E04841E4ECB8A3B35D547E6039C","6a168f51-95df-430c-86b8-b06a7b00a36c","a9f3d40c-5730-405c-b25e-1034c4c56f3f","{""num_scrambled_semantic"":""8"",""num_scrambled_causal"":""4"",""num_scrambled_schematic"":""4"",""participantId"":""DF243E04841E4ECB8A3B35D547E6039C"",""assignmentId"":""6a168f51-95df-430c-86b8-b06a7b00a36c"",""projectId"":""a9f3d40c-5730-405c-b25e-1034c4c56f3f""}","https://test12345.live/?num_scrambled_semantic=8&num_scrambled_causal=4&num_scrambled_schematic=4&participantId=DF243E04841E4ECB8A3B35D547E6039C&assignmentId=6a168f51-95df-430c-86b8-b06a7b00a36c&projectId=a9f3d40c-5730-405c-b25e-1034c4c56f3f","DF243E04841E4ECB8A3B35D547E6039C-2025-08-07-18-54-28","[{""page_index"":0,""viewing_time"":2348},{""page_index"":1,""viewing_time"":2684}]","5032","","","","",""
"","","","","","image-button-response","8","96071","0.0-6.0-0.0","DF243E04841E4ECB8A3B35D547E6039C","DF243E04841E4ECB8A3B35D547E6039C","6a168f51-95df-430c-86b8-b06a7b00a36c","a9f3d40c-5730-405c-b25e-1034c4c56f3f","{""num_scrambled_semantic"":""8"",""num_scrambled_causal"":""4"",""num_scrambled_schematic"":""4"",""participantId"":""DF243E04841E4ECB8A3B35D547E6039C"",""assignmentId"":""6a168f51-95df-430c-86b8-b06a7b00a36c"",""projectId"":""a9f3d40c-5730-405c-b25e-1034c4c56f3f""}","https://test12345.live/?num_scrambled_semantic=8&num_scrambled_causal=4&num_scrambled_schematic=4&participantId=DF243E04841E4ECB8A3B35D547E6039C&assignmentId=6a168f51-95df-430c-86b8-b06a7b00a36c&projectId=a9f3d40c-5730-405c-b25e-1034c4c56f3f","DF243E04841E4ECB8A3B35D547E6039C-2025-08-07-18-54-28","","null","","images/instructions/movie_0.png","null","",""
"","","","","","image-button-response","9","100575","0.0-6.0-1.0-0.0","DF243E04841E4ECB8A3B35D547E6039C","DF243E04841E4ECB8A3B35D547E6039C","6a168f51-95df-430c-86b8-b06a7b00a36c","a9f3d40c-5730-405c-b25e-1034c4c56f3f","{""num_scrambled_semantic"":""8"",""num_scrambled_causal"":""4"",""num_scrambled_schematic"":""4"",""participantId"":""DF243E04841E4ECB8A3B35D547E6039C"",""assignmentId"":""6a168f51-95df-430c-86b8-b06a7b00a36c"",""projectId"":""a9f3d40c-5730-405c-b25e-1034c4c56f3f""}","https://test12345.live/?num_scrambled_semantic=8&num_scrambled_causal=4&num_scrambled_schematic=4&participantId=DF243E04841E4ECB8A3B35D547E6039C&assignmentId=6a168f51-95df-430c-86b8-b06a7b00a36c&projectId=a9f3d40c-5730-405c-b25e-1034c4c56f3f","DF243E04841E4ECB8A3B35D547E6039C-2025-08-07-18-54-28","","null","","images/instructions/movie_1.png","null","",""
"","","","","","image-button-response","10","103398","0.0-6.0-1.0-1.0","DF243E04841E4ECB8A3B35D547E6039C","DF243E04841E4ECB8A3B35D547E6039C","6a168f51-95df-430c-86b8-b06a7b00a36c","a9f3d40c-5730-405c-b25e-1034c4c56f3f","{""num_scrambled_semantic"":""8"",""num_scrambled_causal"":""4"",""num_scrambled_schematic"":""4"",""participantId"":""DF243E04841E4ECB8A3B35D547E6039C"",""assignmentId"":""6a168f51-95df-430c-86b8-b06a7b00a36c"",""projectId"":""a9f3d40c-5730-405c-b25e-1034c4c56f3f""}","https://test12345.live/?num_scrambled_semantic=8&num_scrambled_causal=4&num_scrambled_schematic=4&participantId=DF243E04841E4ECB8A3B35D547E6039C&assignmentId=6a168f51-95df-430c-86b8-b06a7b00a36c&projectId=a9f3d40c-5730-405c-b25e-1034c4c56f3f","DF243E04841E4ECB8A3B35D547E6039C-2025-08-07-18-54-28","","2821","","images/instructions/movie_1.png","0","",""
"","","","","","image-button-response","11","105201","0.0-6.0-1.0-2.0","DF243E04841E4ECB8A3B35D547E6039C","DF243E04841E4ECB8A3B35D547E6039C","6a168f51-95df-430c-86b8-b06a7b00a36c","a9f3d40c-5730-405c-b25e-1034c4c56f3f","{""num_scrambled_semantic"":""8"",""num_scrambled_causal"":""4"",""num_scrambled_schematic"":""4"",""participantId"":""DF243E04841E4ECB8A3B35D547E6039C"",""assignmentId"":""6a168f51-95df-430c-86b8-b06a7b00a36c"",""projectId"":""a9f3d40c-5730-405c-b25e-1034c4c56f3f""}","https://test12345.live/?num_scrambled_semantic=8&num_scrambled_causal=4&num_scrambled_schematic=4&participantId=DF243E04841E4ECB8A3B35D547E6039C&assignmentId=6a168f51-95df-430c-86b8-b06a7b00a36c&projectId=a9f3d40c-5730-405c-b25e-1034c4c56f3f","DF243E04841E4ECB8A3B35D547E6039C-2025-08-07-18-54-28","","null","","[]","null","",""
"","","","","","image-button-response","12","109706","0.0-6.0-1.0-0.1","DF243E04841E4ECB8A3B35D547E6039C","DF243E04841E4ECB8A3B35D547E6039C","6a168f51-95df-430c-86b8-b06a7b00a36c","a9f3d40c-5730-405c-b25e-1034c4c56f3f","{""num_scrambled_semantic"":""8"",""num_scrambled_causal"":""4"",""num_scrambled_schematic"":""4"",""participantId"":""DF243E04841E4ECB8A3B35D547E6039C"",""assignmentId"":""6a168f51-95df-430c-86b8-b06a7b00a36c"",""projectId"":""a9f3d40c-5730-405c-b25e-1034c4c56f3f""}","https://test12345.live/?num_scrambled_semantic=8&num_scrambled_causal=4&num_scrambled_schematic=4&participantId=DF243E04841E4ECB8A3B35D547E6039C&assignmentId=6a168f51-95df-430c-86b8-b06a7b00a36c&projectId=a9f3d40c-5730-405c-b25e-1034c4c56f3f","DF243E04841E4ECB8A3B35D547E6039C-2025-08-07-18-54-28","","null","","images/instructions/movie_2.png","null","",""
"","","","","","image-button-response","13","110798","0.0-6.0-1.0-1.1","DF243E04841E4ECB8A3B35D547E6039C","DF243E04841E4ECB8A3B35D547E6039C","6a168f51-95df-430c-86b8-b06a7b00a36c","a9f3d40c-5730-405c-b25e-1034c4c56f3f","{""num_scrambled_semantic"":""8"",""num_scrambled_causal"":""4"",""num_scrambled_schematic"":""4"",""participantId"":""DF243E04841E4ECB8A3B35D547E6039C"",""assignmentId"":""6a168f51-95df-430c-86b8-b06a7b00a36c"",""projectId"":""a9f3d40c-5730-405c-b25e-1034c4c56f3f""}","https://test12345.live/?num_scrambled_semantic=8&num_scrambled_causal=4&num_scrambled_schematic=4&participantId=DF243E04841E4ECB8A3B35D547E6039C&assignmentId=6a168f51-95df-430c-86b8-b06a7b00a36c&projectId=a9f3d40c-5730-405c-b25e-1034c4c56f3f","DF243E04841E4ECB8A3B35D547E6039C-2025-08-07-18-54-28","","1090","","images/instructions/movie_2.png","1","",""
"","","","","","image-button-response","14","112604","0.0-6.0-1.0-2.1","DF243E04841E4ECB8A3B35D547E6039C","DF243E04841E4ECB8A3B35D547E6039C","6a168f51-95df-430c-86b8-b06a7b00a36c","a9f3d40c-5730-405c-b25e-1034c4c56f3f","{""num_scrambled_semantic"":""8"",""num_scrambled_causal"":""4"",""num_scrambled_schematic"":""4"",""participantId"":""DF243E04841E4ECB8A3B35D547E6039C"",""assignmentId"":""6a168f51-95df-430c-86b8-b06a7b00a36c"",""projectId"":""a9f3d40c-5730-405c-b25e-1034c4c56f3f""}","https://test12345.live/?num_scrambled_semantic=8&num_scrambled_causal=4&num_scrambled_schematic=4&participantId=DF243E04841E4ECB8A3B35D547E6039C&assignmentId=6a168f51-95df-430c-86b8-b06a7b00a36c&projectId=a9f3d40c-5730-405c-b25e-1034c4c56f3f","DF243E04841E4ECB8A3B35D547E6039C-2025-08-07-18-54-28","","null","","[]","null","",""
"","","","","","image-button-response","15","117110","0.0-6.0-1.0-0.2","DF243E04841E4ECB8A3B35D547E6039C","DF243E04841E4ECB8A3B35D547E6039C","6a168f51-95df-430c-86b8-b06a7b00a36c","a9f3d40c-5730-405c-b25e-1034c4c56f3f","{""num_scrambled_semantic"":""8"",""num_scrambled_causal"":""4"",""num_scrambled_schematic"":""4"",""participantId"":""DF243E04841E4ECB8A3B35D547E6039C"",""assignmentId"":""6a168f51-95df-430c-86b8-b06a7b00a36c"",""projectId"":""a9f3d40c-5730-405c-b25e-1034c4c56f3f""}","https://test12345.live/?num_scrambled_semantic=8&num_scrambled_causal=4&num_scrambled_schematic=4&participantId=DF243E04841E4ECB8A3B35D547E6039C&assignmentId=6a168f51-95df-430c-86b8-b06a7b00a36c&projectId=a9f3d40c-5730-405c-b25e-1034c4c56f3f","DF243E04841E4ECB8A3B35D547E6039C-2025-08-07-18-54-28","","null","","images/instructions/movie_3.png","null","",""
"","","","","","image-button-response","16","117880","0.0-6.0-1.0-1.2","DF243E04841E4ECB8A3B35D547E6039C","DF243E04841E4ECB8A3B35D547E6039C","6a168f51-95df-430c-86b8-b06a7b00a36c","a9f3d40c-5730-405c-b25e-1034c4c56f3f","{""num_scrambled_semantic"":""8"",""num_scrambled_causal"":""4"",""num_scrambled_schematic"":""4"",""participantId"":""DF243E04841E4ECB8A3B35D547E6039C"",""assignmentId"":""6a168f51-95df-430c-86b8-b06a7b00a36c"",""projectId"":""a9f3d40c-5730-405c-b25e-1034c4c56f3f""}","https://test12345.live/?num_scrambled_semantic=8&num_scrambled_causal=4&num_scrambled_schematic=4&participantId=DF243E04841E4ECB8A3B35D547E6039C&assignmentId=6a168f51-95df-430c-86b8-b06a7b00a36c&projectId=a9f3d40c-5730-405c-b25e-1034c4c56f3f","DF243E04841E4ECB8A3B35D547E6039C-2025-08-07-18-54-28","","768","","images/instructions/movie_3.png","0","",""
"","","","","","image-button-response","17","119685","0.0-6.0-1.0-2.2","DF243E04841E4ECB8A3B35D547E6039C","DF243E04841E4ECB8A3B35D547E6039C","6a168f51-95df-430c-86b8-b06a7b00a36c","a9f3d40c-5730-405c-b25e-1034c4c56f3f","{""num_scrambled_semantic"":""8"",""num_scrambled_causal"":""4"",""num_scrambled_schematic"":""4"",""participantId"":""DF243E04841E4ECB8A3B35D547E6039C"",""assignmentId"":""6a168f51-95df-430c-86b8-b06a7b00a36c"",""projectId"":""a9f3d40c-5730-405c-b25e-1034c4c56f3f""}","https://test12345.live/?num_scrambled_semantic=8&num_scrambled_causal=4&num_scrambled_schematic=4&participantId=DF243E04841E4ECB8A3B35D547E6039C&assignmentId=6a168f51-95df-430c-86b8-b06a7b00a36c&projectId=a9f3d40c-5730-405c-b25e-1034c4c56f3f","DF243E04841E4ECB8A3B35D547E6039C-2025-08-07-18-54-28","","null","","[]","null","",""
"","","","","","image-button-response","18","124189","0.0-6.0-1.0-0.3","DF243E04841E4ECB8A3B35D547E6039C","DF243E04841E4ECB8A3B35D547E6039C","6a168f51-95df-430c-86b8-b06a7b00a36c","a9f3d40c-5730-405c-b25e-1034c4c56f3f","{""num_scrambled_semantic"":""8"",""num_scrambled_causal"":""4"",""num_scrambled_schematic"":""4"",""participantId"":""DF243E04841E4ECB8A3B35D547E6039C"",""assignmentId"":""6a168f51-95df-430c-86b8-b06a7b00a36c"",""projectId"":""a9f3d40c-5730-405c-b25e-1034c4c56f3f""}","https://test12345.live/?num_scrambled_semantic=8&num_scrambled_causal=4&num_scrambled_schematic=4&participantId=DF243E04841E4ECB8A3B35D547E6039C&assignmentId=6a168f51-95df-430c-86b8-b06a7b00a36c&projectId=a9f3d40c-5730-405c-b25e-1034c4c56f3f","DF243E04841E4ECB8A3B35D547E6039C-2025-08-07-18-54-28","","null","","images/instructions/movie_4.png","null","",""
"","","","","","image-button-response","19","125132","0.0-6.0-1.0-1.3","DF243E04841E4ECB8A3B35D547E6039C","DF243E04841E4ECB8A3B35D547E6039C","6a168f51-95df-430c-86b8-b06a7b00a36c","a9f3d40c-5730-405c-b25e-1034c4c56f3f","{""num_scrambled_semantic"":""8"",""num_scrambled_causal"":""4"",""num_scrambled_schematic"":""4"",""participantId"":""DF243E04841E4ECB8A3B35D547E6039C"",""assignmentId"":""6a168f51-95df-430c-86b8-b06a7b00a36c"",""projectId"":""a9f3d40c-5730-405c-b25e-1034c4c56f3f""}","https://test12345.live/?num_scrambled_semantic=8&num_scrambled_causal=4&num_scrambled_schematic=4&participantId=DF243E04841E4ECB8A3B35D547E6039C&assignmentId=6a168f51-95df-430c-86b8-b06a7b00a36c&projectId=a9f3d40c-5730-405c-b25e-1034c4c56f3f","DF243E04841E4ECB8A3B35D547E6039C-2025-08-07-18-54-28","","941","","images/instructions/movie_4.png","0","",""
"","","","","","image-button-response","20","126939","0.0-6.0-1.0-2.3","DF243E04841E4ECB8A3B35D547E6039C","DF243E04841E4ECB8A3B35D547E6039C","6a168f51-95df-430c-86b8-b06a7b00a36c","a9f3d40c-5730-405c-b25e-1034c4c56f3f","{""num_scrambled_semantic"":""8"",""num_scrambled_causal"":""4"",""num_scrambled_schematic"":""4"",""participantId"":""DF243E04841E4ECB8A3B35D547E6039C"",""assignmentId"":""6a168f51-95df-430c-86b8-b06a7b00a36c"",""projectId"":""a9f3d40c-5730-405c-b25e-1034c4c56f3f""}","https://test12345.live/?num_scrambled_semantic=8&num_scrambled_causal=4&num_scrambled_schematic=4&participantId=DF243E04841E4ECB8A3B35D547E6039C&assignmentId=6a168f51-95df-430c-86b8-b06a7b00a36c&projectId=a9f3d40c-5730-405c-b25e-1034c4c56f3f","DF243E04841E4ECB8A3B35D547E6039C-2025-08-07-18-54-28","","null","","[]","null","",""
"","","","","","instructions","21","134448","0.0-7.0","DF243E04841E4ECB8A3B35D547E6039C","DF243E04841E4ECB8A3B35D547E6039C","6a168f51-95df-430c-86b8-b06a7b00a36c","a9f3d40c-5730-405c-b25e-1034c4c56f3f","{""num_scrambled_semantic"":""8"",""num_scrambled_causal"":""4"",""num_scrambled_schematic"":""4"",""participantId"":""DF243E04841E4ECB8A3B35D547E6039C"",""assignmentId"":""6a168f51-95df-430c-86b8-b06a7b00a36c"",""projectId"":""a9f3d40c-5730-405c-b25e-1034c4c56f3f""}","https://test12345.live/?num_scrambled_semantic=8&num_scrambled_causal=4&num_scrambled_schematic=4&participantId=DF243E04841E4ECB8A3B35D547E6039C&assignmentId=6a168f51-95df-430c-86b8-b06a7b00a36c&projectId=a9f3d40c-5730-405c-b25e-1034c4c56f3f","DF243E04841E4ECB8A3B35D547E6039C-2025-08-07-18-54-28","[{""page_index"":0,""viewing_time"":6491},{""page_index"":1,""viewing_time"":1017}]","7508","","","","",""
"","","","","","html-audio-response","22","160513","0.0-8.0","DF243E04841E4ECB8A3B35D547E6039C","DF243E04841E4ECB8A3B35D547E6039C","6a168f51-95df-430c-86b8-b06a7b00a36c","a9f3d40c-5730-405c-b25e-1034c4c56f3f","{""num_scrambled_semantic"":""8"",""num_scrambled_causal"":""4"",""num_scrambled_schematic"":""4"",""participantId"":""DF243E04841E4ECB8A3B35D547E6039C"",""assignmentId"":""6a168f51-95df-430c-86b8-b06a7b00a36c"",""projectId"":""a9f3d40c-5730-405c-b25e-1034c4c56f3f""}","https://test12345.live/?num_scrambled_semantic=8&num_scrambled_causal=4&num_scrambled_schematic=4&participantId=DF243E04841E4ECB8A3B35D547E6039C&assignmentId=6a168f51-95df-430c-86b8-b06a7b00a36c&projectId=a9f3d40c-5730-405c-b25e-1034c4c56f3f","DF243E04841E4ECB8A3B35D547E6039C-2025-08-07-18-54-28","","7647","","[""<span style=\""color: red; font-size: 24px\""> NOW RECORDING</span><p>Please say out loud all the images you saw, as many as you can remember. The images can be said in any order.</p>""]","","14",""
"","","","","","instructions","23","161914","0.0-9.0","DF243E04841E4ECB8A3B35D547E6039C","DF243E04841E4ECB8A3B35D547E6039C","6a168f51-95df-430c-86b8-b06a7b00a36c","a9f3d40c-5730-405c-b25e-1034c4c56f3f","{""num_scrambled_semantic"":""8"",""num_scrambled_causal"":""4"",""num_scrambled_schematic"":""4"",""participantId"":""DF243E04841E4ECB8A3B35D547E6039C"",""assignmentId"":""6a168f51-95df-430c-86b8-b06a7b00a36c"",""projectId"":""a9f3d40c-5730-405c-b25e-1034c4c56f3f""}","https://test12345.live/?num_scrambled_semantic=8&num_scrambled_causal=4&num_scrambled_schematic=4&participantId=DF243E04841E4ECB8A3B35D547E6039C&assignmentId=6a168f51-95df-430c-86b8-b06a7b00a36c&projectId=a9f3d40c-5730-405c-b25e-1034c4c56f3f","DF243E04841E4ECB8A3B35D547E6039C-2025-08-07-18-54-28","[{""page_index"":0,""viewing_time"":1399}]","1399","","","","",""
"","","","","","image-button-response","24","167922","0.0-10.0-0.0","DF243E04841E4ECB8A3B35D547E6039C","DF243E04841E4ECB8A3B35D547E6039C","6a168f51-95df-430c-86b8-b06a7b00a36c","a9f3d40c-5730-405c-b25e-1034c4c56f3f","{""num_scrambled_semantic"":""8"",""num_scrambled_causal"":""4"",""num_scrambled_schematic"":""4"",""participantId"":""DF243E04841E4ECB8A3B35D547E6039C"",""assignmentId"":""6a168f51-95df-430c-86b8-b06a7b00a36c"",""projectId"":""a9f3d40c-5730-405c-b25e-1034c4c56f3f""}","https://test12345.live/?num_scrambled_semantic=8&num_scrambled_causal=4&num_scrambled_schematic=4&participantId=DF243E04841E4ECB8A3B35D547E6039C&assignmentId=6a168f51-95df-430c-86b8-b06a7b00a36c&projectId=a9f3d40c-5730-405c-b25e-1034c4c56f3f","DF243E04841E4ECB8A3B35D547E6039C-2025-08-07-18-54-28","","null","","images/semantic_sequence/self_care_activities_semantic/self_care_activities_semantic_0.png","null","",""
"","","","","","image-button-response","25","172428","0.0-10.0-1.0-0.0","DF243E04841E4ECB8A3B35D547E6039C","DF243E04841E4ECB8A3B35D547E6039C","6a168f51-95df-430c-86b8-b06a7b00a36c","a9f3d40c-5730-405c-b25e-1034c4c56f3f","{""num_scrambled_semantic"":""8"",""num_scrambled_causal"":""4"",""num_scrambled_schematic"":""4"",""participantId"":""DF243E04841E4ECB8A3B35D547E6039C"",""assignmentId"":""6a168f51-95df-430c-86b8-b06a7b00a36c"",""projectId"":""a9f3d40c-5730-405c-b25e-1034c4c56f3f""}","https://test12345.live/?num_scrambled_semantic=8&num_scrambled_causal=4&num_scrambled_schematic=4&participantId=DF243E04841E4ECB8A3B35D547E6039C&assignmentId=6a168f51-95df-430c-86b8-b06a7b00a36c&projectId=a9f3d40c-5730-405c-b25e-1034c4c56f3f","DF243E04841E4ECB8A3B35D547E6039C-2025-08-07-18-54-28","","null","","images/semantic_sequence/self_care_activities_semantic/self_care_activities_semantic_1.png","null","",""
"","","","","","image-button-response","26","173281","0.0-10.0-1.0-1.0","DF243E04841E4ECB8A3B35D547E6039C","DF243E04841E4ECB8A3B35D547E6039C","6a168f51-95df-430c-86b8-b06a7b00a36c","a9f3d40c-5730-405c-b25e-1034c4c56f3f","{""num_scrambled_semantic"":""8"",""num_scrambled_causal"":""4"",""num_scrambled_schematic"":""4"",""participantId"":""DF243E04841E4ECB8A3B35D547E6039C"",""assignmentId"":""6a168f51-95df-430c-86b8-b06a7b00a36c"",""projectId"":""a9f3d40c-5730-405c-b25e-1034c4c56f3f""}","https://test12345.live/?num_scrambled_semantic=8&num_scrambled_causal=4&num_scrambled_schematic=4&participantId=DF243E04841E4ECB8A3B35D547E6039C&assignmentId=6a168f51-95df-430c-86b8-b06a7b00a36c&projectId=a9f3d40c-5730-405c-b25e-1034c4c56f3f","DF243E04841E4ECB8A3B35D547E6039C-2025-08-07-18-54-28","","851","","images/semantic_sequence/self_care_activities_semantic/self_care_activities_semantic_1.png","0","",""
"","","","","","image-button-response","27","175087","0.0-10.0-1.0-2.0","DF243E04841E4ECB8A3B35D547E6039C","DF243E04841E4ECB8A3B35D547E6039C","6a168f51-95df-430c-86b8-b06a7b00a36c","a9f3d40c-5730-405c-b25e-1034c4c56f3f","{""num_scrambled_semantic"":""8"",""num_scrambled_causal"":""4"",""num_scrambled_schematic"":""4"",""participantId"":""DF243E04841E4ECB8A3B35D547E6039C"",""assignmentId"":""6a168f51-95df-430c-86b8-b06a7b00a36c"",""projectId"":""a9f3d40c-5730-405c-b25e-1034c4c56f3f""}","https://test12345.live/?num_scrambled_semantic=8&num_scrambled_causal=4&num_scrambled_schematic=4&participantId=DF243E04841E4ECB8A3B35D547E6039C&assignmentId=6a168f51-95df-430c-86b8-b06a7b00a36c&projectId=a9f3d40c-5730-405c-b25e-1034c4c56f3f","DF243E04841E4ECB8A3B35D547E6039C-2025-08-07-18-54-28","","null","","[]","null","",""
"","","","","","image-button-response","28","179594","0.0-10.0-1.0-0.1","DF243E04841E4ECB8A3B35D547E6039C","DF243E04841E4ECB8A3B35D547E6039C","6a168f51-95df-430c-86b8-b06a7b00a36c","a9f3d40c-5730-405c-b25e-1034c4c56f3f","{""num_scrambled_semantic"":""8"",""num_scrambled_causal"":""4"",""num_scrambled_schematic"":""4"",""participantId"":""DF243E04841E4ECB8A3B35D547E6039C"",""assignmentId"":""6a168f51-95df-430c-86b8-b06a7b00a36c"",""projectId"":""a9f3d40c-5730-405c-b25e-1034c4c56f3f""}","https://test12345.live/?num_scrambled_semantic=8&num_scrambled_causal=4&num_scrambled_schematic=4&participantId=DF243E04841E4ECB8A3B35D547E6039C&assignmentId=6a168f51-95df-430c-86b8-b06a7b00a36c&projectId=a9f3d40c-5730-405c-b25e-1034c4c56f3f","DF243E04841E4ECB8A3B35D547E6039C-2025-08-07-18-54-28","","null","","images/semantic_sequence/self_care_activities_semantic/self_care_activities_semantic_8.png","null","",""
"","","","","","image-button-response","29","180529","0.0-10.0-1.0-1.1","DF243E04841E4ECB8A3B35D547E6039C","DF243E04841E4ECB8A3B35D547E6039C","6a168f51-95df-430c-86b8-b06a7b00a36c","a9f3d40c-5730-405c-b25e-1034c4c56f3f","{""num_scrambled_semantic"":""8"",""num_scrambled_causal"":""4"",""num_scrambled_schematic"":""4"",""participantId"":""DF243E04841E4ECB8A3B35D547E6039C"",""assignmentId"":""6a168f51-95df-430c-86b8-b06a7b00a36c"",""projectId"":""a9f3d40c-5730-405c-b25e-1034c4c56f3f""}","https://test12345.live/?num_scrambled_semantic=8&num_scrambled_causal=4&num_scrambled_schematic=4&participantId=DF243E04841E4ECB8A3B35D547E6039C&assignmentId=6a168f51-95df-430c-86b8-b06a7b00a36c&projectId=a9f3d40c-5730-405c-b25e-1034c4c56f3f","DF243E04841E4ECB8A3B35D547E6039C-2025-08-07-18-54-28","","934","","images/semantic_sequence/self_care_activities_semantic/self_care_activities_semantic_8.png","0","",""
"","","","","","image-button-response","30","182334","0.0-10.0-1.0-2.1","DF243E04841E4ECB8A3B35D547E6039C","DF243E04841E4ECB8A3B35D547E6039C","6a168f51-95df-430c-86b8-b06a7b00a36c","a9f3d40c-5730-405c-b25e-1034c4c56f3f","{""num_scrambled_semantic"":""8"",""num_scrambled_causal"":""4"",""num_scrambled_schematic"":""4"",""participantId"":""DF243E04841E4ECB8A3B35D547E6039C"",""assignmentId"":""6a168f51-95df-430c-86b8-b06a7b00a36c"",""projectId"":""a9f3d40c-5730-405c-b25e-1034c4c56f3f""}","https://test12345.live/?num_scrambled_semantic=8&num_scrambled_causal=4&num_scrambled_schematic=4&participantId=DF243E04841E4ECB8A3B35D547E6039C&assignmentId=6a168f51-95df-430c-86b8-b06a7b00a36c&projectId=a9f3d40c-5730-405c-b25e-1034c4c56f3f","DF243E04841E4ECB8A3B35D547E6039C-2025-08-07-18-54-28","","null","","[]","null","",""
"","","","","","image-button-response","31","186840","0.0-10.0-1.0-0.2","DF243E04841E4ECB8A3B35D547E6039C","DF243E04841E4ECB8A3B35D547E6039C","6a168f51-95df-430c-86b8-b06a7b00a36c","a9f3d40c-5730-405c-b25e-1034c4c56f3f","{""num_scrambled_semantic"":""8"",""num_scrambled_causal"":""4"",""num_scrambled_schematic"":""4"",""participantId"":""DF243E04841E4ECB8A3B35D547E6039C"",""assignmentId"":""6a168f51-95df-430c-86b8-b06a7b00a36c"",""projectId"":""a9f3d40c-5730-405c-b25e-1034c4c56f3f""}","https://test12345.live/?num_scrambled_semantic=8&num_scrambled_causal=4&num_scrambled_schematic=4&participantId=DF243E04841E4ECB8A3B35D547E6039C&assignmentId=6a168f51-95df-430c-86b8-b06a7b00a36c&projectId=a9f3d40c-5730-405c-b25e-1034c4c56f3f","DF243E04841E4ECB8A3B35D547E6039C-2025-08-07-18-54-28","","null","","images/semantic_sequence/self_care_activities_semantic/self_care_activities_semantic_2.png","null","",""
"","","","","","image-button-response","32","188164","0.0-10.0-1.0-1.2","DF243E04841E4ECB8A3B35D547E6039C","DF243E04841E4ECB8A3B35D547E6039C","6a168f51-95df-430c-86b8-b06a7b00a36c","a9f3d40c-5730-405c-b25e-1034c4c56f3f","{""num_scrambled_semantic"":""8"",""num_scrambled_causal"":""4"",""num_scrambled_schematic"":""4"",""participantId"":""DF243E04841E4ECB8A3B35D547E6039C"",""assignmentId"":""6a168f51-95df-430c-86b8-b06a7b00a36c"",""projectId"":""a9f3d40c-5730-405c-b25e-1034c4c56f3f""}","https://test12345.live/?num_scrambled_semantic=8&num_scrambled_causal=4&num_scrambled_schematic=4&participantId=DF243E04841E4ECB8A3B35D547E6039C&assignmentId=6a168f51-95df-430c-86b8-b06a7b00a36c&projectId=a9f3d40c-5730-405c-b25e-1034c4c56f3f","DF243E04841E4ECB8A3B35D547E6039C-2025-08-07-18-54-28","","1321","","images/semantic_sequence/self_care_activities_semantic/self_care_activities_semantic_2.png","0","",""
"","","","","","image-button-response","33","189967","0.0-10.0-1.0-2.2","DF243E04841E4ECB8A3B35D547E6039C","DF243E04841E4ECB8A3B35D547E6039C","6a168f51-95df-430c-86b8-b06a7b00a36c","a9f3d40c-5730-405c-b25e-1034c4c56f3f","{""num_scrambled_semantic"":""8"",""num_scrambled_causal"":""4"",""num_scrambled_schematic"":""4"",""participantId"":""DF243E04841E4ECB8A3B35D547E6039C"",""assignmentId"":""6a168f51-95df-430c-86b8-b06a7b00a36c"",""projectId"":""a9f3d40c-5730-405c-b25e-1034c4c56f3f""}","https://test12345.live/?num_scrambled_semantic=8&num_scrambled_causal=4&num_scrambled_schematic=4&participantId=DF243E04841E4ECB8A3B35D547E6039C&assignmentId=6a168f51-95df-430c-86b8-b06a7b00a36c&projectId=a9f3d40c-5730-405c-b25e-1034c4c56f3f","DF243E04841E4ECB8A3B35D547E6039C-2025-08-07-18-54-28","","null","","[]","null","",""
"","","","","","image-button-response","34","194471","0.0-10.0-1.0-0.3","DF243E04841E4ECB8A3B35D547E6039C","DF243E04841E4ECB8A3B35D547E6039C","6a168f51-95df-430c-86b8-b06a7b00a36c","a9f3d40c-5730-405c-b25e-1034c4c56f3f","{""num_scrambled_semantic"":""8"",""num_scrambled_causal"":""4"",""num_scrambled_schematic"":""4"",""participantId"":""DF243E04841E4ECB8A3B35D547E6039C"",""assignmentId"":""6a168f51-95df-430c-86b8-b06a7b00a36c"",""projectId"":""a9f3d40c-5730-405c-b25e-1034c4c56f3f""}","https://test12345.live/?num_scrambled_semantic=8&num_scrambled_causal=4&num_scrambled_schematic=4&participantId=DF243E04841E4ECB8A3B35D547E6039C&assignmentId=6a168f51-95df-430c-86b8-b06a7b00a36c&projectId=a9f3d40c-5730-405c-b25e-1034c4c56f3f","DF243E04841E4ECB8A3B35D547E6039C-2025-08-07-18-54-28","","null","","images/semantic_sequence/self_care_activities_semantic/self_care_activities_semantic_3.png","null","",""
"","","","","","image-button-response","35","195379","0.0-10.0-1.0-1.3","DF243E04841E4ECB8A3B35D547E6039C","DF243E04841E4ECB8A3B35D547E6039C","6a168f51-95df-430c-86b8-b06a7b00a36c","a9f3d40c-5730-405c-b25e-1034c4c56f3f","{""num_scrambled_semantic"":""8"",""num_scrambled_causal"":""4"",""num_scrambled_schematic"":""4"",""participantId"":""DF243E04841E4ECB8A3B35D547E6039C"",""assignmentId"":""6a168f51-95df-430c-86b8-b06a7b00a36c"",""projectId"":""a9f3d40c-5730-405c-b25e-1034c4c56f3f""}","https://test12345.live/?num_scrambled_semantic=8&num_scrambled_causal=4&num_scrambled_schematic=4&participantId=DF243E04841E4ECB8A3B35D547E6039C&assignmentId=6a168f51-95df-430c-86b8-b06a7b00a36c&projectId=a9f3d40c-5730-405c-b25e-1034c4c56f3f","DF243E04841E4ECB8A3B35D547E6039C-2025-08-07-18-54-28","","907","","images/semantic_sequence/self_care_activities_semantic/self_care_activities_semantic_3.png","0","",""
"","","","","","image-button-response","36","197183","0.0-10.0-1.0-2.3","DF243E04841E4ECB8A3B35D547E6039C","DF243E04841E4ECB8A3B35D547E6039C","6a168f51-95df-430c-86b8-b06a7b00a36c","a9f3d40c-5730-405c-b25e-1034c4c56f3f","{""num_scrambled_semantic"":""8"",""num_scrambled_causal"":""4"",""num_scrambled_schematic"":""4"",""participantId"":""DF243E04841E4ECB8A3B35D547E6039C"",""assignmentId"":""6a168f51-95df-430c-86b8-b06a7b00a36c"",""projectId"":""a9f3d40c-5730-405c-b25e-1034c4c56f3f""}","https://test12345.live/?num_scrambled_semantic=8&num_scrambled_causal=4&num_scrambled_schematic=4&participantId=DF243E04841E4ECB8A3B35D547E6039C&assignmentId=6a168f51-95df-430c-86b8-b06a7b00a36c&projectId=a9f3d40c-5730-405c-b25e-1034c4c56f3f","DF243E04841E4ECB8A3B35D547E6039C-2025-08-07-18-54-28","","null","","[]","null","",""
"","","","","","image-button-response","37","201686","0.0-10.0-1.0-0.4","DF243E04841E4ECB8A3B35D547E6039C","DF243E04841E4ECB8A3B35D547E6039C","6a168f51-95df-430c-86b8-b06a7b00a36c","a9f3d40c-5730-405c-b25e-1034c4c56f3f","{""num_scrambled_semantic"":""8"",""num_scrambled_causal"":""4"",""num_scrambled_schematic"":""4"",""participantId"":""DF243E04841E4ECB8A3B35D547E6039C"",""assignmentId"":""6a168f51-95df-430c-86b8-b06a7b00a36c"",""projectId"":""a9f3d40c-5730-405c-b25e-1034c4c56f3f""}","https://test12345.live/?num_scrambled_semantic=8&num_scrambled_causal=4&num_scrambled_schematic=4&participantId=DF243E04841E4ECB8A3B35D547E6039C&assignmentId=6a168f51-95df-430c-86b8-b06a7b00a36c&projectId=a9f3d40c-5730-405c-b25e-1034c4c56f3f","DF243E04841E4ECB8A3B35D547E6039C-2025-08-07-18-54-28","","null","","images/semantic_sequence/self_care_activities_semantic/self_care_activities_semantic_5.png","null","",""
"","","","","","image-button-response","38","202597","0.0-10.0-1.0-1.4","DF243E04841E4ECB8A3B35D547E6039C","DF243E04841E4ECB8A3B35D547E6039C","6a168f51-95df-430c-86b8-b06a7b00a36c","a9f3d40c-5730-405c-b25e-1034c4c56f3f","{""num_scrambled_semantic"":""8"",""num_scrambled_causal"":""4"",""num_scrambled_schematic"":""4"",""participantId"":""DF243E04841E4ECB8A3B35D547E6039C"",""assignmentId"":""6a168f51-95df-430c-86b8-b06a7b00a36c"",""projectId"":""a9f3d40c-5730-405c-b25e-1034c4c56f3f""}","https://test12345.live/?num_scrambled_semantic=8&num_scrambled_causal=4&num_scrambled_schematic=4&participantId=DF243E04841E4ECB8A3B35D547E6039C&assignmentId=6a168f51-95df-430c-86b8-b06a7b00a36c&projectId=a9f3d40c-5730-405c-b25e-1034c4c56f3f","DF243E04841E4ECB8A3B35D547E6039C-2025-08-07-18-54-28","","909","","images/semantic_sequence/self_care_activities_semantic/self_care_activities_semantic_5.png","0","",""
"","","","","","image-button-response","39","204403","0.0-10.0-1.0-2.4","DF243E04841E4ECB8A3B35D547E6039C","DF243E04841E4ECB8A3B35D547E6039C","6a168f51-95df-430c-86b8-b06a7b00a36c","a9f3d40c-5730-405c-b25e-1034c4c56f3f","{""num_scrambled_semantic"":""8"",""num_scrambled_causal"":""4"",""num_scrambled_schematic"":""4"",""participantId"":""DF243E04841E4ECB8A3B35D547E6039C"",""assignmentId"":""6a168f51-95df-430c-86b8-b06a7b00a36c"",""projectId"":""a9f3d40c-5730-405c-b25e-1034c4c56f3f""}","https://test12345.live/?num_scrambled_semantic=8&num_scrambled_causal=4&num_scrambled_schematic=4&participantId=DF243E04841E4ECB8A3B35D547E6039C&assignmentId=6a168f51-95df-430c-86b8-b06a7b00a36c&projectId=a9f3d40c-5730-405c-b25e-1034c4c56f3f","DF243E04841E4ECB8A3B35D547E6039C-2025-08-07-18-54-28","","null","","[]","null","",""
"","","","","","image-button-response","40","208910","0.0-10.0-1.0-0.5","DF243E04841E4ECB8A3B35D547E6039C","DF243E04841E4ECB8A3B35D547E6039C","6a168f51-95df-430c-86b8-b06a7b00a36c","a9f3d40c-5730-405c-b25e-1034c4c56f3f","{""num_scrambled_semantic"":""8"",""num_scrambled_causal"":""4"",""num_scrambled_schematic"":""4"",""participantId"":""DF243E04841E4ECB8A3B35D547E6039C"",""assignmentId"":""6a168f51-95df-430c-86b8-b06a7b00a36c"",""projectId"":""a9f3d40c-5730-405c-b25e-1034c4c56f3f""}","https://test12345.live/?num_scrambled_semantic=8&num_scrambled_causal=4&num_scrambled_schematic=4&participantId=DF243E04841E4ECB8A3B35D547E6039C&assignmentId=6a168f51-95df-430c-86b8-b06a7b00a36c&projectId=a9f3d40c-5730-405c-b25e-1034c4c56f3f","DF243E04841E4ECB8A3B35D547E6039C-2025-08-07-18-54-28","","null","","images/semantic_sequence/self_care_activities_semantic/self_care_activities_semantic_9.png","null","",""
"","","","","","image-button-response","41","209981","0.0-10.0-1.0-1.5","DF243E04841E4ECB8A3B35D547E6039C","DF243E04841E4ECB8A3B35D547E6039C","6a168f51-95df-430c-86b8-b06a7b00a36c","a9f3d40c-5730-405c-b25e-1034c4c56f3f","{""num_scrambled_semantic"":""8"",""num_scrambled_causal"":""4"",""num_scrambled_schematic"":""4"",""participantId"":""DF243E04841E4ECB8A3B35D547E6039C"",""assignmentId"":""6a168f51-95df-430c-86b8-b06a7b00a36c"",""projectId"":""a9f3d40c-5730-405c-b25e-1034c4c56f3f""}","https://test12345.live/?num_scrambled_semantic=8&num_scrambled_causal=4&num_scrambled_schematic=4&participantId=DF243E04841E4ECB8A3B35D547E6039C&assignmentId=6a168f51-95df-430c-86b8-b06a7b00a36c&projectId=a9f3d40c-5730-405c-b25e-1034c4c56f3f","DF243E04841E4ECB8A3B35D547E6039C-2025-08-07-18-54-28","","1069","","images/semantic_sequence/self_care_activities_semantic/self_care_activities_semantic_9.png","0","",""
"","","","","","image-button-response","42","211785","0.0-10.0-1.0-2.5","DF243E04841E4ECB8A3B35D547E6039C","DF243E04841E4ECB8A3B35D547E6039C","6a168f51-95df-430c-86b8-b06a7b00a36c","a9f3d40c-5730-405c-b25e-1034c4c56f3f","{""num_scrambled_semantic"":""8"",""num_scrambled_causal"":""4"",""num_scrambled_schematic"":""4"",""participantId"":""DF243E04841E4ECB8A3B35D547E6039C"",""assignmentId"":""6a168f51-95df-430c-86b8-b06a7b00a36c"",""projectId"":""a9f3d40c-5730-405c-b25e-1034c4c56f3f""}","https://test12345.live/?num_scrambled_semantic=8&num_scrambled_causal=4&num_scrambled_schematic=4&participantId=DF243E04841E4ECB8A3B35D547E6039C&assignmentId=6a168f51-95df-430c-86b8-b06a7b00a36c&projectId=a9f3d40c-5730-405c-b25e-1034c4c56f3f","DF243E04841E4ECB8A3B35D547E6039C-2025-08-07-18-54-28","","null","","[]","null","",""
"","","","","","image-button-response","43","216291","0.0-10.0-1.0-0.6","DF243E04841E4ECB8A3B35D547E6039C","DF243E04841E4ECB8A3B35D547E6039C","6a168f51-95df-430c-86b8-b06a7b00a36c","a9f3d40c-5730-405c-b25e-1034c4c56f3f","{""num_scrambled_semantic"":""8"",""num_scrambled_causal"":""4"",""num_scrambled_schematic"":""4"",""participantId"":""DF243E04841E4ECB8A3B35D547E6039C"",""assignmentId"":""6a168f51-95df-430c-86b8-b06a7b00a36c"",""projectId"":""a9f3d40c-5730-405c-b25e-1034c4c56f3f""}","https://test12345.live/?num_scrambled_semantic=8&num_scrambled_causal=4&num_scrambled_schematic=4&participantId=DF243E04841E4ECB8A3B35D547E6039C&assignmentId=6a168f51-95df-430c-86b8-b06a7b00a36c&projectId=a9f3d40c-5730-405c-b25e-1034c4c56f3f","DF243E04841E4ECB8A3B35D547E6039C-2025-08-07-18-54-28","","null","","images/semantic_sequence/self_care_activities_semantic/self_care_activities_semantic_ten.png","null","",""
"","","","","","image-button-response","44","217213","0.0-10.0-1.0-1.6","DF243E04841E4ECB8A3B35D547E6039C","DF243E04841E4ECB8A3B35D547E6039C","6a168f51-95df-430c-86b8-b06a7b00a36c","a9f3d40c-5730-405c-b25e-1034c4c56f3f","{""num_scrambled_semantic"":""8"",""num_scrambled_causal"":""4"",""num_scrambled_schematic"":""4"",""participantId"":""DF243E04841E4ECB8A3B35D547E6039C"",""assignmentId"":""6a168f51-95df-430c-86b8-b06a7b00a36c"",""projectId"":""a9f3d40c-5730-405c-b25e-1034c4c56f3f""}","https://test12345.live/?num_scrambled_semantic=8&num_scrambled_causal=4&num_scrambled_schematic=4&participantId=DF243E04841E4ECB8A3B35D547E6039C&assignmentId=6a168f51-95df-430c-86b8-b06a7b00a36c&projectId=a9f3d40c-5730-405c-b25e-1034c4c56f3f","DF243E04841E4ECB8A3B35D547E6039C-2025-08-07-18-54-28","","920","","images/semantic_sequence/self_care_activities_semantic/self_care_activities_semantic_ten.png","0","",""
"","","","","","image-button-response","45","219016","0.0-10.0-1.0-2.6","DF243E04841E4ECB8A3B35D547E6039C","DF243E04841E4ECB8A3B35D547E6039C","6a168f51-95df-430c-86b8-b06a7b00a36c","a9f3d40c-5730-405c-b25e-1034c4c56f3f","{""num_scrambled_semantic"":""8"",""num_scrambled_causal"":""4"",""num_scrambled_schematic"":""4"",""participantId"":""DF243E04841E4ECB8A3B35D547E6039C"",""assignmentId"":""6a168f51-95df-430c-86b8-b06a7b00a36c"",""projectId"":""a9f3d40c-5730-405c-b25e-1034c4c56f3f""}","https://test12345.live/?num_scrambled_semantic=8&num_scrambled_causal=4&num_scrambled_schematic=4&participantId=DF243E04841E4ECB8A3B35D547E6039C&assignmentId=6a168f51-95df-430c-86b8-b06a7b00a36c&projectId=a9f3d40c-5730-405c-b25e-1034c4c56f3f","DF243E04841E4ECB8A3B35D547E6039C-2025-08-07-18-54-28","","null","","[]","null","",""
"","","","","","image-button-response","46","223523","0.0-10.0-1.0-0.7","DF243E04841E4ECB8A3B35D547E6039C","DF243E04841E4ECB8A3B35D547E6039C","6a168f51-95df-430c-86b8-b06a7b00a36c","a9f3d40c-5730-405c-b25e-1034c4c56f3f","{""num_scrambled_semantic"":""8"",""num_scrambled_causal"":""4"",""num_scrambled_schematic"":""4"",""participantId"":""DF243E04841E4ECB8A3B35D547E6039C"",""assignmentId"":""6a168f51-95df-430c-86b8-b06a7b00a36c"",""projectId"":""a9f3d40c-5730-405c-b25e-1034c4c56f3f""}","https://test12345.live/?num_scrambled_semantic=8&num_scrambled_causal=4&num_scrambled_schematic=4&participantId=DF243E04841E4ECB8A3B35D547E6039C&assignmentId=6a168f51-95df-430c-86b8-b06a7b00a36c&projectId=a9f3d40c-5730-405c-b25e-1034c4c56f3f","DF243E04841E4ECB8A3B35D547E6039C-2025-08-07-18-54-28","","null","","images/semantic_sequence/self_care_activities_semantic/self_care_activities_semantic_6.png","null","",""
"","","","","","image-button-response","47","224613","0.0-10.0-1.0-1.7","DF243E04841E4ECB8A3B35D547E6039C","DF243E04841E4ECB8A3B35D547E6039C","6a168f51-95df-430c-86b8-b06a7b00a36c","a9f3d40c-5730-405c-b25e-1034c4c56f3f","{""num_scrambled_semantic"":""8"",""num_scrambled_causal"":""4"",""num_scrambled_schematic"":""4"",""participantId"":""DF243E04841E4ECB8A3B35D547E6039C"",""assignmentId"":""6a168f51-95df-430c-86b8-b06a7b00a36c"",""projectId"":""a9f3d40c-5730-405c-b25e-1034c4c56f3f""}","https://test12345.live/?num_scrambled_semantic=8&num_scrambled_causal=4&num_scrambled_schematic=4&participantId=DF243E04841E4ECB8A3B35D547E6039C&assignmentId=6a168f51-95df-430c-86b8-b06a7b00a36c&projectId=a9f3d40c-5730-405c-b25e-1034c4c56f3f","DF243E04841E4ECB8A3B35D547E6039C-2025-08-07-18-54-28","","1088","","images/semantic_sequence/self_care_activities_semantic/self_care_activities_semantic_6.png","1","",""
"","","","","","image-button-response","48","226420","0.0-10.0-1.0-2.7","DF243E04841E4ECB8A3B35D547E6039C","DF243E04841E4ECB8A3B35D547E6039C","6a168f51-95df-430c-86b8-b06a7b00a36c","a9f3d40c-5730-405c-b25e-1034c4c56f3f","{""num_scrambled_semantic"":""8"",""num_scrambled_causal"":""4"",""num_scrambled_schematic"":""4"",""participantId"":""DF243E04841E4ECB8A3B35D547E6039C"",""assignmentId"":""6a168f51-95df-430c-86b8-b06a7b00a36c"",""projectId"":""a9f3d40c-5730-405c-b25e-1034c4c56f3f""}","https://test12345.live/?num_scrambled_semantic=8&num_scrambled_causal=4&num_scrambled_schematic=4&participantId=DF243E04841E4ECB8A3B35D547E6039C&assignmentId=6a168f51-95df-430c-86b8-b06a7b00a36c&projectId=a9f3d40c-5730-405c-b25e-1034c4c56f3f","DF243E04841E4ECB8A3B35D547E6039C-2025-08-07-18-54-28","","null","","[]","null","",""
"","","","","","image-button-response","49","230923","0.0-10.0-1.0-0.8","DF243E04841E4ECB8A3B35D547E6039C","DF243E04841E4ECB8A3B35D547E6039C","6a168f51-95df-430c-86b8-b06a7b00a36c","a9f3d40c-5730-405c-b25e-1034c4c56f3f","{""num_scrambled_semantic"":""8"",""num_scrambled_causal"":""4"",""num_scrambled_schematic"":""4"",""participantId"":""DF243E04841E4ECB8A3B35D547E6039C"",""assignmentId"":""6a168f51-95df-430c-86b8-b06a7b00a36c"",""projectId"":""a9f3d40c-5730-405c-b25e-1034c4c56f3f""}","https://test12345.live/?num_scrambled_semantic=8&num_scrambled_causal=4&num_scrambled_schematic=4&participantId=DF243E04841E4ECB8A3B35D547E6039C&assignmentId=6a168f51-95df-430c-86b8-b06a7b00a36c&projectId=a9f3d40c-5730-405c-b25e-1034c4c56f3f","DF243E04841E4ECB8A3B35D547E6039C-2025-08-07-18-54-28","","null","","images/semantic_sequence/self_care_activities_semantic/self_care_activities_semantic_7.png","null","",""
"","","","","","image-button-response","50","231697","0.0-10.0-1.0-1.8","DF243E04841E4ECB8A3B35D547E6039C","DF243E04841E4ECB8A3B35D547E6039C","6a168f51-95df-430c-86b8-b06a7b00a36c","a9f3d40c-5730-405c-b25e-1034c4c56f3f","{""num_scrambled_semantic"":""8"",""num_scrambled_causal"":""4"",""num_scrambled_schematic"":""4"",""participantId"":""DF243E04841E4ECB8A3B35D547E6039C"",""assignmentId"":""6a168f51-95df-430c-86b8-b06a7b00a36c"",""projectId"":""a9f3d40c-5730-405c-b25e-1034c4c56f3f""}","https://test12345.live/?num_scrambled_semantic=8&num_scrambled_causal=4&num_scrambled_schematic=4&participantId=DF243E04841E4ECB8A3B35D547E6039C&assignmentId=6a168f51-95df-430c-86b8-b06a7b00a36c&projectId=a9f3d40c-5730-405c-b25e-1034c4c56f3f","DF243E04841E4ECB8A3B35D547E6039C-2025-08-07-18-54-28","","772","","images/semantic_sequence/self_care_activities_semantic/self_care_activities_semantic_7.png","0","",""
"","","","","","image-button-response","51","233504","0.0-10.0-1.0-2.8","DF243E04841E4ECB8A3B35D547E6039C","DF243E04841E4ECB8A3B35D547E6039C","6a168f51-95df-430c-86b8-b06a7b00a36c","a9f3d40c-5730-405c-b25e-1034c4c56f3f","{""num_scrambled_semantic"":""8"",""num_scrambled_causal"":""4"",""num_scrambled_schematic"":""4"",""participantId"":""DF243E04841E4ECB8A3B35D547E6039C"",""assignmentId"":""6a168f51-95df-430c-86b8-b06a7b00a36c"",""projectId"":""a9f3d40c-5730-405c-b25e-1034c4c56f3f""}","https://test12345.live/?num_scrambled_semantic=8&num_scrambled_causal=4&num_scrambled_schematic=4&participantId=DF243E04841E4ECB8A3B35D547E6039C&assignmentId=6a168f51-95df-430c-86b8-b06a7b00a36c&projectId=a9f3d40c-5730-405c-b25e-1034c4c56f3f","DF243E04841E4ECB8A3B35D547E6039C-2025-08-07-18-54-28","","null","","[]","null","",""
"","","","","","image-button-response","52","238010","0.0-10.0-1.0-0.9","DF243E04841E4ECB8A3B35D547E6039C","DF243E04841E4ECB8A3B35D547E6039C","6a168f51-95df-430c-86b8-b06a7b00a36c","a9f3d40c-5730-405c-b25e-1034c4c56f3f","{""num_scrambled_semantic"":""8"",""num_scrambled_causal"":""4"",""num_scrambled_schematic"":""4"",""participantId"":""DF243E04841E4ECB8A3B35D547E6039C"",""assignmentId"":""6a168f51-95df-430c-86b8-b06a7b00a36c"",""projectId"":""a9f3d40c-5730-405c-b25e-1034c4c56f3f""}","https://test12345.live/?num_scrambled_semantic=8&num_scrambled_causal=4&num_scrambled_schematic=4&participantId=DF243E04841E4ECB8A3B35D547E6039C&assignmentId=6a168f51-95df-430c-86b8-b06a7b00a36c&projectId=a9f3d40c-5730-405c-b25e-1034c4c56f3f","DF243E04841E4ECB8A3B35D547E6039C-2025-08-07-18-54-28","","null","","images/semantic_sequence/self_care_activities_semantic/self_care_activities_semantic_4.png","null","",""
"","","","","","image-button-response","53","238912","0.0-10.0-1.0-1.9","DF243E04841E4ECB8A3B35D547E6039C","DF243E04841E4ECB8A3B35D547E6039C","6a168f51-95df-430c-86b8-b06a7b00a36c","a9f3d40c-5730-405c-b25e-1034c4c56f3f","{""num_scrambled_semantic"":""8"",""num_scrambled_causal"":""4"",""num_scrambled_schematic"":""4"",""participantId"":""DF243E04841E4ECB8A3B35D547E6039C"",""assignmentId"":""6a168f51-95df-430c-86b8-b06a7b00a36c"",""projectId"":""a9f3d40c-5730-405c-b25e-1034c4c56f3f""}","https://test12345.live/?num_scrambled_semantic=8&num_scrambled_causal=4&num_scrambled_schematic=4&participantId=DF243E04841E4ECB8A3B35D547E6039C&assignmentId=6a168f51-95df-430c-86b8-b06a7b00a36c&projectId=a9f3d40c-5730-405c-b25e-1034c4c56f3f","DF243E04841E4ECB8A3B35D547E6039C-2025-08-07-18-54-28","","901","","images/semantic_sequence/self_care_activities_semantic/self_care_activities_semantic_4.png","1","",""
"","","","","","image-button-response","54","240716","0.0-10.0-1.0-2.9","DF243E04841E4ECB8A3B35D547E6039C","DF243E04841E4ECB8A3B35D547E6039C","6a168f51-95df-430c-86b8-b06a7b00a36c","a9f3d40c-5730-405c-b25e-1034c4c56f3f","{""num_scrambled_semantic"":""8"",""num_scrambled_causal"":""4"",""num_scrambled_schematic"":""4"",""participantId"":""DF243E04841E4ECB8A3B35D547E6039C"",""assignmentId"":""6a168f51-95df-430c-86b8-b06a7b00a36c"",""projectId"":""a9f3d40c-5730-405c-b25e-1034c4c56f3f""}","https://test12345.live/?num_scrambled_semantic=8&num_scrambled_causal=4&num_scrambled_schematic=4&participantId=DF243E04841E4ECB8A3B35D547E6039C&assignmentId=6a168f51-95df-430c-86b8-b06a7b00a36c&projectId=a9f3d40c-5730-405c-b25e-1034c4c56f3f","DF243E04841E4ECB8A3B35D547E6039C-2025-08-07-18-54-28","","null","","[]","null","",""
"","","","","","html-audio-response","55","258479","0.0-11.0","DF243E04841E4ECB8A3B35D547E6039C","DF243E04841E4ECB8A3B35D547E6039C","6a168f51-95df-430c-86b8-b06a7b00a36c","a9f3d40c-5730-405c-b25e-1034c4c56f3f","{""num_scrambled_semantic"":""8"",""num_scrambled_causal"":""4"",""num_scrambled_schematic"":""4"",""participantId"":""DF243E04841E4ECB8A3B35D547E6039C"",""assignmentId"":""6a168f51-95df-430c-86b8-b06a7b00a36c"",""projectId"":""a9f3d40c-5730-405c-b25e-1034c4c56f3f""}","https://test12345.live/?num_scrambled_semantic=8&num_scrambled_causal=4&num_scrambled_schematic=4&participantId=DF243E04841E4ECB8A3B35D547E6039C&assignmentId=6a168f51-95df-430c-86b8-b06a7b00a36c&projectId=a9f3d40c-5730-405c-b25e-1034c4c56f3f","DF243E04841E4ECB8A3B35D547E6039C-2025-08-07-18-54-28","","16184","","[""<span style=\""color: red; font-size: 24px\""> NOW RECORDING</span><p>Please say out loud all the images you saw, as many as you can remember. The images can be said in any order.</p>""]","","2","self_care_activities_semantic"
"","","","","","image-button-response","56","264483","0.0-12.0-0.0","DF243E04841E4ECB8A3B35D547E6039C","DF243E04841E4ECB8A3B35D547E6039C","6a168f51-95df-430c-86b8-b06a7b00a36c","a9f3d40c-5730-405c-b25e-1034c4c56f3f","{""num_scrambled_semantic"":""8"",""num_scrambled_causal"":""4"",""num_scrambled_schematic"":""4"",""participantId"":""DF243E04841E4ECB8A3B35D547E6039C"",""assignmentId"":""6a168f51-95df-430c-86b8-b06a7b00a36c"",""projectId"":""a9f3d40c-5730-405c-b25e-1034c4c56f3f""}","https://test12345.live/?num_scrambled_semantic=8&num_scrambled_causal=4&num_scrambled_schematic=4&participantId=DF243E04841E4ECB8A3B35D547E6039C&assignmentId=6a168f51-95df-430c-86b8-b06a7b00a36c&projectId=a9f3d40c-5730-405c-b25e-1034c4c56f3f","DF243E04841E4ECB8A3B35D547E6039C-2025-08-07-18-54-28","","null","","images/semantic_sequence/maintaining_a_car_semantic/maintaining_a_car_semantic_0.png","null","",""
"","","","","","image-button-response","57","268989","0.0-12.0-1.0-0.0","DF243E04841E4ECB8A3B35D547E6039C","DF243E04841E4ECB8A3B35D547E6039C","6a168f51-95df-430c-86b8-b06a7b00a36c","a9f3d40c-5730-405c-b25e-1034c4c56f3f","{""num_scrambled_semantic"":""8"",""num_scrambled_causal"":""4"",""num_scrambled_schematic"":""4"",""participantId"":""DF243E04841E4ECB8A3B35D547E6039C"",""assignmentId"":""6a168f51-95df-430c-86b8-b06a7b00a36c"",""projectId"":""a9f3d40c-5730-405c-b25e-1034c4c56f3f""}","https://test12345.live/?num_scrambled_semantic=8&num_scrambled_causal=4&num_scrambled_schematic=4&participantId=DF243E04841E4ECB8A3B35D547E6039C&assignmentId=6a168f51-95df-430c-86b8-b06a7b00a36c&projectId=a9f3d40c-5730-405c-b25e-1034c4c56f3f","DF243E04841E4ECB8A3B35D547E6039C-2025-08-07-18-54-28","","null","","images/semantic_sequence/maintaining_a_car_semantic/maintaining_a_car_semantic_9.png","null","",""
"","","","","","image-button-response","58","269847","0.0-12.0-1.0-1.0","DF243E04841E4ECB8A3B35D547E6039C","DF243E04841E4ECB8A3B35D547E6039C","6a168f51-95df-430c-86b8-b06a7b00a36c","a9f3d40c-5730-405c-b25e-1034c4c56f3f","{""num_scrambled_semantic"":""8"",""num_scrambled_causal"":""4"",""num_scrambled_schematic"":""4"",""participantId"":""DF243E04841E4ECB8A3B35D547E6039C"",""assignmentId"":""6a168f51-95df-430c-86b8-b06a7b00a36c"",""projectId"":""a9f3d40c-5730-405c-b25e-1034c4c56f3f""}","https://test12345.live/?num_scrambled_semantic=8&num_scrambled_causal=4&num_scrambled_schematic=4&participantId=DF243E04841E4ECB8A3B35D547E6039C&assignmentId=6a168f51-95df-430c-86b8-b06a7b00a36c&projectId=a9f3d40c-5730-405c-b25e-1034c4c56f3f","DF243E04841E4ECB8A3B35D547E6039C-2025-08-07-18-54-28","","856","","images/semantic_sequence/maintaining_a_car_semantic/maintaining_a_car_semantic_9.png","0","",""
"","","","","","image-button-response","59","271648","0.0-12.0-1.0-2.0","DF243E04841E4ECB8A3B35D547E6039C","DF243E04841E4ECB8A3B35D547E6039C","6a168f51-95df-430c-86b8-b06a7b00a36c","a9f3d40c-5730-405c-b25e-1034c4c56f3f","{""num_scrambled_semantic"":""8"",""num_scrambled_causal"":""4"",""num_scrambled_schematic"":""4"",""participantId"":""DF243E04841E4ECB8A3B35D547E6039C"",""assignmentId"":""6a168f51-95df-430c-86b8-b06a7b00a36c"",""projectId"":""a9f3d40c-5730-405c-b25e-1034c4c56f3f""}","https://test12345.live/?num_scrambled_semantic=8&num_scrambled_causal=4&num_scrambled_schematic=4&participantId=DF243E04841E4ECB8A3B35D547E6039C&assignmentId=6a168f51-95df-430c-86b8-b06a7b00a36c&projectId=a9f3d40c-5730-405c-b25e-1034c4c56f3f","DF243E04841E4ECB8A3B35D547E6039C-2025-08-07-18-54-28","","null","","[]","null","",""
"","","","","","image-button-response","60","276151","0.0-12.0-1.0-0.1","DF243E04841E4ECB8A3B35D547E6039C","DF243E04841E4ECB8A3B35D547E6039C","6a168f51-95df-430c-86b8-b06a7b00a36c","a9f3d40c-5730-405c-b25e-1034c4c56f3f","{""num_scrambled_semantic"":""8"",""num_scrambled_causal"":""4"",""num_scrambled_schematic"":""4"",""participantId"":""DF243E04841E4ECB8A3B35D547E6039C"",""assignmentId"":""6a168f51-95df-430c-86b8-b06a7b00a36c"",""projectId"":""a9f3d40c-5730-405c-b25e-1034c4c56f3f""}","https://test12345.live/?num_scrambled_semantic=8&num_scrambled_causal=4&num_scrambled_schematic=4&participantId=DF243E04841E4ECB8A3B35D547E6039C&assignmentId=6a168f51-95df-430c-86b8-b06a7b00a36c&projectId=a9f3d40c-5730-405c-b25e-1034c4c56f3f","DF243E04841E4ECB8A3B35D547E6039C-2025-08-07-18-54-28","","null","","images/semantic_sequence/maintaining_a_car_semantic/maintaining_a_car_semantic_8.png","null","",""
"","","","","","image-button-response","61","277230","0.0-12.0-1.0-1.1","DF243E04841E4ECB8A3B35D547E6039C","DF243E04841E4ECB8A3B35D547E6039C","6a168f51-95df-430c-86b8-b06a7b00a36c","a9f3d40c-5730-405c-b25e-1034c4c56f3f","{""num_scrambled_semantic"":""8"",""num_scrambled_causal"":""4"",""num_scrambled_schematic"":""4"",""participantId"":""DF243E04841E4ECB8A3B35D547E6039C"",""assignmentId"":""6a168f51-95df-430c-86b8-b06a7b00a36c"",""projectId"":""a9f3d40c-5730-405c-b25e-1034c4c56f3f""}","https://test12345.live/?num_scrambled_semantic=8&num_scrambled_causal=4&num_scrambled_schematic=4&participantId=DF243E04841E4ECB8A3B35D547E6039C&assignmentId=6a168f51-95df-430c-86b8-b06a7b00a36c&projectId=a9f3d40c-5730-405c-b25e-1034c4c56f3f","DF243E04841E4ECB8A3B35D547E6039C-2025-08-07-18-54-28","","1077","","images/semantic_sequence/maintaining_a_car_semantic/maintaining_a_car_semantic_8.png","0","",""
"","","","","","image-button-response","62","279037","0.0-12.0-1.0-2.1","DF243E04841E4ECB8A3B35D547E6039C","DF243E04841E4ECB8A3B35D547E6039C","6a168f51-95df-430c-86b8-b06a7b00a36c","a9f3d40c-5730-405c-b25e-1034c4c56f3f","{""num_scrambled_semantic"":""8"",""num_scrambled_causal"":""4"",""num_scrambled_schematic"":""4"",""participantId"":""DF243E04841E4ECB8A3B35D547E6039C"",""assignmentId"":""6a168f51-95df-430c-86b8-b06a7b00a36c"",""projectId"":""a9f3d40c-5730-405c-b25e-1034c4c56f3f""}","https://test12345.live/?num_scrambled_semantic=8&num_scrambled_causal=4&num_scrambled_schematic=4&participantId=DF243E04841E4ECB8A3B35D547E6039C&assignmentId=6a168f51-95df-430c-86b8-b06a7b00a36c&projectId=a9f3d40c-5730-405c-b25e-1034c4c56f3f","DF243E04841E4ECB8A3B35D547E6039C-2025-08-07-18-54-28","","null","","[]","null","",""
"","","","","","image-button-response","63","283543","0.0-12.0-1.0-0.2","DF243E04841E4ECB8A3B35D547E6039C","DF243E04841E4ECB8A3B35D547E6039C","6a168f51-95df-430c-86b8-b06a7b00a36c","a9f3d40c-5730-405c-b25e-1034c4c56f3f","{""num_scrambled_semantic"":""8"",""num_scrambled_causal"":""4"",""num_scrambled_schematic"":""4"",""participantId"":""DF243E04841E4ECB8A3B35D547E6039C"",""assignmentId"":""6a168f51-95df-430c-86b8-b06a7b00a36c"",""projectId"":""a9f3d40c-5730-405c-b25e-1034c4c56f3f""}","https://test12345.live/?num_scrambled_semantic=8&num_scrambled_causal=4&num_scrambled_schematic=4&participantId=DF243E04841E4ECB8A3B35D547E6039C&assignmentId=6a168f51-95df-430c-86b8-b06a7b00a36c&projectId=a9f3d40c-5730-405c-b25e-1034c4c56f3f","DF243E04841E4ECB8A3B35D547E6039C-2025-08-07-18-54-28","","null","","images/semantic_sequence/maintaining_a_car_semantic/maintaining_a_car_semantic_6.png","null","",""
"","","","","","image-button-response","64","285413","0.0-12.0-1.0-1.2","DF243E04841E4ECB8A3B35D547E6039C","DF243E04841E4ECB8A3B35D547E6039C","6a168f51-95df-430c-86b8-b06a7b00a36c","a9f3d40c-5730-405c-b25e-1034c4c56f3f","{""num_scrambled_semantic"":""8"",""num_scrambled_causal"":""4"",""num_scrambled_schematic"":""4"",""participantId"":""DF243E04841E4ECB8A3B35D547E6039C"",""assignmentId"":""6a168f51-95df-430c-86b8-b06a7b00a36c"",""projectId"":""a9f3d40c-5730-405c-b25e-1034c4c56f3f""}","https://test12345.live/?num_scrambled_semantic=8&num_scrambled_causal=4&num_scrambled_schematic=4&participantId=DF243E04841E4ECB8A3B35D547E6039C&assignmentId=6a168f51-95df-430c-86b8-b06a7b00a36c&projectId=a9f3d40c-5730-405c-b25e-1034c4c56f3f","DF243E04841E4ECB8A3B35D547E6039C-2025-08-07-18-54-28","","1868","","images/semantic_sequence/maintaining_a_car_semantic/maintaining_a_car_semantic_6.png","0","",""
"","","","","","image-button-response","65","287219","0.0-12.0-1.0-2.2","DF243E04841E4ECB8A3B35D547E6039C","DF243E04841E4ECB8A3B35D547E6039C","6a168f51-95df-430c-86b8-b06a7b00a36c","a9f3d40c-5730-405c-b25e-1034c4c56f3f","{""num_scrambled_semantic"":""8"",""num_scrambled_causal"":""4"",""num_scrambled_schematic"":""4"",""participantId"":""DF243E04841E4ECB8A3B35D547E6039C"",""assignmentId"":""6a168f51-95df-430c-86b8-b06a7b00a36c"",""projectId"":""a9f3d40c-5730-405c-b25e-1034c4c56f3f""}","https://test12345.live/?num_scrambled_semantic=8&num_scrambled_causal=4&num_scrambled_schematic=4&participantId=DF243E04841E4ECB8A3B35D547E6039C&assignmentId=6a168f51-95df-430c-86b8-b06a7b00a36c&projectId=a9f3d40c-5730-405c-b25e-1034c4c56f3f","DF243E04841E4ECB8A3B35D547E6039C-2025-08-07-18-54-28","","null","","[]","null","",""
"","","","","","image-button-response","66","291723","0.0-12.0-1.0-0.3","DF243E04841E4ECB8A3B35D547E6039C","DF243E04841E4ECB8A3B35D547E6039C","6a168f51-95df-430c-86b8-b06a7b00a36c","a9f3d40c-5730-405c-b25e-1034c4c56f3f","{""num_scrambled_semantic"":""8"",""num_scrambled_causal"":""4"",""num_scrambled_schematic"":""4"",""participantId"":""DF243E04841E4ECB8A3B35D547E6039C"",""assignmentId"":""6a168f51-95df-430c-86b8-b06a7b00a36c"",""projectId"":""a9f3d40c-5730-405c-b25e-1034c4c56f3f""}","https://test12345.live/?num_scrambled_semantic=8&num_scrambled_causal=4&num_scrambled_schematic=4&participantId=DF243E04841E4ECB8A3B35D547E6039C&assignmentId=6a168f51-95df-430c-86b8-b06a7b00a36c&projectId=a9f3d40c-5730-405c-b25e-1034c4c56f3f","DF243E04841E4ECB8A3B35D547E6039C-2025-08-07-18-54-28","","null","","images/semantic_sequence/maintaining_a_car_semantic/maintaining_a_car_semantic_1.png","null","",""
"","","","","","image-button-response","67","292546","0.0-12.0-1.0-1.3","DF243E04841E4ECB8A3B35D547E6039C","DF243E04841E4ECB8A3B35D547E6039C","6a168f51-95df-430c-86b8-b06a7b00a36c","a9f3d40c-5730-405c-b25e-1034c4c56f3f","{""num_scrambled_semantic"":""8"",""num_scrambled_causal"":""4"",""num_scrambled_schematic"":""4"",""participantId"":""DF243E04841E4ECB8A3B35D547E6039C"",""assignmentId"":""6a168f51-95df-430c-86b8-b06a7b00a36c"",""projectId"":""a9f3d40c-5730-405c-b25e-1034c4c56f3f""}","https://test12345.live/?num_scrambled_semantic=8&num_scrambled_causal=4&num_scrambled_schematic=4&participantId=DF243E04841E4ECB8A3B35D547E6039C&assignmentId=6a168f51-95df-430c-86b8-b06a7b00a36c&projectId=a9f3d40c-5730-405c-b25e-1034c4c56f3f","DF243E04841E4ECB8A3B35D547E6039C-2025-08-07-18-54-28","","822","","images/semantic_sequence/maintaining_a_car_semantic/maintaining_a_car_semantic_1.png","0","",""
"","","","","","image-button-response","68","294353","0.0-12.0-1.0-2.3","DF243E04841E4ECB8A3B35D547E6039C","DF243E04841E4ECB8A3B35D547E6039C","6a168f51-95df-430c-86b8-b06a7b00a36c","a9f3d40c-5730-405c-b25e-1034c4c56f3f","{""num_scrambled_semantic"":""8"",""num_scrambled_causal"":""4"",""num_scrambled_schematic"":""4"",""participantId"":""DF243E04841E4ECB8A3B35D547E6039C"",""assignmentId"":""6a168f51-95df-430c-86b8-b06a7b00a36c"",""projectId"":""a9f3d40c-5730-405c-b25e-1034c4c56f3f""}","https://test12345.live/?num_scrambled_semantic=8&num_scrambled_causal=4&num_scrambled_schematic=4&participantId=DF243E04841E4ECB8A3B35D547E6039C&assignmentId=6a168f51-95df-430c-86b8-b06a7b00a36c&projectId=a9f3d40c-5730-405c-b25e-1034c4c56f3f","DF243E04841E4ECB8A3B35D547E6039C-2025-08-07-18-54-28","","null","","[]","null","",""
"","","","","","image-button-response","69","298860","0.0-12.0-1.0-0.4","DF243E04841E4ECB8A3B35D547E6039C","DF243E04841E4ECB8A3B35D547E6039C","6a168f51-95df-430c-86b8-b06a7b00a36c","a9f3d40c-5730-405c-b25e-1034c4c56f3f","{""num_scrambled_semantic"":""8"",""num_scrambled_causal"":""4"",""num_scrambled_schematic"":""4"",""participantId"":""DF243E04841E4ECB8A3B35D547E6039C"",""assignmentId"":""6a168f51-95df-430c-86b8-b06a7b00a36c"",""projectId"":""a9f3d40c-5730-405c-b25e-1034c4c56f3f""}","https://test12345.live/?num_scrambled_semantic=8&num_scrambled_causal=4&num_scrambled_schematic=4&participantId=DF243E04841E4ECB8A3B35D547E6039C&assignmentId=6a168f51-95df-430c-86b8-b06a7b00a36c&projectId=a9f3d40c-5730-405c-b25e-1034c4c56f3f","DF243E04841E4ECB8A3B35D547E6039C-2025-08-07-18-54-28","","null","","images/semantic_sequence/maintaining_a_car_semantic/maintaining_a_car_semantic_3.png","null","",""
"","","","","","image-button-response","70","299796","0.0-12.0-1.0-1.4","DF243E04841E4ECB8A3B35D547E6039C","DF243E04841E4ECB8A3B35D547E6039C","6a168f51-95df-430c-86b8-b06a7b00a36c","a9f3d40c-5730-405c-b25e-1034c4c56f3f","{""num_scrambled_semantic"":""8"",""num_scrambled_causal"":""4"",""num_scrambled_schematic"":""4"",""participantId"":""DF243E04841E4ECB8A3B35D547E6039C"",""assignmentId"":""6a168f51-95df-430c-86b8-b06a7b00a36c"",""projectId"":""a9f3d40c-5730-405c-b25e-1034c4c56f3f""}","https://test12345.live/?num_scrambled_semantic=8&num_scrambled_causal=4&num_scrambled_schematic=4&participantId=DF243E04841E4ECB8A3B35D547E6039C&assignmentId=6a168f51-95df-430c-86b8-b06a7b00a36c&projectId=a9f3d40c-5730-405c-b25e-1034c4c56f3f","DF243E04841E4ECB8A3B35D547E6039C-2025-08-07-18-54-28","","934","","images/semantic_sequence/maintaining_a_car_semantic/maintaining_a_car_semantic_3.png","0","",""
"","","","","","image-button-response","71","301598","0.0-12.0-1.0-2.4","DF243E04841E4ECB8A3B35D547E6039C","DF243E04841E4ECB8A3B35D547E6039C","6a168f51-95df-430c-86b8-b06a7b00a36c","a9f3d40c-5730-405c-b25e-1034c4c56f3f","{""num_scrambled_semantic"":""8"",""num_scrambled_causal"":""4"",""num_scrambled_schematic"":""4"",""participantId"":""DF243E04841E4ECB8A3B35D547E6039C"",""assignmentId"":""6a168f51-95df-430c-86b8-b06a7b00a36c"",""projectId"":""a9f3d40c-5730-405c-b25e-1034c4c56f3f""}","https://test12345.live/?num_scrambled_semantic=8&num_scrambled_causal=4&num_scrambled_schematic=4&participantId=DF243E04841E4ECB8A3B35D547E6039C&assignmentId=6a168f51-95df-430c-86b8-b06a7b00a36c&projectId=a9f3d40c-5730-405c-b25e-1034c4c56f3f","DF243E04841E4ECB8A3B35D547E6039C-2025-08-07-18-54-28","","null","","[]","null","",""
"","","","","","image-button-response","72","306104","0.0-12.0-1.0-0.5","DF243E04841E4ECB8A3B35D547E6039C","DF243E04841E4ECB8A3B35D547E6039C","6a168f51-95df-430c-86b8-b06a7b00a36c","a9f3d40c-5730-405c-b25e-1034c4c56f3f","{""num_scrambled_semantic"":""8"",""num_scrambled_causal"":""4"",""num_scrambled_schematic"":""4"",""participantId"":""DF243E04841E4ECB8A3B35D547E6039C"",""assignmentId"":""6a168f51-95df-430c-86b8-b06a7b00a36c"",""projectId"":""a9f3d40c-5730-405c-b25e-1034c4c56f3f""}","https://test12345.live/?num_scrambled_semantic=8&num_scrambled_causal=4&num_scrambled_schematic=4&participantId=DF243E04841E4ECB8A3B35D547E6039C&assignmentId=6a168f51-95df-430c-86b8-b06a7b00a36c&projectId=a9f3d40c-5730-405c-b25e-1034c4c56f3f","DF243E04841E4ECB8A3B35D547E6039C-2025-08-07-18-54-28","","null","","images/semantic_sequence/maintaining_a_car_semantic/maintaining_a_car_semantic_4.png","null","",""
"","","","","","image-button-response","73","306829","0.0-12.0-1.0-1.5","DF243E04841E4ECB8A3B35D547E6039C","DF243E04841E4ECB8A3B35D547E6039C","6a168f51-95df-430c-86b8-b06a7b00a36c","a9f3d40c-5730-405c-b25e-1034c4c56f3f","{""num_scrambled_semantic"":""8"",""num_scrambled_causal"":""4"",""num_scrambled_schematic"":""4"",""participantId"":""DF243E04841E4ECB8A3B35D547E6039C"",""assignmentId"":""6a168f51-95df-430c-86b8-b06a7b00a36c"",""projectId"":""a9f3d40c-5730-405c-b25e-1034c4c56f3f""}","https://test12345.live/?num_scrambled_semantic=8&num_scrambled_causal=4&num_scrambled_schematic=4&participantId=DF243E04841E4ECB8A3B35D547E6039C&assignmentId=6a168f51-95df-430c-86b8-b06a7b00a36c&projectId=a9f3d40c-5730-405c-b25e-1034c4c56f3f","DF243E04841E4ECB8A3B35D547E6039C-2025-08-07-18-54-28","","724","","images/semantic_sequence/maintaining_a_car_semantic/maintaining_a_car_semantic_4.png","0","",""
"","","","","","image-button-response","74","308633","0.0-12.0-1.0-2.5","DF243E04841E4ECB8A3B35D547E6039C","DF243E04841E4ECB8A3B35D547E6039C","6a168f51-95df-430c-86b8-b06a7b00a36c","a9f3d40c-5730-405c-b25e-1034c4c56f3f","{""num_scrambled_semantic"":""8"",""num_scrambled_causal"":""4"",""num_scrambled_schematic"":""4"",""participantId"":""DF243E04841E4ECB8A3B35D547E6039C"",""assignmentId"":""6a168f51-95df-430c-86b8-b06a7b00a36c"",""projectId"":""a9f3d40c-5730-405c-b25e-1034c4c56f3f""}","https://test12345.live/?num_scrambled_semantic=8&num_scrambled_causal=4&num_scrambled_schematic=4&participantId=DF243E04841E4ECB8A3B35D547E6039C&assignmentId=6a168f51-95df-430c-86b8-b06a7b00a36c&projectId=a9f3d40c-5730-405c-b25e-1034c4c56f3f","DF243E04841E4ECB8A3B35D547E6039C-2025-08-07-18-54-28","","null","","[]","null","",""
"","","","","","image-button-response","75","313138","0.0-12.0-1.0-0.6","DF243E04841E4ECB8A3B35D547E6039C","DF243E04841E4ECB8A3B35D547E6039C","6a168f51-95df-430c-86b8-b06a7b00a36c","a9f3d40c-5730-405c-b25e-1034c4c56f3f","{""num_scrambled_semantic"":""8"",""num_scrambled_causal"":""4"",""num_scrambled_schematic"":""4"",""participantId"":""DF243E04841E4ECB8A3B35D547E6039C"",""assignmentId"":""6a168f51-95df-430c-86b8-b06a7b00a36c"",""projectId"":""a9f3d40c-5730-405c-b25e-1034c4c56f3f""}","https://test12345.live/?num_scrambled_semantic=8&num_scrambled_causal=4&num_scrambled_schematic=4&participantId=DF243E04841E4ECB8A3B35D547E6039C&assignmentId=6a168f51-95df-430c-86b8-b06a7b00a36c&projectId=a9f3d40c-5730-405c-b25e-1034c4c56f3f","DF243E04841E4ECB8A3B35D547E6039C-2025-08-07-18-54-28","","null","","images/semantic_sequence/maintaining_a_car_semantic/maintaining_a_car_semantic_2.png","null","",""
"","","","","","image-button-response","76","314029","0.0-12.0-1.0-1.6","DF243E04841E4ECB8A3B35D547E6039C","DF243E04841E4ECB8A3B35D547E6039C","6a168f51-95df-430c-86b8-b06a7b00a36c","a9f3d40c-5730-405c-b25e-1034c4c56f3f","{""num_scrambled_semantic"":""8"",""num_scrambled_causal"":""4"",""num_scrambled_schematic"":""4"",""participantId"":""DF243E04841E4ECB8A3B35D547E6039C"",""assignmentId"":""6a168f51-95df-430c-86b8-b06a7b00a36c"",""projectId"":""a9f3d40c-5730-405c-b25e-1034c4c56f3f""}","https://test12345.live/?num_scrambled_semantic=8&num_scrambled_causal=4&num_scrambled_schematic=4&participantId=DF243E04841E4ECB8A3B35D547E6039C&assignmentId=6a168f51-95df-430c-86b8-b06a7b00a36c&projectId=a9f3d40c-5730-405c-b25e-1034c4c56f3f","DF243E04841E4ECB8A3B35D547E6039C-2025-08-07-18-54-28","","889","","images/semantic_sequence/maintaining_a_car_semantic/maintaining_a_car_semantic_2.png","0","",""
"","","","","","image-button-response","77","315832","0.0-12.0-1.0-2.6","DF243E04841E4ECB8A3B35D547E6039C","DF243E04841E4ECB8A3B35D547E6039C","6a168f51-95df-430c-86b8-b06a7b00a36c","a9f3d40c-5730-405c-b25e-1034c4c56f3f","{""num_scrambled_semantic"":""8"",""num_scrambled_causal"":""4"",""num_scrambled_schematic"":""4"",""participantId"":""DF243E04841E4ECB8A3B35D547E6039C"",""assignmentId"":""6a168f51-95df-430c-86b8-b06a7b00a36c"",""projectId"":""a9f3d40c-5730-405c-b25e-1034c4c56f3f""}","https://test12345.live/?num_scrambled_semantic=8&num_scrambled_causal=4&num_scrambled_schematic=4&participantId=DF243E04841E4ECB8A3B35D547E6039C&assignmentId=6a168f51-95df-430c-86b8-b06a7b00a36c&projectId=a9f3d40c-5730-405c-b25e-1034c4c56f3f","DF243E04841E4ECB8A3B35D547E6039C-2025-08-07-18-54-28","","null","","[]","null","",""
"","","","","","image-button-response","78","320338","0.0-12.0-1.0-0.7","DF243E04841E4ECB8A3B35D547E6039C","DF243E04841E4ECB8A3B35D547E6039C","6a168f51-95df-430c-86b8-b06a7b00a36c","a9f3d40c-5730-405c-b25e-1034c4c56f3f","{""num_scrambled_semantic"":""8"",""num_scrambled_causal"":""4"",""num_scrambled_schematic"":""4"",""participantId"":""DF243E04841E4ECB8A3B35D547E6039C"",""assignmentId"":""6a168f51-95df-430c-86b8-b06a7b00a36c"",""projectId"":""a9f3d40c-5730-405c-b25e-1034c4c56f3f""}","https://test12345.live/?num_scrambled_semantic=8&num_scrambled_causal=4&num_scrambled_schematic=4&participantId=DF243E04841E4ECB8A3B35D547E6039C&assignmentId=6a168f51-95df-430c-86b8-b06a7b00a36c&projectId=a9f3d40c-5730-405c-b25e-1034c4c56f3f","DF243E04841E4ECB8A3B35D547E6039C-2025-08-07-18-54-28","","null","","images/semantic_sequence/maintaining_a_car_semantic/maintaining_a_car_semantic_7.png","null","",""
"","","","","","image-button-response","79","321396","0.0-12.0-1.0-1.7","DF243E04841E4ECB8A3B35D547E6039C","DF243E04841E4ECB8A3B35D547E6039C","6a168f51-95df-430c-86b8-b06a7b00a36c","a9f3d40c-5730-405c-b25e-1034c4c56f3f","{""num_scrambled_semantic"":""8"",""num_scrambled_causal"":""4"",""num_scrambled_schematic"":""4"",""participantId"":""DF243E04841E4ECB8A3B35D547E6039C"",""assignmentId"":""6a168f51-95df-430c-86b8-b06a7b00a36c"",""projectId"":""a9f3d40c-5730-405c-b25e-1034c4c56f3f""}","https://test12345.live/?num_scrambled_semantic=8&num_scrambled_causal=4&num_scrambled_schematic=4&participantId=DF243E04841E4ECB8A3B35D547E6039C&assignmentId=6a168f51-95df-430c-86b8-b06a7b00a36c&projectId=a9f3d40c-5730-405c-b25e-1034c4c56f3f","DF243E04841E4ECB8A3B35D547E6039C-2025-08-07-18-54-28","","1056","","images/semantic_sequence/maintaining_a_car_semantic/maintaining_a_car_semantic_7.png","0","",""
"","","","","","image-button-response","80","323203","0.0-12.0-1.0-2.7","DF243E04841E4ECB8A3B35D547E6039C","DF243E04841E4ECB8A3B35D547E6039C","6a168f51-95df-430c-86b8-b06a7b00a36c","a9f3d40c-5730-405c-b25e-1034c4c56f3f","{""num_scrambled_semantic"":""8"",""num_scrambled_causal"":""4"",""num_scrambled_schematic"":""4"",""participantId"":""DF243E04841E4ECB8A3B35D547E6039C"",""assignmentId"":""6a168f51-95df-430c-86b8-b06a7b00a36c"",""projectId"":""a9f3d40c-5730-405c-b25e-1034c4c56f3f""}","https://test12345.live/?num_scrambled_semantic=8&num_scrambled_causal=4&num_scrambled_schematic=4&participantId=DF243E04841E4ECB8A3B35D547E6039C&assignmentId=6a168f51-95df-430c-86b8-b06a7b00a36c&projectId=a9f3d40c-5730-405c-b25e-1034c4c56f3f","DF243E04841E4ECB8A3B35D547E6039C-2025-08-07-18-54-28","","null","","[]","null","",""
"","","","","","image-button-response","81","327709","0.0-12.0-1.0-0.8","DF243E04841E4ECB8A3B35D547E6039C","DF243E04841E4ECB8A3B35D547E6039C","6a168f51-95df-430c-86b8-b06a7b00a36c","a9f3d40c-5730-405c-b25e-1034c4c56f3f","{""num_scrambled_semantic"":""8"",""num_scrambled_causal"":""4"",""num_scrambled_schematic"":""4"",""participantId"":""DF243E04841E4ECB8A3B35D547E6039C"",""assignmentId"":""6a168f51-95df-430c-86b8-b06a7b00a36c"",""projectId"":""a9f3d40c-5730-405c-b25e-1034c4c56f3f""}","https://test12345.live/?num_scrambled_semantic=8&num_scrambled_causal=4&num_scrambled_schematic=4&participantId=DF243E04841E4ECB8A3B35D547E6039C&assignmentId=6a168f51-95df-430c-86b8-b06a7b00a36c&projectId=a9f3d40c-5730-405c-b25e-1034c4c56f3f","DF243E04841E4ECB8A3B35D547E6039C-2025-08-07-18-54-28","","null","","images/semantic_sequence/maintaining_a_car_semantic/maintaining_a_car_semantic_5.png","null","",""
"","","","","","image-button-response","82","328646","0.0-12.0-1.0-1.8","DF243E04841E4ECB8A3B35D547E6039C","DF243E04841E4ECB8A3B35D547E6039C","6a168f51-95df-430c-86b8-b06a7b00a36c","a9f3d40c-5730-405c-b25e-1034c4c56f3f","{""num_scrambled_semantic"":""8"",""num_scrambled_causal"":""4"",""num_scrambled_schematic"":""4"",""participantId"":""DF243E04841E4ECB8A3B35D547E6039C"",""assignmentId"":""6a168f51-95df-430c-86b8-b06a7b00a36c"",""projectId"":""a9f3d40c-5730-405c-b25e-1034c4c56f3f""}","https://test12345.live/?num_scrambled_semantic=8&num_scrambled_causal=4&num_scrambled_schematic=4&participantId=DF243E04841E4ECB8A3B35D547E6039C&assignmentId=6a168f51-95df-430c-86b8-b06a7b00a36c&projectId=a9f3d40c-5730-405c-b25e-1034c4c56f3f","DF243E04841E4ECB8A3B35D547E6039C-2025-08-07-18-54-28","","934","","images/semantic_sequence/maintaining_a_car_semantic/maintaining_a_car_semantic_5.png","0","",""
"","","","","","image-button-response","83","330453","0.0-12.0-1.0-2.8","DF243E04841E4ECB8A3B35D547E6039C","DF243E04841E4ECB8A3B35D547E6039C","6a168f51-95df-430c-86b8-b06a7b00a36c","a9f3d40c-5730-405c-b25e-1034c4c56f3f","{""num_scrambled_semantic"":""8"",""num_scrambled_causal"":""4"",""num_scrambled_schematic"":""4"",""participantId"":""DF243E04841E4ECB8A3B35D547E6039C"",""assignmentId"":""6a168f51-95df-430c-86b8-b06a7b00a36c"",""projectId"":""a9f3d40c-5730-405c-b25e-1034c4c56f3f""}","https://test12345.live/?num_scrambled_semantic=8&num_scrambled_causal=4&num_scrambled_schematic=4&participantId=DF243E04841E4ECB8A3B35D547E6039C&assignmentId=6a168f51-95df-430c-86b8-b06a7b00a36c&projectId=a9f3d40c-5730-405c-b25e-1034c4c56f3f","DF243E04841E4ECB8A3B35D547E6039C-2025-08-07-18-54-28","","null","","[]","null","",""
"","","","","","image-button-response","84","334956","0.0-12.0-1.0-0.9","DF243E04841E4ECB8A3B35D547E6039C","DF243E04841E4ECB8A3B35D547E6039C","6a168f51-95df-430c-86b8-b06a7b00a36c","a9f3d40c-5730-405c-b25e-1034c4c56f3f","{""num_scrambled_semantic"":""8"",""num_scrambled_causal"":""4"",""num_scrambled_schematic"":""4"",""participantId"":""DF243E04841E4ECB8A3B35D547E6039C"",""assignmentId"":""6a168f51-95df-430c-86b8-b06a7b00a36c"",""projectId"":""a9f3d40c-5730-405c-b25e-1034c4c56f3f""}","https://test12345.live/?num_scrambled_semantic=8&num_scrambled_causal=4&num_scrambled_schematic=4&participantId=DF243E04841E4ECB8A3B35D547E6039C&assignmentId=6a168f51-95df-430c-86b8-b06a7b00a36c&projectId=a9f3d40c-5730-405c-b25e-1034c4c56f3f","DF243E04841E4ECB8A3B35D547E6039C-2025-08-07-18-54-28","","null","","images/semantic_sequence/maintaining_a_car_semantic/maintaining_a_car_semantic_ten.png","null","",""
"","","","","","image-button-response","85","337229","0.0-12.0-1.0-1.9","DF243E04841E4ECB8A3B35D547E6039C","DF243E04841E4ECB8A3B35D547E6039C","6a168f51-95df-430c-86b8-b06a7b00a36c","a9f3d40c-5730-405c-b25e-1034c4c56f3f","{""num_scrambled_semantic"":""8"",""num_scrambled_causal"":""4"",""num_scrambled_schematic"":""4"",""participantId"":""DF243E04841E4ECB8A3B35D547E6039C"",""assignmentId"":""6a168f51-95df-430c-86b8-b06a7b00a36c"",""projectId"":""a9f3d40c-5730-405c-b25e-1034c4c56f3f""}","https://test12345.live/?num_scrambled_semantic=8&num_scrambled_causal=4&num_scrambled_schematic=4&participantId=DF243E04841E4ECB8A3B35D547E6039C&assignmentId=6a168f51-95df-430c-86b8-b06a7b00a36c&projectId=a9f3d40c-5730-405c-b25e-1034c4c56f3f","DF243E04841E4ECB8A3B35D547E6039C-2025-08-07-18-54-28","","2272","","images/semantic_sequence/maintaining_a_car_semantic/maintaining_a_car_semantic_ten.png","0","",""
"","","","","","image-button-response","86","339033","0.0-12.0-1.0-2.9","DF243E04841E4ECB8A3B35D547E6039C","DF243E04841E4ECB8A3B35D547E6039C","6a168f51-95df-430c-86b8-b06a7b00a36c","a9f3d40c-5730-405c-b25e-1034c4c56f3f","{""num_scrambled_semantic"":""8"",""num_scrambled_causal"":""4"",""num_scrambled_schematic"":""4"",""participantId"":""DF243E04841E4ECB8A3B35D547E6039C"",""assignmentId"":""6a168f51-95df-430c-86b8-b06a7b00a36c"",""projectId"":""a9f3d40c-5730-405c-b25e-1034c4c56f3f""}","https://test12345.live/?num_scrambled_semantic=8&num_scrambled_causal=4&num_scrambled_schematic=4&participantId=DF243E04841E4ECB8A3B35D547E6039C&assignmentId=6a168f51-95df-430c-86b8-b06a7b00a36c&projectId=a9f3d40c-5730-405c-b25e-1034c4c56f3f","DF243E04841E4ECB8A3B35D547E6039C-2025-08-07-18-54-28","","null","","[]","null","",""
"","","","","","html-audio-response","87","362029","0.0-13.0","DF243E04841E4ECB8A3B35D547E6039C","DF243E04841E4ECB8A3B35D547E6039C","6a168f51-95df-430c-86b8-b06a7b00a36c","a9f3d40c-5730-405c-b25e-1034c4c56f3f","{""num_scrambled_semantic"":""8"",""num_scrambled_causal"":""4"",""num_scrambled_schematic"":""4"",""participantId"":""DF243E04841E4ECB8A3B35D547E6039C"",""assignmentId"":""6a168f51-95df-430c-86b8-b06a7b00a36c"",""projectId"":""a9f3d40c-5730-405c-b25e-1034c4c56f3f""}","https://test12345.live/?num_scrambled_semantic=8&num_scrambled_causal=4&num_scrambled_schematic=4&participantId=DF243E04841E4ECB8A3B35D547E6039C&assignmentId=6a168f51-95df-430c-86b8-b06a7b00a36c&projectId=a9f3d40c-5730-405c-b25e-1034c4c56f3f","DF243E04841E4ECB8A3B35D547E6039C-2025-08-07-18-54-28","","17983","","[""<span style=\""color: red; font-size: 24px\""> NOW RECORDING</span><p>Please say out loud all the images you saw, as many as you can remember. The images can be said in any order.</p>""]","","1","maintaining_a_car_semantic"
"","","","","","image-button-response","88","368039","0.0-14.0-0.0","DF243E04841E4ECB8A3B35D547E6039C","DF243E04841E4ECB8A3B35D547E6039C","6a168f51-95df-430c-86b8-b06a7b00a36c","a9f3d40c-5730-405c-b25e-1034c4c56f3f","{""num_scrambled_semantic"":""8"",""num_scrambled_causal"":""4"",""num_scrambled_schematic"":""4"",""participantId"":""DF243E04841E4ECB8A3B35D547E6039C"",""assignmentId"":""6a168f51-95df-430c-86b8-b06a7b00a36c"",""projectId"":""a9f3d40c-5730-405c-b25e-1034c4c56f3f""}","https://test12345.live/?num_scrambled_semantic=8&num_scrambled_causal=4&num_scrambled_schematic=4&participantId=DF243E04841E4ECB8A3B35D547E6039C&assignmentId=6a168f51-95df-430c-86b8-b06a7b00a36c&projectId=a9f3d40c-5730-405c-b25e-1034c4c56f3f","DF243E04841E4ECB8A3B35D547E6039C-2025-08-07-18-54-28","","null","","images/semantic_sequence/creative_activities_semantic/creative_activities_semantic_0.png","null","",""
"","","","","","image-button-response","89","372541","0.0-14.0-1.0-0.0","DF243E04841E4ECB8A3B35D547E6039C","DF243E04841E4ECB8A3B35D547E6039C","6a168f51-95df-430c-86b8-b06a7b00a36c","a9f3d40c-5730-405c-b25e-1034c4c56f3f","{""num_scrambled_semantic"":""8"",""num_scrambled_causal"":""4"",""num_scrambled_schematic"":""4"",""participantId"":""DF243E04841E4ECB8A3B35D547E6039C"",""assignmentId"":""6a168f51-95df-430c-86b8-b06a7b00a36c"",""projectId"":""a9f3d40c-5730-405c-b25e-1034c4c56f3f""}","https://test12345.live/?num_scrambled_semantic=8&num_scrambled_causal=4&num_scrambled_schematic=4&participantId=DF243E04841E4ECB8A3B35D547E6039C&assignmentId=6a168f51-95df-430c-86b8-b06a7b00a36c&projectId=a9f3d40c-5730-405c-b25e-1034c4c56f3f","DF243E04841E4ECB8A3B35D547E6039C-2025-08-07-18-54-28","","null","","images/semantic_sequence/creative_activities_semantic/creative_activities_semantic_ten.png","null","",""
"","","","","","image-button-response","90","373546","0.0-14.0-1.0-1.0","DF243E04841E4ECB8A3B35D547E6039C","DF243E04841E4ECB8A3B35D547E6039C","6a168f51-95df-430c-86b8-b06a7b00a36c","a9f3d40c-5730-405c-b25e-1034c4c56f3f","{""num_scrambled_semantic"":""8"",""num_scrambled_causal"":""4"",""num_scrambled_schematic"":""4"",""participantId"":""DF243E04841E4ECB8A3B35D547E6039C"",""assignmentId"":""6a168f51-95df-430c-86b8-b06a7b00a36c"",""projectId"":""a9f3d40c-5730-405c-b25e-1034c4c56f3f""}","https://test12345.live/?num_scrambled_semantic=8&num_scrambled_causal=4&num_scrambled_schematic=4&participantId=DF243E04841E4ECB8A3B35D547E6039C&assignmentId=6a168f51-95df-430c-86b8-b06a7b00a36c&projectId=a9f3d40c-5730-405c-b25e-1034c4c56f3f","DF243E04841E4ECB8A3B35D547E6039C-2025-08-07-18-54-28","","1002","","images/semantic_sequence/creative_activities_semantic/creative_activities_semantic_ten.png","0","",""
"","","","","","image-button-response","91","375351","0.0-14.0-1.0-2.0","DF243E04841E4ECB8A3B35D547E6039C","DF243E04841E4ECB8A3B35D547E6039C","6a168f51-95df-430c-86b8-b06a7b00a36c","a9f3d40c-5730-405c-b25e-1034c4c56f3f","{""num_scrambled_semantic"":""8"",""num_scrambled_causal"":""4"",""num_scrambled_schematic"":""4"",""participantId"":""DF243E04841E4ECB8A3B35D547E6039C"",""assignmentId"":""6a168f51-95df-430c-86b8-b06a7b00a36c"",""projectId"":""a9f3d40c-5730-405c-b25e-1034c4c56f3f""}","https://test12345.live/?num_scrambled_semantic=8&num_scrambled_causal=4&num_scrambled_schematic=4&participantId=DF243E04841E4ECB8A3B35D547E6039C&assignmentId=6a168f51-95df-430c-86b8-b06a7b00a36c&projectId=a9f3d40c-5730-405c-b25e-1034c4c56f3f","DF243E04841E4ECB8A3B35D547E6039C-2025-08-07-18-54-28","","null","","[]","null","",""
"","","","","","image-button-response","92","379857","0.0-14.0-1.0-0.1","DF243E04841E4ECB8A3B35D547E6039C","DF243E04841E4ECB8A3B35D547E6039C","6a168f51-95df-430c-86b8-b06a7b00a36c","a9f3d40c-5730-405c-b25e-1034c4c56f3f","{""num_scrambled_semantic"":""8"",""num_scrambled_causal"":""4"",""num_scrambled_schematic"":""4"",""participantId"":""DF243E04841E4ECB8A3B35D547E6039C"",""assignmentId"":""6a168f51-95df-430c-86b8-b06a7b00a36c"",""projectId"":""a9f3d40c-5730-405c-b25e-1034c4c56f3f""}","https://test12345.live/?num_scrambled_semantic=8&num_scrambled_causal=4&num_scrambled_schematic=4&participantId=DF243E04841E4ECB8A3B35D547E6039C&assignmentId=6a168f51-95df-430c-86b8-b06a7b00a36c&projectId=a9f3d40c-5730-405c-b25e-1034c4c56f3f","DF243E04841E4ECB8A3B35D547E6039C-2025-08-07-18-54-28","","null","","images/semantic_sequence/creative_activities_semantic/creative_activities_semantic_1.png","null","",""
"","","","","","image-button-response","93","381379","0.0-14.0-1.0-1.1","DF243E04841E4ECB8A3B35D547E6039C","DF243E04841E4ECB8A3B35D547E6039C","6a168f51-95df-430c-86b8-b06a7b00a36c","a9f3d40c-5730-405c-b25e-1034c4c56f3f","{""num_scrambled_semantic"":""8"",""num_scrambled_causal"":""4"",""num_scrambled_schematic"":""4"",""participantId"":""DF243E04841E4ECB8A3B35D547E6039C"",""assignmentId"":""6a168f51-95df-430c-86b8-b06a7b00a36c"",""projectId"":""a9f3d40c-5730-405c-b25e-1034c4c56f3f""}","https://test12345.live/?num_scrambled_semantic=8&num_scrambled_causal=4&num_scrambled_schematic=4&participantId=DF243E04841E4ECB8A3B35D547E6039C&assignmentId=6a168f51-95df-430c-86b8-b06a7b00a36c&projectId=a9f3d40c-5730-405c-b25e-1034c4c56f3f","DF243E04841E4ECB8A3B35D547E6039C-2025-08-07-18-54-28","","1519","","images/semantic_sequence/creative_activities_semantic/creative_activities_semantic_1.png","0","",""
"","","","","","image-button-response","94","383185","0.0-14.0-1.0-2.1","DF243E04841E4ECB8A3B35D547E6039C","DF243E04841E4ECB8A3B35D547E6039C","6a168f51-95df-430c-86b8-b06a7b00a36c","a9f3d40c-5730-405c-b25e-1034c4c56f3f","{""num_scrambled_semantic"":""8"",""num_scrambled_causal"":""4"",""num_scrambled_schematic"":""4"",""participantId"":""DF243E04841E4ECB8A3B35D547E6039C"",""assignmentId"":""6a168f51-95df-430c-86b8-b06a7b00a36c"",""projectId"":""a9f3d40c-5730-405c-b25e-1034c4c56f3f""}","https://test12345.live/?num_scrambled_semantic=8&num_scrambled_causal=4&num_scrambled_schematic=4&participantId=DF243E04841E4ECB8A3B35D547E6039C&assignmentId=6a168f51-95df-430c-86b8-b06a7b00a36c&projectId=a9f3d40c-5730-405c-b25e-1034c4c56f3f","DF243E04841E4ECB8A3B35D547E6039C-2025-08-07-18-54-28","","null","","[]","null","",""
"","","","","","image-button-response","95","387688","0.0-14.0-1.0-0.2","DF243E04841E4ECB8A3B35D547E6039C","DF243E04841E4ECB8A3B35D547E6039C","6a168f51-95df-430c-86b8-b06a7b00a36c","a9f3d40c-5730-405c-b25e-1034c4c56f3f","{""num_scrambled_semantic"":""8"",""num_scrambled_causal"":""4"",""num_scrambled_schematic"":""4"",""participantId"":""DF243E04841E4ECB8A3B35D547E6039C"",""assignmentId"":""6a168f51-95df-430c-86b8-b06a7b00a36c"",""projectId"":""a9f3d40c-5730-405c-b25e-1034c4c56f3f""}","https://test12345.live/?num_scrambled_semantic=8&num_scrambled_causal=4&num_scrambled_schematic=4&participantId=DF243E04841E4ECB8A3B35D547E6039C&assignmentId=6a168f51-95df-430c-86b8-b06a7b00a36c&projectId=a9f3d40c-5730-405c-b25e-1034c4c56f3f","DF243E04841E4ECB8A3B35D547E6039C-2025-08-07-18-54-28","","null","","images/semantic_sequence/creative_activities_semantic/creative_activities_semantic_4.png","null","",""
"","","","","","image-button-response","96","388479","0.0-14.0-1.0-1.2","DF243E04841E4ECB8A3B35D547E6039C","DF243E04841E4ECB8A3B35D547E6039C","6a168f51-95df-430c-86b8-b06a7b00a36c","a9f3d40c-5730-405c-b25e-1034c4c56f3f","{""num_scrambled_semantic"":""8"",""num_scrambled_causal"":""4"",""num_scrambled_schematic"":""4"",""participantId"":""DF243E04841E4ECB8A3B35D547E6039C"",""assignmentId"":""6a168f51-95df-430c-86b8-b06a7b00a36c"",""projectId"":""a9f3d40c-5730-405c-b25e-1034c4c56f3f""}","https://test12345.live/?num_scrambled_semantic=8&num_scrambled_causal=4&num_scrambled_schematic=4&participantId=DF243E04841E4ECB8A3B35D547E6039C&assignmentId=6a168f51-95df-430c-86b8-b06a7b00a36c&projectId=a9f3d40c-5730-405c-b25e-1034c4c56f3f","DF243E04841E4ECB8A3B35D547E6039C-2025-08-07-18-54-28","","789","","images/semantic_sequence/creative_activities_semantic/creative_activities_semantic_4.png","0","",""
"","","","","","image-button-response","97","390286","0.0-14.0-1.0-2.2","DF243E04841E4ECB8A3B35D547E6039C","DF243E04841E4ECB8A3B35D547E6039C","6a168f51-95df-430c-86b8-b06a7b00a36c","a9f3d40c-5730-405c-b25e-1034c4c56f3f","{""num_scrambled_semantic"":""8"",""num_scrambled_causal"":""4"",""num_scrambled_schematic"":""4"",""participantId"":""DF243E04841E4ECB8A3B35D547E6039C"",""assignmentId"":""6a168f51-95df-430c-86b8-b06a7b00a36c"",""projectId"":""a9f3d40c-5730-405c-b25e-1034c4c56f3f""}","https://test12345.live/?num_scrambled_semantic=8&num_scrambled_causal=4&num_scrambled_schematic=4&participantId=DF243E04841E4ECB8A3B35D547E6039C&assignmentId=6a168f51-95df-430c-86b8-b06a7b00a36c&projectId=a9f3d40c-5730-405c-b25e-1034c4c56f3f","DF243E04841E4ECB8A3B35D547E6039C-2025-08-07-18-54-28","","null","","[]","null","",""
"","","","","","image-button-response","98","394791","0.0-14.0-1.0-0.3","DF243E04841E4ECB8A3B35D547E6039C","DF243E04841E4ECB8A3B35D547E6039C","6a168f51-95df-430c-86b8-b06a7b00a36c","a9f3d40c-5730-405c-b25e-1034c4c56f3f","{""num_scrambled_semantic"":""8"",""num_scrambled_causal"":""4"",""num_scrambled_schematic"":""4"",""participantId"":""DF243E04841E4ECB8A3B35D547E6039C"",""assignmentId"":""6a168f51-95df-430c-86b8-b06a7b00a36c"",""projectId"":""a9f3d40c-5730-405c-b25e-1034c4c56f3f""}","https://test12345.live/?num_scrambled_semantic=8&num_scrambled_causal=4&num_scrambled_schematic=4&participantId=DF243E04841E4ECB8A3B35D547E6039C&assignmentId=6a168f51-95df-430c-86b8-b06a7b00a36c&projectId=a9f3d40c-5730-405c-b25e-1034c4c56f3f","DF243E04841E4ECB8A3B35D547E6039C-2025-08-07-18-54-28","","null","","images/semantic_sequence/creative_activities_semantic/creative_activities_semantic_8.png","null","",""
"","","","","","image-button-response","99","395412","0.0-14.0-1.0-1.3","DF243E04841E4ECB8A3B35D547E6039C","DF243E04841E4ECB8A3B35D547E6039C","6a168f51-95df-430c-86b8-b06a7b00a36c","a9f3d40c-5730-405c-b25e-1034c4c56f3f","{""num_scrambled_semantic"":""8"",""num_scrambled_causal"":""4"",""num_scrambled_schematic"":""4"",""participantId"":""DF243E04841E4ECB8A3B35D547E6039C"",""assignmentId"":""6a168f51-95df-430c-86b8-b06a7b00a36c"",""projectId"":""a9f3d40c-5730-405c-b25e-1034c4c56f3f""}","https://test12345.live/?num_scrambled_semantic=8&num_scrambled_causal=4&num_scrambled_schematic=4&participantId=DF243E04841E4ECB8A3B35D547E6039C&assignmentId=6a168f51-95df-430c-86b8-b06a7b00a36c&projectId=a9f3d40c-5730-405c-b25e-1034c4c56f3f","DF243E04841E4ECB8A3B35D547E6039C-2025-08-07-18-54-28","","619","","images/semantic_sequence/creative_activities_semantic/creative_activities_semantic_8.png","0","",""
"","","","","","image-button-response","100","397219","0.0-14.0-1.0-2.3","DF243E04841E4ECB8A3B35D547E6039C","DF243E04841E4ECB8A3B35D547E6039C","6a168f51-95df-430c-86b8-b06a7b00a36c","a9f3d40c-5730-405c-b25e-1034c4c56f3f","{""num_scrambled_semantic"":""8"",""num_scrambled_causal"":""4"",""num_scrambled_schematic"":""4"",""participantId"":""DF243E04841E4ECB8A3B35D547E6039C"",""assignmentId"":""6a168f51-95df-430c-86b8-b06a7b00a36c"",""projectId"":""a9f3d40c-5730-405c-b25e-1034c4c56f3f""}","https://test12345.live/?num_scrambled_semantic=8&num_scrambled_causal=4&num_scrambled_schematic=4&participantId=DF243E04841E4ECB8A3B35D547E6039C&assignmentId=6a168f51-95df-430c-86b8-b06a7b00a36c&projectId=a9f3d40c-5730-405c-b25e-1034c4c56f3f","DF243E04841E4ECB8A3B35D547E6039C-2025-08-07-18-54-28","","null","","[]","null","",""
"","","","","","image-button-response","101","401720","0.0-14.0-1.0-0.4","DF243E04841E4ECB8A3B35D547E6039C","DF243E04841E4ECB8A3B35D547E6039C","6a168f51-95df-430c-86b8-b06a7b00a36c","a9f3d40c-5730-405c-b25e-1034c4c56f3f","{""num_scrambled_semantic"":""8"",""num_scrambled_causal"":""4"",""num_scrambled_schematic"":""4"",""participantId"":""DF243E04841E4ECB8A3B35D547E6039C"",""assignmentId"":""6a168f51-95df-430c-86b8-b06a7b00a36c"",""projectId"":""a9f3d40c-5730-405c-b25e-1034c4c56f3f""}","https://test12345.live/?num_scrambled_semantic=8&num_scrambled_causal=4&num_scrambled_schematic=4&participantId=DF243E04841E4ECB8A3B35D547E6039C&assignmentId=6a168f51-95df-430c-86b8-b06a7b00a36c&projectId=a9f3d40c-5730-405c-b25e-1034c4c56f3f","DF243E04841E4ECB8A3B35D547E6039C-2025-08-07-18-54-28","","null","","images/semantic_sequence/creative_activities_semantic/creative_activities_semantic_5.png","null","",""
"","","","","","image-button-response","102","402545","0.0-14.0-1.0-1.4","DF243E04841E4ECB8A3B35D547E6039C","DF243E04841E4ECB8A3B35D547E6039C","6a168f51-95df-430c-86b8-b06a7b00a36c","a9f3d40c-5730-405c-b25e-1034c4c56f3f","{""num_scrambled_semantic"":""8"",""num_scrambled_causal"":""4"",""num_scrambled_schematic"":""4"",""participantId"":""DF243E04841E4ECB8A3B35D547E6039C"",""assignmentId"":""6a168f51-95df-430c-86b8-b06a7b00a36c"",""projectId"":""a9f3d40c-5730-405c-b25e-1034c4c56f3f""}","https://test12345.live/?num_scrambled_semantic=8&num_scrambled_causal=4&num_scrambled_schematic=4&participantId=DF243E04841E4ECB8A3B35D547E6039C&assignmentId=6a168f51-95df-430c-86b8-b06a7b00a36c&projectId=a9f3d40c-5730-405c-b25e-1034c4c56f3f","DF243E04841E4ECB8A3B35D547E6039C-2025-08-07-18-54-28","","823","","images/semantic_sequence/creative_activities_semantic/creative_activities_semantic_5.png","0","",""
"","","","","","image-button-response","103","404351","0.0-14.0-1.0-2.4","DF243E04841E4ECB8A3B35D547E6039C","DF243E04841E4ECB8A3B35D547E6039C","6a168f51-95df-430c-86b8-b06a7b00a36c","a9f3d40c-5730-405c-b25e-1034c4c56f3f","{""num_scrambled_semantic"":""8"",""num_scrambled_causal"":""4"",""num_scrambled_schematic"":""4"",""participantId"":""DF243E04841E4ECB8A3B35D547E6039C"",""assignmentId"":""6a168f51-95df-430c-86b8-b06a7b00a36c"",""projectId"":""a9f3d40c-5730-405c-b25e-1034c4c56f3f""}","https://test12345.live/?num_scrambled_semantic=8&num_scrambled_causal=4&num_scrambled_schematic=4&participantId=DF243E04841E4ECB8A3B35D547E6039C&assignmentId=6a168f51-95df-430c-86b8-b06a7b00a36c&projectId=a9f3d40c-5730-405c-b25e-1034c4c56f3f","DF243E04841E4ECB8A3B35D547E6039C-2025-08-07-18-54-28","","null","","[]","null","",""
"","","","","","image-button-response","104","408858","0.0-14.0-1.0-0.5","DF243E04841E4ECB8A3B35D547E6039C","DF243E04841E4ECB8A3B35D547E6039C","6a168f51-95df-430c-86b8-b06a7b00a36c","a9f3d40c-5730-405c-b25e-1034c4c56f3f","{""num_scrambled_semantic"":""8"",""num_scrambled_causal"":""4"",""num_scrambled_schematic"":""4"",""participantId"":""DF243E04841E4ECB8A3B35D547E6039C"",""assignmentId"":""6a168f51-95df-430c-86b8-b06a7b00a36c"",""projectId"":""a9f3d40c-5730-405c-b25e-1034c4c56f3f""}","https://test12345.live/?num_scrambled_semantic=8&num_scrambled_causal=4&num_scrambled_schematic=4&participantId=DF243E04841E4ECB8A3B35D547E6039C&assignmentId=6a168f51-95df-430c-86b8-b06a7b00a36c&projectId=a9f3d40c-5730-405c-b25e-1034c4c56f3f","DF243E04841E4ECB8A3B35D547E6039C-2025-08-07-18-54-28","","null","","images/semantic_sequence/creative_activities_semantic/creative_activities_semantic_3.png","null","",""
"","","","","","image-button-response","105","409712","0.0-14.0-1.0-1.5","DF243E04841E4ECB8A3B35D547E6039C","DF243E04841E4ECB8A3B35D547E6039C","6a168f51-95df-430c-86b8-b06a7b00a36c","a9f3d40c-5730-405c-b25e-1034c4c56f3f","{""num_scrambled_semantic"":""8"",""num_scrambled_causal"":""4"",""num_scrambled_schematic"":""4"",""participantId"":""DF243E04841E4ECB8A3B35D547E6039C"",""assignmentId"":""6a168f51-95df-430c-86b8-b06a7b00a36c"",""projectId"":""a9f3d40c-5730-405c-b25e-1034c4c56f3f""}","https://test12345.live/?num_scrambled_semantic=8&num_scrambled_causal=4&num_scrambled_schematic=4&participantId=DF243E04841E4ECB8A3B35D547E6039C&assignmentId=6a168f51-95df-430c-86b8-b06a7b00a36c&projectId=a9f3d40c-5730-405c-b25e-1034c4c56f3f","DF243E04841E4ECB8A3B35D547E6039C-2025-08-07-18-54-28","","852","","images/semantic_sequence/creative_activities_semantic/creative_activities_semantic_3.png","0","",""
"","","","","","image-button-response","106","411514","0.0-14.0-1.0-2.5","DF243E04841E4ECB8A3B35D547E6039C","DF243E04841E4ECB8A3B35D547E6039C","6a168f51-95df-430c-86b8-b06a7b00a36c","a9f3d40c-5730-405c-b25e-1034c4c56f3f","{""num_scrambled_semantic"":""8"",""num_scrambled_causal"":""4"",""num_scrambled_schematic"":""4"",""participantId"":""DF243E04841E4ECB8A3B35D547E6039C"",""assignmentId"":""6a168f51-95df-430c-86b8-b06a7b00a36c"",""projectId"":""a9f3d40c-5730-405c-b25e-1034c4c56f3f""}","https://test12345.live/?num_scrambled_semantic=8&num_scrambled_causal=4&num_scrambled_schematic=4&participantId=DF243E04841E4ECB8A3B35D547E6039C&assignmentId=6a168f51-95df-430c-86b8-b06a7b00a36c&projectId=a9f3d40c-5730-405c-b25e-1034c4c56f3f","DF243E04841E4ECB8A3B35D547E6039C-2025-08-07-18-54-28","","null","","[]","null","",""
"","","","","","image-button-response","107","416018","0.0-14.0-1.0-0.6","DF243E04841E4ECB8A3B35D547E6039C","DF243E04841E4ECB8A3B35D547E6039C","6a168f51-95df-430c-86b8-b06a7b00a36c","a9f3d40c-5730-405c-b25e-1034c4c56f3f","{""num_scrambled_semantic"":""8"",""num_scrambled_causal"":""4"",""num_scrambled_schematic"":""4"",""participantId"":""DF243E04841E4ECB8A3B35D547E6039C"",""assignmentId"":""6a168f51-95df-430c-86b8-b06a7b00a36c"",""projectId"":""a9f3d40c-5730-405c-b25e-1034c4c56f3f""}","https://test12345.live/?num_scrambled_semantic=8&num_scrambled_causal=4&num_scrambled_schematic=4&participantId=DF243E04841E4ECB8A3B35D547E6039C&assignmentId=6a168f51-95df-430c-86b8-b06a7b00a36c&projectId=a9f3d40c-5730-405c-b25e-1034c4c56f3f","DF243E04841E4ECB8A3B35D547E6039C-2025-08-07-18-54-28","","null","","images/semantic_sequence/creative_activities_semantic/creative_activities_semantic_2.png","null","",""
"","","","","","image-button-response","108","416761","0.0-14.0-1.0-1.6","DF243E04841E4ECB8A3B35D547E6039C","DF243E04841E4ECB8A3B35D547E6039C","6a168f51-95df-430c-86b8-b06a7b00a36c","a9f3d40c-5730-405c-b25e-1034c4c56f3f","{""num_scrambled_semantic"":""8"",""num_scrambled_causal"":""4"",""num_scrambled_schematic"":""4"",""participantId"":""DF243E04841E4ECB8A3B35D547E6039C"",""assignmentId"":""6a168f51-95df-430c-86b8-b06a7b00a36c"",""projectId"":""a9f3d40c-5730-405c-b25e-1034c4c56f3f""}","https://test12345.live/?num_scrambled_semantic=8&num_scrambled_causal=4&num_scrambled_schematic=4&participantId=DF243E04841E4ECB8A3B35D547E6039C&assignmentId=6a168f51-95df-430c-86b8-b06a7b00a36c&projectId=a9f3d40c-5730-405c-b25e-1034c4c56f3f","DF243E04841E4ECB8A3B35D547E6039C-2025-08-07-18-54-28","","742","","images/semantic_sequence/creative_activities_semantic/creative_activities_semantic_2.png","0","",""
"","","","","","image-button-response","109","418564","0.0-14.0-1.0-2.6","DF243E04841E4ECB8A3B35D547E6039C","DF243E04841E4ECB8A3B35D547E6039C","6a168f51-95df-430c-86b8-b06a7b00a36c","a9f3d40c-5730-405c-b25e-1034c4c56f3f","{""num_scrambled_semantic"":""8"",""num_scrambled_causal"":""4"",""num_scrambled_schematic"":""4"",""participantId"":""DF243E04841E4ECB8A3B35D547E6039C"",""assignmentId"":""6a168f51-95df-430c-86b8-b06a7b00a36c"",""projectId"":""a9f3d40c-5730-405c-b25e-1034c4c56f3f""}","https://test12345.live/?num_scrambled_semantic=8&num_scrambled_causal=4&num_scrambled_schematic=4&participantId=DF243E04841E4ECB8A3B35D547E6039C&assignmentId=6a168f51-95df-430c-86b8-b06a7b00a36c&projectId=a9f3d40c-5730-405c-b25e-1034c4c56f3f","DF243E04841E4ECB8A3B35D547E6039C-2025-08-07-18-54-28","","null","","[]","null","",""
"","","","","","image-button-response","110","423070","0.0-14.0-1.0-0.7","DF243E04841E4ECB8A3B35D547E6039C","DF243E04841E4ECB8A3B35D547E6039C","6a168f51-95df-430c-86b8-b06a7b00a36c","a9f3d40c-5730-405c-b25e-1034c4c56f3f","{""num_scrambled_semantic"":""8"",""num_scrambled_causal"":""4"",""num_scrambled_schematic"":""4"",""participantId"":""DF243E04841E4ECB8A3B35D547E6039C"",""assignmentId"":""6a168f51-95df-430c-86b8-b06a7b00a36c"",""projectId"":""a9f3d40c-5730-405c-b25e-1034c4c56f3f""}","https://test12345.live/?num_scrambled_semantic=8&num_scrambled_causal=4&num_scrambled_schematic=4&participantId=DF243E04841E4ECB8A3B35D547E6039C&assignmentId=6a168f51-95df-430c-86b8-b06a7b00a36c&projectId=a9f3d40c-5730-405c-b25e-1034c4c56f3f","DF243E04841E4ECB8A3B35D547E6039C-2025-08-07-18-54-28","","null","","images/semantic_sequence/creative_activities_semantic/creative_activities_semantic_9.png","null","",""
"","","","","","image-button-response","111","423628","0.0-14.0-1.0-1.7","DF243E04841E4ECB8A3B35D547E6039C","DF243E04841E4ECB8A3B35D547E6039C","6a168f51-95df-430c-86b8-b06a7b00a36c","a9f3d40c-5730-405c-b25e-1034c4c56f3f","{""num_scrambled_semantic"":""8"",""num_scrambled_causal"":""4"",""num_scrambled_schematic"":""4"",""participantId"":""DF243E04841E4ECB8A3B35D547E6039C"",""assignmentId"":""6a168f51-95df-430c-86b8-b06a7b00a36c"",""projectId"":""a9f3d40c-5730-405c-b25e-1034c4c56f3f""}","https://test12345.live/?num_scrambled_semantic=8&num_scrambled_causal=4&num_scrambled_schematic=4&participantId=DF243E04841E4ECB8A3B35D547E6039C&assignmentId=6a168f51-95df-430c-86b8-b06a7b00a36c&projectId=a9f3d40c-5730-405c-b25e-1034c4c56f3f","DF243E04841E4ECB8A3B35D547E6039C-2025-08-07-18-54-28","","556","","images/semantic_sequence/creative_activities_semantic/creative_activities_semantic_9.png","0","",""
"","","","","","image-button-response","112","425434","0.0-14.0-1.0-2.7","DF243E04841E4ECB8A3B35D547E6039C","DF243E04841E4ECB8A3B35D547E6039C","6a168f51-95df-430c-86b8-b06a7b00a36c","a9f3d40c-5730-405c-b25e-1034c4c56f3f","{""num_scrambled_semantic"":""8"",""num_scrambled_causal"":""4"",""num_scrambled_schematic"":""4"",""participantId"":""DF243E04841E4ECB8A3B35D547E6039C"",""assignmentId"":""6a168f51-95df-430c-86b8-b06a7b00a36c"",""projectId"":""a9f3d40c-5730-405c-b25e-1034c4c56f3f""}","https://test12345.live/?num_scrambled_semantic=8&num_scrambled_causal=4&num_scrambled_schematic=4&participantId=DF243E04841E4ECB8A3B35D547E6039C&assignmentId=6a168f51-95df-430c-86b8-b06a7b00a36c&projectId=a9f3d40c-5730-405c-b25e-1034c4c56f3f","DF243E04841E4ECB8A3B35D547E6039C-2025-08-07-18-54-28","","null","","[]","null","",""
