"success","timeout","failed_images","failed_audio","failed_video","trial_type","trial_index","time_elapsed","internal_node_id","subject","subject_id","study_id","session_id","urlvar","current_url","audio_id","view_history","rt","device_id","stimulus","response","estimated_stimulus_onset","seq_name"
"true","false","[]","[]","[]","preload","0","8","0.0-0.0","E3D81837CF21477AB2FC96BBF7F02C9C","E3D81837CF21477AB2FC96BBF7F02C9C","0198b9f1-0c74-7af1-b819-09070f5bb2c9","0198b9d0-29d4-7df3-8625-4b4515841beb","{""num_scrambled_semantic"":""8"",""num_scrambled_causal"":""4"",""num_scrambled_schematic"":""4"",""participantId"":""E3D81837CF21477AB2FC96BBF7F02C9C"",""assignmentId"":""0198b9f1-0c74-7af1-b819-09070f5bb2c9"",""projectId"":""0198b9d0-29d4-7df3-8625-4b4515841beb""}","https://test12345.live/?num_scrambled_semantic=8&num_scrambled_causal=4&num_scrambled_schematic=4&participantId=E3D81837CF21477AB2FC96BBF7F02C9C&assignmentId=0198b9f1-0c74-7af1-b819-09070f5bb2c9&projectId=0198b9d0-29d4-7df3-8625-4b4515841beb","E3D81837CF21477AB2FC96BBF7F02C9C-2025-08-17-22-07-45","","","","","","",""
"","","","","","instructions","1","8520","0.0-1.0","E3D81837CF21477AB2FC96BBF7F02C9C","E3D81837CF21477AB2FC96BBF7F02C9C","0198b9f1-0c74-7af1-b819-09070f5bb2c9","0198b9d0-29d4-7df3-8625-4b4515841beb","{""num_scrambled_semantic"":""8"",""num_scrambled_causal"":""4"",""num_scrambled_schematic"":""4"",""participantId"":""E3D81837CF21477AB2FC96BBF7F02C9C"",""assignmentId"":""0198b9f1-0c74-7af1-b819-09070f5bb2c9"",""projectId"":""0198b9d0-29d4-7df3-8625-4b4515841beb""}","https://test12345.live/?num_scrambled_semantic=8&num_scrambled_causal=4&num_scrambled_schematic=4&participantId=E3D81837CF21477AB2FC96BBF7F02C9C&assignmentId=0198b9f1-0c74-7af1-b819-09070f5bb2c9&projectId=0198b9d0-29d4-7df3-8625-4b4515841beb","E3D81837CF21477AB2FC96BBF7F02C9C-2025-08-17-22-07-45","[{""page_index"":0,""viewing_time"":8512}]","8512","","","","",""
"","","","","","instructions","2","31573","0.0-2.0","E3D81837CF21477AB2FC96BBF7F02C9C","E3D81837CF21477AB2FC96BBF7F02C9C","0198b9f1-0c74-7af1-b819-09070f5bb2c9","0198b9d0-29d4-7df3-8625-4b4515841beb","{""num_scrambled_semantic"":""8"",""num_scrambled_causal"":""4"",""num_scrambled_schematic"":""4"",""participantId"":""E3D81837CF21477AB2FC96BBF7F02C9C"",""assignmentId"":""0198b9f1-0c74-7af1-b819-09070f5bb2c9"",""projectId"":""0198b9d0-29d4-7df3-8625-4b4515841beb""}","https://test12345.live/?num_scrambled_semantic=8&num_scrambled_causal=4&num_scrambled_schematic=4&participantId=E3D81837CF21477AB2FC96BBF7F02C9C&assignmentId=0198b9f1-0c74-7af1-b819-09070f5bb2c9&projectId=0198b9d0-29d4-7df3-8625-4b4515841beb","E3D81837CF21477AB2FC96BBF7F02C9C-2025-08-17-22-07-45","[{""page_index"":0,""viewing_time"":23053}]","23053","","","","",""
"true","","","","","fullscreen","3","34208","0.0-3.0","E3D81837CF21477AB2FC96BBF7F02C9C","E3D81837CF21477AB2FC96BBF7F02C9C","0198b9f1-0c74-7af1-b819-09070f5bb2c9","0198b9d0-29d4-7df3-8625-4b4515841beb","{""num_scrambled_semantic"":""8"",""num_scrambled_causal"":""4"",""num_scrambled_schematic"":""4"",""participantId"":""E3D81837CF21477AB2FC96BBF7F02C9C"",""assignmentId"":""0198b9f1-0c74-7af1-b819-09070f5bb2c9"",""projectId"":""0198b9d0-29d4-7df3-8625-4b4515841beb""}","https://test12345.live/?num_scrambled_semantic=8&num_scrambled_causal=4&num_scrambled_schematic=4&participantId=E3D81837CF21477AB2FC96BBF7F02C9C&assignmentId=0198b9f1-0c74-7af1-b819-09070f5bb2c9&projectId=0198b9d0-29d4-7df3-8625-4b4515841beb","E3D81837CF21477AB2FC96BBF7F02C9C-2025-08-17-22-07-45","","1633","","","","",""
"","","","","","initialize-microphone","4","39727","0.0-4.0-0.0","E3D81837CF21477AB2FC96BBF7F02C9C","E3D81837CF21477AB2FC96BBF7F02C9C","0198b9f1-0c74-7af1-b819-09070f5bb2c9","0198b9d0-29d4-7df3-8625-4b4515841beb","{""num_scrambled_semantic"":""8"",""num_scrambled_causal"":""4"",""num_scrambled_schematic"":""4"",""participantId"":""E3D81837CF21477AB2FC96BBF7F02C9C"",""assignmentId"":""0198b9f1-0c74-7af1-b819-09070f5bb2c9"",""projectId"":""0198b9d0-29d4-7df3-8625-4b4515841beb""}","https://test12345.live/?num_scrambled_semantic=8&num_scrambled_causal=4&num_scrambled_schematic=4&participantId=E3D81837CF21477AB2FC96BBF7F02C9C&assignmentId=0198b9f1-0c74-7af1-b819-09070f5bb2c9&projectId=0198b9d0-29d4-7df3-8625-4b4515841beb","E3D81837CF21477AB2FC96BBF7F02C9C-2025-08-17-22-07-45","","","cf877fda4a4899313eea20cfe0e520598656e38bbca536e55c93223764b610fe","","","",""
"","","","","","html-audio-response","5","56766","0.0-4.0-1.0","E3D81837CF21477AB2FC96BBF7F02C9C","E3D81837CF21477AB2FC96BBF7F02C9C","0198b9f1-0c74-7af1-b819-09070f5bb2c9","0198b9d0-29d4-7df3-8625-4b4515841beb","{""num_scrambled_semantic"":""8"",""num_scrambled_causal"":""4"",""num_scrambled_schematic"":""4"",""participantId"":""E3D81837CF21477AB2FC96BBF7F02C9C"",""assignmentId"":""0198b9f1-0c74-7af1-b819-09070f5bb2c9"",""projectId"":""0198b9d0-29d4-7df3-8625-4b4515841beb""}","https://test12345.live/?num_scrambled_semantic=8&num_scrambled_causal=4&num_scrambled_schematic=4&participantId=E3D81837CF21477AB2FC96BBF7F02C9C&assignmentId=0198b9f1-0c74-7af1-b819-09070f5bb2c9&projectId=0198b9d0-29d4-7df3-8625-4b4515841beb","E3D81837CF21477AB2FC96BBF7F02C9C-2025-08-17-22-07-45","","5452","","<span style=""color: red; font-size: 24px""> NOW RECORDING</span>
        <p>Please test Microphone</p>","","2",""
"","","","","","html-button-response","6","58682","0.0-4.0-2.0","E3D81837CF21477AB2FC96BBF7F02C9C","E3D81837CF21477AB2FC96BBF7F02C9C","0198b9f1-0c74-7af1-b819-09070f5bb2c9","0198b9d0-29d4-7df3-8625-4b4515841beb","{""num_scrambled_semantic"":""8"",""num_scrambled_causal"":""4"",""num_scrambled_schematic"":""4"",""participantId"":""E3D81837CF21477AB2FC96BBF7F02C9C"",""assignmentId"":""0198b9f1-0c74-7af1-b819-09070f5bb2c9"",""projectId"":""0198b9d0-29d4-7df3-8625-4b4515841beb""}","https://test12345.live/?num_scrambled_semantic=8&num_scrambled_causal=4&num_scrambled_schematic=4&participantId=E3D81837CF21477AB2FC96BBF7F02C9C&assignmentId=0198b9f1-0c74-7af1-b819-09070f5bb2c9&projectId=0198b9d0-29d4-7df3-8625-4b4515841beb","E3D81837CF21477AB2FC96BBF7F02C9C-2025-08-17-22-07-45","","1915","","<p style=""font-size:48px; color:red;"">Is Microphone OK?</p>","1","",""
"","","","","","instructions","7","70432","0.0-5.0","E3D81837CF21477AB2FC96BBF7F02C9C","E3D81837CF21477AB2FC96BBF7F02C9C","0198b9f1-0c74-7af1-b819-09070f5bb2c9","0198b9d0-29d4-7df3-8625-4b4515841beb","{""num_scrambled_semantic"":""8"",""num_scrambled_causal"":""4"",""num_scrambled_schematic"":""4"",""participantId"":""E3D81837CF21477AB2FC96BBF7F02C9C"",""assignmentId"":""0198b9f1-0c74-7af1-b819-09070f5bb2c9"",""projectId"":""0198b9d0-29d4-7df3-8625-4b4515841beb""}","https://test12345.live/?num_scrambled_semantic=8&num_scrambled_causal=4&num_scrambled_schematic=4&participantId=E3D81837CF21477AB2FC96BBF7F02C9C&assignmentId=0198b9f1-0c74-7af1-b819-09070f5bb2c9&projectId=0198b9d0-29d4-7df3-8625-4b4515841beb","E3D81837CF21477AB2FC96BBF7F02C9C-2025-08-17-22-07-45","[{""page_index"":0,""viewing_time"":2639},{""page_index"":1,""viewing_time"":9112}]","11751","","","","",""
"","","","","","image-button-response","8","76441","0.0-6.0-0.0","E3D81837CF21477AB2FC96BBF7F02C9C","E3D81837CF21477AB2FC96BBF7F02C9C","0198b9f1-0c74-7af1-b819-09070f5bb2c9","0198b9d0-29d4-7df3-8625-4b4515841beb","{""num_scrambled_semantic"":""8"",""num_scrambled_causal"":""4"",""num_scrambled_schematic"":""4"",""participantId"":""E3D81837CF21477AB2FC96BBF7F02C9C"",""assignmentId"":""0198b9f1-0c74-7af1-b819-09070f5bb2c9"",""projectId"":""0198b9d0-29d4-7df3-8625-4b4515841beb""}","https://test12345.live/?num_scrambled_semantic=8&num_scrambled_causal=4&num_scrambled_schematic=4&participantId=E3D81837CF21477AB2FC96BBF7F02C9C&assignmentId=0198b9f1-0c74-7af1-b819-09070f5bb2c9&projectId=0198b9d0-29d4-7df3-8625-4b4515841beb","E3D81837CF21477AB2FC96BBF7F02C9C-2025-08-17-22-07-45","","null","","images/instructions/movie_0.png","null","",""
"","","","","","image-button-response","9","80949","0.0-6.0-1.0-0.0","E3D81837CF21477AB2FC96BBF7F02C9C","E3D81837CF21477AB2FC96BBF7F02C9C","0198b9f1-0c74-7af1-b819-09070f5bb2c9","0198b9d0-29d4-7df3-8625-4b4515841beb","{""num_scrambled_semantic"":""8"",""num_scrambled_causal"":""4"",""num_scrambled_schematic"":""4"",""participantId"":""E3D81837CF21477AB2FC96BBF7F02C9C"",""assignmentId"":""0198b9f1-0c74-7af1-b819-09070f5bb2c9"",""projectId"":""0198b9d0-29d4-7df3-8625-4b4515841beb""}","https://test12345.live/?num_scrambled_semantic=8&num_scrambled_causal=4&num_scrambled_schematic=4&participantId=E3D81837CF21477AB2FC96BBF7F02C9C&assignmentId=0198b9f1-0c74-7af1-b819-09070f5bb2c9&projectId=0198b9d0-29d4-7df3-8625-4b4515841beb","E3D81837CF21477AB2FC96BBF7F02C9C-2025-08-17-22-07-45","","null","","images/instructions/movie_1.png","null","",""
"","","","","","image-button-response","10","83567","0.0-6.0-1.0-1.0","E3D81837CF21477AB2FC96BBF7F02C9C","E3D81837CF21477AB2FC96BBF7F02C9C","0198b9f1-0c74-7af1-b819-09070f5bb2c9","0198b9d0-29d4-7df3-8625-4b4515841beb","{""num_scrambled_semantic"":""8"",""num_scrambled_causal"":""4"",""num_scrambled_schematic"":""4"",""participantId"":""E3D81837CF21477AB2FC96BBF7F02C9C"",""assignmentId"":""0198b9f1-0c74-7af1-b819-09070f5bb2c9"",""projectId"":""0198b9d0-29d4-7df3-8625-4b4515841beb""}","https://test12345.live/?num_scrambled_semantic=8&num_scrambled_causal=4&num_scrambled_schematic=4&participantId=E3D81837CF21477AB2FC96BBF7F02C9C&assignmentId=0198b9f1-0c74-7af1-b819-09070f5bb2c9&projectId=0198b9d0-29d4-7df3-8625-4b4515841beb","E3D81837CF21477AB2FC96BBF7F02C9C-2025-08-17-22-07-45","","2616","","images/instructions/movie_1.png","0","",""
"","","","","","image-button-response","11","88973","0.0-6.0-1.0-2.0","E3D81837CF21477AB2FC96BBF7F02C9C","E3D81837CF21477AB2FC96BBF7F02C9C","0198b9f1-0c74-7af1-b819-09070f5bb2c9","0198b9d0-29d4-7df3-8625-4b4515841beb","{""num_scrambled_semantic"":""8"",""num_scrambled_causal"":""4"",""num_scrambled_schematic"":""4"",""participantId"":""E3D81837CF21477AB2FC96BBF7F02C9C"",""assignmentId"":""0198b9f1-0c74-7af1-b819-09070f5bb2c9"",""projectId"":""0198b9d0-29d4-7df3-8625-4b4515841beb""}","https://test12345.live/?num_scrambled_semantic=8&num_scrambled_causal=4&num_scrambled_schematic=4&participantId=E3D81837CF21477AB2FC96BBF7F02C9C&assignmentId=0198b9f1-0c74-7af1-b819-09070f5bb2c9&projectId=0198b9d0-29d4-7df3-8625-4b4515841beb","E3D81837CF21477AB2FC96BBF7F02C9C-2025-08-17-22-07-45","","null","","[]","null","",""
"","","","","","image-button-response","12","93477","0.0-6.0-1.0-0.1","E3D81837CF21477AB2FC96BBF7F02C9C","E3D81837CF21477AB2FC96BBF7F02C9C","0198b9f1-0c74-7af1-b819-09070f5bb2c9","0198b9d0-29d4-7df3-8625-4b4515841beb","{""num_scrambled_semantic"":""8"",""num_scrambled_causal"":""4"",""num_scrambled_schematic"":""4"",""participantId"":""E3D81837CF21477AB2FC96BBF7F02C9C"",""assignmentId"":""0198b9f1-0c74-7af1-b819-09070f5bb2c9"",""projectId"":""0198b9d0-29d4-7df3-8625-4b4515841beb""}","https://test12345.live/?num_scrambled_semantic=8&num_scrambled_causal=4&num_scrambled_schematic=4&participantId=E3D81837CF21477AB2FC96BBF7F02C9C&assignmentId=0198b9f1-0c74-7af1-b819-09070f5bb2c9&projectId=0198b9d0-29d4-7df3-8625-4b4515841beb","E3D81837CF21477AB2FC96BBF7F02C9C-2025-08-17-22-07-45","","null","","images/instructions/movie_2.png","null","",""
"","","","","","image-button-response","13","97481","0.0-6.0-1.0-1.1","E3D81837CF21477AB2FC96BBF7F02C9C","E3D81837CF21477AB2FC96BBF7F02C9C","0198b9f1-0c74-7af1-b819-09070f5bb2c9","0198b9d0-29d4-7df3-8625-4b4515841beb","{""num_scrambled_semantic"":""8"",""num_scrambled_causal"":""4"",""num_scrambled_schematic"":""4"",""participantId"":""E3D81837CF21477AB2FC96BBF7F02C9C"",""assignmentId"":""0198b9f1-0c74-7af1-b819-09070f5bb2c9"",""projectId"":""0198b9d0-29d4-7df3-8625-4b4515841beb""}","https://test12345.live/?num_scrambled_semantic=8&num_scrambled_causal=4&num_scrambled_schematic=4&participantId=E3D81837CF21477AB2FC96BBF7F02C9C&assignmentId=0198b9f1-0c74-7af1-b819-09070f5bb2c9&projectId=0198b9d0-29d4-7df3-8625-4b4515841beb","E3D81837CF21477AB2FC96BBF7F02C9C-2025-08-17-22-07-45","","null","","images/instructions/movie_2.png","null","",""
"","","","","","image-button-response","14","102883","0.0-6.0-1.0-2.1","E3D81837CF21477AB2FC96BBF7F02C9C","E3D81837CF21477AB2FC96BBF7F02C9C","0198b9f1-0c74-7af1-b819-09070f5bb2c9","0198b9d0-29d4-7df3-8625-4b4515841beb","{""num_scrambled_semantic"":""8"",""num_scrambled_causal"":""4"",""num_scrambled_schematic"":""4"",""participantId"":""E3D81837CF21477AB2FC96BBF7F02C9C"",""assignmentId"":""0198b9f1-0c74-7af1-b819-09070f5bb2c9"",""projectId"":""0198b9d0-29d4-7df3-8625-4b4515841beb""}","https://test12345.live/?num_scrambled_semantic=8&num_scrambled_causal=4&num_scrambled_schematic=4&participantId=E3D81837CF21477AB2FC96BBF7F02C9C&assignmentId=0198b9f1-0c74-7af1-b819-09070f5bb2c9&projectId=0198b9d0-29d4-7df3-8625-4b4515841beb","E3D81837CF21477AB2FC96BBF7F02C9C-2025-08-17-22-07-45","","null","","[]","null","",""
"","","","","","image-button-response","15","107388","0.0-6.0-1.0-0.2","E3D81837CF21477AB2FC96BBF7F02C9C","E3D81837CF21477AB2FC96BBF7F02C9C","0198b9f1-0c74-7af1-b819-09070f5bb2c9","0198b9d0-29d4-7df3-8625-4b4515841beb","{""num_scrambled_semantic"":""8"",""num_scrambled_causal"":""4"",""num_scrambled_schematic"":""4"",""participantId"":""E3D81837CF21477AB2FC96BBF7F02C9C"",""assignmentId"":""0198b9f1-0c74-7af1-b819-09070f5bb2c9"",""projectId"":""0198b9d0-29d4-7df3-8625-4b4515841beb""}","https://test12345.live/?num_scrambled_semantic=8&num_scrambled_causal=4&num_scrambled_schematic=4&participantId=E3D81837CF21477AB2FC96BBF7F02C9C&assignmentId=0198b9f1-0c74-7af1-b819-09070f5bb2c9&projectId=0198b9d0-29d4-7df3-8625-4b4515841beb","E3D81837CF21477AB2FC96BBF7F02C9C-2025-08-17-22-07-45","","null","","images/instructions/movie_3.png","null","",""
"","","","","","image-button-response","16","108837","0.0-6.0-1.0-1.2","E3D81837CF21477AB2FC96BBF7F02C9C","E3D81837CF21477AB2FC96BBF7F02C9C","0198b9f1-0c74-7af1-b819-09070f5bb2c9","0198b9d0-29d4-7df3-8625-4b4515841beb","{""num_scrambled_semantic"":""8"",""num_scrambled_causal"":""4"",""num_scrambled_schematic"":""4"",""participantId"":""E3D81837CF21477AB2FC96BBF7F02C9C"",""assignmentId"":""0198b9f1-0c74-7af1-b819-09070f5bb2c9"",""projectId"":""0198b9d0-29d4-7df3-8625-4b4515841beb""}","https://test12345.live/?num_scrambled_semantic=8&num_scrambled_causal=4&num_scrambled_schematic=4&participantId=E3D81837CF21477AB2FC96BBF7F02C9C&assignmentId=0198b9f1-0c74-7af1-b819-09070f5bb2c9&projectId=0198b9d0-29d4-7df3-8625-4b4515841beb","E3D81837CF21477AB2FC96BBF7F02C9C-2025-08-17-22-07-45","","1446","","images/instructions/movie_3.png","0","",""
"","","","","","image-button-response","17","114243","0.0-6.0-1.0-2.2","E3D81837CF21477AB2FC96BBF7F02C9C","E3D81837CF21477AB2FC96BBF7F02C9C","0198b9f1-0c74-7af1-b819-09070f5bb2c9","0198b9d0-29d4-7df3-8625-4b4515841beb","{""num_scrambled_semantic"":""8"",""num_scrambled_causal"":""4"",""num_scrambled_schematic"":""4"",""participantId"":""E3D81837CF21477AB2FC96BBF7F02C9C"",""assignmentId"":""0198b9f1-0c74-7af1-b819-09070f5bb2c9"",""projectId"":""0198b9d0-29d4-7df3-8625-4b4515841beb""}","https://test12345.live/?num_scrambled_semantic=8&num_scrambled_causal=4&num_scrambled_schematic=4&participantId=E3D81837CF21477AB2FC96BBF7F02C9C&assignmentId=0198b9f1-0c74-7af1-b819-09070f5bb2c9&projectId=0198b9d0-29d4-7df3-8625-4b4515841beb","E3D81837CF21477AB2FC96BBF7F02C9C-2025-08-17-22-07-45","","null","","[]","null","",""
"","","","","","image-button-response","18","118751","0.0-6.0-1.0-0.3","E3D81837CF21477AB2FC96BBF7F02C9C","E3D81837CF21477AB2FC96BBF7F02C9C","0198b9f1-0c74-7af1-b819-09070f5bb2c9","0198b9d0-29d4-7df3-8625-4b4515841beb","{""num_scrambled_semantic"":""8"",""num_scrambled_causal"":""4"",""num_scrambled_schematic"":""4"",""participantId"":""E3D81837CF21477AB2FC96BBF7F02C9C"",""assignmentId"":""0198b9f1-0c74-7af1-b819-09070f5bb2c9"",""projectId"":""0198b9d0-29d4-7df3-8625-4b4515841beb""}","https://test12345.live/?num_scrambled_semantic=8&num_scrambled_causal=4&num_scrambled_schematic=4&participantId=E3D81837CF21477AB2FC96BBF7F02C9C&assignmentId=0198b9f1-0c74-7af1-b819-09070f5bb2c9&projectId=0198b9d0-29d4-7df3-8625-4b4515841beb","E3D81837CF21477AB2FC96BBF7F02C9C-2025-08-17-22-07-45","","null","","images/instructions/movie_4.png","null","",""
"","","","","","image-button-response","19","120096","0.0-6.0-1.0-1.3","E3D81837CF21477AB2FC96BBF7F02C9C","E3D81837CF21477AB2FC96BBF7F02C9C","0198b9f1-0c74-7af1-b819-09070f5bb2c9","0198b9d0-29d4-7df3-8625-4b4515841beb","{""num_scrambled_semantic"":""8"",""num_scrambled_causal"":""4"",""num_scrambled_schematic"":""4"",""participantId"":""E3D81837CF21477AB2FC96BBF7F02C9C"",""assignmentId"":""0198b9f1-0c74-7af1-b819-09070f5bb2c9"",""projectId"":""0198b9d0-29d4-7df3-8625-4b4515841beb""}","https://test12345.live/?num_scrambled_semantic=8&num_scrambled_causal=4&num_scrambled_schematic=4&participantId=E3D81837CF21477AB2FC96BBF7F02C9C&assignmentId=0198b9f1-0c74-7af1-b819-09070f5bb2c9&projectId=0198b9d0-29d4-7df3-8625-4b4515841beb","E3D81837CF21477AB2FC96BBF7F02C9C-2025-08-17-22-07-45","","1344","","images/instructions/movie_4.png","0","",""
"","","","","","image-button-response","20","125501","0.0-6.0-1.0-2.3","E3D81837CF21477AB2FC96BBF7F02C9C","E3D81837CF21477AB2FC96BBF7F02C9C","0198b9f1-0c74-7af1-b819-09070f5bb2c9","0198b9d0-29d4-7df3-8625-4b4515841beb","{""num_scrambled_semantic"":""8"",""num_scrambled_causal"":""4"",""num_scrambled_schematic"":""4"",""participantId"":""E3D81837CF21477AB2FC96BBF7F02C9C"",""assignmentId"":""0198b9f1-0c74-7af1-b819-09070f5bb2c9"",""projectId"":""0198b9d0-29d4-7df3-8625-4b4515841beb""}","https://test12345.live/?num_scrambled_semantic=8&num_scrambled_causal=4&num_scrambled_schematic=4&participantId=E3D81837CF21477AB2FC96BBF7F02C9C&assignmentId=0198b9f1-0c74-7af1-b819-09070f5bb2c9&projectId=0198b9d0-29d4-7df3-8625-4b4515841beb","E3D81837CF21477AB2FC96BBF7F02C9C-2025-08-17-22-07-45","","null","","[]","null","",""
"","","","","","instructions","21","135386","0.0-7.0","E3D81837CF21477AB2FC96BBF7F02C9C","E3D81837CF21477AB2FC96BBF7F02C9C","0198b9f1-0c74-7af1-b819-09070f5bb2c9","0198b9d0-29d4-7df3-8625-4b4515841beb","{""num_scrambled_semantic"":""8"",""num_scrambled_causal"":""4"",""num_scrambled_schematic"":""4"",""participantId"":""E3D81837CF21477AB2FC96BBF7F02C9C"",""assignmentId"":""0198b9f1-0c74-7af1-b819-09070f5bb2c9"",""projectId"":""0198b9d0-29d4-7df3-8625-4b4515841beb""}","https://test12345.live/?num_scrambled_semantic=8&num_scrambled_causal=4&num_scrambled_schematic=4&participantId=E3D81837CF21477AB2FC96BBF7F02C9C&assignmentId=0198b9f1-0c74-7af1-b819-09070f5bb2c9&projectId=0198b9d0-29d4-7df3-8625-4b4515841beb","E3D81837CF21477AB2FC96BBF7F02C9C-2025-08-17-22-07-45","[{""page_index"":0,""viewing_time"":8504},{""page_index"":1,""viewing_time"":1381}]","9884","","","","",""
"","","","","","html-audio-response","22","163188","0.0-8.0","E3D81837CF21477AB2FC96BBF7F02C9C","E3D81837CF21477AB2FC96BBF7F02C9C","0198b9f1-0c74-7af1-b819-09070f5bb2c9","0198b9d0-29d4-7df3-8625-4b4515841beb","{""num_scrambled_semantic"":""8"",""num_scrambled_causal"":""4"",""num_scrambled_schematic"":""4"",""participantId"":""E3D81837CF21477AB2FC96BBF7F02C9C"",""assignmentId"":""0198b9f1-0c74-7af1-b819-09070f5bb2c9"",""projectId"":""0198b9d0-29d4-7df3-8625-4b4515841beb""}","https://test12345.live/?num_scrambled_semantic=8&num_scrambled_causal=4&num_scrambled_schematic=4&participantId=E3D81837CF21477AB2FC96BBF7F02C9C&assignmentId=0198b9f1-0c74-7af1-b819-09070f5bb2c9&projectId=0198b9d0-29d4-7df3-8625-4b4515841beb","E3D81837CF21477AB2FC96BBF7F02C9C-2025-08-17-22-07-45","","12735","","[""<span style=\""color: red; font-size: 24px\""> NOW RECORDING</span><p>Please say out loud all the images you saw, as many as you can remember. The images can be said in any order.</p>""]","","1",""
"","","","","","instructions","23","165521","0.0-9.0","E3D81837CF21477AB2FC96BBF7F02C9C","E3D81837CF21477AB2FC96BBF7F02C9C","0198b9f1-0c74-7af1-b819-09070f5bb2c9","0198b9d0-29d4-7df3-8625-4b4515841beb","{""num_scrambled_semantic"":""8"",""num_scrambled_causal"":""4"",""num_scrambled_schematic"":""4"",""participantId"":""E3D81837CF21477AB2FC96BBF7F02C9C"",""assignmentId"":""0198b9f1-0c74-7af1-b819-09070f5bb2c9"",""projectId"":""0198b9d0-29d4-7df3-8625-4b4515841beb""}","https://test12345.live/?num_scrambled_semantic=8&num_scrambled_causal=4&num_scrambled_schematic=4&participantId=E3D81837CF21477AB2FC96BBF7F02C9C&assignmentId=0198b9f1-0c74-7af1-b819-09070f5bb2c9&projectId=0198b9d0-29d4-7df3-8625-4b4515841beb","E3D81837CF21477AB2FC96BBF7F02C9C-2025-08-17-22-07-45","[{""page_index"":0,""viewing_time"":2329}]","2329","","","","",""
"","","","","","image-button-response","24","171523","0.0-10.0-0.0","E3D81837CF21477AB2FC96BBF7F02C9C","E3D81837CF21477AB2FC96BBF7F02C9C","0198b9f1-0c74-7af1-b819-09070f5bb2c9","0198b9d0-29d4-7df3-8625-4b4515841beb","{""num_scrambled_semantic"":""8"",""num_scrambled_causal"":""4"",""num_scrambled_schematic"":""4"",""participantId"":""E3D81837CF21477AB2FC96BBF7F02C9C"",""assignmentId"":""0198b9f1-0c74-7af1-b819-09070f5bb2c9"",""projectId"":""0198b9d0-29d4-7df3-8625-4b4515841beb""}","https://test12345.live/?num_scrambled_semantic=8&num_scrambled_causal=4&num_scrambled_schematic=4&participantId=E3D81837CF21477AB2FC96BBF7F02C9C&assignmentId=0198b9f1-0c74-7af1-b819-09070f5bb2c9&projectId=0198b9d0-29d4-7df3-8625-4b4515841beb","E3D81837CF21477AB2FC96BBF7F02C9C-2025-08-17-22-07-45","","null","","images/causal_sequence/package_causal/package_causal_0.png","null","",""
"","","","","","image-button-response","25","176030","0.0-10.0-1.0-0.0","E3D81837CF21477AB2FC96BBF7F02C9C","E3D81837CF21477AB2FC96BBF7F02C9C","0198b9f1-0c74-7af1-b819-09070f5bb2c9","0198b9d0-29d4-7df3-8625-4b4515841beb","{""num_scrambled_semantic"":""8"",""num_scrambled_causal"":""4"",""num_scrambled_schematic"":""4"",""participantId"":""E3D81837CF21477AB2FC96BBF7F02C9C"",""assignmentId"":""0198b9f1-0c74-7af1-b819-09070f5bb2c9"",""projectId"":""0198b9d0-29d4-7df3-8625-4b4515841beb""}","https://test12345.live/?num_scrambled_semantic=8&num_scrambled_causal=4&num_scrambled_schematic=4&participantId=E3D81837CF21477AB2FC96BBF7F02C9C&assignmentId=0198b9f1-0c74-7af1-b819-09070f5bb2c9&projectId=0198b9d0-29d4-7df3-8625-4b4515841beb","E3D81837CF21477AB2FC96BBF7F02C9C-2025-08-17-22-07-45","","null","","images/causal_sequence/package_causal/package_causal_1.png","null","",""
"","","","","","image-button-response","26","177651","0.0-10.0-1.0-1.0","E3D81837CF21477AB2FC96BBF7F02C9C","E3D81837CF21477AB2FC96BBF7F02C9C","0198b9f1-0c74-7af1-b819-09070f5bb2c9","0198b9d0-29d4-7df3-8625-4b4515841beb","{""num_scrambled_semantic"":""8"",""num_scrambled_causal"":""4"",""num_scrambled_schematic"":""4"",""participantId"":""E3D81837CF21477AB2FC96BBF7F02C9C"",""assignmentId"":""0198b9f1-0c74-7af1-b819-09070f5bb2c9"",""projectId"":""0198b9d0-29d4-7df3-8625-4b4515841beb""}","https://test12345.live/?num_scrambled_semantic=8&num_scrambled_causal=4&num_scrambled_schematic=4&participantId=E3D81837CF21477AB2FC96BBF7F02C9C&assignmentId=0198b9f1-0c74-7af1-b819-09070f5bb2c9&projectId=0198b9d0-29d4-7df3-8625-4b4515841beb","E3D81837CF21477AB2FC96BBF7F02C9C-2025-08-17-22-07-45","","1618","","images/causal_sequence/package_causal/package_causal_1.png","0","",""
"","","","","","image-button-response","27","183055","0.0-10.0-1.0-2.0","E3D81837CF21477AB2FC96BBF7F02C9C","E3D81837CF21477AB2FC96BBF7F02C9C","0198b9f1-0c74-7af1-b819-09070f5bb2c9","0198b9d0-29d4-7df3-8625-4b4515841beb","{""num_scrambled_semantic"":""8"",""num_scrambled_causal"":""4"",""num_scrambled_schematic"":""4"",""participantId"":""E3D81837CF21477AB2FC96BBF7F02C9C"",""assignmentId"":""0198b9f1-0c74-7af1-b819-09070f5bb2c9"",""projectId"":""0198b9d0-29d4-7df3-8625-4b4515841beb""}","https://test12345.live/?num_scrambled_semantic=8&num_scrambled_causal=4&num_scrambled_schematic=4&participantId=E3D81837CF21477AB2FC96BBF7F02C9C&assignmentId=0198b9f1-0c74-7af1-b819-09070f5bb2c9&projectId=0198b9d0-29d4-7df3-8625-4b4515841beb","E3D81837CF21477AB2FC96BBF7F02C9C-2025-08-17-22-07-45","","null","","[]","null","",""
"","","","","","image-button-response","28","187562","0.0-10.0-1.0-0.1","E3D81837CF21477AB2FC96BBF7F02C9C","E3D81837CF21477AB2FC96BBF7F02C9C","0198b9f1-0c74-7af1-b819-09070f5bb2c9","0198b9d0-29d4-7df3-8625-4b4515841beb","{""num_scrambled_semantic"":""8"",""num_scrambled_causal"":""4"",""num_scrambled_schematic"":""4"",""participantId"":""E3D81837CF21477AB2FC96BBF7F02C9C"",""assignmentId"":""0198b9f1-0c74-7af1-b819-09070f5bb2c9"",""projectId"":""0198b9d0-29d4-7df3-8625-4b4515841beb""}","https://test12345.live/?num_scrambled_semantic=8&num_scrambled_causal=4&num_scrambled_schematic=4&participantId=E3D81837CF21477AB2FC96BBF7F02C9C&assignmentId=0198b9f1-0c74-7af1-b819-09070f5bb2c9&projectId=0198b9d0-29d4-7df3-8625-4b4515841beb","E3D81837CF21477AB2FC96BBF7F02C9C-2025-08-17-22-07-45","","null","","images/causal_sequence/package_causal/package_causal_2.png","null","",""
"","","","","","image-button-response","29","189953","0.0-10.0-1.0-1.1","E3D81837CF21477AB2FC96BBF7F02C9C","E3D81837CF21477AB2FC96BBF7F02C9C","0198b9f1-0c74-7af1-b819-09070f5bb2c9","0198b9d0-29d4-7df3-8625-4b4515841beb","{""num_scrambled_semantic"":""8"",""num_scrambled_causal"":""4"",""num_scrambled_schematic"":""4"",""participantId"":""E3D81837CF21477AB2FC96BBF7F02C9C"",""assignmentId"":""0198b9f1-0c74-7af1-b819-09070f5bb2c9"",""projectId"":""0198b9d0-29d4-7df3-8625-4b4515841beb""}","https://test12345.live/?num_scrambled_semantic=8&num_scrambled_causal=4&num_scrambled_schematic=4&participantId=E3D81837CF21477AB2FC96BBF7F02C9C&assignmentId=0198b9f1-0c74-7af1-b819-09070f5bb2c9&projectId=0198b9d0-29d4-7df3-8625-4b4515841beb","E3D81837CF21477AB2FC96BBF7F02C9C-2025-08-17-22-07-45","","2389","","images/causal_sequence/package_causal/package_causal_2.png","0","",""
"","","","","","image-button-response","30","195360","0.0-10.0-1.0-2.1","E3D81837CF21477AB2FC96BBF7F02C9C","E3D81837CF21477AB2FC96BBF7F02C9C","0198b9f1-0c74-7af1-b819-09070f5bb2c9","0198b9d0-29d4-7df3-8625-4b4515841beb","{""num_scrambled_semantic"":""8"",""num_scrambled_causal"":""4"",""num_scrambled_schematic"":""4"",""participantId"":""E3D81837CF21477AB2FC96BBF7F02C9C"",""assignmentId"":""0198b9f1-0c74-7af1-b819-09070f5bb2c9"",""projectId"":""0198b9d0-29d4-7df3-8625-4b4515841beb""}","https://test12345.live/?num_scrambled_semantic=8&num_scrambled_causal=4&num_scrambled_schematic=4&participantId=E3D81837CF21477AB2FC96BBF7F02C9C&assignmentId=0198b9f1-0c74-7af1-b819-09070f5bb2c9&projectId=0198b9d0-29d4-7df3-8625-4b4515841beb","E3D81837CF21477AB2FC96BBF7F02C9C-2025-08-17-22-07-45","","null","","[]","null","",""
"","","","","","image-button-response","31","199869","0.0-10.0-1.0-0.2","E3D81837CF21477AB2FC96BBF7F02C9C","E3D81837CF21477AB2FC96BBF7F02C9C","0198b9f1-0c74-7af1-b819-09070f5bb2c9","0198b9d0-29d4-7df3-8625-4b4515841beb","{""num_scrambled_semantic"":""8"",""num_scrambled_causal"":""4"",""num_scrambled_schematic"":""4"",""participantId"":""E3D81837CF21477AB2FC96BBF7F02C9C"",""assignmentId"":""0198b9f1-0c74-7af1-b819-09070f5bb2c9"",""projectId"":""0198b9d0-29d4-7df3-8625-4b4515841beb""}","https://test12345.live/?num_scrambled_semantic=8&num_scrambled_causal=4&num_scrambled_schematic=4&participantId=E3D81837CF21477AB2FC96BBF7F02C9C&assignmentId=0198b9f1-0c74-7af1-b819-09070f5bb2c9&projectId=0198b9d0-29d4-7df3-8625-4b4515841beb","E3D81837CF21477AB2FC96BBF7F02C9C-2025-08-17-22-07-45","","null","","images/causal_sequence/package_causal/package_causal_3.png","null","",""
"","","","","","image-button-response","32","201313","0.0-10.0-1.0-1.2","E3D81837CF21477AB2FC96BBF7F02C9C","E3D81837CF21477AB2FC96BBF7F02C9C","0198b9f1-0c74-7af1-b819-09070f5bb2c9","0198b9d0-29d4-7df3-8625-4b4515841beb","{""num_scrambled_semantic"":""8"",""num_scrambled_causal"":""4"",""num_scrambled_schematic"":""4"",""participantId"":""E3D81837CF21477AB2FC96BBF7F02C9C"",""assignmentId"":""0198b9f1-0c74-7af1-b819-09070f5bb2c9"",""projectId"":""0198b9d0-29d4-7df3-8625-4b4515841beb""}","https://test12345.live/?num_scrambled_semantic=8&num_scrambled_causal=4&num_scrambled_schematic=4&participantId=E3D81837CF21477AB2FC96BBF7F02C9C&assignmentId=0198b9f1-0c74-7af1-b819-09070f5bb2c9&projectId=0198b9d0-29d4-7df3-8625-4b4515841beb","E3D81837CF21477AB2FC96BBF7F02C9C-2025-08-17-22-07-45","","1443","","images/causal_sequence/package_causal/package_causal_3.png","0","",""
"","","","","","image-button-response","33","206718","0.0-10.0-1.0-2.2","E3D81837CF21477AB2FC96BBF7F02C9C","E3D81837CF21477AB2FC96BBF7F02C9C","0198b9f1-0c74-7af1-b819-09070f5bb2c9","0198b9d0-29d4-7df3-8625-4b4515841beb","{""num_scrambled_semantic"":""8"",""num_scrambled_causal"":""4"",""num_scrambled_schematic"":""4"",""participantId"":""E3D81837CF21477AB2FC96BBF7F02C9C"",""assignmentId"":""0198b9f1-0c74-7af1-b819-09070f5bb2c9"",""projectId"":""0198b9d0-29d4-7df3-8625-4b4515841beb""}","https://test12345.live/?num_scrambled_semantic=8&num_scrambled_causal=4&num_scrambled_schematic=4&participantId=E3D81837CF21477AB2FC96BBF7F02C9C&assignmentId=0198b9f1-0c74-7af1-b819-09070f5bb2c9&projectId=0198b9d0-29d4-7df3-8625-4b4515841beb","E3D81837CF21477AB2FC96BBF7F02C9C-2025-08-17-22-07-45","","null","","[]","null","",""
"","","","","","image-button-response","34","211223","0.0-10.0-1.0-0.3","E3D81837CF21477AB2FC96BBF7F02C9C","E3D81837CF21477AB2FC96BBF7F02C9C","0198b9f1-0c74-7af1-b819-09070f5bb2c9","0198b9d0-29d4-7df3-8625-4b4515841beb","{""num_scrambled_semantic"":""8"",""num_scrambled_causal"":""4"",""num_scrambled_schematic"":""4"",""participantId"":""E3D81837CF21477AB2FC96BBF7F02C9C"",""assignmentId"":""0198b9f1-0c74-7af1-b819-09070f5bb2c9"",""projectId"":""0198b9d0-29d4-7df3-8625-4b4515841beb""}","https://test12345.live/?num_scrambled_semantic=8&num_scrambled_causal=4&num_scrambled_schematic=4&participantId=E3D81837CF21477AB2FC96BBF7F02C9C&assignmentId=0198b9f1-0c74-7af1-b819-09070f5bb2c9&projectId=0198b9d0-29d4-7df3-8625-4b4515841beb","E3D81837CF21477AB2FC96BBF7F02C9C-2025-08-17-22-07-45","","null","","images/causal_sequence/package_causal/package_causal_4.png","null","",""
"","","","","","image-button-response","35","212199","0.0-10.0-1.0-1.3","E3D81837CF21477AB2FC96BBF7F02C9C","E3D81837CF21477AB2FC96BBF7F02C9C","0198b9f1-0c74-7af1-b819-09070f5bb2c9","0198b9d0-29d4-7df3-8625-4b4515841beb","{""num_scrambled_semantic"":""8"",""num_scrambled_causal"":""4"",""num_scrambled_schematic"":""4"",""participantId"":""E3D81837CF21477AB2FC96BBF7F02C9C"",""assignmentId"":""0198b9f1-0c74-7af1-b819-09070f5bb2c9"",""projectId"":""0198b9d0-29d4-7df3-8625-4b4515841beb""}","https://test12345.live/?num_scrambled_semantic=8&num_scrambled_causal=4&num_scrambled_schematic=4&participantId=E3D81837CF21477AB2FC96BBF7F02C9C&assignmentId=0198b9f1-0c74-7af1-b819-09070f5bb2c9&projectId=0198b9d0-29d4-7df3-8625-4b4515841beb","E3D81837CF21477AB2FC96BBF7F02C9C-2025-08-17-22-07-45","","975","","images/causal_sequence/package_causal/package_causal_4.png","1","",""
"","","","","","image-button-response","36","217601","0.0-10.0-1.0-2.3","E3D81837CF21477AB2FC96BBF7F02C9C","E3D81837CF21477AB2FC96BBF7F02C9C","0198b9f1-0c74-7af1-b819-09070f5bb2c9","0198b9d0-29d4-7df3-8625-4b4515841beb","{""num_scrambled_semantic"":""8"",""num_scrambled_causal"":""4"",""num_scrambled_schematic"":""4"",""participantId"":""E3D81837CF21477AB2FC96BBF7F02C9C"",""assignmentId"":""0198b9f1-0c74-7af1-b819-09070f5bb2c9"",""projectId"":""0198b9d0-29d4-7df3-8625-4b4515841beb""}","https://test12345.live/?num_scrambled_semantic=8&num_scrambled_causal=4&num_scrambled_schematic=4&participantId=E3D81837CF21477AB2FC96BBF7F02C9C&assignmentId=0198b9f1-0c74-7af1-b819-09070f5bb2c9&projectId=0198b9d0-29d4-7df3-8625-4b4515841beb","E3D81837CF21477AB2FC96BBF7F02C9C-2025-08-17-22-07-45","","null","","[]","null","",""
"","","","","","image-button-response","37","222109","0.0-10.0-1.0-0.4","E3D81837CF21477AB2FC96BBF7F02C9C","E3D81837CF21477AB2FC96BBF7F02C9C","0198b9f1-0c74-7af1-b819-09070f5bb2c9","0198b9d0-29d4-7df3-8625-4b4515841beb","{""num_scrambled_semantic"":""8"",""num_scrambled_causal"":""4"",""num_scrambled_schematic"":""4"",""participantId"":""E3D81837CF21477AB2FC96BBF7F02C9C"",""assignmentId"":""0198b9f1-0c74-7af1-b819-09070f5bb2c9"",""projectId"":""0198b9d0-29d4-7df3-8625-4b4515841beb""}","https://test12345.live/?num_scrambled_semantic=8&num_scrambled_causal=4&num_scrambled_schematic=4&participantId=E3D81837CF21477AB2FC96BBF7F02C9C&assignmentId=0198b9f1-0c74-7af1-b819-09070f5bb2c9&projectId=0198b9d0-29d4-7df3-8625-4b4515841beb","E3D81837CF21477AB2FC96BBF7F02C9C-2025-08-17-22-07-45","","null","","images/causal_sequence/package_causal/package_causal_5.png","null","",""
"","","","","","image-button-response","38","223467","0.0-10.0-1.0-1.4","E3D81837CF21477AB2FC96BBF7F02C9C","E3D81837CF21477AB2FC96BBF7F02C9C","0198b9f1-0c74-7af1-b819-09070f5bb2c9","0198b9d0-29d4-7df3-8625-4b4515841beb","{""num_scrambled_semantic"":""8"",""num_scrambled_causal"":""4"",""num_scrambled_schematic"":""4"",""participantId"":""E3D81837CF21477AB2FC96BBF7F02C9C"",""assignmentId"":""0198b9f1-0c74-7af1-b819-09070f5bb2c9"",""projectId"":""0198b9d0-29d4-7df3-8625-4b4515841beb""}","https://test12345.live/?num_scrambled_semantic=8&num_scrambled_causal=4&num_scrambled_schematic=4&participantId=E3D81837CF21477AB2FC96BBF7F02C9C&assignmentId=0198b9f1-0c74-7af1-b819-09070f5bb2c9&projectId=0198b9d0-29d4-7df3-8625-4b4515841beb","E3D81837CF21477AB2FC96BBF7F02C9C-2025-08-17-22-07-45","","1356","","images/causal_sequence/package_causal/package_causal_5.png","0","",""
"","","","","","image-button-response","39","228873","0.0-10.0-1.0-2.4","E3D81837CF21477AB2FC96BBF7F02C9C","E3D81837CF21477AB2FC96BBF7F02C9C","0198b9f1-0c74-7af1-b819-09070f5bb2c9","0198b9d0-29d4-7df3-8625-4b4515841beb","{""num_scrambled_semantic"":""8"",""num_scrambled_causal"":""4"",""num_scrambled_schematic"":""4"",""participantId"":""E3D81837CF21477AB2FC96BBF7F02C9C"",""assignmentId"":""0198b9f1-0c74-7af1-b819-09070f5bb2c9"",""projectId"":""0198b9d0-29d4-7df3-8625-4b4515841beb""}","https://test12345.live/?num_scrambled_semantic=8&num_scrambled_causal=4&num_scrambled_schematic=4&participantId=E3D81837CF21477AB2FC96BBF7F02C9C&assignmentId=0198b9f1-0c74-7af1-b819-09070f5bb2c9&projectId=0198b9d0-29d4-7df3-8625-4b4515841beb","E3D81837CF21477AB2FC96BBF7F02C9C-2025-08-17-22-07-45","","null","","[]","null","",""
"","","","","","image-button-response","40","233390","0.0-10.0-1.0-0.5","E3D81837CF21477AB2FC96BBF7F02C9C","E3D81837CF21477AB2FC96BBF7F02C9C","0198b9f1-0c74-7af1-b819-09070f5bb2c9","0198b9d0-29d4-7df3-8625-4b4515841beb","{""num_scrambled_semantic"":""8"",""num_scrambled_causal"":""4"",""num_scrambled_schematic"":""4"",""participantId"":""E3D81837CF21477AB2FC96BBF7F02C9C"",""assignmentId"":""0198b9f1-0c74-7af1-b819-09070f5bb2c9"",""projectId"":""0198b9d0-29d4-7df3-8625-4b4515841beb""}","https://test12345.live/?num_scrambled_semantic=8&num_scrambled_causal=4&num_scrambled_schematic=4&participantId=E3D81837CF21477AB2FC96BBF7F02C9C&assignmentId=0198b9f1-0c74-7af1-b819-09070f5bb2c9&projectId=0198b9d0-29d4-7df3-8625-4b4515841beb","E3D81837CF21477AB2FC96BBF7F02C9C-2025-08-17-22-07-45","","null","","images/causal_sequence/package_causal/package_causal_6.png","null","",""
"","","","","","image-button-response","41","234543","0.0-10.0-1.0-1.5","E3D81837CF21477AB2FC96BBF7F02C9C","E3D81837CF21477AB2FC96BBF7F02C9C","0198b9f1-0c74-7af1-b819-09070f5bb2c9","0198b9d0-29d4-7df3-8625-4b4515841beb","{""num_scrambled_semantic"":""8"",""num_scrambled_causal"":""4"",""num_scrambled_schematic"":""4"",""participantId"":""E3D81837CF21477AB2FC96BBF7F02C9C"",""assignmentId"":""0198b9f1-0c74-7af1-b819-09070f5bb2c9"",""projectId"":""0198b9d0-29d4-7df3-8625-4b4515841beb""}","https://test12345.live/?num_scrambled_semantic=8&num_scrambled_causal=4&num_scrambled_schematic=4&participantId=E3D81837CF21477AB2FC96BBF7F02C9C&assignmentId=0198b9f1-0c74-7af1-b819-09070f5bb2c9&projectId=0198b9d0-29d4-7df3-8625-4b4515841beb","E3D81837CF21477AB2FC96BBF7F02C9C-2025-08-17-22-07-45","","1147","","images/causal_sequence/package_causal/package_causal_6.png","0","",""
"","","","","","image-button-response","42","239947","0.0-10.0-1.0-2.5","E3D81837CF21477AB2FC96BBF7F02C9C","E3D81837CF21477AB2FC96BBF7F02C9C","0198b9f1-0c74-7af1-b819-09070f5bb2c9","0198b9d0-29d4-7df3-8625-4b4515841beb","{""num_scrambled_semantic"":""8"",""num_scrambled_causal"":""4"",""num_scrambled_schematic"":""4"",""participantId"":""E3D81837CF21477AB2FC96BBF7F02C9C"",""assignmentId"":""0198b9f1-0c74-7af1-b819-09070f5bb2c9"",""projectId"":""0198b9d0-29d4-7df3-8625-4b4515841beb""}","https://test12345.live/?num_scrambled_semantic=8&num_scrambled_causal=4&num_scrambled_schematic=4&participantId=E3D81837CF21477AB2FC96BBF7F02C9C&assignmentId=0198b9f1-0c74-7af1-b819-09070f5bb2c9&projectId=0198b9d0-29d4-7df3-8625-4b4515841beb","E3D81837CF21477AB2FC96BBF7F02C9C-2025-08-17-22-07-45","","null","","[]","null","",""
"","","","","","image-button-response","43","244450","0.0-10.0-1.0-0.6","E3D81837CF21477AB2FC96BBF7F02C9C","E3D81837CF21477AB2FC96BBF7F02C9C","0198b9f1-0c74-7af1-b819-09070f5bb2c9","0198b9d0-29d4-7df3-8625-4b4515841beb","{""num_scrambled_semantic"":""8"",""num_scrambled_causal"":""4"",""num_scrambled_schematic"":""4"",""participantId"":""E3D81837CF21477AB2FC96BBF7F02C9C"",""assignmentId"":""0198b9f1-0c74-7af1-b819-09070f5bb2c9"",""projectId"":""0198b9d0-29d4-7df3-8625-4b4515841beb""}","https://test12345.live/?num_scrambled_semantic=8&num_scrambled_causal=4&num_scrambled_schematic=4&participantId=E3D81837CF21477AB2FC96BBF7F02C9C&assignmentId=0198b9f1-0c74-7af1-b819-09070f5bb2c9&projectId=0198b9d0-29d4-7df3-8625-4b4515841beb","E3D81837CF21477AB2FC96BBF7F02C9C-2025-08-17-22-07-45","","null","","images/causal_sequence/package_causal/package_causal_7.png","null","",""
"","","","","","image-button-response","44","245770","0.0-10.0-1.0-1.6","E3D81837CF21477AB2FC96BBF7F02C9C","E3D81837CF21477AB2FC96BBF7F02C9C","0198b9f1-0c74-7af1-b819-09070f5bb2c9","0198b9d0-29d4-7df3-8625-4b4515841beb","{""num_scrambled_semantic"":""8"",""num_scrambled_causal"":""4"",""num_scrambled_schematic"":""4"",""participantId"":""E3D81837CF21477AB2FC96BBF7F02C9C"",""assignmentId"":""0198b9f1-0c74-7af1-b819-09070f5bb2c9"",""projectId"":""0198b9d0-29d4-7df3-8625-4b4515841beb""}","https://test12345.live/?num_scrambled_semantic=8&num_scrambled_causal=4&num_scrambled_schematic=4&participantId=E3D81837CF21477AB2FC96BBF7F02C9C&assignmentId=0198b9f1-0c74-7af1-b819-09070f5bb2c9&projectId=0198b9d0-29d4-7df3-8625-4b4515841beb","E3D81837CF21477AB2FC96BBF7F02C9C-2025-08-17-22-07-45","","1319","","images/causal_sequence/package_causal/package_causal_7.png","0","",""
"","","","","","image-button-response","45","251173","0.0-10.0-1.0-2.6","E3D81837CF21477AB2FC96BBF7F02C9C","E3D81837CF21477AB2FC96BBF7F02C9C","0198b9f1-0c74-7af1-b819-09070f5bb2c9","0198b9d0-29d4-7df3-8625-4b4515841beb","{""num_scrambled_semantic"":""8"",""num_scrambled_causal"":""4"",""num_scrambled_schematic"":""4"",""participantId"":""E3D81837CF21477AB2FC96BBF7F02C9C"",""assignmentId"":""0198b9f1-0c74-7af1-b819-09070f5bb2c9"",""projectId"":""0198b9d0-29d4-7df3-8625-4b4515841beb""}","https://test12345.live/?num_scrambled_semantic=8&num_scrambled_causal=4&num_scrambled_schematic=4&participantId=E3D81837CF21477AB2FC96BBF7F02C9C&assignmentId=0198b9f1-0c74-7af1-b819-09070f5bb2c9&projectId=0198b9d0-29d4-7df3-8625-4b4515841beb","E3D81837CF21477AB2FC96BBF7F02C9C-2025-08-17-22-07-45","","null","","[]","null","",""
"","","","","","image-button-response","46","255682","0.0-10.0-1.0-0.7","E3D81837CF21477AB2FC96BBF7F02C9C","E3D81837CF21477AB2FC96BBF7F02C9C","0198b9f1-0c74-7af1-b819-09070f5bb2c9","0198b9d0-29d4-7df3-8625-4b4515841beb","{""num_scrambled_semantic"":""8"",""num_scrambled_causal"":""4"",""num_scrambled_schematic"":""4"",""participantId"":""E3D81837CF21477AB2FC96BBF7F02C9C"",""assignmentId"":""0198b9f1-0c74-7af1-b819-09070f5bb2c9"",""projectId"":""0198b9d0-29d4-7df3-8625-4b4515841beb""}","https://test12345.live/?num_scrambled_semantic=8&num_scrambled_causal=4&num_scrambled_schematic=4&participantId=E3D81837CF21477AB2FC96BBF7F02C9C&assignmentId=0198b9f1-0c74-7af1-b819-09070f5bb2c9&projectId=0198b9d0-29d4-7df3-8625-4b4515841beb","E3D81837CF21477AB2FC96BBF7F02C9C-2025-08-17-22-07-45","","null","","images/causal_sequence/package_causal/package_causal_8.png","null","",""
"","","","","","image-button-response","47","257065","0.0-10.0-1.0-1.7","E3D81837CF21477AB2FC96BBF7F02C9C","E3D81837CF21477AB2FC96BBF7F02C9C","0198b9f1-0c74-7af1-b819-09070f5bb2c9","0198b9d0-29d4-7df3-8625-4b4515841beb","{""num_scrambled_semantic"":""8"",""num_scrambled_causal"":""4"",""num_scrambled_schematic"":""4"",""participantId"":""E3D81837CF21477AB2FC96BBF7F02C9C"",""assignmentId"":""0198b9f1-0c74-7af1-b819-09070f5bb2c9"",""projectId"":""0198b9d0-29d4-7df3-8625-4b4515841beb""}","https://test12345.live/?num_scrambled_semantic=8&num_scrambled_causal=4&num_scrambled_schematic=4&participantId=E3D81837CF21477AB2FC96BBF7F02C9C&assignmentId=0198b9f1-0c74-7af1-b819-09070f5bb2c9&projectId=0198b9d0-29d4-7df3-8625-4b4515841beb","E3D81837CF21477AB2FC96BBF7F02C9C-2025-08-17-22-07-45","","1381","","images/causal_sequence/package_causal/package_causal_8.png","0","",""
"","","","","","image-button-response","48","262471","0.0-10.0-1.0-2.7","E3D81837CF21477AB2FC96BBF7F02C9C","E3D81837CF21477AB2FC96BBF7F02C9C","0198b9f1-0c74-7af1-b819-09070f5bb2c9","0198b9d0-29d4-7df3-8625-4b4515841beb","{""num_scrambled_semantic"":""8"",""num_scrambled_causal"":""4"",""num_scrambled_schematic"":""4"",""participantId"":""E3D81837CF21477AB2FC96BBF7F02C9C"",""assignmentId"":""0198b9f1-0c74-7af1-b819-09070f5bb2c9"",""projectId"":""0198b9d0-29d4-7df3-8625-4b4515841beb""}","https://test12345.live/?num_scrambled_semantic=8&num_scrambled_causal=4&num_scrambled_schematic=4&participantId=E3D81837CF21477AB2FC96BBF7F02C9C&assignmentId=0198b9f1-0c74-7af1-b819-09070f5bb2c9&projectId=0198b9d0-29d4-7df3-8625-4b4515841beb","E3D81837CF21477AB2FC96BBF7F02C9C-2025-08-17-22-07-45","","null","","[]","null","",""
"","","","","","image-button-response","49","266976","0.0-10.0-1.0-0.8","E3D81837CF21477AB2FC96BBF7F02C9C","E3D81837CF21477AB2FC96BBF7F02C9C","0198b9f1-0c74-7af1-b819-09070f5bb2c9","0198b9d0-29d4-7df3-8625-4b4515841beb","{""num_scrambled_semantic"":""8"",""num_scrambled_causal"":""4"",""num_scrambled_schematic"":""4"",""participantId"":""E3D81837CF21477AB2FC96BBF7F02C9C"",""assignmentId"":""0198b9f1-0c74-7af1-b819-09070f5bb2c9"",""projectId"":""0198b9d0-29d4-7df3-8625-4b4515841beb""}","https://test12345.live/?num_scrambled_semantic=8&num_scrambled_causal=4&num_scrambled_schematic=4&participantId=E3D81837CF21477AB2FC96BBF7F02C9C&assignmentId=0198b9f1-0c74-7af1-b819-09070f5bb2c9&projectId=0198b9d0-29d4-7df3-8625-4b4515841beb","E3D81837CF21477AB2FC96BBF7F02C9C-2025-08-17-22-07-45","","null","","images/causal_sequence/package_causal/package_causal_9.png","null","",""
"","","","","","image-button-response","50","270099","0.0-10.0-1.0-1.8","E3D81837CF21477AB2FC96BBF7F02C9C","E3D81837CF21477AB2FC96BBF7F02C9C","0198b9f1-0c74-7af1-b819-09070f5bb2c9","0198b9d0-29d4-7df3-8625-4b4515841beb","{""num_scrambled_semantic"":""8"",""num_scrambled_causal"":""4"",""num_scrambled_schematic"":""4"",""participantId"":""E3D81837CF21477AB2FC96BBF7F02C9C"",""assignmentId"":""0198b9f1-0c74-7af1-b819-09070f5bb2c9"",""projectId"":""0198b9d0-29d4-7df3-8625-4b4515841beb""}","https://test12345.live/?num_scrambled_semantic=8&num_scrambled_causal=4&num_scrambled_schematic=4&participantId=E3D81837CF21477AB2FC96BBF7F02C9C&assignmentId=0198b9f1-0c74-7af1-b819-09070f5bb2c9&projectId=0198b9d0-29d4-7df3-8625-4b4515841beb","E3D81837CF21477AB2FC96BBF7F02C9C-2025-08-17-22-07-45","","3121","","images/causal_sequence/package_causal/package_causal_9.png","0","",""
"","","","","","image-button-response","51","275505","0.0-10.0-1.0-2.8","E3D81837CF21477AB2FC96BBF7F02C9C","E3D81837CF21477AB2FC96BBF7F02C9C","0198b9f1-0c74-7af1-b819-09070f5bb2c9","0198b9d0-29d4-7df3-8625-4b4515841beb","{""num_scrambled_semantic"":""8"",""num_scrambled_causal"":""4"",""num_scrambled_schematic"":""4"",""participantId"":""E3D81837CF21477AB2FC96BBF7F02C9C"",""assignmentId"":""0198b9f1-0c74-7af1-b819-09070f5bb2c9"",""projectId"":""0198b9d0-29d4-7df3-8625-4b4515841beb""}","https://test12345.live/?num_scrambled_semantic=8&num_scrambled_causal=4&num_scrambled_schematic=4&participantId=E3D81837CF21477AB2FC96BBF7F02C9C&assignmentId=0198b9f1-0c74-7af1-b819-09070f5bb2c9&projectId=0198b9d0-29d4-7df3-8625-4b4515841beb","E3D81837CF21477AB2FC96BBF7F02C9C-2025-08-17-22-07-45","","null","","[]","null","",""
"","","","","","image-button-response","52","280012","0.0-10.0-1.0-0.9","E3D81837CF21477AB2FC96BBF7F02C9C","E3D81837CF21477AB2FC96BBF7F02C9C","0198b9f1-0c74-7af1-b819-09070f5bb2c9","0198b9d0-29d4-7df3-8625-4b4515841beb","{""num_scrambled_semantic"":""8"",""num_scrambled_causal"":""4"",""num_scrambled_schematic"":""4"",""participantId"":""E3D81837CF21477AB2FC96BBF7F02C9C"",""assignmentId"":""0198b9f1-0c74-7af1-b819-09070f5bb2c9"",""projectId"":""0198b9d0-29d4-7df3-8625-4b4515841beb""}","https://test12345.live/?num_scrambled_semantic=8&num_scrambled_causal=4&num_scrambled_schematic=4&participantId=E3D81837CF21477AB2FC96BBF7F02C9C&assignmentId=0198b9f1-0c74-7af1-b819-09070f5bb2c9&projectId=0198b9d0-29d4-7df3-8625-4b4515841beb","E3D81837CF21477AB2FC96BBF7F02C9C-2025-08-17-22-07-45","","null","","images/causal_sequence/package_causal/package_causal_ten.png","null","",""
"","","","","","image-button-response","53","281146","0.0-10.0-1.0-1.9","E3D81837CF21477AB2FC96BBF7F02C9C","E3D81837CF21477AB2FC96BBF7F02C9C","0198b9f1-0c74-7af1-b819-09070f5bb2c9","0198b9d0-29d4-7df3-8625-4b4515841beb","{""num_scrambled_semantic"":""8"",""num_scrambled_causal"":""4"",""num_scrambled_schematic"":""4"",""participantId"":""E3D81837CF21477AB2FC96BBF7F02C9C"",""assignmentId"":""0198b9f1-0c74-7af1-b819-09070f5bb2c9"",""projectId"":""0198b9d0-29d4-7df3-8625-4b4515841beb""}","https://test12345.live/?num_scrambled_semantic=8&num_scrambled_causal=4&num_scrambled_schematic=4&participantId=E3D81837CF21477AB2FC96BBF7F02C9C&assignmentId=0198b9f1-0c74-7af1-b819-09070f5bb2c9&projectId=0198b9d0-29d4-7df3-8625-4b4515841beb","E3D81837CF21477AB2FC96BBF7F02C9C-2025-08-17-22-07-45","","1132","","images/causal_sequence/package_causal/package_causal_ten.png","0","",""
"","","","","","image-button-response","54","286552","0.0-10.0-1.0-2.9","E3D81837CF21477AB2FC96BBF7F02C9C","E3D81837CF21477AB2FC96BBF7F02C9C","0198b9f1-0c74-7af1-b819-09070f5bb2c9","0198b9d0-29d4-7df3-8625-4b4515841beb","{""num_scrambled_semantic"":""8"",""num_scrambled_causal"":""4"",""num_scrambled_schematic"":""4"",""participantId"":""E3D81837CF21477AB2FC96BBF7F02C9C"",""assignmentId"":""0198b9f1-0c74-7af1-b819-09070f5bb2c9"",""projectId"":""0198b9d0-29d4-7df3-8625-4b4515841beb""}","https://test12345.live/?num_scrambled_semantic=8&num_scrambled_causal=4&num_scrambled_schematic=4&participantId=E3D81837CF21477AB2FC96BBF7F02C9C&assignmentId=0198b9f1-0c74-7af1-b819-09070f5bb2c9&projectId=0198b9d0-29d4-7df3-8625-4b4515841beb","E3D81837CF21477AB2FC96BBF7F02C9C-2025-08-17-22-07-45","","null","","[]","null","",""
"","","","","","html-audio-response","55","333940","0.0-11.0","E3D81837CF21477AB2FC96BBF7F02C9C","E3D81837CF21477AB2FC96BBF7F02C9C","0198b9f1-0c74-7af1-b819-09070f5bb2c9","0198b9d0-29d4-7df3-8625-4b4515841beb","{""num_scrambled_semantic"":""8"",""num_scrambled_causal"":""4"",""num_scrambled_schematic"":""4"",""participantId"":""E3D81837CF21477AB2FC96BBF7F02C9C"",""assignmentId"":""0198b9f1-0c74-7af1-b819-09070f5bb2c9"",""projectId"":""0198b9d0-29d4-7df3-8625-4b4515841beb""}","https://test12345.live/?num_scrambled_semantic=8&num_scrambled_causal=4&num_scrambled_schematic=4&participantId=E3D81837CF21477AB2FC96BBF7F02C9C&assignmentId=0198b9f1-0c74-7af1-b819-09070f5bb2c9&projectId=0198b9d0-29d4-7df3-8625-4b4515841beb","E3D81837CF21477AB2FC96BBF7F02C9C-2025-08-17-22-07-45","","32555","","[""<span style=\""color: red; font-size: 24px\""> NOW RECORDING</span><p>Please say out loud all the images you saw, as many as you can remember. The images can be said in any order.</p>""]","","1","package_causal"
"","","","","","image-button-response","56","339948","0.0-12.0-0.0","E3D81837CF21477AB2FC96BBF7F02C9C","E3D81837CF21477AB2FC96BBF7F02C9C","0198b9f1-0c74-7af1-b819-09070f5bb2c9","0198b9d0-29d4-7df3-8625-4b4515841beb","{""num_scrambled_semantic"":""8"",""num_scrambled_causal"":""4"",""num_scrambled_schematic"":""4"",""participantId"":""E3D81837CF21477AB2FC96BBF7F02C9C"",""assignmentId"":""0198b9f1-0c74-7af1-b819-09070f5bb2c9"",""projectId"":""0198b9d0-29d4-7df3-8625-4b4515841beb""}","https://test12345.live/?num_scrambled_semantic=8&num_scrambled_causal=4&num_scrambled_schematic=4&participantId=E3D81837CF21477AB2FC96BBF7F02C9C&assignmentId=0198b9f1-0c74-7af1-b819-09070f5bb2c9&projectId=0198b9d0-29d4-7df3-8625-4b4515841beb","E3D81837CF21477AB2FC96BBF7F02C9C-2025-08-17-22-07-45","","null","","images/semantic_sequence/housework_semantic/housework_semantic_0.png","null","",""
"","","","","","image-button-response","57","344452","0.0-12.0-1.0-0.0","E3D81837CF21477AB2FC96BBF7F02C9C","E3D81837CF21477AB2FC96BBF7F02C9C","0198b9f1-0c74-7af1-b819-09070f5bb2c9","0198b9d0-29d4-7df3-8625-4b4515841beb","{""num_scrambled_semantic"":""8"",""num_scrambled_causal"":""4"",""num_scrambled_schematic"":""4"",""participantId"":""E3D81837CF21477AB2FC96BBF7F02C9C"",""assignmentId"":""0198b9f1-0c74-7af1-b819-09070f5bb2c9"",""projectId"":""0198b9d0-29d4-7df3-8625-4b4515841beb""}","https://test12345.live/?num_scrambled_semantic=8&num_scrambled_causal=4&num_scrambled_schematic=4&participantId=E3D81837CF21477AB2FC96BBF7F02C9C&assignmentId=0198b9f1-0c74-7af1-b819-09070f5bb2c9&projectId=0198b9d0-29d4-7df3-8625-4b4515841beb","E3D81837CF21477AB2FC96BBF7F02C9C-2025-08-17-22-07-45","","null","","images/semantic_sequence/housework_semantic/housework_semantic_2.png","null","",""
"","","","","","image-button-response","58","345454","0.0-12.0-1.0-1.0","E3D81837CF21477AB2FC96BBF7F02C9C","E3D81837CF21477AB2FC96BBF7F02C9C","0198b9f1-0c74-7af1-b819-09070f5bb2c9","0198b9d0-29d4-7df3-8625-4b4515841beb","{""num_scrambled_semantic"":""8"",""num_scrambled_causal"":""4"",""num_scrambled_schematic"":""4"",""participantId"":""E3D81837CF21477AB2FC96BBF7F02C9C"",""assignmentId"":""0198b9f1-0c74-7af1-b819-09070f5bb2c9"",""projectId"":""0198b9d0-29d4-7df3-8625-4b4515841beb""}","https://test12345.live/?num_scrambled_semantic=8&num_scrambled_causal=4&num_scrambled_schematic=4&participantId=E3D81837CF21477AB2FC96BBF7F02C9C&assignmentId=0198b9f1-0c74-7af1-b819-09070f5bb2c9&projectId=0198b9d0-29d4-7df3-8625-4b4515841beb","E3D81837CF21477AB2FC96BBF7F02C9C-2025-08-17-22-07-45","","1001","","images/semantic_sequence/housework_semantic/housework_semantic_2.png","0","",""
"","","","","","image-button-response","59","350860","0.0-12.0-1.0-2.0","E3D81837CF21477AB2FC96BBF7F02C9C","E3D81837CF21477AB2FC96BBF7F02C9C","0198b9f1-0c74-7af1-b819-09070f5bb2c9","0198b9d0-29d4-7df3-8625-4b4515841beb","{""num_scrambled_semantic"":""8"",""num_scrambled_causal"":""4"",""num_scrambled_schematic"":""4"",""participantId"":""E3D81837CF21477AB2FC96BBF7F02C9C"",""assignmentId"":""0198b9f1-0c74-7af1-b819-09070f5bb2c9"",""projectId"":""0198b9d0-29d4-7df3-8625-4b4515841beb""}","https://test12345.live/?num_scrambled_semantic=8&num_scrambled_causal=4&num_scrambled_schematic=4&participantId=E3D81837CF21477AB2FC96BBF7F02C9C&assignmentId=0198b9f1-0c74-7af1-b819-09070f5bb2c9&projectId=0198b9d0-29d4-7df3-8625-4b4515841beb","E3D81837CF21477AB2FC96BBF7F02C9C-2025-08-17-22-07-45","","null","","[]","null","",""
"","","","","","image-button-response","60","355368","0.0-12.0-1.0-0.1","E3D81837CF21477AB2FC96BBF7F02C9C","E3D81837CF21477AB2FC96BBF7F02C9C","0198b9f1-0c74-7af1-b819-09070f5bb2c9","0198b9d0-29d4-7df3-8625-4b4515841beb","{""num_scrambled_semantic"":""8"",""num_scrambled_causal"":""4"",""num_scrambled_schematic"":""4"",""participantId"":""E3D81837CF21477AB2FC96BBF7F02C9C"",""assignmentId"":""0198b9f1-0c74-7af1-b819-09070f5bb2c9"",""projectId"":""0198b9d0-29d4-7df3-8625-4b4515841beb""}","https://test12345.live/?num_scrambled_semantic=8&num_scrambled_causal=4&num_scrambled_schematic=4&participantId=E3D81837CF21477AB2FC96BBF7F02C9C&assignmentId=0198b9f1-0c74-7af1-b819-09070f5bb2c9&projectId=0198b9d0-29d4-7df3-8625-4b4515841beb","E3D81837CF21477AB2FC96BBF7F02C9C-2025-08-17-22-07-45","","null","","images/semantic_sequence/housework_semantic/housework_semantic_9.png","null","",""
"","","","","","image-button-response","61","356761","0.0-12.0-1.0-1.1","E3D81837CF21477AB2FC96BBF7F02C9C","E3D81837CF21477AB2FC96BBF7F02C9C","0198b9f1-0c74-7af1-b819-09070f5bb2c9","0198b9d0-29d4-7df3-8625-4b4515841beb","{""num_scrambled_semantic"":""8"",""num_scrambled_causal"":""4"",""num_scrambled_schematic"":""4"",""participantId"":""E3D81837CF21477AB2FC96BBF7F02C9C"",""assignmentId"":""0198b9f1-0c74-7af1-b819-09070f5bb2c9"",""projectId"":""0198b9d0-29d4-7df3-8625-4b4515841beb""}","https://test12345.live/?num_scrambled_semantic=8&num_scrambled_causal=4&num_scrambled_schematic=4&participantId=E3D81837CF21477AB2FC96BBF7F02C9C&assignmentId=0198b9f1-0c74-7af1-b819-09070f5bb2c9&projectId=0198b9d0-29d4-7df3-8625-4b4515841beb","E3D81837CF21477AB2FC96BBF7F02C9C-2025-08-17-22-07-45","","1391","","images/semantic_sequence/housework_semantic/housework_semantic_9.png","0","",""
"","","","","","image-button-response","62","362164","0.0-12.0-1.0-2.1","E3D81837CF21477AB2FC96BBF7F02C9C","E3D81837CF21477AB2FC96BBF7F02C9C","0198b9f1-0c74-7af1-b819-09070f5bb2c9","0198b9d0-29d4-7df3-8625-4b4515841beb","{""num_scrambled_semantic"":""8"",""num_scrambled_causal"":""4"",""num_scrambled_schematic"":""4"",""participantId"":""E3D81837CF21477AB2FC96BBF7F02C9C"",""assignmentId"":""0198b9f1-0c74-7af1-b819-09070f5bb2c9"",""projectId"":""0198b9d0-29d4-7df3-8625-4b4515841beb""}","https://test12345.live/?num_scrambled_semantic=8&num_scrambled_causal=4&num_scrambled_schematic=4&participantId=E3D81837CF21477AB2FC96BBF7F02C9C&assignmentId=0198b9f1-0c74-7af1-b819-09070f5bb2c9&projectId=0198b9d0-29d4-7df3-8625-4b4515841beb","E3D81837CF21477AB2FC96BBF7F02C9C-2025-08-17-22-07-45","","null","","[]","null","",""
"","","","","","image-button-response","63","366666","0.0-12.0-1.0-0.2","E3D81837CF21477AB2FC96BBF7F02C9C","E3D81837CF21477AB2FC96BBF7F02C9C","0198b9f1-0c74-7af1-b819-09070f5bb2c9","0198b9d0-29d4-7df3-8625-4b4515841beb","{""num_scrambled_semantic"":""8"",""num_scrambled_causal"":""4"",""num_scrambled_schematic"":""4"",""participantId"":""E3D81837CF21477AB2FC96BBF7F02C9C"",""assignmentId"":""0198b9f1-0c74-7af1-b819-09070f5bb2c9"",""projectId"":""0198b9d0-29d4-7df3-8625-4b4515841beb""}","https://test12345.live/?num_scrambled_semantic=8&num_scrambled_causal=4&num_scrambled_schematic=4&participantId=E3D81837CF21477AB2FC96BBF7F02C9C&assignmentId=0198b9f1-0c74-7af1-b819-09070f5bb2c9&projectId=0198b9d0-29d4-7df3-8625-4b4515841beb","E3D81837CF21477AB2FC96BBF7F02C9C-2025-08-17-22-07-45","","null","","images/semantic_sequence/housework_semantic/housework_semantic_7.png","null","",""
"","","","","","image-button-response","64","369362","0.0-12.0-1.0-1.2","E3D81837CF21477AB2FC96BBF7F02C9C","E3D81837CF21477AB2FC96BBF7F02C9C","0198b9f1-0c74-7af1-b819-09070f5bb2c9","0198b9d0-29d4-7df3-8625-4b4515841beb","{""num_scrambled_semantic"":""8"",""num_scrambled_causal"":""4"",""num_scrambled_schematic"":""4"",""participantId"":""E3D81837CF21477AB2FC96BBF7F02C9C"",""assignmentId"":""0198b9f1-0c74-7af1-b819-09070f5bb2c9"",""projectId"":""0198b9d0-29d4-7df3-8625-4b4515841beb""}","https://test12345.live/?num_scrambled_semantic=8&num_scrambled_causal=4&num_scrambled_schematic=4&participantId=E3D81837CF21477AB2FC96BBF7F02C9C&assignmentId=0198b9f1-0c74-7af1-b819-09070f5bb2c9&projectId=0198b9d0-29d4-7df3-8625-4b4515841beb","E3D81837CF21477AB2FC96BBF7F02C9C-2025-08-17-22-07-45","","2695","","images/semantic_sequence/housework_semantic/housework_semantic_7.png","0","",""
"","","","","","image-button-response","65","374768","0.0-12.0-1.0-2.2","E3D81837CF21477AB2FC96BBF7F02C9C","E3D81837CF21477AB2FC96BBF7F02C9C","0198b9f1-0c74-7af1-b819-09070f5bb2c9","0198b9d0-29d4-7df3-8625-4b4515841beb","{""num_scrambled_semantic"":""8"",""num_scrambled_causal"":""4"",""num_scrambled_schematic"":""4"",""participantId"":""E3D81837CF21477AB2FC96BBF7F02C9C"",""assignmentId"":""0198b9f1-0c74-7af1-b819-09070f5bb2c9"",""projectId"":""0198b9d0-29d4-7df3-8625-4b4515841beb""}","https://test12345.live/?num_scrambled_semantic=8&num_scrambled_causal=4&num_scrambled_schematic=4&participantId=E3D81837CF21477AB2FC96BBF7F02C9C&assignmentId=0198b9f1-0c74-7af1-b819-09070f5bb2c9&projectId=0198b9d0-29d4-7df3-8625-4b4515841beb","E3D81837CF21477AB2FC96BBF7F02C9C-2025-08-17-22-07-45","","null","","[]","null","",""
"","","","","","image-button-response","66","379271","0.0-12.0-1.0-0.3","E3D81837CF21477AB2FC96BBF7F02C9C","E3D81837CF21477AB2FC96BBF7F02C9C","0198b9f1-0c74-7af1-b819-09070f5bb2c9","0198b9d0-29d4-7df3-8625-4b4515841beb","{""num_scrambled_semantic"":""8"",""num_scrambled_causal"":""4"",""num_scrambled_schematic"":""4"",""participantId"":""E3D81837CF21477AB2FC96BBF7F02C9C"",""assignmentId"":""0198b9f1-0c74-7af1-b819-09070f5bb2c9"",""projectId"":""0198b9d0-29d4-7df3-8625-4b4515841beb""}","https://test12345.live/?num_scrambled_semantic=8&num_scrambled_causal=4&num_scrambled_schematic=4&participantId=E3D81837CF21477AB2FC96BBF7F02C9C&assignmentId=0198b9f1-0c74-7af1-b819-09070f5bb2c9&projectId=0198b9d0-29d4-7df3-8625-4b4515841beb","E3D81837CF21477AB2FC96BBF7F02C9C-2025-08-17-22-07-45","","null","","images/semantic_sequence/housework_semantic/housework_semantic_ten.png","null","",""
"","","","","","image-button-response","67","380413","0.0-12.0-1.0-1.3","E3D81837CF21477AB2FC96BBF7F02C9C","E3D81837CF21477AB2FC96BBF7F02C9C","0198b9f1-0c74-7af1-b819-09070f5bb2c9","0198b9d0-29d4-7df3-8625-4b4515841beb","{""num_scrambled_semantic"":""8"",""num_scrambled_causal"":""4"",""num_scrambled_schematic"":""4"",""participantId"":""E3D81837CF21477AB2FC96BBF7F02C9C"",""assignmentId"":""0198b9f1-0c74-7af1-b819-09070f5bb2c9"",""projectId"":""0198b9d0-29d4-7df3-8625-4b4515841beb""}","https://test12345.live/?num_scrambled_semantic=8&num_scrambled_causal=4&num_scrambled_schematic=4&participantId=E3D81837CF21477AB2FC96BBF7F02C9C&assignmentId=0198b9f1-0c74-7af1-b819-09070f5bb2c9&projectId=0198b9d0-29d4-7df3-8625-4b4515841beb","E3D81837CF21477AB2FC96BBF7F02C9C-2025-08-17-22-07-45","","1141","","images/semantic_sequence/housework_semantic/housework_semantic_ten.png","0","",""
"","","","","","image-button-response","68","385819","0.0-12.0-1.0-2.3","E3D81837CF21477AB2FC96BBF7F02C9C","E3D81837CF21477AB2FC96BBF7F02C9C","0198b9f1-0c74-7af1-b819-09070f5bb2c9","0198b9d0-29d4-7df3-8625-4b4515841beb","{""num_scrambled_semantic"":""8"",""num_scrambled_causal"":""4"",""num_scrambled_schematic"":""4"",""participantId"":""E3D81837CF21477AB2FC96BBF7F02C9C"",""assignmentId"":""0198b9f1-0c74-7af1-b819-09070f5bb2c9"",""projectId"":""0198b9d0-29d4-7df3-8625-4b4515841beb""}","https://test12345.live/?num_scrambled_semantic=8&num_scrambled_causal=4&num_scrambled_schematic=4&participantId=E3D81837CF21477AB2FC96BBF7F02C9C&assignmentId=0198b9f1-0c74-7af1-b819-09070f5bb2c9&projectId=0198b9d0-29d4-7df3-8625-4b4515841beb","E3D81837CF21477AB2FC96BBF7F02C9C-2025-08-17-22-07-45","","null","","[]","null","",""
"","","","","","image-button-response","69","390324","0.0-12.0-1.0-0.4","E3D81837CF21477AB2FC96BBF7F02C9C","E3D81837CF21477AB2FC96BBF7F02C9C","0198b9f1-0c74-7af1-b819-09070f5bb2c9","0198b9d0-29d4-7df3-8625-4b4515841beb","{""num_scrambled_semantic"":""8"",""num_scrambled_causal"":""4"",""num_scrambled_schematic"":""4"",""participantId"":""E3D81837CF21477AB2FC96BBF7F02C9C"",""assignmentId"":""0198b9f1-0c74-7af1-b819-09070f5bb2c9"",""projectId"":""0198b9d0-29d4-7df3-8625-4b4515841beb""}","https://test12345.live/?num_scrambled_semantic=8&num_scrambled_causal=4&num_scrambled_schematic=4&participantId=E3D81837CF21477AB2FC96BBF7F02C9C&assignmentId=0198b9f1-0c74-7af1-b819-09070f5bb2c9&projectId=0198b9d0-29d4-7df3-8625-4b4515841beb","E3D81837CF21477AB2FC96BBF7F02C9C-2025-08-17-22-07-45","","null","","images/semantic_sequence/housework_semantic/housework_semantic_4.png","null","",""
"","","","","","image-button-response","70","391575","0.0-12.0-1.0-1.4","E3D81837CF21477AB2FC96BBF7F02C9C","E3D81837CF21477AB2FC96BBF7F02C9C","0198b9f1-0c74-7af1-b819-09070f5bb2c9","0198b9d0-29d4-7df3-8625-4b4515841beb","{""num_scrambled_semantic"":""8"",""num_scrambled_causal"":""4"",""num_scrambled_schematic"":""4"",""participantId"":""E3D81837CF21477AB2FC96BBF7F02C9C"",""assignmentId"":""0198b9f1-0c74-7af1-b819-09070f5bb2c9"",""projectId"":""0198b9d0-29d4-7df3-8625-4b4515841beb""}","https://test12345.live/?num_scrambled_semantic=8&num_scrambled_causal=4&num_scrambled_schematic=4&participantId=E3D81837CF21477AB2FC96BBF7F02C9C&assignmentId=0198b9f1-0c74-7af1-b819-09070f5bb2c9&projectId=0198b9d0-29d4-7df3-8625-4b4515841beb","E3D81837CF21477AB2FC96BBF7F02C9C-2025-08-17-22-07-45","","1250","","images/semantic_sequence/housework_semantic/housework_semantic_4.png","0","",""
"","","","","","image-button-response","71","396979","0.0-12.0-1.0-2.4","E3D81837CF21477AB2FC96BBF7F02C9C","E3D81837CF21477AB2FC96BBF7F02C9C","0198b9f1-0c74-7af1-b819-09070f5bb2c9","0198b9d0-29d4-7df3-8625-4b4515841beb","{""num_scrambled_semantic"":""8"",""num_scrambled_causal"":""4"",""num_scrambled_schematic"":""4"",""participantId"":""E3D81837CF21477AB2FC96BBF7F02C9C"",""assignmentId"":""0198b9f1-0c74-7af1-b819-09070f5bb2c9"",""projectId"":""0198b9d0-29d4-7df3-8625-4b4515841beb""}","https://test12345.live/?num_scrambled_semantic=8&num_scrambled_causal=4&num_scrambled_schematic=4&participantId=E3D81837CF21477AB2FC96BBF7F02C9C&assignmentId=0198b9f1-0c74-7af1-b819-09070f5bb2c9&projectId=0198b9d0-29d4-7df3-8625-4b4515841beb","E3D81837CF21477AB2FC96BBF7F02C9C-2025-08-17-22-07-45","","null","","[]","null","",""
"","","","","","image-button-response","72","401484","0.0-12.0-1.0-0.5","E3D81837CF21477AB2FC96BBF7F02C9C","E3D81837CF21477AB2FC96BBF7F02C9C","0198b9f1-0c74-7af1-b819-09070f5bb2c9","0198b9d0-29d4-7df3-8625-4b4515841beb","{""num_scrambled_semantic"":""8"",""num_scrambled_causal"":""4"",""num_scrambled_schematic"":""4"",""participantId"":""E3D81837CF21477AB2FC96BBF7F02C9C"",""assignmentId"":""0198b9f1-0c74-7af1-b819-09070f5bb2c9"",""projectId"":""0198b9d0-29d4-7df3-8625-4b4515841beb""}","https://test12345.live/?num_scrambled_semantic=8&num_scrambled_causal=4&num_scrambled_schematic=4&participantId=E3D81837CF21477AB2FC96BBF7F02C9C&assignmentId=0198b9f1-0c74-7af1-b819-09070f5bb2c9&projectId=0198b9d0-29d4-7df3-8625-4b4515841beb","E3D81837CF21477AB2FC96BBF7F02C9C-2025-08-17-22-07-45","","null","","images/semantic_sequence/housework_semantic/housework_semantic_6.png","null","",""
"","","","","","image-button-response","73","403836","0.0-12.0-1.0-1.5","E3D81837CF21477AB2FC96BBF7F02C9C","E3D81837CF21477AB2FC96BBF7F02C9C","0198b9f1-0c74-7af1-b819-09070f5bb2c9","0198b9d0-29d4-7df3-8625-4b4515841beb","{""num_scrambled_semantic"":""8"",""num_scrambled_causal"":""4"",""num_scrambled_schematic"":""4"",""participantId"":""E3D81837CF21477AB2FC96BBF7F02C9C"",""assignmentId"":""0198b9f1-0c74-7af1-b819-09070f5bb2c9"",""projectId"":""0198b9d0-29d4-7df3-8625-4b4515841beb""}","https://test12345.live/?num_scrambled_semantic=8&num_scrambled_causal=4&num_scrambled_schematic=4&participantId=E3D81837CF21477AB2FC96BBF7F02C9C&assignmentId=0198b9f1-0c74-7af1-b819-09070f5bb2c9&projectId=0198b9d0-29d4-7df3-8625-4b4515841beb","E3D81837CF21477AB2FC96BBF7F02C9C-2025-08-17-22-07-45","","2350","","images/semantic_sequence/housework_semantic/housework_semantic_6.png","0","",""
"","","","","","image-button-response","74","409242","0.0-12.0-1.0-2.5","E3D81837CF21477AB2FC96BBF7F02C9C","E3D81837CF21477AB2FC96BBF7F02C9C","0198b9f1-0c74-7af1-b819-09070f5bb2c9","0198b9d0-29d4-7df3-8625-4b4515841beb","{""num_scrambled_semantic"":""8"",""num_scrambled_causal"":""4"",""num_scrambled_schematic"":""4"",""participantId"":""E3D81837CF21477AB2FC96BBF7F02C9C"",""assignmentId"":""0198b9f1-0c74-7af1-b819-09070f5bb2c9"",""projectId"":""0198b9d0-29d4-7df3-8625-4b4515841beb""}","https://test12345.live/?num_scrambled_semantic=8&num_scrambled_causal=4&num_scrambled_schematic=4&participantId=E3D81837CF21477AB2FC96BBF7F02C9C&assignmentId=0198b9f1-0c74-7af1-b819-09070f5bb2c9&projectId=0198b9d0-29d4-7df3-8625-4b4515841beb","E3D81837CF21477AB2FC96BBF7F02C9C-2025-08-17-22-07-45","","null","","[]","null","",""
"","","","","","image-button-response","75","413749","0.0-12.0-1.0-0.6","E3D81837CF21477AB2FC96BBF7F02C9C","E3D81837CF21477AB2FC96BBF7F02C9C","0198b9f1-0c74-7af1-b819-09070f5bb2c9","0198b9d0-29d4-7df3-8625-4b4515841beb","{""num_scrambled_semantic"":""8"",""num_scrambled_causal"":""4"",""num_scrambled_schematic"":""4"",""participantId"":""E3D81837CF21477AB2FC96BBF7F02C9C"",""assignmentId"":""0198b9f1-0c74-7af1-b819-09070f5bb2c9"",""projectId"":""0198b9d0-29d4-7df3-8625-4b4515841beb""}","https://test12345.live/?num_scrambled_semantic=8&num_scrambled_causal=4&num_scrambled_schematic=4&participantId=E3D81837CF21477AB2FC96BBF7F02C9C&assignmentId=0198b9f1-0c74-7af1-b819-09070f5bb2c9&projectId=0198b9d0-29d4-7df3-8625-4b4515841beb","E3D81837CF21477AB2FC96BBF7F02C9C-2025-08-17-22-07-45","","null","","images/semantic_sequence/housework_semantic/housework_semantic_1.png","null","",""
"","","","","","image-button-response","76","415294","0.0-12.0-1.0-1.6","E3D81837CF21477AB2FC96BBF7F02C9C","E3D81837CF21477AB2FC96BBF7F02C9C","0198b9f1-0c74-7af1-b819-09070f5bb2c9","0198b9d0-29d4-7df3-8625-4b4515841beb","{""num_scrambled_semantic"":""8"",""num_scrambled_causal"":""4"",""num_scrambled_schematic"":""4"",""participantId"":""E3D81837CF21477AB2FC96BBF7F02C9C"",""assignmentId"":""0198b9f1-0c74-7af1-b819-09070f5bb2c9"",""projectId"":""0198b9d0-29d4-7df3-8625-4b4515841beb""}","https://test12345.live/?num_scrambled_semantic=8&num_scrambled_causal=4&num_scrambled_schematic=4&participantId=E3D81837CF21477AB2FC96BBF7F02C9C&assignmentId=0198b9f1-0c74-7af1-b819-09070f5bb2c9&projectId=0198b9d0-29d4-7df3-8625-4b4515841beb","E3D81837CF21477AB2FC96BBF7F02C9C-2025-08-17-22-07-45","","1543","","images/semantic_sequence/housework_semantic/housework_semantic_1.png","0","",""
"","","","","","image-button-response","77","420700","0.0-12.0-1.0-2.6","E3D81837CF21477AB2FC96BBF7F02C9C","E3D81837CF21477AB2FC96BBF7F02C9C","0198b9f1-0c74-7af1-b819-09070f5bb2c9","0198b9d0-29d4-7df3-8625-4b4515841beb","{""num_scrambled_semantic"":""8"",""num_scrambled_causal"":""4"",""num_scrambled_schematic"":""4"",""participantId"":""E3D81837CF21477AB2FC96BBF7F02C9C"",""assignmentId"":""0198b9f1-0c74-7af1-b819-09070f5bb2c9"",""projectId"":""0198b9d0-29d4-7df3-8625-4b4515841beb""}","https://test12345.live/?num_scrambled_semantic=8&num_scrambled_causal=4&num_scrambled_schematic=4&participantId=E3D81837CF21477AB2FC96BBF7F02C9C&assignmentId=0198b9f1-0c74-7af1-b819-09070f5bb2c9&projectId=0198b9d0-29d4-7df3-8625-4b4515841beb","E3D81837CF21477AB2FC96BBF7F02C9C-2025-08-17-22-07-45","","null","","[]","null","",""
"","","","","","image-button-response","78","425204","0.0-12.0-1.0-0.7","E3D81837CF21477AB2FC96BBF7F02C9C","E3D81837CF21477AB2FC96BBF7F02C9C","0198b9f1-0c74-7af1-b819-09070f5bb2c9","0198b9d0-29d4-7df3-8625-4b4515841beb","{""num_scrambled_semantic"":""8"",""num_scrambled_causal"":""4"",""num_scrambled_schematic"":""4"",""participantId"":""E3D81837CF21477AB2FC96BBF7F02C9C"",""assignmentId"":""0198b9f1-0c74-7af1-b819-09070f5bb2c9"",""projectId"":""0198b9d0-29d4-7df3-8625-4b4515841beb""}","https://test12345.live/?num_scrambled_semantic=8&num_scrambled_causal=4&num_scrambled_schematic=4&participantId=E3D81837CF21477AB2FC96BBF7F02C9C&assignmentId=0198b9f1-0c74-7af1-b819-09070f5bb2c9&projectId=0198b9d0-29d4-7df3-8625-4b4515841beb","E3D81837CF21477AB2FC96BBF7F02C9C-2025-08-17-22-07-45","","null","","images/semantic_sequence/housework_semantic/housework_semantic_5.png","null","",""
"","","","","","image-button-response","79","427723","0.0-12.0-1.0-1.7","E3D81837CF21477AB2FC96BBF7F02C9C","E3D81837CF21477AB2FC96BBF7F02C9C","0198b9f1-0c74-7af1-b819-09070f5bb2c9","0198b9d0-29d4-7df3-8625-4b4515841beb","{""num_scrambled_semantic"":""8"",""num_scrambled_causal"":""4"",""num_scrambled_schematic"":""4"",""participantId"":""E3D81837CF21477AB2FC96BBF7F02C9C"",""assignmentId"":""0198b9f1-0c74-7af1-b819-09070f5bb2c9"",""projectId"":""0198b9d0-29d4-7df3-8625-4b4515841beb""}","https://test12345.live/?num_scrambled_semantic=8&num_scrambled_causal=4&num_scrambled_schematic=4&participantId=E3D81837CF21477AB2FC96BBF7F02C9C&assignmentId=0198b9f1-0c74-7af1-b819-09070f5bb2c9&projectId=0198b9d0-29d4-7df3-8625-4b4515841beb","E3D81837CF21477AB2FC96BBF7F02C9C-2025-08-17-22-07-45","","2517","","images/semantic_sequence/housework_semantic/housework_semantic_5.png","0","",""
"","","","","","image-button-response","80","433129","0.0-12.0-1.0-2.7","E3D81837CF21477AB2FC96BBF7F02C9C","E3D81837CF21477AB2FC96BBF7F02C9C","0198b9f1-0c74-7af1-b819-09070f5bb2c9","0198b9d0-29d4-7df3-8625-4b4515841beb","{""num_scrambled_semantic"":""8"",""num_scrambled_causal"":""4"",""num_scrambled_schematic"":""4"",""participantId"":""E3D81837CF21477AB2FC96BBF7F02C9C"",""assignmentId"":""0198b9f1-0c74-7af1-b819-09070f5bb2c9"",""projectId"":""0198b9d0-29d4-7df3-8625-4b4515841beb""}","https://test12345.live/?num_scrambled_semantic=8&num_scrambled_causal=4&num_scrambled_schematic=4&participantId=E3D81837CF21477AB2FC96BBF7F02C9C&assignmentId=0198b9f1-0c74-7af1-b819-09070f5bb2c9&projectId=0198b9d0-29d4-7df3-8625-4b4515841beb","E3D81837CF21477AB2FC96BBF7F02C9C-2025-08-17-22-07-45","","null","","[]","null","",""
"","","","","","image-button-response","81","437636","0.0-12.0-1.0-0.8","E3D81837CF21477AB2FC96BBF7F02C9C","E3D81837CF21477AB2FC96BBF7F02C9C","0198b9f1-0c74-7af1-b819-09070f5bb2c9","0198b9d0-29d4-7df3-8625-4b4515841beb","{""num_scrambled_semantic"":""8"",""num_scrambled_causal"":""4"",""num_scrambled_schematic"":""4"",""participantId"":""E3D81837CF21477AB2FC96BBF7F02C9C"",""assignmentId"":""0198b9f1-0c74-7af1-b819-09070f5bb2c9"",""projectId"":""0198b9d0-29d4-7df3-8625-4b4515841beb""}","https://test12345.live/?num_scrambled_semantic=8&num_scrambled_causal=4&num_scrambled_schematic=4&participantId=E3D81837CF21477AB2FC96BBF7F02C9C&assignmentId=0198b9f1-0c74-7af1-b819-09070f5bb2c9&projectId=0198b9d0-29d4-7df3-8625-4b4515841beb","E3D81837CF21477AB2FC96BBF7F02C9C-2025-08-17-22-07-45","","null","","images/semantic_sequence/housework_semantic/housework_semantic_3.png","null","",""
"","","","","","image-button-response","82","438807","0.0-12.0-1.0-1.8","E3D81837CF21477AB2FC96BBF7F02C9C","E3D81837CF21477AB2FC96BBF7F02C9C","0198b9f1-0c74-7af1-b819-09070f5bb2c9","0198b9d0-29d4-7df3-8625-4b4515841beb","{""num_scrambled_semantic"":""8"",""num_scrambled_causal"":""4"",""num_scrambled_schematic"":""4"",""participantId"":""E3D81837CF21477AB2FC96BBF7F02C9C"",""assignmentId"":""0198b9f1-0c74-7af1-b819-09070f5bb2c9"",""projectId"":""0198b9d0-29d4-7df3-8625-4b4515841beb""}","https://test12345.live/?num_scrambled_semantic=8&num_scrambled_causal=4&num_scrambled_schematic=4&participantId=E3D81837CF21477AB2FC96BBF7F02C9C&assignmentId=0198b9f1-0c74-7af1-b819-09070f5bb2c9&projectId=0198b9d0-29d4-7df3-8625-4b4515841beb","E3D81837CF21477AB2FC96BBF7F02C9C-2025-08-17-22-07-45","","1169","","images/semantic_sequence/housework_semantic/housework_semantic_3.png","0","",""
"","","","","","image-button-response","83","444211","0.0-12.0-1.0-2.8","E3D81837CF21477AB2FC96BBF7F02C9C","E3D81837CF21477AB2FC96BBF7F02C9C","0198b9f1-0c74-7af1-b819-09070f5bb2c9","0198b9d0-29d4-7df3-8625-4b4515841beb","{""num_scrambled_semantic"":""8"",""num_scrambled_causal"":""4"",""num_scrambled_schematic"":""4"",""participantId"":""E3D81837CF21477AB2FC96BBF7F02C9C"",""assignmentId"":""0198b9f1-0c74-7af1-b819-09070f5bb2c9"",""projectId"":""0198b9d0-29d4-7df3-8625-4b4515841beb""}","https://test12345.live/?num_scrambled_semantic=8&num_scrambled_causal=4&num_scrambled_schematic=4&participantId=E3D81837CF21477AB2FC96BBF7F02C9C&assignmentId=0198b9f1-0c74-7af1-b819-09070f5bb2c9&projectId=0198b9d0-29d4-7df3-8625-4b4515841beb","E3D81837CF21477AB2FC96BBF7F02C9C-2025-08-17-22-07-45","","null","","[]","null","",""
"","","","","","image-button-response","84","448715","0.0-12.0-1.0-0.9","E3D81837CF21477AB2FC96BBF7F02C9C","E3D81837CF21477AB2FC96BBF7F02C9C","0198b9f1-0c74-7af1-b819-09070f5bb2c9","0198b9d0-29d4-7df3-8625-4b4515841beb","{""num_scrambled_semantic"":""8"",""num_scrambled_causal"":""4"",""num_scrambled_schematic"":""4"",""participantId"":""E3D81837CF21477AB2FC96BBF7F02C9C"",""assignmentId"":""0198b9f1-0c74-7af1-b819-09070f5bb2c9"",""projectId"":""0198b9d0-29d4-7df3-8625-4b4515841beb""}","https://test12345.live/?num_scrambled_semantic=8&num_scrambled_causal=4&num_scrambled_schematic=4&participantId=E3D81837CF21477AB2FC96BBF7F02C9C&assignmentId=0198b9f1-0c74-7af1-b819-09070f5bb2c9&projectId=0198b9d0-29d4-7df3-8625-4b4515841beb","E3D81837CF21477AB2FC96BBF7F02C9C-2025-08-17-22-07-45","","null","","images/semantic_sequence/housework_semantic/housework_semantic_8.png","null","",""
"","","","","","image-button-response","85","449898","0.0-12.0-1.0-1.9","E3D81837CF21477AB2FC96BBF7F02C9C","E3D81837CF21477AB2FC96BBF7F02C9C","0198b9f1-0c74-7af1-b819-09070f5bb2c9","0198b9d0-29d4-7df3-8625-4b4515841beb","{""num_scrambled_semantic"":""8"",""num_scrambled_causal"":""4"",""num_scrambled_schematic"":""4"",""participantId"":""E3D81837CF21477AB2FC96BBF7F02C9C"",""assignmentId"":""0198b9f1-0c74-7af1-b819-09070f5bb2c9"",""projectId"":""0198b9d0-29d4-7df3-8625-4b4515841beb""}","https://test12345.live/?num_scrambled_semantic=8&num_scrambled_causal=4&num_scrambled_schematic=4&participantId=E3D81837CF21477AB2FC96BBF7F02C9C&assignmentId=0198b9f1-0c74-7af1-b819-09070f5bb2c9&projectId=0198b9d0-29d4-7df3-8625-4b4515841beb","E3D81837CF21477AB2FC96BBF7F02C9C-2025-08-17-22-07-45","","1182","","images/semantic_sequence/housework_semantic/housework_semantic_8.png","0","",""
"","","","","","image-button-response","86","455305","0.0-12.0-1.0-2.9","E3D81837CF21477AB2FC96BBF7F02C9C","E3D81837CF21477AB2FC96BBF7F02C9C","0198b9f1-0c74-7af1-b819-09070f5bb2c9","0198b9d0-29d4-7df3-8625-4b4515841beb","{""num_scrambled_semantic"":""8"",""num_scrambled_causal"":""4"",""num_scrambled_schematic"":""4"",""participantId"":""E3D81837CF21477AB2FC96BBF7F02C9C"",""assignmentId"":""0198b9f1-0c74-7af1-b819-09070f5bb2c9"",""projectId"":""0198b9d0-29d4-7df3-8625-4b4515841beb""}","https://test12345.live/?num_scrambled_semantic=8&num_scrambled_causal=4&num_scrambled_schematic=4&participantId=E3D81837CF21477AB2FC96BBF7F02C9C&assignmentId=0198b9f1-0c74-7af1-b819-09070f5bb2c9&projectId=0198b9d0-29d4-7df3-8625-4b4515841beb","E3D81837CF21477AB2FC96BBF7F02C9C-2025-08-17-22-07-45","","null","","[]","null","",""
"","","","","","html-audio-response","87","474315","0.0-13.0","E3D81837CF21477AB2FC96BBF7F02C9C","E3D81837CF21477AB2FC96BBF7F02C9C","0198b9f1-0c74-7af1-b819-09070f5bb2c9","0198b9d0-29d4-7df3-8625-4b4515841beb","{""num_scrambled_semantic"":""8"",""num_scrambled_causal"":""4"",""num_scrambled_schematic"":""4"",""participantId"":""E3D81837CF21477AB2FC96BBF7F02C9C"",""assignmentId"":""0198b9f1-0c74-7af1-b819-09070f5bb2c9"",""projectId"":""0198b9d0-29d4-7df3-8625-4b4515841beb""}","https://test12345.live/?num_scrambled_semantic=8&num_scrambled_causal=4&num_scrambled_schematic=4&participantId=E3D81837CF21477AB2FC96BBF7F02C9C&assignmentId=0198b9f1-0c74-7af1-b819-09070f5bb2c9&projectId=0198b9d0-29d4-7df3-8625-4b4515841beb","E3D81837CF21477AB2FC96BBF7F02C9C-2025-08-17-22-07-45","","16888","","[""<span style=\""color: red; font-size: 24px\""> NOW RECORDING</span><p>Please say out loud all the images you saw, as many as you can remember. The images can be said in any order.</p>""]","","1","housework_semantic"
"","","","","","image-button-response","88","480316","0.0-14.0-0.0","E3D81837CF21477AB2FC96BBF7F02C9C","E3D81837CF21477AB2FC96BBF7F02C9C","0198b9f1-0c74-7af1-b819-09070f5bb2c9","0198b9d0-29d4-7df3-8625-4b4515841beb","{""num_scrambled_semantic"":""8"",""num_scrambled_causal"":""4"",""num_scrambled_schematic"":""4"",""participantId"":""E3D81837CF21477AB2FC96BBF7F02C9C"",""assignmentId"":""0198b9f1-0c74-7af1-b819-09070f5bb2c9"",""projectId"":""0198b9d0-29d4-7df3-8625-4b4515841beb""}","https://test12345.live/?num_scrambled_semantic=8&num_scrambled_causal=4&num_scrambled_schematic=4&participantId=E3D81837CF21477AB2FC96BBF7F02C9C&assignmentId=0198b9f1-0c74-7af1-b819-09070f5bb2c9&projectId=0198b9d0-29d4-7df3-8625-4b4515841beb","E3D81837CF21477AB2FC96BBF7F02C9C-2025-08-17-22-07-45","","null","","images/semantic_sequence/cat_care_semantic/cat_care_semantic_0.png","null","",""
"","","","","","image-button-response","89","484822","0.0-14.0-1.0-0.0","E3D81837CF21477AB2FC96BBF7F02C9C","E3D81837CF21477AB2FC96BBF7F02C9C","0198b9f1-0c74-7af1-b819-09070f5bb2c9","0198b9d0-29d4-7df3-8625-4b4515841beb","{""num_scrambled_semantic"":""8"",""num_scrambled_causal"":""4"",""num_scrambled_schematic"":""4"",""participantId"":""E3D81837CF21477AB2FC96BBF7F02C9C"",""assignmentId"":""0198b9f1-0c74-7af1-b819-09070f5bb2c9"",""projectId"":""0198b9d0-29d4-7df3-8625-4b4515841beb""}","https://test12345.live/?num_scrambled_semantic=8&num_scrambled_causal=4&num_scrambled_schematic=4&participantId=E3D81837CF21477AB2FC96BBF7F02C9C&assignmentId=0198b9f1-0c74-7af1-b819-09070f5bb2c9&projectId=0198b9d0-29d4-7df3-8625-4b4515841beb","E3D81837CF21477AB2FC96BBF7F02C9C-2025-08-17-22-07-45","","null","","images/semantic_sequence/cat_care_semantic/cat_care_semantic_4.png","null","",""
"","","","","","image-button-response","90","486814","0.0-14.0-1.0-1.0","E3D81837CF21477AB2FC96BBF7F02C9C","E3D81837CF21477AB2FC96BBF7F02C9C","0198b9f1-0c74-7af1-b819-09070f5bb2c9","0198b9d0-29d4-7df3-8625-4b4515841beb","{""num_scrambled_semantic"":""8"",""num_scrambled_causal"":""4"",""num_scrambled_schematic"":""4"",""participantId"":""E3D81837CF21477AB2FC96BBF7F02C9C"",""assignmentId"":""0198b9f1-0c74-7af1-b819-09070f5bb2c9"",""projectId"":""0198b9d0-29d4-7df3-8625-4b4515841beb""}","https://test12345.live/?num_scrambled_semantic=8&num_scrambled_causal=4&num_scrambled_schematic=4&participantId=E3D81837CF21477AB2FC96BBF7F02C9C&assignmentId=0198b9f1-0c74-7af1-b819-09070f5bb2c9&projectId=0198b9d0-29d4-7df3-8625-4b4515841beb","E3D81837CF21477AB2FC96BBF7F02C9C-2025-08-17-22-07-45","","1991","","images/semantic_sequence/cat_care_semantic/cat_care_semantic_4.png","0","",""
"","","","","","image-button-response","91","492221","0.0-14.0-1.0-2.0","E3D81837CF21477AB2FC96BBF7F02C9C","E3D81837CF21477AB2FC96BBF7F02C9C","0198b9f1-0c74-7af1-b819-09070f5bb2c9","0198b9d0-29d4-7df3-8625-4b4515841beb","{""num_scrambled_semantic"":""8"",""num_scrambled_causal"":""4"",""num_scrambled_schematic"":""4"",""participantId"":""E3D81837CF21477AB2FC96BBF7F02C9C"",""assignmentId"":""0198b9f1-0c74-7af1-b819-09070f5bb2c9"",""projectId"":""0198b9d0-29d4-7df3-8625-4b4515841beb""}","https://test12345.live/?num_scrambled_semantic=8&num_scrambled_causal=4&num_scrambled_schematic=4&participantId=E3D81837CF21477AB2FC96BBF7F02C9C&assignmentId=0198b9f1-0c74-7af1-b819-09070f5bb2c9&projectId=0198b9d0-29d4-7df3-8625-4b4515841beb","E3D81837CF21477AB2FC96BBF7F02C9C-2025-08-17-22-07-45","","null","","[]","null","",""
"","","","","","image-button-response","92","496726","0.0-14.0-1.0-0.1","E3D81837CF21477AB2FC96BBF7F02C9C","E3D81837CF21477AB2FC96BBF7F02C9C","0198b9f1-0c74-7af1-b819-09070f5bb2c9","0198b9d0-29d4-7df3-8625-4b4515841beb","{""num_scrambled_semantic"":""8"",""num_scrambled_causal"":""4"",""num_scrambled_schematic"":""4"",""participantId"":""E3D81837CF21477AB2FC96BBF7F02C9C"",""assignmentId"":""0198b9f1-0c74-7af1-b819-09070f5bb2c9"",""projectId"":""0198b9d0-29d4-7df3-8625-4b4515841beb""}","https://test12345.live/?num_scrambled_semantic=8&num_scrambled_causal=4&num_scrambled_schematic=4&participantId=E3D81837CF21477AB2FC96BBF7F02C9C&assignmentId=0198b9f1-0c74-7af1-b819-09070f5bb2c9&projectId=0198b9d0-29d4-7df3-8625-4b4515841beb","E3D81837CF21477AB2FC96BBF7F02C9C-2025-08-17-22-07-45","","null","","images/semantic_sequence/cat_care_semantic/cat_care_semantic_ten.png","null","",""
"","","","","","image-button-response","93","497713","0.0-14.0-1.0-1.1","E3D81837CF21477AB2FC96BBF7F02C9C","E3D81837CF21477AB2FC96BBF7F02C9C","0198b9f1-0c74-7af1-b819-09070f5bb2c9","0198b9d0-29d4-7df3-8625-4b4515841beb","{""num_scrambled_semantic"":""8"",""num_scrambled_causal"":""4"",""num_scrambled_schematic"":""4"",""participantId"":""E3D81837CF21477AB2FC96BBF7F02C9C"",""assignmentId"":""0198b9f1-0c74-7af1-b819-09070f5bb2c9"",""projectId"":""0198b9d0-29d4-7df3-8625-4b4515841beb""}","https://test12345.live/?num_scrambled_semantic=8&num_scrambled_causal=4&num_scrambled_schematic=4&participantId=E3D81837CF21477AB2FC96BBF7F02C9C&assignmentId=0198b9f1-0c74-7af1-b819-09070f5bb2c9&projectId=0198b9d0-29d4-7df3-8625-4b4515841beb","E3D81837CF21477AB2FC96BBF7F02C9C-2025-08-17-22-07-45","","984","","images/semantic_sequence/cat_care_semantic/cat_care_semantic_ten.png","1","",""
"","","","","","image-button-response","94","503119","0.0-14.0-1.0-2.1","E3D81837CF21477AB2FC96BBF7F02C9C","E3D81837CF21477AB2FC96BBF7F02C9C","0198b9f1-0c74-7af1-b819-09070f5bb2c9","0198b9d0-29d4-7df3-8625-4b4515841beb","{""num_scrambled_semantic"":""8"",""num_scrambled_causal"":""4"",""num_scrambled_schematic"":""4"",""participantId"":""E3D81837CF21477AB2FC96BBF7F02C9C"",""assignmentId"":""0198b9f1-0c74-7af1-b819-09070f5bb2c9"",""projectId"":""0198b9d0-29d4-7df3-8625-4b4515841beb""}","https://test12345.live/?num_scrambled_semantic=8&num_scrambled_causal=4&num_scrambled_schematic=4&participantId=E3D81837CF21477AB2FC96BBF7F02C9C&assignmentId=0198b9f1-0c74-7af1-b819-09070f5bb2c9&projectId=0198b9d0-29d4-7df3-8625-4b4515841beb","E3D81837CF21477AB2FC96BBF7F02C9C-2025-08-17-22-07-45","","null","","[]","null","",""
"","","","","","image-button-response","95","507625","0.0-14.0-1.0-0.2","E3D81837CF21477AB2FC96BBF7F02C9C","E3D81837CF21477AB2FC96BBF7F02C9C","0198b9f1-0c74-7af1-b819-09070f5bb2c9","0198b9d0-29d4-7df3-8625-4b4515841beb","{""num_scrambled_semantic"":""8"",""num_scrambled_causal"":""4"",""num_scrambled_schematic"":""4"",""participantId"":""E3D81837CF21477AB2FC96BBF7F02C9C"",""assignmentId"":""0198b9f1-0c74-7af1-b819-09070f5bb2c9"",""projectId"":""0198b9d0-29d4-7df3-8625-4b4515841beb""}","https://test12345.live/?num_scrambled_semantic=8&num_scrambled_causal=4&num_scrambled_schematic=4&participantId=E3D81837CF21477AB2FC96BBF7F02C9C&assignmentId=0198b9f1-0c74-7af1-b819-09070f5bb2c9&projectId=0198b9d0-29d4-7df3-8625-4b4515841beb","E3D81837CF21477AB2FC96BBF7F02C9C-2025-08-17-22-07-45","","null","","images/semantic_sequence/cat_care_semantic/cat_care_semantic_5.png","null","",""
"","","","","","image-button-response","96","509705","0.0-14.0-1.0-1.2","E3D81837CF21477AB2FC96BBF7F02C9C","E3D81837CF21477AB2FC96BBF7F02C9C","0198b9f1-0c74-7af1-b819-09070f5bb2c9","0198b9d0-29d4-7df3-8625-4b4515841beb","{""num_scrambled_semantic"":""8"",""num_scrambled_causal"":""4"",""num_scrambled_schematic"":""4"",""participantId"":""E3D81837CF21477AB2FC96BBF7F02C9C"",""assignmentId"":""0198b9f1-0c74-7af1-b819-09070f5bb2c9"",""projectId"":""0198b9d0-29d4-7df3-8625-4b4515841beb""}","https://test12345.live/?num_scrambled_semantic=8&num_scrambled_causal=4&num_scrambled_schematic=4&participantId=E3D81837CF21477AB2FC96BBF7F02C9C&assignmentId=0198b9f1-0c74-7af1-b819-09070f5bb2c9&projectId=0198b9d0-29d4-7df3-8625-4b4515841beb","E3D81837CF21477AB2FC96BBF7F02C9C-2025-08-17-22-07-45","","2079","","images/semantic_sequence/cat_care_semantic/cat_care_semantic_5.png","0","",""
"","","","","","image-button-response","97","515111","0.0-14.0-1.0-2.2","E3D81837CF21477AB2FC96BBF7F02C9C","E3D81837CF21477AB2FC96BBF7F02C9C","0198b9f1-0c74-7af1-b819-09070f5bb2c9","0198b9d0-29d4-7df3-8625-4b4515841beb","{""num_scrambled_semantic"":""8"",""num_scrambled_causal"":""4"",""num_scrambled_schematic"":""4"",""participantId"":""E3D81837CF21477AB2FC96BBF7F02C9C"",""assignmentId"":""0198b9f1-0c74-7af1-b819-09070f5bb2c9"",""projectId"":""0198b9d0-29d4-7df3-8625-4b4515841beb""}","https://test12345.live/?num_scrambled_semantic=8&num_scrambled_causal=4&num_scrambled_schematic=4&participantId=E3D81837CF21477AB2FC96BBF7F02C9C&assignmentId=0198b9f1-0c74-7af1-b819-09070f5bb2c9&projectId=0198b9d0-29d4-7df3-8625-4b4515841beb","E3D81837CF21477AB2FC96BBF7F02C9C-2025-08-17-22-07-45","","null","","[]","null","",""
"","","","","","image-button-response","98","519617","0.0-14.0-1.0-0.3","E3D81837CF21477AB2FC96BBF7F02C9C","E3D81837CF21477AB2FC96BBF7F02C9C","0198b9f1-0c74-7af1-b819-09070f5bb2c9","0198b9d0-29d4-7df3-8625-4b4515841beb","{""num_scrambled_semantic"":""8"",""num_scrambled_causal"":""4"",""num_scrambled_schematic"":""4"",""participantId"":""E3D81837CF21477AB2FC96BBF7F02C9C"",""assignmentId"":""0198b9f1-0c74-7af1-b819-09070f5bb2c9"",""projectId"":""0198b9d0-29d4-7df3-8625-4b4515841beb""}","https://test12345.live/?num_scrambled_semantic=8&num_scrambled_causal=4&num_scrambled_schematic=4&participantId=E3D81837CF21477AB2FC96BBF7F02C9C&assignmentId=0198b9f1-0c74-7af1-b819-09070f5bb2c9&projectId=0198b9d0-29d4-7df3-8625-4b4515841beb","E3D81837CF21477AB2FC96BBF7F02C9C-2025-08-17-22-07-45","","null","","images/semantic_sequence/cat_care_semantic/cat_care_semantic_2.png","null","",""
"","","","","","image-button-response","99","521221","0.0-14.0-1.0-1.3","E3D81837CF21477AB2FC96BBF7F02C9C","E3D81837CF21477AB2FC96BBF7F02C9C","0198b9f1-0c74-7af1-b819-09070f5bb2c9","0198b9d0-29d4-7df3-8625-4b4515841beb","{""num_scrambled_semantic"":""8"",""num_scrambled_causal"":""4"",""num_scrambled_schematic"":""4"",""participantId"":""E3D81837CF21477AB2FC96BBF7F02C9C"",""assignmentId"":""0198b9f1-0c74-7af1-b819-09070f5bb2c9"",""projectId"":""0198b9d0-29d4-7df3-8625-4b4515841beb""}","https://test12345.live/?num_scrambled_semantic=8&num_scrambled_causal=4&num_scrambled_schematic=4&participantId=E3D81837CF21477AB2FC96BBF7F02C9C&assignmentId=0198b9f1-0c74-7af1-b819-09070f5bb2c9&projectId=0198b9d0-29d4-7df3-8625-4b4515841beb","E3D81837CF21477AB2FC96BBF7F02C9C-2025-08-17-22-07-45","","1602","","images/semantic_sequence/cat_care_semantic/cat_care_semantic_2.png","0","",""
"","","","","","image-button-response","100","526627","0.0-14.0-1.0-2.3","E3D81837CF21477AB2FC96BBF7F02C9C","E3D81837CF21477AB2FC96BBF7F02C9C","0198b9f1-0c74-7af1-b819-09070f5bb2c9","0198b9d0-29d4-7df3-8625-4b4515841beb","{""num_scrambled_semantic"":""8"",""num_scrambled_causal"":""4"",""num_scrambled_schematic"":""4"",""participantId"":""E3D81837CF21477AB2FC96BBF7F02C9C"",""assignmentId"":""0198b9f1-0c74-7af1-b819-09070f5bb2c9"",""projectId"":""0198b9d0-29d4-7df3-8625-4b4515841beb""}","https://test12345.live/?num_scrambled_semantic=8&num_scrambled_causal=4&num_scrambled_schematic=4&participantId=E3D81837CF21477AB2FC96BBF7F02C9C&assignmentId=0198b9f1-0c74-7af1-b819-09070f5bb2c9&projectId=0198b9d0-29d4-7df3-8625-4b4515841beb","E3D81837CF21477AB2FC96BBF7F02C9C-2025-08-17-22-07-45","","null","","[]","null","",""
"","","","","","image-button-response","101","531134","0.0-14.0-1.0-0.4","E3D81837CF21477AB2FC96BBF7F02C9C","E3D81837CF21477AB2FC96BBF7F02C9C","0198b9f1-0c74-7af1-b819-09070f5bb2c9","0198b9d0-29d4-7df3-8625-4b4515841beb","{""num_scrambled_semantic"":""8"",""num_scrambled_causal"":""4"",""num_scrambled_schematic"":""4"",""participantId"":""E3D81837CF21477AB2FC96BBF7F02C9C"",""assignmentId"":""0198b9f1-0c74-7af1-b819-09070f5bb2c9"",""projectId"":""0198b9d0-29d4-7df3-8625-4b4515841beb""}","https://test12345.live/?num_scrambled_semantic=8&num_scrambled_causal=4&num_scrambled_schematic=4&participantId=E3D81837CF21477AB2FC96BBF7F02C9C&assignmentId=0198b9f1-0c74-7af1-b819-09070f5bb2c9&projectId=0198b9d0-29d4-7df3-8625-4b4515841beb","E3D81837CF21477AB2FC96BBF7F02C9C-2025-08-17-22-07-45","","null","","images/semantic_sequence/cat_care_semantic/cat_care_semantic_1.png","null","",""
"","","","","","image-button-response","102","533719","0.0-14.0-1.0-1.4","E3D81837CF21477AB2FC96BBF7F02C9C","E3D81837CF21477AB2FC96BBF7F02C9C","0198b9f1-0c74-7af1-b819-09070f5bb2c9","0198b9d0-29d4-7df3-8625-4b4515841beb","{""num_scrambled_semantic"":""8"",""num_scrambled_causal"":""4"",""num_scrambled_schematic"":""4"",""participantId"":""E3D81837CF21477AB2FC96BBF7F02C9C"",""assignmentId"":""0198b9f1-0c74-7af1-b819-09070f5bb2c9"",""projectId"":""0198b9d0-29d4-7df3-8625-4b4515841beb""}","https://test12345.live/?num_scrambled_semantic=8&num_scrambled_causal=4&num_scrambled_schematic=4&participantId=E3D81837CF21477AB2FC96BBF7F02C9C&assignmentId=0198b9f1-0c74-7af1-b819-09070f5bb2c9&projectId=0198b9d0-29d4-7df3-8625-4b4515841beb","E3D81837CF21477AB2FC96BBF7F02C9C-2025-08-17-22-07-45","","2584","","images/semantic_sequence/cat_care_semantic/cat_care_semantic_1.png","0","",""
"","","","","","image-button-response","103","539124","0.0-14.0-1.0-2.4","E3D81837CF21477AB2FC96BBF7F02C9C","E3D81837CF21477AB2FC96BBF7F02C9C","0198b9f1-0c74-7af1-b819-09070f5bb2c9","0198b9d0-29d4-7df3-8625-4b4515841beb","{""num_scrambled_semantic"":""8"",""num_scrambled_causal"":""4"",""num_scrambled_schematic"":""4"",""participantId"":""E3D81837CF21477AB2FC96BBF7F02C9C"",""assignmentId"":""0198b9f1-0c74-7af1-b819-09070f5bb2c9"",""projectId"":""0198b9d0-29d4-7df3-8625-4b4515841beb""}","https://test12345.live/?num_scrambled_semantic=8&num_scrambled_causal=4&num_scrambled_schematic=4&participantId=E3D81837CF21477AB2FC96BBF7F02C9C&assignmentId=0198b9f1-0c74-7af1-b819-09070f5bb2c9&projectId=0198b9d0-29d4-7df3-8625-4b4515841beb","E3D81837CF21477AB2FC96BBF7F02C9C-2025-08-17-22-07-45","","null","","[]","null","",""
"","","","","","image-button-response","104","543630","0.0-14.0-1.0-0.5","E3D81837CF21477AB2FC96BBF7F02C9C","E3D81837CF21477AB2FC96BBF7F02C9C","0198b9f1-0c74-7af1-b819-09070f5bb2c9","0198b9d0-29d4-7df3-8625-4b4515841beb","{""num_scrambled_semantic"":""8"",""num_scrambled_causal"":""4"",""num_scrambled_schematic"":""4"",""participantId"":""E3D81837CF21477AB2FC96BBF7F02C9C"",""assignmentId"":""0198b9f1-0c74-7af1-b819-09070f5bb2c9"",""projectId"":""0198b9d0-29d4-7df3-8625-4b4515841beb""}","https://test12345.live/?num_scrambled_semantic=8&num_scrambled_causal=4&num_scrambled_schematic=4&participantId=E3D81837CF21477AB2FC96BBF7F02C9C&assignmentId=0198b9f1-0c74-7af1-b819-09070f5bb2c9&projectId=0198b9d0-29d4-7df3-8625-4b4515841beb","E3D81837CF21477AB2FC96BBF7F02C9C-2025-08-17-22-07-45","","null","","images/semantic_sequence/cat_care_semantic/cat_care_semantic_7.png","null","",""
"","","","","","image-button-response","105","545893","0.0-14.0-1.0-1.5","E3D81837CF21477AB2FC96BBF7F02C9C","E3D81837CF21477AB2FC96BBF7F02C9C","0198b9f1-0c74-7af1-b819-09070f5bb2c9","0198b9d0-29d4-7df3-8625-4b4515841beb","{""num_scrambled_semantic"":""8"",""num_scrambled_causal"":""4"",""num_scrambled_schematic"":""4"",""participantId"":""E3D81837CF21477AB2FC96BBF7F02C9C"",""assignmentId"":""0198b9f1-0c74-7af1-b819-09070f5bb2c9"",""projectId"":""0198b9d0-29d4-7df3-8625-4b4515841beb""}","https://test12345.live/?num_scrambled_semantic=8&num_scrambled_causal=4&num_scrambled_schematic=4&participantId=E3D81837CF21477AB2FC96BBF7F02C9C&assignmentId=0198b9f1-0c74-7af1-b819-09070f5bb2c9&projectId=0198b9d0-29d4-7df3-8625-4b4515841beb","E3D81837CF21477AB2FC96BBF7F02C9C-2025-08-17-22-07-45","","2260","","images/semantic_sequence/cat_care_semantic/cat_care_semantic_7.png","0","",""
"","","","","","image-button-response","106","551295","0.0-14.0-1.0-2.5","E3D81837CF21477AB2FC96BBF7F02C9C","E3D81837CF21477AB2FC96BBF7F02C9C","0198b9f1-0c74-7af1-b819-09070f5bb2c9","0198b9d0-29d4-7df3-8625-4b4515841beb","{""num_scrambled_semantic"":""8"",""num_scrambled_causal"":""4"",""num_scrambled_schematic"":""4"",""participantId"":""E3D81837CF21477AB2FC96BBF7F02C9C"",""assignmentId"":""0198b9f1-0c74-7af1-b819-09070f5bb2c9"",""projectId"":""0198b9d0-29d4-7df3-8625-4b4515841beb""}","https://test12345.live/?num_scrambled_semantic=8&num_scrambled_causal=4&num_scrambled_schematic=4&participantId=E3D81837CF21477AB2FC96BBF7F02C9C&assignmentId=0198b9f1-0c74-7af1-b819-09070f5bb2c9&projectId=0198b9d0-29d4-7df3-8625-4b4515841beb","E3D81837CF21477AB2FC96BBF7F02C9C-2025-08-17-22-07-45","","null","","[]","null","",""
"","","","","","image-button-response","107","555801","0.0-14.0-1.0-0.6","E3D81837CF21477AB2FC96BBF7F02C9C","E3D81837CF21477AB2FC96BBF7F02C9C","0198b9f1-0c74-7af1-b819-09070f5bb2c9","0198b9d0-29d4-7df3-8625-4b4515841beb","{""num_scrambled_semantic"":""8"",""num_scrambled_causal"":""4"",""num_scrambled_schematic"":""4"",""participantId"":""E3D81837CF21477AB2FC96BBF7F02C9C"",""assignmentId"":""0198b9f1-0c74-7af1-b819-09070f5bb2c9"",""projectId"":""0198b9d0-29d4-7df3-8625-4b4515841beb""}","https://test12345.live/?num_scrambled_semantic=8&num_scrambled_causal=4&num_scrambled_schematic=4&participantId=E3D81837CF21477AB2FC96BBF7F02C9C&assignmentId=0198b9f1-0c74-7af1-b819-09070f5bb2c9&projectId=0198b9d0-29d4-7df3-8625-4b4515841beb","E3D81837CF21477AB2FC96BBF7F02C9C-2025-08-17-22-07-45","","null","","images/semantic_sequence/cat_care_semantic/cat_care_semantic_6.png","null","",""
"","","","","","image-button-response","108","557499","0.0-14.0-1.0-1.6","E3D81837CF21477AB2FC96BBF7F02C9C","E3D81837CF21477AB2FC96BBF7F02C9C","0198b9f1-0c74-7af1-b819-09070f5bb2c9","0198b9d0-29d4-7df3-8625-4b4515841beb","{""num_scrambled_semantic"":""8"",""num_scrambled_causal"":""4"",""num_scrambled_schematic"":""4"",""participantId"":""E3D81837CF21477AB2FC96BBF7F02C9C"",""assignmentId"":""0198b9f1-0c74-7af1-b819-09070f5bb2c9"",""projectId"":""0198b9d0-29d4-7df3-8625-4b4515841beb""}","https://test12345.live/?num_scrambled_semantic=8&num_scrambled_causal=4&num_scrambled_schematic=4&participantId=E3D81837CF21477AB2FC96BBF7F02C9C&assignmentId=0198b9f1-0c74-7af1-b819-09070f5bb2c9&projectId=0198b9d0-29d4-7df3-8625-4b4515841beb","E3D81837CF21477AB2FC96BBF7F02C9C-2025-08-17-22-07-45","","1696","","images/semantic_sequence/cat_care_semantic/cat_care_semantic_6.png","0","",""
"","","","","","image-button-response","109","562904","0.0-14.0-1.0-2.6","E3D81837CF21477AB2FC96BBF7F02C9C","E3D81837CF21477AB2FC96BBF7F02C9C","0198b9f1-0c74-7af1-b819-09070f5bb2c9","0198b9d0-29d4-7df3-8625-4b4515841beb","{""num_scrambled_semantic"":""8"",""num_scrambled_causal"":""4"",""num_scrambled_schematic"":""4"",""participantId"":""E3D81837CF21477AB2FC96BBF7F02C9C"",""assignmentId"":""0198b9f1-0c74-7af1-b819-09070f5bb2c9"",""projectId"":""0198b9d0-29d4-7df3-8625-4b4515841beb""}","https://test12345.live/?num_scrambled_semantic=8&num_scrambled_causal=4&num_scrambled_schematic=4&participantId=E3D81837CF21477AB2FC96BBF7F02C9C&assignmentId=0198b9f1-0c74-7af1-b819-09070f5bb2c9&projectId=0198b9d0-29d4-7df3-8625-4b4515841beb","E3D81837CF21477AB2FC96BBF7F02C9C-2025-08-17-22-07-45","","null","","[]","null","",""
"","","","","","image-button-response","110","567409","0.0-14.0-1.0-0.7","E3D81837CF21477AB2FC96BBF7F02C9C","E3D81837CF21477AB2FC96BBF7F02C9C","0198b9f1-0c74-7af1-b819-09070f5bb2c9","0198b9d0-29d4-7df3-8625-4b4515841beb","{""num_scrambled_semantic"":""8"",""num_scrambled_causal"":""4"",""num_scrambled_schematic"":""4"",""participantId"":""E3D81837CF21477AB2FC96BBF7F02C9C"",""assignmentId"":""0198b9f1-0c74-7af1-b819-09070f5bb2c9"",""projectId"":""0198b9d0-29d4-7df3-8625-4b4515841beb""}","https://test12345.live/?num_scrambled_semantic=8&num_scrambled_causal=4&num_scrambled_schematic=4&participantId=E3D81837CF21477AB2FC96BBF7F02C9C&assignmentId=0198b9f1-0c74-7af1-b819-09070f5bb2c9&projectId=0198b9d0-29d4-7df3-8625-4b4515841beb","E3D81837CF21477AB2FC96BBF7F02C9C-2025-08-17-22-07-45","","null","","images/semantic_sequence/cat_care_semantic/cat_care_semantic_9.png","null","",""
"","","","","","image-button-response","111","568669","0.0-14.0-1.0-1.7","E3D81837CF21477AB2FC96BBF7F02C9C","E3D81837CF21477AB2FC96BBF7F02C9C","0198b9f1-0c74-7af1-b819-09070f5bb2c9","0198b9d0-29d4-7df3-8625-4b4515841beb","{""num_scrambled_semantic"":""8"",""num_scrambled_causal"":""4"",""num_scrambled_schematic"":""4"",""participantId"":""E3D81837CF21477AB2FC96BBF7F02C9C"",""assignmentId"":""0198b9f1-0c74-7af1-b819-09070f5bb2c9"",""projectId"":""0198b9d0-29d4-7df3-8625-4b4515841beb""}","https://test12345.live/?num_scrambled_semantic=8&num_scrambled_causal=4&num_scrambled_schematic=4&participantId=E3D81837CF21477AB2FC96BBF7F02C9C&assignmentId=0198b9f1-0c74-7af1-b819-09070f5bb2c9&projectId=0198b9d0-29d4-7df3-8625-4b4515841beb","E3D81837CF21477AB2FC96BBF7F02C9C-2025-08-17-22-07-45","","1259","","images/semantic_sequence/cat_care_semantic/cat_care_semantic_9.png","0","",""
"","","","","","image-button-response","112","574071","0.0-14.0-1.0-2.7","E3D81837CF21477AB2FC96BBF7F02C9C","E3D81837CF21477AB2FC96BBF7F02C9C","0198b9f1-0c74-7af1-b819-09070f5bb2c9","0198b9d0-29d4-7df3-8625-4b4515841beb","{""num_scrambled_semantic"":""8"",""num_scrambled_causal"":""4"",""num_scrambled_schematic"":""4"",""participantId"":""E3D81837CF21477AB2FC96BBF7F02C9C"",""assignmentId"":""0198b9f1-0c74-7af1-b819-09070f5bb2c9"",""projectId"":""0198b9d0-29d4-7df3-8625-4b4515841beb""}","https://test12345.live/?num_scrambled_semantic=8&num_scrambled_causal=4&num_scrambled_schematic=4&participantId=E3D81837CF21477AB2FC96BBF7F02C9C&assignmentId=0198b9f1-0c74-7af1-b819-09070f5bb2c9&projectId=0198b9d0-29d4-7df3-8625-4b4515841beb","E3D81837CF21477AB2FC96BBF7F02C9C-2025-08-17-22-07-45","","null","","[]","null","",""
"","","","","","image-button-response","113","578579","0.0-14.0-1.0-0.8","E3D81837CF21477AB2FC96BBF7F02C9C","E3D81837CF21477AB2FC96BBF7F02C9C","0198b9f1-0c74-7af1-b819-09070f5bb2c9","0198b9d0-29d4-7df3-8625-4b4515841beb","{""num_scrambled_semantic"":""8"",""num_scrambled_causal"":""4"",""num_scrambled_schematic"":""4"",""participantId"":""E3D81837CF21477AB2FC96BBF7F02C9C"",""assignmentId"":""0198b9f1-0c74-7af1-b819-09070f5bb2c9"",""projectId"":""0198b9d0-29d4-7df3-8625-4b4515841beb""}","https://test12345.live/?num_scrambled_semantic=8&num_scrambled_causal=4&num_scrambled_schematic=4&participantId=E3D81837CF21477AB2FC96BBF7F02C9C&assignmentId=0198b9f1-0c74-7af1-b819-09070f5bb2c9&projectId=0198b9d0-29d4-7df3-8625-4b4515841beb","E3D81837CF21477AB2FC96BBF7F02C9C-2025-08-17-22-07-45","","null","","images/semantic_sequence/cat_care_semantic/cat_care_semantic_8.png","null","",""
"","","","","","image-button-response","114","580437","0.0-14.0-1.0-1.8","E3D81837CF21477AB2FC96BBF7F02C9C","E3D81837CF21477AB2FC96BBF7F02C9C","0198b9f1-0c74-7af1-b819-09070f5bb2c9","0198b9d0-29d4-7df3-8625-4b4515841beb","{""num_scrambled_semantic"":""8"",""num_scrambled_causal"":""4"",""num_scrambled_schematic"":""4"",""participantId"":""E3D81837CF21477AB2FC96BBF7F02C9C"",""assignmentId"":""0198b9f1-0c74-7af1-b819-09070f5bb2c9"",""projectId"":""0198b9d0-29d4-7df3-8625-4b4515841beb""}","https://test12345.live/?num_scrambled_semantic=8&num_scrambled_causal=4&num_scrambled_schematic=4&participantId=E3D81837CF21477AB2FC96BBF7F02C9C&assignmentId=0198b9f1-0c74-7af1-b819-09070f5bb2c9&projectId=0198b9d0-29d4-7df3-8625-4b4515841beb","E3D81837CF21477AB2FC96BBF7F02C9C-2025-08-17-22-07-45","","1856","","images/semantic_sequence/cat_care_semantic/cat_care_semantic_8.png","0","",""
