"success","timeout","failed_images","failed_audio","failed_video","trial_type","trial_index","time_elapsed","internal_node_id","subject","subject_id","study_id","session_id","urlvar","current_url","audio_id","view_history","rt","device_id","stimulus","response","estimated_stimulus_onset","seq_name"
"true","false","[]","[]","[]","preload","0","371","0.0-0.0","E428B0F28E6C4535BD63256321774F23","E428B0F28E6C4535BD63256321774F23","732c8160-bd69-4826-8235-5bec87ddd577","051c06f1-75cc-4548-856d-4923ddaba0dc","{""num_scrambled_semantic"":""8"",""num_scrambled_causal"":""4"",""num_scrambled_schematic"":""4"",""participantId"":""E428B0F28E6C4535BD63256321774F23"",""assignmentId"":""732c8160-bd69-4826-8235-5bec87ddd577"",""projectId"":""051c06f1-75cc-4548-856d-4923ddaba0dc""}","https://test12345.live/?num_scrambled_semantic=8&num_scrambled_causal=4&num_scrambled_schematic=4&participantId=E428B0F28E6C4535BD63256321774F23&assignmentId=732c8160-bd69-4826-8235-5bec87ddd577&projectId=051c06f1-75cc-4548-856d-4923ddaba0dc","E428B0F28E6C4535BD63256321774F23-2025-05-15-19-23-40","","","","","","",""
"","","","","","instructions","1","7377","0.0-1.0","E428B0F28E6C4535BD63256321774F23","E428B0F28E6C4535BD63256321774F23","732c8160-bd69-4826-8235-5bec87ddd577","051c06f1-75cc-4548-856d-4923ddaba0dc","{""num_scrambled_semantic"":""8"",""num_scrambled_causal"":""4"",""num_scrambled_schematic"":""4"",""participantId"":""E428B0F28E6C4535BD63256321774F23"",""assignmentId"":""732c8160-bd69-4826-8235-5bec87ddd577"",""projectId"":""051c06f1-75cc-4548-856d-4923ddaba0dc""}","https://test12345.live/?num_scrambled_semantic=8&num_scrambled_causal=4&num_scrambled_schematic=4&participantId=E428B0F28E6C4535BD63256321774F23&assignmentId=732c8160-bd69-4826-8235-5bec87ddd577&projectId=051c06f1-75cc-4548-856d-4923ddaba0dc","E428B0F28E6C4535BD63256321774F23-2025-05-15-19-23-40","[{""page_index"":0,""viewing_time"":7005}]","7005","","","","",""
"","","","","","instructions","2","9512","0.0-2.0","E428B0F28E6C4535BD63256321774F23","E428B0F28E6C4535BD63256321774F23","732c8160-bd69-4826-8235-5bec87ddd577","051c06f1-75cc-4548-856d-4923ddaba0dc","{""num_scrambled_semantic"":""8"",""num_scrambled_causal"":""4"",""num_scrambled_schematic"":""4"",""participantId"":""E428B0F28E6C4535BD63256321774F23"",""assignmentId"":""732c8160-bd69-4826-8235-5bec87ddd577"",""projectId"":""051c06f1-75cc-4548-856d-4923ddaba0dc""}","https://test12345.live/?num_scrambled_semantic=8&num_scrambled_causal=4&num_scrambled_schematic=4&participantId=E428B0F28E6C4535BD63256321774F23&assignmentId=732c8160-bd69-4826-8235-5bec87ddd577&projectId=051c06f1-75cc-4548-856d-4923ddaba0dc","E428B0F28E6C4535BD63256321774F23-2025-05-15-19-23-40","[{""page_index"":0,""viewing_time"":2135}]","2135","","","","",""
"true","","","","","fullscreen","3","12225","0.0-3.0","E428B0F28E6C4535BD63256321774F23","E428B0F28E6C4535BD63256321774F23","732c8160-bd69-4826-8235-5bec87ddd577","051c06f1-75cc-4548-856d-4923ddaba0dc","{""num_scrambled_semantic"":""8"",""num_scrambled_causal"":""4"",""num_scrambled_schematic"":""4"",""participantId"":""E428B0F28E6C4535BD63256321774F23"",""assignmentId"":""732c8160-bd69-4826-8235-5bec87ddd577"",""projectId"":""051c06f1-75cc-4548-856d-4923ddaba0dc""}","https://test12345.live/?num_scrambled_semantic=8&num_scrambled_causal=4&num_scrambled_schematic=4&participantId=E428B0F28E6C4535BD63256321774F23&assignmentId=732c8160-bd69-4826-8235-5bec87ddd577&projectId=051c06f1-75cc-4548-856d-4923ddaba0dc","E428B0F28E6C4535BD63256321774F23-2025-05-15-19-23-40","","1712","","","","",""
"","","","","","initialize-microphone","4","14660","0.0-4.0-0.0","E428B0F28E6C4535BD63256321774F23","E428B0F28E6C4535BD63256321774F23","732c8160-bd69-4826-8235-5bec87ddd577","051c06f1-75cc-4548-856d-4923ddaba0dc","{""num_scrambled_semantic"":""8"",""num_scrambled_causal"":""4"",""num_scrambled_schematic"":""4"",""participantId"":""E428B0F28E6C4535BD63256321774F23"",""assignmentId"":""732c8160-bd69-4826-8235-5bec87ddd577"",""projectId"":""051c06f1-75cc-4548-856d-4923ddaba0dc""}","https://test12345.live/?num_scrambled_semantic=8&num_scrambled_causal=4&num_scrambled_schematic=4&participantId=E428B0F28E6C4535BD63256321774F23&assignmentId=732c8160-bd69-4826-8235-5bec87ddd577&projectId=051c06f1-75cc-4548-856d-4923ddaba0dc","E428B0F28E6C4535BD63256321774F23-2025-05-15-19-23-40","","","3d0f4b02e0410980e9a415c80fdadde4918f4e152a3861a1505f55ca09b3c8f9","","","",""
"","","","","","html-audio-response","5","24304","0.0-4.0-1.0","E428B0F28E6C4535BD63256321774F23","E428B0F28E6C4535BD63256321774F23","732c8160-bd69-4826-8235-5bec87ddd577","051c06f1-75cc-4548-856d-4923ddaba0dc","{""num_scrambled_semantic"":""8"",""num_scrambled_causal"":""4"",""num_scrambled_schematic"":""4"",""participantId"":""E428B0F28E6C4535BD63256321774F23"",""assignmentId"":""732c8160-bd69-4826-8235-5bec87ddd577"",""projectId"":""051c06f1-75cc-4548-856d-4923ddaba0dc""}","https://test12345.live/?num_scrambled_semantic=8&num_scrambled_causal=4&num_scrambled_schematic=4&participantId=E428B0F28E6C4535BD63256321774F23&assignmentId=732c8160-bd69-4826-8235-5bec87ddd577&projectId=051c06f1-75cc-4548-856d-4923ddaba0dc","E428B0F28E6C4535BD63256321774F23-2025-05-15-19-23-40","","3085","","<span style=""color: red; font-size: 24px""> NOW RECORDING</span>
        <p>Please test Microphone</p>","","16",""
"","","","","","html-button-response","6","26411","0.0-4.0-2.0","E428B0F28E6C4535BD63256321774F23","E428B0F28E6C4535BD63256321774F23","732c8160-bd69-4826-8235-5bec87ddd577","051c06f1-75cc-4548-856d-4923ddaba0dc","{""num_scrambled_semantic"":""8"",""num_scrambled_causal"":""4"",""num_scrambled_schematic"":""4"",""participantId"":""E428B0F28E6C4535BD63256321774F23"",""assignmentId"":""732c8160-bd69-4826-8235-5bec87ddd577"",""projectId"":""051c06f1-75cc-4548-856d-4923ddaba0dc""}","https://test12345.live/?num_scrambled_semantic=8&num_scrambled_causal=4&num_scrambled_schematic=4&participantId=E428B0F28E6C4535BD63256321774F23&assignmentId=732c8160-bd69-4826-8235-5bec87ddd577&projectId=051c06f1-75cc-4548-856d-4923ddaba0dc","E428B0F28E6C4535BD63256321774F23-2025-05-15-19-23-40","","2107","","<p style=""font-size:48px; color:red;"">Is Microphone OK?</p>","1","",""
"","","","","","instructions","7","38329","0.0-5.0","E428B0F28E6C4535BD63256321774F23","E428B0F28E6C4535BD63256321774F23","732c8160-bd69-4826-8235-5bec87ddd577","051c06f1-75cc-4548-856d-4923ddaba0dc","{""num_scrambled_semantic"":""8"",""num_scrambled_causal"":""4"",""num_scrambled_schematic"":""4"",""participantId"":""E428B0F28E6C4535BD63256321774F23"",""assignmentId"":""732c8160-bd69-4826-8235-5bec87ddd577"",""projectId"":""051c06f1-75cc-4548-856d-4923ddaba0dc""}","https://test12345.live/?num_scrambled_semantic=8&num_scrambled_causal=4&num_scrambled_schematic=4&participantId=E428B0F28E6C4535BD63256321774F23&assignmentId=732c8160-bd69-4826-8235-5bec87ddd577&projectId=051c06f1-75cc-4548-856d-4923ddaba0dc","E428B0F28E6C4535BD63256321774F23-2025-05-15-19-23-40","[{""page_index"":0,""viewing_time"":4239},{""page_index"":1,""viewing_time"":7678}]","11917","","","","",""
"","","","","","image-button-response","8","44335","0.0-6.0-0.0","E428B0F28E6C4535BD63256321774F23","E428B0F28E6C4535BD63256321774F23","732c8160-bd69-4826-8235-5bec87ddd577","051c06f1-75cc-4548-856d-4923ddaba0dc","{""num_scrambled_semantic"":""8"",""num_scrambled_causal"":""4"",""num_scrambled_schematic"":""4"",""participantId"":""E428B0F28E6C4535BD63256321774F23"",""assignmentId"":""732c8160-bd69-4826-8235-5bec87ddd577"",""projectId"":""051c06f1-75cc-4548-856d-4923ddaba0dc""}","https://test12345.live/?num_scrambled_semantic=8&num_scrambled_causal=4&num_scrambled_schematic=4&participantId=E428B0F28E6C4535BD63256321774F23&assignmentId=732c8160-bd69-4826-8235-5bec87ddd577&projectId=051c06f1-75cc-4548-856d-4923ddaba0dc","E428B0F28E6C4535BD63256321774F23-2025-05-15-19-23-40","","null","","images/instructions/movie_0.png","null","",""
"","","","","","image-button-response","9","48844","0.0-6.0-1.0-0.0","E428B0F28E6C4535BD63256321774F23","E428B0F28E6C4535BD63256321774F23","732c8160-bd69-4826-8235-5bec87ddd577","051c06f1-75cc-4548-856d-4923ddaba0dc","{""num_scrambled_semantic"":""8"",""num_scrambled_causal"":""4"",""num_scrambled_schematic"":""4"",""participantId"":""E428B0F28E6C4535BD63256321774F23"",""assignmentId"":""732c8160-bd69-4826-8235-5bec87ddd577"",""projectId"":""051c06f1-75cc-4548-856d-4923ddaba0dc""}","https://test12345.live/?num_scrambled_semantic=8&num_scrambled_causal=4&num_scrambled_schematic=4&participantId=E428B0F28E6C4535BD63256321774F23&assignmentId=732c8160-bd69-4826-8235-5bec87ddd577&projectId=051c06f1-75cc-4548-856d-4923ddaba0dc","E428B0F28E6C4535BD63256321774F23-2025-05-15-19-23-40","","null","","images/instructions/movie_1.png","null","",""
"","","","","","image-button-response","10","51605","0.0-6.0-1.0-1.0","E428B0F28E6C4535BD63256321774F23","E428B0F28E6C4535BD63256321774F23","732c8160-bd69-4826-8235-5bec87ddd577","051c06f1-75cc-4548-856d-4923ddaba0dc","{""num_scrambled_semantic"":""8"",""num_scrambled_causal"":""4"",""num_scrambled_schematic"":""4"",""participantId"":""E428B0F28E6C4535BD63256321774F23"",""assignmentId"":""732c8160-bd69-4826-8235-5bec87ddd577"",""projectId"":""051c06f1-75cc-4548-856d-4923ddaba0dc""}","https://test12345.live/?num_scrambled_semantic=8&num_scrambled_causal=4&num_scrambled_schematic=4&participantId=E428B0F28E6C4535BD63256321774F23&assignmentId=732c8160-bd69-4826-8235-5bec87ddd577&projectId=051c06f1-75cc-4548-856d-4923ddaba0dc","E428B0F28E6C4535BD63256321774F23-2025-05-15-19-23-40","","2760","","images/instructions/movie_1.png","0","",""
"","","","","","image-button-response","11","53406","0.0-6.0-1.0-2.0","E428B0F28E6C4535BD63256321774F23","E428B0F28E6C4535BD63256321774F23","732c8160-bd69-4826-8235-5bec87ddd577","051c06f1-75cc-4548-856d-4923ddaba0dc","{""num_scrambled_semantic"":""8"",""num_scrambled_causal"":""4"",""num_scrambled_schematic"":""4"",""participantId"":""E428B0F28E6C4535BD63256321774F23"",""assignmentId"":""732c8160-bd69-4826-8235-5bec87ddd577"",""projectId"":""051c06f1-75cc-4548-856d-4923ddaba0dc""}","https://test12345.live/?num_scrambled_semantic=8&num_scrambled_causal=4&num_scrambled_schematic=4&participantId=E428B0F28E6C4535BD63256321774F23&assignmentId=732c8160-bd69-4826-8235-5bec87ddd577&projectId=051c06f1-75cc-4548-856d-4923ddaba0dc","E428B0F28E6C4535BD63256321774F23-2025-05-15-19-23-40","","null","","[]","null","",""
"","","","","","image-button-response","12","57919","0.0-6.0-1.0-0.1","E428B0F28E6C4535BD63256321774F23","E428B0F28E6C4535BD63256321774F23","732c8160-bd69-4826-8235-5bec87ddd577","051c06f1-75cc-4548-856d-4923ddaba0dc","{""num_scrambled_semantic"":""8"",""num_scrambled_causal"":""4"",""num_scrambled_schematic"":""4"",""participantId"":""E428B0F28E6C4535BD63256321774F23"",""assignmentId"":""732c8160-bd69-4826-8235-5bec87ddd577"",""projectId"":""051c06f1-75cc-4548-856d-4923ddaba0dc""}","https://test12345.live/?num_scrambled_semantic=8&num_scrambled_causal=4&num_scrambled_schematic=4&participantId=E428B0F28E6C4535BD63256321774F23&assignmentId=732c8160-bd69-4826-8235-5bec87ddd577&projectId=051c06f1-75cc-4548-856d-4923ddaba0dc","E428B0F28E6C4535BD63256321774F23-2025-05-15-19-23-40","","null","","images/instructions/movie_2.png","null","",""
"","","","","","image-button-response","13","60716","0.0-6.0-1.0-1.1","E428B0F28E6C4535BD63256321774F23","E428B0F28E6C4535BD63256321774F23","732c8160-bd69-4826-8235-5bec87ddd577","051c06f1-75cc-4548-856d-4923ddaba0dc","{""num_scrambled_semantic"":""8"",""num_scrambled_causal"":""4"",""num_scrambled_schematic"":""4"",""participantId"":""E428B0F28E6C4535BD63256321774F23"",""assignmentId"":""732c8160-bd69-4826-8235-5bec87ddd577"",""projectId"":""051c06f1-75cc-4548-856d-4923ddaba0dc""}","https://test12345.live/?num_scrambled_semantic=8&num_scrambled_causal=4&num_scrambled_schematic=4&participantId=E428B0F28E6C4535BD63256321774F23&assignmentId=732c8160-bd69-4826-8235-5bec87ddd577&projectId=051c06f1-75cc-4548-856d-4923ddaba0dc","E428B0F28E6C4535BD63256321774F23-2025-05-15-19-23-40","","2796","","images/instructions/movie_2.png","0","",""
"","","","","","image-button-response","14","62523","0.0-6.0-1.0-2.1","E428B0F28E6C4535BD63256321774F23","E428B0F28E6C4535BD63256321774F23","732c8160-bd69-4826-8235-5bec87ddd577","051c06f1-75cc-4548-856d-4923ddaba0dc","{""num_scrambled_semantic"":""8"",""num_scrambled_causal"":""4"",""num_scrambled_schematic"":""4"",""participantId"":""E428B0F28E6C4535BD63256321774F23"",""assignmentId"":""732c8160-bd69-4826-8235-5bec87ddd577"",""projectId"":""051c06f1-75cc-4548-856d-4923ddaba0dc""}","https://test12345.live/?num_scrambled_semantic=8&num_scrambled_causal=4&num_scrambled_schematic=4&participantId=E428B0F28E6C4535BD63256321774F23&assignmentId=732c8160-bd69-4826-8235-5bec87ddd577&projectId=051c06f1-75cc-4548-856d-4923ddaba0dc","E428B0F28E6C4535BD63256321774F23-2025-05-15-19-23-40","","null","","[]","null","",""
"","","","","","image-button-response","15","67024","0.0-6.0-1.0-0.2","E428B0F28E6C4535BD63256321774F23","E428B0F28E6C4535BD63256321774F23","732c8160-bd69-4826-8235-5bec87ddd577","051c06f1-75cc-4548-856d-4923ddaba0dc","{""num_scrambled_semantic"":""8"",""num_scrambled_causal"":""4"",""num_scrambled_schematic"":""4"",""participantId"":""E428B0F28E6C4535BD63256321774F23"",""assignmentId"":""732c8160-bd69-4826-8235-5bec87ddd577"",""projectId"":""051c06f1-75cc-4548-856d-4923ddaba0dc""}","https://test12345.live/?num_scrambled_semantic=8&num_scrambled_causal=4&num_scrambled_schematic=4&participantId=E428B0F28E6C4535BD63256321774F23&assignmentId=732c8160-bd69-4826-8235-5bec87ddd577&projectId=051c06f1-75cc-4548-856d-4923ddaba0dc","E428B0F28E6C4535BD63256321774F23-2025-05-15-19-23-40","","null","","images/instructions/movie_3.png","null","",""
"","","","","","image-button-response","16","68857","0.0-6.0-1.0-1.2","E428B0F28E6C4535BD63256321774F23","E428B0F28E6C4535BD63256321774F23","732c8160-bd69-4826-8235-5bec87ddd577","051c06f1-75cc-4548-856d-4923ddaba0dc","{""num_scrambled_semantic"":""8"",""num_scrambled_causal"":""4"",""num_scrambled_schematic"":""4"",""participantId"":""E428B0F28E6C4535BD63256321774F23"",""assignmentId"":""732c8160-bd69-4826-8235-5bec87ddd577"",""projectId"":""051c06f1-75cc-4548-856d-4923ddaba0dc""}","https://test12345.live/?num_scrambled_semantic=8&num_scrambled_causal=4&num_scrambled_schematic=4&participantId=E428B0F28E6C4535BD63256321774F23&assignmentId=732c8160-bd69-4826-8235-5bec87ddd577&projectId=051c06f1-75cc-4548-856d-4923ddaba0dc","E428B0F28E6C4535BD63256321774F23-2025-05-15-19-23-40","","1833","","images/instructions/movie_3.png","0","",""
"","","","","","image-button-response","17","70670","0.0-6.0-1.0-2.2","E428B0F28E6C4535BD63256321774F23","E428B0F28E6C4535BD63256321774F23","732c8160-bd69-4826-8235-5bec87ddd577","051c06f1-75cc-4548-856d-4923ddaba0dc","{""num_scrambled_semantic"":""8"",""num_scrambled_causal"":""4"",""num_scrambled_schematic"":""4"",""participantId"":""E428B0F28E6C4535BD63256321774F23"",""assignmentId"":""732c8160-bd69-4826-8235-5bec87ddd577"",""projectId"":""051c06f1-75cc-4548-856d-4923ddaba0dc""}","https://test12345.live/?num_scrambled_semantic=8&num_scrambled_causal=4&num_scrambled_schematic=4&participantId=E428B0F28E6C4535BD63256321774F23&assignmentId=732c8160-bd69-4826-8235-5bec87ddd577&projectId=051c06f1-75cc-4548-856d-4923ddaba0dc","E428B0F28E6C4535BD63256321774F23-2025-05-15-19-23-40","","null","","[]","null","",""
"","","","","","image-button-response","18","75177","0.0-6.0-1.0-0.3","E428B0F28E6C4535BD63256321774F23","E428B0F28E6C4535BD63256321774F23","732c8160-bd69-4826-8235-5bec87ddd577","051c06f1-75cc-4548-856d-4923ddaba0dc","{""num_scrambled_semantic"":""8"",""num_scrambled_causal"":""4"",""num_scrambled_schematic"":""4"",""participantId"":""E428B0F28E6C4535BD63256321774F23"",""assignmentId"":""732c8160-bd69-4826-8235-5bec87ddd577"",""projectId"":""051c06f1-75cc-4548-856d-4923ddaba0dc""}","https://test12345.live/?num_scrambled_semantic=8&num_scrambled_causal=4&num_scrambled_schematic=4&participantId=E428B0F28E6C4535BD63256321774F23&assignmentId=732c8160-bd69-4826-8235-5bec87ddd577&projectId=051c06f1-75cc-4548-856d-4923ddaba0dc","E428B0F28E6C4535BD63256321774F23-2025-05-15-19-23-40","","null","","images/instructions/movie_4.png","null","",""
"","","","","","image-button-response","19","76426","0.0-6.0-1.0-1.3","E428B0F28E6C4535BD63256321774F23","E428B0F28E6C4535BD63256321774F23","732c8160-bd69-4826-8235-5bec87ddd577","051c06f1-75cc-4548-856d-4923ddaba0dc","{""num_scrambled_semantic"":""8"",""num_scrambled_causal"":""4"",""num_scrambled_schematic"":""4"",""participantId"":""E428B0F28E6C4535BD63256321774F23"",""assignmentId"":""732c8160-bd69-4826-8235-5bec87ddd577"",""projectId"":""051c06f1-75cc-4548-856d-4923ddaba0dc""}","https://test12345.live/?num_scrambled_semantic=8&num_scrambled_causal=4&num_scrambled_schematic=4&participantId=E428B0F28E6C4535BD63256321774F23&assignmentId=732c8160-bd69-4826-8235-5bec87ddd577&projectId=051c06f1-75cc-4548-856d-4923ddaba0dc","E428B0F28E6C4535BD63256321774F23-2025-05-15-19-23-40","","1247","","images/instructions/movie_4.png","0","",""
"","","","","","image-button-response","20","78236","0.0-6.0-1.0-2.3","E428B0F28E6C4535BD63256321774F23","E428B0F28E6C4535BD63256321774F23","732c8160-bd69-4826-8235-5bec87ddd577","051c06f1-75cc-4548-856d-4923ddaba0dc","{""num_scrambled_semantic"":""8"",""num_scrambled_causal"":""4"",""num_scrambled_schematic"":""4"",""participantId"":""E428B0F28E6C4535BD63256321774F23"",""assignmentId"":""732c8160-bd69-4826-8235-5bec87ddd577"",""projectId"":""051c06f1-75cc-4548-856d-4923ddaba0dc""}","https://test12345.live/?num_scrambled_semantic=8&num_scrambled_causal=4&num_scrambled_schematic=4&participantId=E428B0F28E6C4535BD63256321774F23&assignmentId=732c8160-bd69-4826-8235-5bec87ddd577&projectId=051c06f1-75cc-4548-856d-4923ddaba0dc","E428B0F28E6C4535BD63256321774F23-2025-05-15-19-23-40","","null","","[]","null","",""
"","","","","","instructions","21","85337","0.0-7.0","E428B0F28E6C4535BD63256321774F23","E428B0F28E6C4535BD63256321774F23","732c8160-bd69-4826-8235-5bec87ddd577","051c06f1-75cc-4548-856d-4923ddaba0dc","{""num_scrambled_semantic"":""8"",""num_scrambled_causal"":""4"",""num_scrambled_schematic"":""4"",""participantId"":""E428B0F28E6C4535BD63256321774F23"",""assignmentId"":""732c8160-bd69-4826-8235-5bec87ddd577"",""projectId"":""051c06f1-75cc-4548-856d-4923ddaba0dc""}","https://test12345.live/?num_scrambled_semantic=8&num_scrambled_causal=4&num_scrambled_schematic=4&participantId=E428B0F28E6C4535BD63256321774F23&assignmentId=732c8160-bd69-4826-8235-5bec87ddd577&projectId=051c06f1-75cc-4548-856d-4923ddaba0dc","E428B0F28E6C4535BD63256321774F23-2025-05-15-19-23-40","[{""page_index"":0,""viewing_time"":5915},{""page_index"":1,""viewing_time"":1186}]","7101","","","","",""
"","","","","","html-audio-response","22","109134","0.0-8.0","E428B0F28E6C4535BD63256321774F23","E428B0F28E6C4535BD63256321774F23","732c8160-bd69-4826-8235-5bec87ddd577","051c06f1-75cc-4548-856d-4923ddaba0dc","{""num_scrambled_semantic"":""8"",""num_scrambled_causal"":""4"",""num_scrambled_schematic"":""4"",""participantId"":""E428B0F28E6C4535BD63256321774F23"",""assignmentId"":""732c8160-bd69-4826-8235-5bec87ddd577"",""projectId"":""051c06f1-75cc-4548-856d-4923ddaba0dc""}","https://test12345.live/?num_scrambled_semantic=8&num_scrambled_causal=4&num_scrambled_schematic=4&participantId=E428B0F28E6C4535BD63256321774F23&assignmentId=732c8160-bd69-4826-8235-5bec87ddd577&projectId=051c06f1-75cc-4548-856d-4923ddaba0dc","E428B0F28E6C4535BD63256321774F23-2025-05-15-19-23-40","","14684","","[""<span style=\""color: red; font-size: 24px\""> NOW RECORDING</span><p>Please say out loud all the images you saw, as many as you can remember. The images can be said in any order.</p>""]","","1",""
"","","","","","instructions","23","111345","0.0-9.0","E428B0F28E6C4535BD63256321774F23","E428B0F28E6C4535BD63256321774F23","732c8160-bd69-4826-8235-5bec87ddd577","051c06f1-75cc-4548-856d-4923ddaba0dc","{""num_scrambled_semantic"":""8"",""num_scrambled_causal"":""4"",""num_scrambled_schematic"":""4"",""participantId"":""E428B0F28E6C4535BD63256321774F23"",""assignmentId"":""732c8160-bd69-4826-8235-5bec87ddd577"",""projectId"":""051c06f1-75cc-4548-856d-4923ddaba0dc""}","https://test12345.live/?num_scrambled_semantic=8&num_scrambled_causal=4&num_scrambled_schematic=4&participantId=E428B0F28E6C4535BD63256321774F23&assignmentId=732c8160-bd69-4826-8235-5bec87ddd577&projectId=051c06f1-75cc-4548-856d-4923ddaba0dc","E428B0F28E6C4535BD63256321774F23-2025-05-15-19-23-40","[{""page_index"":0,""viewing_time"":2209}]","2209","","","","",""
"","","","","","image-button-response","24","117360","0.0-10.0-0.0","E428B0F28E6C4535BD63256321774F23","E428B0F28E6C4535BD63256321774F23","732c8160-bd69-4826-8235-5bec87ddd577","051c06f1-75cc-4548-856d-4923ddaba0dc","{""num_scrambled_semantic"":""8"",""num_scrambled_causal"":""4"",""num_scrambled_schematic"":""4"",""participantId"":""E428B0F28E6C4535BD63256321774F23"",""assignmentId"":""732c8160-bd69-4826-8235-5bec87ddd577"",""projectId"":""051c06f1-75cc-4548-856d-4923ddaba0dc""}","https://test12345.live/?num_scrambled_semantic=8&num_scrambled_causal=4&num_scrambled_schematic=4&participantId=E428B0F28E6C4535BD63256321774F23&assignmentId=732c8160-bd69-4826-8235-5bec87ddd577&projectId=051c06f1-75cc-4548-856d-4923ddaba0dc","E428B0F28E6C4535BD63256321774F23-2025-05-15-19-23-40","","null","","images/causal_sequence/the_performance_causal/the_performance_causal_0.png","null","",""
"","","","","","image-button-response","25","121873","0.0-10.0-1.0-0.0","E428B0F28E6C4535BD63256321774F23","E428B0F28E6C4535BD63256321774F23","732c8160-bd69-4826-8235-5bec87ddd577","051c06f1-75cc-4548-856d-4923ddaba0dc","{""num_scrambled_semantic"":""8"",""num_scrambled_causal"":""4"",""num_scrambled_schematic"":""4"",""participantId"":""E428B0F28E6C4535BD63256321774F23"",""assignmentId"":""732c8160-bd69-4826-8235-5bec87ddd577"",""projectId"":""051c06f1-75cc-4548-856d-4923ddaba0dc""}","https://test12345.live/?num_scrambled_semantic=8&num_scrambled_causal=4&num_scrambled_schematic=4&participantId=E428B0F28E6C4535BD63256321774F23&assignmentId=732c8160-bd69-4826-8235-5bec87ddd577&projectId=051c06f1-75cc-4548-856d-4923ddaba0dc","E428B0F28E6C4535BD63256321774F23-2025-05-15-19-23-40","","null","","images/causal_sequence/the_performance_causal/the_performance_causal_9.png","null","",""
"","","","","","image-button-response","26","124682","0.0-10.0-1.0-1.0","E428B0F28E6C4535BD63256321774F23","E428B0F28E6C4535BD63256321774F23","732c8160-bd69-4826-8235-5bec87ddd577","051c06f1-75cc-4548-856d-4923ddaba0dc","{""num_scrambled_semantic"":""8"",""num_scrambled_causal"":""4"",""num_scrambled_schematic"":""4"",""participantId"":""E428B0F28E6C4535BD63256321774F23"",""assignmentId"":""732c8160-bd69-4826-8235-5bec87ddd577"",""projectId"":""051c06f1-75cc-4548-856d-4923ddaba0dc""}","https://test12345.live/?num_scrambled_semantic=8&num_scrambled_causal=4&num_scrambled_schematic=4&participantId=E428B0F28E6C4535BD63256321774F23&assignmentId=732c8160-bd69-4826-8235-5bec87ddd577&projectId=051c06f1-75cc-4548-856d-4923ddaba0dc","E428B0F28E6C4535BD63256321774F23-2025-05-15-19-23-40","","2808","","images/causal_sequence/the_performance_causal/the_performance_causal_9.png","0","",""
"","","","","","image-button-response","27","126483","0.0-10.0-1.0-2.0","E428B0F28E6C4535BD63256321774F23","E428B0F28E6C4535BD63256321774F23","732c8160-bd69-4826-8235-5bec87ddd577","051c06f1-75cc-4548-856d-4923ddaba0dc","{""num_scrambled_semantic"":""8"",""num_scrambled_causal"":""4"",""num_scrambled_schematic"":""4"",""participantId"":""E428B0F28E6C4535BD63256321774F23"",""assignmentId"":""732c8160-bd69-4826-8235-5bec87ddd577"",""projectId"":""051c06f1-75cc-4548-856d-4923ddaba0dc""}","https://test12345.live/?num_scrambled_semantic=8&num_scrambled_causal=4&num_scrambled_schematic=4&participantId=E428B0F28E6C4535BD63256321774F23&assignmentId=732c8160-bd69-4826-8235-5bec87ddd577&projectId=051c06f1-75cc-4548-856d-4923ddaba0dc","E428B0F28E6C4535BD63256321774F23-2025-05-15-19-23-40","","null","","[]","null","",""
"","","","","","image-button-response","28","130989","0.0-10.0-1.0-0.1","E428B0F28E6C4535BD63256321774F23","E428B0F28E6C4535BD63256321774F23","732c8160-bd69-4826-8235-5bec87ddd577","051c06f1-75cc-4548-856d-4923ddaba0dc","{""num_scrambled_semantic"":""8"",""num_scrambled_causal"":""4"",""num_scrambled_schematic"":""4"",""participantId"":""E428B0F28E6C4535BD63256321774F23"",""assignmentId"":""732c8160-bd69-4826-8235-5bec87ddd577"",""projectId"":""051c06f1-75cc-4548-856d-4923ddaba0dc""}","https://test12345.live/?num_scrambled_semantic=8&num_scrambled_causal=4&num_scrambled_schematic=4&participantId=E428B0F28E6C4535BD63256321774F23&assignmentId=732c8160-bd69-4826-8235-5bec87ddd577&projectId=051c06f1-75cc-4548-856d-4923ddaba0dc","E428B0F28E6C4535BD63256321774F23-2025-05-15-19-23-40","","null","","images/causal_sequence/the_performance_causal/the_performance_causal_ten.png","null","",""
"","","","","","image-button-response","29","132887","0.0-10.0-1.0-1.1","E428B0F28E6C4535BD63256321774F23","E428B0F28E6C4535BD63256321774F23","732c8160-bd69-4826-8235-5bec87ddd577","051c06f1-75cc-4548-856d-4923ddaba0dc","{""num_scrambled_semantic"":""8"",""num_scrambled_causal"":""4"",""num_scrambled_schematic"":""4"",""participantId"":""E428B0F28E6C4535BD63256321774F23"",""assignmentId"":""732c8160-bd69-4826-8235-5bec87ddd577"",""projectId"":""051c06f1-75cc-4548-856d-4923ddaba0dc""}","https://test12345.live/?num_scrambled_semantic=8&num_scrambled_causal=4&num_scrambled_schematic=4&participantId=E428B0F28E6C4535BD63256321774F23&assignmentId=732c8160-bd69-4826-8235-5bec87ddd577&projectId=051c06f1-75cc-4548-856d-4923ddaba0dc","E428B0F28E6C4535BD63256321774F23-2025-05-15-19-23-40","","1898","","images/causal_sequence/the_performance_causal/the_performance_causal_ten.png","0","",""
"","","","","","image-button-response","30","134692","0.0-10.0-1.0-2.1","E428B0F28E6C4535BD63256321774F23","E428B0F28E6C4535BD63256321774F23","732c8160-bd69-4826-8235-5bec87ddd577","051c06f1-75cc-4548-856d-4923ddaba0dc","{""num_scrambled_semantic"":""8"",""num_scrambled_causal"":""4"",""num_scrambled_schematic"":""4"",""participantId"":""E428B0F28E6C4535BD63256321774F23"",""assignmentId"":""732c8160-bd69-4826-8235-5bec87ddd577"",""projectId"":""051c06f1-75cc-4548-856d-4923ddaba0dc""}","https://test12345.live/?num_scrambled_semantic=8&num_scrambled_causal=4&num_scrambled_schematic=4&participantId=E428B0F28E6C4535BD63256321774F23&assignmentId=732c8160-bd69-4826-8235-5bec87ddd577&projectId=051c06f1-75cc-4548-856d-4923ddaba0dc","E428B0F28E6C4535BD63256321774F23-2025-05-15-19-23-40","","null","","[]","null","",""
"","","","","","image-button-response","31","139197","0.0-10.0-1.0-0.2","E428B0F28E6C4535BD63256321774F23","E428B0F28E6C4535BD63256321774F23","732c8160-bd69-4826-8235-5bec87ddd577","051c06f1-75cc-4548-856d-4923ddaba0dc","{""num_scrambled_semantic"":""8"",""num_scrambled_causal"":""4"",""num_scrambled_schematic"":""4"",""participantId"":""E428B0F28E6C4535BD63256321774F23"",""assignmentId"":""732c8160-bd69-4826-8235-5bec87ddd577"",""projectId"":""051c06f1-75cc-4548-856d-4923ddaba0dc""}","https://test12345.live/?num_scrambled_semantic=8&num_scrambled_causal=4&num_scrambled_schematic=4&participantId=E428B0F28E6C4535BD63256321774F23&assignmentId=732c8160-bd69-4826-8235-5bec87ddd577&projectId=051c06f1-75cc-4548-856d-4923ddaba0dc","E428B0F28E6C4535BD63256321774F23-2025-05-15-19-23-40","","null","","images/causal_sequence/the_performance_causal/the_performance_causal_7.png","null","",""
"","","","","","image-button-response","32","141488","0.0-10.0-1.0-1.2","E428B0F28E6C4535BD63256321774F23","E428B0F28E6C4535BD63256321774F23","732c8160-bd69-4826-8235-5bec87ddd577","051c06f1-75cc-4548-856d-4923ddaba0dc","{""num_scrambled_semantic"":""8"",""num_scrambled_causal"":""4"",""num_scrambled_schematic"":""4"",""participantId"":""E428B0F28E6C4535BD63256321774F23"",""assignmentId"":""732c8160-bd69-4826-8235-5bec87ddd577"",""projectId"":""051c06f1-75cc-4548-856d-4923ddaba0dc""}","https://test12345.live/?num_scrambled_semantic=8&num_scrambled_causal=4&num_scrambled_schematic=4&participantId=E428B0F28E6C4535BD63256321774F23&assignmentId=732c8160-bd69-4826-8235-5bec87ddd577&projectId=051c06f1-75cc-4548-856d-4923ddaba0dc","E428B0F28E6C4535BD63256321774F23-2025-05-15-19-23-40","","2290","","images/causal_sequence/the_performance_causal/the_performance_causal_7.png","0","",""
"","","","","","image-button-response","33","143289","0.0-10.0-1.0-2.2","E428B0F28E6C4535BD63256321774F23","E428B0F28E6C4535BD63256321774F23","732c8160-bd69-4826-8235-5bec87ddd577","051c06f1-75cc-4548-856d-4923ddaba0dc","{""num_scrambled_semantic"":""8"",""num_scrambled_causal"":""4"",""num_scrambled_schematic"":""4"",""participantId"":""E428B0F28E6C4535BD63256321774F23"",""assignmentId"":""732c8160-bd69-4826-8235-5bec87ddd577"",""projectId"":""051c06f1-75cc-4548-856d-4923ddaba0dc""}","https://test12345.live/?num_scrambled_semantic=8&num_scrambled_causal=4&num_scrambled_schematic=4&participantId=E428B0F28E6C4535BD63256321774F23&assignmentId=732c8160-bd69-4826-8235-5bec87ddd577&projectId=051c06f1-75cc-4548-856d-4923ddaba0dc","E428B0F28E6C4535BD63256321774F23-2025-05-15-19-23-40","","null","","[]","null","",""
"","","","","","image-button-response","34","147800","0.0-10.0-1.0-0.3","E428B0F28E6C4535BD63256321774F23","E428B0F28E6C4535BD63256321774F23","732c8160-bd69-4826-8235-5bec87ddd577","051c06f1-75cc-4548-856d-4923ddaba0dc","{""num_scrambled_semantic"":""8"",""num_scrambled_causal"":""4"",""num_scrambled_schematic"":""4"",""participantId"":""E428B0F28E6C4535BD63256321774F23"",""assignmentId"":""732c8160-bd69-4826-8235-5bec87ddd577"",""projectId"":""051c06f1-75cc-4548-856d-4923ddaba0dc""}","https://test12345.live/?num_scrambled_semantic=8&num_scrambled_causal=4&num_scrambled_schematic=4&participantId=E428B0F28E6C4535BD63256321774F23&assignmentId=732c8160-bd69-4826-8235-5bec87ddd577&projectId=051c06f1-75cc-4548-856d-4923ddaba0dc","E428B0F28E6C4535BD63256321774F23-2025-05-15-19-23-40","","null","","images/causal_sequence/the_performance_causal/the_performance_causal_5.png","null","",""
"","","","","","image-button-response","35","150035","0.0-10.0-1.0-1.3","E428B0F28E6C4535BD63256321774F23","E428B0F28E6C4535BD63256321774F23","732c8160-bd69-4826-8235-5bec87ddd577","051c06f1-75cc-4548-856d-4923ddaba0dc","{""num_scrambled_semantic"":""8"",""num_scrambled_causal"":""4"",""num_scrambled_schematic"":""4"",""participantId"":""E428B0F28E6C4535BD63256321774F23"",""assignmentId"":""732c8160-bd69-4826-8235-5bec87ddd577"",""projectId"":""051c06f1-75cc-4548-856d-4923ddaba0dc""}","https://test12345.live/?num_scrambled_semantic=8&num_scrambled_causal=4&num_scrambled_schematic=4&participantId=E428B0F28E6C4535BD63256321774F23&assignmentId=732c8160-bd69-4826-8235-5bec87ddd577&projectId=051c06f1-75cc-4548-856d-4923ddaba0dc","E428B0F28E6C4535BD63256321774F23-2025-05-15-19-23-40","","2234","","images/causal_sequence/the_performance_causal/the_performance_causal_5.png","0","",""
"","","","","","image-button-response","36","151845","0.0-10.0-1.0-2.3","E428B0F28E6C4535BD63256321774F23","E428B0F28E6C4535BD63256321774F23","732c8160-bd69-4826-8235-5bec87ddd577","051c06f1-75cc-4548-856d-4923ddaba0dc","{""num_scrambled_semantic"":""8"",""num_scrambled_causal"":""4"",""num_scrambled_schematic"":""4"",""participantId"":""E428B0F28E6C4535BD63256321774F23"",""assignmentId"":""732c8160-bd69-4826-8235-5bec87ddd577"",""projectId"":""051c06f1-75cc-4548-856d-4923ddaba0dc""}","https://test12345.live/?num_scrambled_semantic=8&num_scrambled_causal=4&num_scrambled_schematic=4&participantId=E428B0F28E6C4535BD63256321774F23&assignmentId=732c8160-bd69-4826-8235-5bec87ddd577&projectId=051c06f1-75cc-4548-856d-4923ddaba0dc","E428B0F28E6C4535BD63256321774F23-2025-05-15-19-23-40","","null","","[]","null","",""
"","","","","","image-button-response","37","156356","0.0-10.0-1.0-0.4","E428B0F28E6C4535BD63256321774F23","E428B0F28E6C4535BD63256321774F23","732c8160-bd69-4826-8235-5bec87ddd577","051c06f1-75cc-4548-856d-4923ddaba0dc","{""num_scrambled_semantic"":""8"",""num_scrambled_causal"":""4"",""num_scrambled_schematic"":""4"",""participantId"":""E428B0F28E6C4535BD63256321774F23"",""assignmentId"":""732c8160-bd69-4826-8235-5bec87ddd577"",""projectId"":""051c06f1-75cc-4548-856d-4923ddaba0dc""}","https://test12345.live/?num_scrambled_semantic=8&num_scrambled_causal=4&num_scrambled_schematic=4&participantId=E428B0F28E6C4535BD63256321774F23&assignmentId=732c8160-bd69-4826-8235-5bec87ddd577&projectId=051c06f1-75cc-4548-856d-4923ddaba0dc","E428B0F28E6C4535BD63256321774F23-2025-05-15-19-23-40","","null","","images/causal_sequence/the_performance_causal/the_performance_causal_8.png","null","",""
"","","","","","image-button-response","38","158828","0.0-10.0-1.0-1.4","E428B0F28E6C4535BD63256321774F23","E428B0F28E6C4535BD63256321774F23","732c8160-bd69-4826-8235-5bec87ddd577","051c06f1-75cc-4548-856d-4923ddaba0dc","{""num_scrambled_semantic"":""8"",""num_scrambled_causal"":""4"",""num_scrambled_schematic"":""4"",""participantId"":""E428B0F28E6C4535BD63256321774F23"",""assignmentId"":""732c8160-bd69-4826-8235-5bec87ddd577"",""projectId"":""051c06f1-75cc-4548-856d-4923ddaba0dc""}","https://test12345.live/?num_scrambled_semantic=8&num_scrambled_causal=4&num_scrambled_schematic=4&participantId=E428B0F28E6C4535BD63256321774F23&assignmentId=732c8160-bd69-4826-8235-5bec87ddd577&projectId=051c06f1-75cc-4548-856d-4923ddaba0dc","E428B0F28E6C4535BD63256321774F23-2025-05-15-19-23-40","","2471","","images/causal_sequence/the_performance_causal/the_performance_causal_8.png","0","",""
"","","","","","image-button-response","39","160629","0.0-10.0-1.0-2.4","E428B0F28E6C4535BD63256321774F23","E428B0F28E6C4535BD63256321774F23","732c8160-bd69-4826-8235-5bec87ddd577","051c06f1-75cc-4548-856d-4923ddaba0dc","{""num_scrambled_semantic"":""8"",""num_scrambled_causal"":""4"",""num_scrambled_schematic"":""4"",""participantId"":""E428B0F28E6C4535BD63256321774F23"",""assignmentId"":""732c8160-bd69-4826-8235-5bec87ddd577"",""projectId"":""051c06f1-75cc-4548-856d-4923ddaba0dc""}","https://test12345.live/?num_scrambled_semantic=8&num_scrambled_causal=4&num_scrambled_schematic=4&participantId=E428B0F28E6C4535BD63256321774F23&assignmentId=732c8160-bd69-4826-8235-5bec87ddd577&projectId=051c06f1-75cc-4548-856d-4923ddaba0dc","E428B0F28E6C4535BD63256321774F23-2025-05-15-19-23-40","","null","","[]","null","",""
"","","","","","image-button-response","40","165134","0.0-10.0-1.0-0.5","E428B0F28E6C4535BD63256321774F23","E428B0F28E6C4535BD63256321774F23","732c8160-bd69-4826-8235-5bec87ddd577","051c06f1-75cc-4548-856d-4923ddaba0dc","{""num_scrambled_semantic"":""8"",""num_scrambled_causal"":""4"",""num_scrambled_schematic"":""4"",""participantId"":""E428B0F28E6C4535BD63256321774F23"",""assignmentId"":""732c8160-bd69-4826-8235-5bec87ddd577"",""projectId"":""051c06f1-75cc-4548-856d-4923ddaba0dc""}","https://test12345.live/?num_scrambled_semantic=8&num_scrambled_causal=4&num_scrambled_schematic=4&participantId=E428B0F28E6C4535BD63256321774F23&assignmentId=732c8160-bd69-4826-8235-5bec87ddd577&projectId=051c06f1-75cc-4548-856d-4923ddaba0dc","E428B0F28E6C4535BD63256321774F23-2025-05-15-19-23-40","","null","","images/causal_sequence/the_performance_causal/the_performance_causal_1.png","null","",""
"","","","","","image-button-response","41","167021","0.0-10.0-1.0-1.5","E428B0F28E6C4535BD63256321774F23","E428B0F28E6C4535BD63256321774F23","732c8160-bd69-4826-8235-5bec87ddd577","051c06f1-75cc-4548-856d-4923ddaba0dc","{""num_scrambled_semantic"":""8"",""num_scrambled_causal"":""4"",""num_scrambled_schematic"":""4"",""participantId"":""E428B0F28E6C4535BD63256321774F23"",""assignmentId"":""732c8160-bd69-4826-8235-5bec87ddd577"",""projectId"":""051c06f1-75cc-4548-856d-4923ddaba0dc""}","https://test12345.live/?num_scrambled_semantic=8&num_scrambled_causal=4&num_scrambled_schematic=4&participantId=E428B0F28E6C4535BD63256321774F23&assignmentId=732c8160-bd69-4826-8235-5bec87ddd577&projectId=051c06f1-75cc-4548-856d-4923ddaba0dc","E428B0F28E6C4535BD63256321774F23-2025-05-15-19-23-40","","1886","","images/causal_sequence/the_performance_causal/the_performance_causal_1.png","0","",""
"","","","","","image-button-response","42","168823","0.0-10.0-1.0-2.5","E428B0F28E6C4535BD63256321774F23","E428B0F28E6C4535BD63256321774F23","732c8160-bd69-4826-8235-5bec87ddd577","051c06f1-75cc-4548-856d-4923ddaba0dc","{""num_scrambled_semantic"":""8"",""num_scrambled_causal"":""4"",""num_scrambled_schematic"":""4"",""participantId"":""E428B0F28E6C4535BD63256321774F23"",""assignmentId"":""732c8160-bd69-4826-8235-5bec87ddd577"",""projectId"":""051c06f1-75cc-4548-856d-4923ddaba0dc""}","https://test12345.live/?num_scrambled_semantic=8&num_scrambled_causal=4&num_scrambled_schematic=4&participantId=E428B0F28E6C4535BD63256321774F23&assignmentId=732c8160-bd69-4826-8235-5bec87ddd577&projectId=051c06f1-75cc-4548-856d-4923ddaba0dc","E428B0F28E6C4535BD63256321774F23-2025-05-15-19-23-40","","null","","[]","null","",""
"","","","","","image-button-response","43","173330","0.0-10.0-1.0-0.6","E428B0F28E6C4535BD63256321774F23","E428B0F28E6C4535BD63256321774F23","732c8160-bd69-4826-8235-5bec87ddd577","051c06f1-75cc-4548-856d-4923ddaba0dc","{""num_scrambled_semantic"":""8"",""num_scrambled_causal"":""4"",""num_scrambled_schematic"":""4"",""participantId"":""E428B0F28E6C4535BD63256321774F23"",""assignmentId"":""732c8160-bd69-4826-8235-5bec87ddd577"",""projectId"":""051c06f1-75cc-4548-856d-4923ddaba0dc""}","https://test12345.live/?num_scrambled_semantic=8&num_scrambled_causal=4&num_scrambled_schematic=4&participantId=E428B0F28E6C4535BD63256321774F23&assignmentId=732c8160-bd69-4826-8235-5bec87ddd577&projectId=051c06f1-75cc-4548-856d-4923ddaba0dc","E428B0F28E6C4535BD63256321774F23-2025-05-15-19-23-40","","null","","images/causal_sequence/the_performance_causal/the_performance_causal_2.png","null","",""
"","","","","","image-button-response","44","175253","0.0-10.0-1.0-1.6","E428B0F28E6C4535BD63256321774F23","E428B0F28E6C4535BD63256321774F23","732c8160-bd69-4826-8235-5bec87ddd577","051c06f1-75cc-4548-856d-4923ddaba0dc","{""num_scrambled_semantic"":""8"",""num_scrambled_causal"":""4"",""num_scrambled_schematic"":""4"",""participantId"":""E428B0F28E6C4535BD63256321774F23"",""assignmentId"":""732c8160-bd69-4826-8235-5bec87ddd577"",""projectId"":""051c06f1-75cc-4548-856d-4923ddaba0dc""}","https://test12345.live/?num_scrambled_semantic=8&num_scrambled_causal=4&num_scrambled_schematic=4&participantId=E428B0F28E6C4535BD63256321774F23&assignmentId=732c8160-bd69-4826-8235-5bec87ddd577&projectId=051c06f1-75cc-4548-856d-4923ddaba0dc","E428B0F28E6C4535BD63256321774F23-2025-05-15-19-23-40","","1922","","images/causal_sequence/the_performance_causal/the_performance_causal_2.png","0","",""
"","","","","","image-button-response","45","177053","0.0-10.0-1.0-2.6","E428B0F28E6C4535BD63256321774F23","E428B0F28E6C4535BD63256321774F23","732c8160-bd69-4826-8235-5bec87ddd577","051c06f1-75cc-4548-856d-4923ddaba0dc","{""num_scrambled_semantic"":""8"",""num_scrambled_causal"":""4"",""num_scrambled_schematic"":""4"",""participantId"":""E428B0F28E6C4535BD63256321774F23"",""assignmentId"":""732c8160-bd69-4826-8235-5bec87ddd577"",""projectId"":""051c06f1-75cc-4548-856d-4923ddaba0dc""}","https://test12345.live/?num_scrambled_semantic=8&num_scrambled_causal=4&num_scrambled_schematic=4&participantId=E428B0F28E6C4535BD63256321774F23&assignmentId=732c8160-bd69-4826-8235-5bec87ddd577&projectId=051c06f1-75cc-4548-856d-4923ddaba0dc","E428B0F28E6C4535BD63256321774F23-2025-05-15-19-23-40","","null","","[]","null","",""
"","","","","","image-button-response","46","181570","0.0-10.0-1.0-0.7","E428B0F28E6C4535BD63256321774F23","E428B0F28E6C4535BD63256321774F23","732c8160-bd69-4826-8235-5bec87ddd577","051c06f1-75cc-4548-856d-4923ddaba0dc","{""num_scrambled_semantic"":""8"",""num_scrambled_causal"":""4"",""num_scrambled_schematic"":""4"",""participantId"":""E428B0F28E6C4535BD63256321774F23"",""assignmentId"":""732c8160-bd69-4826-8235-5bec87ddd577"",""projectId"":""051c06f1-75cc-4548-856d-4923ddaba0dc""}","https://test12345.live/?num_scrambled_semantic=8&num_scrambled_causal=4&num_scrambled_schematic=4&participantId=E428B0F28E6C4535BD63256321774F23&assignmentId=732c8160-bd69-4826-8235-5bec87ddd577&projectId=051c06f1-75cc-4548-856d-4923ddaba0dc","E428B0F28E6C4535BD63256321774F23-2025-05-15-19-23-40","","null","","images/causal_sequence/the_performance_causal/the_performance_causal_3.png","null","",""
"","","","","","image-button-response","47","184258","0.0-10.0-1.0-1.7","E428B0F28E6C4535BD63256321774F23","E428B0F28E6C4535BD63256321774F23","732c8160-bd69-4826-8235-5bec87ddd577","051c06f1-75cc-4548-856d-4923ddaba0dc","{""num_scrambled_semantic"":""8"",""num_scrambled_causal"":""4"",""num_scrambled_schematic"":""4"",""participantId"":""E428B0F28E6C4535BD63256321774F23"",""assignmentId"":""732c8160-bd69-4826-8235-5bec87ddd577"",""projectId"":""051c06f1-75cc-4548-856d-4923ddaba0dc""}","https://test12345.live/?num_scrambled_semantic=8&num_scrambled_causal=4&num_scrambled_schematic=4&participantId=E428B0F28E6C4535BD63256321774F23&assignmentId=732c8160-bd69-4826-8235-5bec87ddd577&projectId=051c06f1-75cc-4548-856d-4923ddaba0dc","E428B0F28E6C4535BD63256321774F23-2025-05-15-19-23-40","","2688","","images/causal_sequence/the_performance_causal/the_performance_causal_3.png","0","",""
"","","","","","image-button-response","48","186071","0.0-10.0-1.0-2.7","E428B0F28E6C4535BD63256321774F23","E428B0F28E6C4535BD63256321774F23","732c8160-bd69-4826-8235-5bec87ddd577","051c06f1-75cc-4548-856d-4923ddaba0dc","{""num_scrambled_semantic"":""8"",""num_scrambled_causal"":""4"",""num_scrambled_schematic"":""4"",""participantId"":""E428B0F28E6C4535BD63256321774F23"",""assignmentId"":""732c8160-bd69-4826-8235-5bec87ddd577"",""projectId"":""051c06f1-75cc-4548-856d-4923ddaba0dc""}","https://test12345.live/?num_scrambled_semantic=8&num_scrambled_causal=4&num_scrambled_schematic=4&participantId=E428B0F28E6C4535BD63256321774F23&assignmentId=732c8160-bd69-4826-8235-5bec87ddd577&projectId=051c06f1-75cc-4548-856d-4923ddaba0dc","E428B0F28E6C4535BD63256321774F23-2025-05-15-19-23-40","","null","","[]","null","",""
"","","","","","image-button-response","49","190571","0.0-10.0-1.0-0.8","E428B0F28E6C4535BD63256321774F23","E428B0F28E6C4535BD63256321774F23","732c8160-bd69-4826-8235-5bec87ddd577","051c06f1-75cc-4548-856d-4923ddaba0dc","{""num_scrambled_semantic"":""8"",""num_scrambled_causal"":""4"",""num_scrambled_schematic"":""4"",""participantId"":""E428B0F28E6C4535BD63256321774F23"",""assignmentId"":""732c8160-bd69-4826-8235-5bec87ddd577"",""projectId"":""051c06f1-75cc-4548-856d-4923ddaba0dc""}","https://test12345.live/?num_scrambled_semantic=8&num_scrambled_causal=4&num_scrambled_schematic=4&participantId=E428B0F28E6C4535BD63256321774F23&assignmentId=732c8160-bd69-4826-8235-5bec87ddd577&projectId=051c06f1-75cc-4548-856d-4923ddaba0dc","E428B0F28E6C4535BD63256321774F23-2025-05-15-19-23-40","","null","","images/causal_sequence/the_performance_causal/the_performance_causal_4.png","null","",""
"","","","","","image-button-response","50","192991","0.0-10.0-1.0-1.8","E428B0F28E6C4535BD63256321774F23","E428B0F28E6C4535BD63256321774F23","732c8160-bd69-4826-8235-5bec87ddd577","051c06f1-75cc-4548-856d-4923ddaba0dc","{""num_scrambled_semantic"":""8"",""num_scrambled_causal"":""4"",""num_scrambled_schematic"":""4"",""participantId"":""E428B0F28E6C4535BD63256321774F23"",""assignmentId"":""732c8160-bd69-4826-8235-5bec87ddd577"",""projectId"":""051c06f1-75cc-4548-856d-4923ddaba0dc""}","https://test12345.live/?num_scrambled_semantic=8&num_scrambled_causal=4&num_scrambled_schematic=4&participantId=E428B0F28E6C4535BD63256321774F23&assignmentId=732c8160-bd69-4826-8235-5bec87ddd577&projectId=051c06f1-75cc-4548-856d-4923ddaba0dc","E428B0F28E6C4535BD63256321774F23-2025-05-15-19-23-40","","2419","","images/causal_sequence/the_performance_causal/the_performance_causal_4.png","0","",""
"","","","","","image-button-response","51","194804","0.0-10.0-1.0-2.8","E428B0F28E6C4535BD63256321774F23","E428B0F28E6C4535BD63256321774F23","732c8160-bd69-4826-8235-5bec87ddd577","051c06f1-75cc-4548-856d-4923ddaba0dc","{""num_scrambled_semantic"":""8"",""num_scrambled_causal"":""4"",""num_scrambled_schematic"":""4"",""participantId"":""E428B0F28E6C4535BD63256321774F23"",""assignmentId"":""732c8160-bd69-4826-8235-5bec87ddd577"",""projectId"":""051c06f1-75cc-4548-856d-4923ddaba0dc""}","https://test12345.live/?num_scrambled_semantic=8&num_scrambled_causal=4&num_scrambled_schematic=4&participantId=E428B0F28E6C4535BD63256321774F23&assignmentId=732c8160-bd69-4826-8235-5bec87ddd577&projectId=051c06f1-75cc-4548-856d-4923ddaba0dc","E428B0F28E6C4535BD63256321774F23-2025-05-15-19-23-40","","null","","[]","null","",""
"","","","","","image-button-response","52","199314","0.0-10.0-1.0-0.9","E428B0F28E6C4535BD63256321774F23","E428B0F28E6C4535BD63256321774F23","732c8160-bd69-4826-8235-5bec87ddd577","051c06f1-75cc-4548-856d-4923ddaba0dc","{""num_scrambled_semantic"":""8"",""num_scrambled_causal"":""4"",""num_scrambled_schematic"":""4"",""participantId"":""E428B0F28E6C4535BD63256321774F23"",""assignmentId"":""732c8160-bd69-4826-8235-5bec87ddd577"",""projectId"":""051c06f1-75cc-4548-856d-4923ddaba0dc""}","https://test12345.live/?num_scrambled_semantic=8&num_scrambled_causal=4&num_scrambled_schematic=4&participantId=E428B0F28E6C4535BD63256321774F23&assignmentId=732c8160-bd69-4826-8235-5bec87ddd577&projectId=051c06f1-75cc-4548-856d-4923ddaba0dc","E428B0F28E6C4535BD63256321774F23-2025-05-15-19-23-40","","null","","images/causal_sequence/the_performance_causal/the_performance_causal_6.png","null","",""
"","","","","","image-button-response","53","201395","0.0-10.0-1.0-1.9","E428B0F28E6C4535BD63256321774F23","E428B0F28E6C4535BD63256321774F23","732c8160-bd69-4826-8235-5bec87ddd577","051c06f1-75cc-4548-856d-4923ddaba0dc","{""num_scrambled_semantic"":""8"",""num_scrambled_causal"":""4"",""num_scrambled_schematic"":""4"",""participantId"":""E428B0F28E6C4535BD63256321774F23"",""assignmentId"":""732c8160-bd69-4826-8235-5bec87ddd577"",""projectId"":""051c06f1-75cc-4548-856d-4923ddaba0dc""}","https://test12345.live/?num_scrambled_semantic=8&num_scrambled_causal=4&num_scrambled_schematic=4&participantId=E428B0F28E6C4535BD63256321774F23&assignmentId=732c8160-bd69-4826-8235-5bec87ddd577&projectId=051c06f1-75cc-4548-856d-4923ddaba0dc","E428B0F28E6C4535BD63256321774F23-2025-05-15-19-23-40","","2080","","images/causal_sequence/the_performance_causal/the_performance_causal_6.png","0","",""
"","","","","","image-button-response","54","203210","0.0-10.0-1.0-2.9","E428B0F28E6C4535BD63256321774F23","E428B0F28E6C4535BD63256321774F23","732c8160-bd69-4826-8235-5bec87ddd577","051c06f1-75cc-4548-856d-4923ddaba0dc","{""num_scrambled_semantic"":""8"",""num_scrambled_causal"":""4"",""num_scrambled_schematic"":""4"",""participantId"":""E428B0F28E6C4535BD63256321774F23"",""assignmentId"":""732c8160-bd69-4826-8235-5bec87ddd577"",""projectId"":""051c06f1-75cc-4548-856d-4923ddaba0dc""}","https://test12345.live/?num_scrambled_semantic=8&num_scrambled_causal=4&num_scrambled_schematic=4&participantId=E428B0F28E6C4535BD63256321774F23&assignmentId=732c8160-bd69-4826-8235-5bec87ddd577&projectId=051c06f1-75cc-4548-856d-4923ddaba0dc","E428B0F28E6C4535BD63256321774F23-2025-05-15-19-23-40","","null","","[]","null","",""
"","","","","","html-audio-response","55","273336","0.0-11.0","E428B0F28E6C4535BD63256321774F23","E428B0F28E6C4535BD63256321774F23","732c8160-bd69-4826-8235-5bec87ddd577","051c06f1-75cc-4548-856d-4923ddaba0dc","{""num_scrambled_semantic"":""8"",""num_scrambled_causal"":""4"",""num_scrambled_schematic"":""4"",""participantId"":""E428B0F28E6C4535BD63256321774F23"",""assignmentId"":""732c8160-bd69-4826-8235-5bec87ddd577"",""projectId"":""051c06f1-75cc-4548-856d-4923ddaba0dc""}","https://test12345.live/?num_scrambled_semantic=8&num_scrambled_causal=4&num_scrambled_schematic=4&participantId=E428B0F28E6C4535BD63256321774F23&assignmentId=732c8160-bd69-4826-8235-5bec87ddd577&projectId=051c06f1-75cc-4548-856d-4923ddaba0dc","E428B0F28E6C4535BD63256321774F23-2025-05-15-19-23-40","","40724","","[""<span style=\""color: red; font-size: 24px\""> NOW RECORDING</span><p>Please say out loud all the images you saw, as many as you can remember. The images can be said in any order.</p>""]","","1","the_performance_causal"
"","","","","","image-button-response","56","279352","0.0-12.0-0.0","E428B0F28E6C4535BD63256321774F23","E428B0F28E6C4535BD63256321774F23","732c8160-bd69-4826-8235-5bec87ddd577","051c06f1-75cc-4548-856d-4923ddaba0dc","{""num_scrambled_semantic"":""8"",""num_scrambled_causal"":""4"",""num_scrambled_schematic"":""4"",""participantId"":""E428B0F28E6C4535BD63256321774F23"",""assignmentId"":""732c8160-bd69-4826-8235-5bec87ddd577"",""projectId"":""051c06f1-75cc-4548-856d-4923ddaba0dc""}","https://test12345.live/?num_scrambled_semantic=8&num_scrambled_causal=4&num_scrambled_schematic=4&participantId=E428B0F28E6C4535BD63256321774F23&assignmentId=732c8160-bd69-4826-8235-5bec87ddd577&projectId=051c06f1-75cc-4548-856d-4923ddaba0dc","E428B0F28E6C4535BD63256321774F23-2025-05-15-19-23-40","","null","","images/semantic_sequence/housework_semantic/housework_semantic_0.png","null","",""
"","","","","","image-button-response","57","283853","0.0-12.0-1.0-0.0","E428B0F28E6C4535BD63256321774F23","E428B0F28E6C4535BD63256321774F23","732c8160-bd69-4826-8235-5bec87ddd577","051c06f1-75cc-4548-856d-4923ddaba0dc","{""num_scrambled_semantic"":""8"",""num_scrambled_causal"":""4"",""num_scrambled_schematic"":""4"",""participantId"":""E428B0F28E6C4535BD63256321774F23"",""assignmentId"":""732c8160-bd69-4826-8235-5bec87ddd577"",""projectId"":""051c06f1-75cc-4548-856d-4923ddaba0dc""}","https://test12345.live/?num_scrambled_semantic=8&num_scrambled_causal=4&num_scrambled_schematic=4&participantId=E428B0F28E6C4535BD63256321774F23&assignmentId=732c8160-bd69-4826-8235-5bec87ddd577&projectId=051c06f1-75cc-4548-856d-4923ddaba0dc","E428B0F28E6C4535BD63256321774F23-2025-05-15-19-23-40","","null","","images/semantic_sequence/housework_semantic/housework_semantic_1.png","null","",""
"","","","","","image-button-response","58","285292","0.0-12.0-1.0-1.0","E428B0F28E6C4535BD63256321774F23","E428B0F28E6C4535BD63256321774F23","732c8160-bd69-4826-8235-5bec87ddd577","051c06f1-75cc-4548-856d-4923ddaba0dc","{""num_scrambled_semantic"":""8"",""num_scrambled_causal"":""4"",""num_scrambled_schematic"":""4"",""participantId"":""E428B0F28E6C4535BD63256321774F23"",""assignmentId"":""732c8160-bd69-4826-8235-5bec87ddd577"",""projectId"":""051c06f1-75cc-4548-856d-4923ddaba0dc""}","https://test12345.live/?num_scrambled_semantic=8&num_scrambled_causal=4&num_scrambled_schematic=4&participantId=E428B0F28E6C4535BD63256321774F23&assignmentId=732c8160-bd69-4826-8235-5bec87ddd577&projectId=051c06f1-75cc-4548-856d-4923ddaba0dc","E428B0F28E6C4535BD63256321774F23-2025-05-15-19-23-40","","1438","","images/semantic_sequence/housework_semantic/housework_semantic_1.png","0","",""
"","","","","","image-button-response","59","287094","0.0-12.0-1.0-2.0","E428B0F28E6C4535BD63256321774F23","E428B0F28E6C4535BD63256321774F23","732c8160-bd69-4826-8235-5bec87ddd577","051c06f1-75cc-4548-856d-4923ddaba0dc","{""num_scrambled_semantic"":""8"",""num_scrambled_causal"":""4"",""num_scrambled_schematic"":""4"",""participantId"":""E428B0F28E6C4535BD63256321774F23"",""assignmentId"":""732c8160-bd69-4826-8235-5bec87ddd577"",""projectId"":""051c06f1-75cc-4548-856d-4923ddaba0dc""}","https://test12345.live/?num_scrambled_semantic=8&num_scrambled_causal=4&num_scrambled_schematic=4&participantId=E428B0F28E6C4535BD63256321774F23&assignmentId=732c8160-bd69-4826-8235-5bec87ddd577&projectId=051c06f1-75cc-4548-856d-4923ddaba0dc","E428B0F28E6C4535BD63256321774F23-2025-05-15-19-23-40","","null","","[]","null","",""
"","","","","","image-button-response","60","291603","0.0-12.0-1.0-0.1","E428B0F28E6C4535BD63256321774F23","E428B0F28E6C4535BD63256321774F23","732c8160-bd69-4826-8235-5bec87ddd577","051c06f1-75cc-4548-856d-4923ddaba0dc","{""num_scrambled_semantic"":""8"",""num_scrambled_causal"":""4"",""num_scrambled_schematic"":""4"",""participantId"":""E428B0F28E6C4535BD63256321774F23"",""assignmentId"":""732c8160-bd69-4826-8235-5bec87ddd577"",""projectId"":""051c06f1-75cc-4548-856d-4923ddaba0dc""}","https://test12345.live/?num_scrambled_semantic=8&num_scrambled_causal=4&num_scrambled_schematic=4&participantId=E428B0F28E6C4535BD63256321774F23&assignmentId=732c8160-bd69-4826-8235-5bec87ddd577&projectId=051c06f1-75cc-4548-856d-4923ddaba0dc","E428B0F28E6C4535BD63256321774F23-2025-05-15-19-23-40","","null","","images/semantic_sequence/housework_semantic/housework_semantic_2.png","null","",""
"","","","","","image-button-response","61","293152","0.0-12.0-1.0-1.1","E428B0F28E6C4535BD63256321774F23","E428B0F28E6C4535BD63256321774F23","732c8160-bd69-4826-8235-5bec87ddd577","051c06f1-75cc-4548-856d-4923ddaba0dc","{""num_scrambled_semantic"":""8"",""num_scrambled_causal"":""4"",""num_scrambled_schematic"":""4"",""participantId"":""E428B0F28E6C4535BD63256321774F23"",""assignmentId"":""732c8160-bd69-4826-8235-5bec87ddd577"",""projectId"":""051c06f1-75cc-4548-856d-4923ddaba0dc""}","https://test12345.live/?num_scrambled_semantic=8&num_scrambled_causal=4&num_scrambled_schematic=4&participantId=E428B0F28E6C4535BD63256321774F23&assignmentId=732c8160-bd69-4826-8235-5bec87ddd577&projectId=051c06f1-75cc-4548-856d-4923ddaba0dc","E428B0F28E6C4535BD63256321774F23-2025-05-15-19-23-40","","1548","","images/semantic_sequence/housework_semantic/housework_semantic_2.png","0","",""
"","","","","","image-button-response","62","294960","0.0-12.0-1.0-2.1","E428B0F28E6C4535BD63256321774F23","E428B0F28E6C4535BD63256321774F23","732c8160-bd69-4826-8235-5bec87ddd577","051c06f1-75cc-4548-856d-4923ddaba0dc","{""num_scrambled_semantic"":""8"",""num_scrambled_causal"":""4"",""num_scrambled_schematic"":""4"",""participantId"":""E428B0F28E6C4535BD63256321774F23"",""assignmentId"":""732c8160-bd69-4826-8235-5bec87ddd577"",""projectId"":""051c06f1-75cc-4548-856d-4923ddaba0dc""}","https://test12345.live/?num_scrambled_semantic=8&num_scrambled_causal=4&num_scrambled_schematic=4&participantId=E428B0F28E6C4535BD63256321774F23&assignmentId=732c8160-bd69-4826-8235-5bec87ddd577&projectId=051c06f1-75cc-4548-856d-4923ddaba0dc","E428B0F28E6C4535BD63256321774F23-2025-05-15-19-23-40","","null","","[]","null","",""
"","","","","","image-button-response","63","299466","0.0-12.0-1.0-0.2","E428B0F28E6C4535BD63256321774F23","E428B0F28E6C4535BD63256321774F23","732c8160-bd69-4826-8235-5bec87ddd577","051c06f1-75cc-4548-856d-4923ddaba0dc","{""num_scrambled_semantic"":""8"",""num_scrambled_causal"":""4"",""num_scrambled_schematic"":""4"",""participantId"":""E428B0F28E6C4535BD63256321774F23"",""assignmentId"":""732c8160-bd69-4826-8235-5bec87ddd577"",""projectId"":""051c06f1-75cc-4548-856d-4923ddaba0dc""}","https://test12345.live/?num_scrambled_semantic=8&num_scrambled_causal=4&num_scrambled_schematic=4&participantId=E428B0F28E6C4535BD63256321774F23&assignmentId=732c8160-bd69-4826-8235-5bec87ddd577&projectId=051c06f1-75cc-4548-856d-4923ddaba0dc","E428B0F28E6C4535BD63256321774F23-2025-05-15-19-23-40","","null","","images/semantic_sequence/housework_semantic/housework_semantic_3.png","null","",""
"","","","","","image-button-response","64","301453","0.0-12.0-1.0-1.2","E428B0F28E6C4535BD63256321774F23","E428B0F28E6C4535BD63256321774F23","732c8160-bd69-4826-8235-5bec87ddd577","051c06f1-75cc-4548-856d-4923ddaba0dc","{""num_scrambled_semantic"":""8"",""num_scrambled_causal"":""4"",""num_scrambled_schematic"":""4"",""participantId"":""E428B0F28E6C4535BD63256321774F23"",""assignmentId"":""732c8160-bd69-4826-8235-5bec87ddd577"",""projectId"":""051c06f1-75cc-4548-856d-4923ddaba0dc""}","https://test12345.live/?num_scrambled_semantic=8&num_scrambled_causal=4&num_scrambled_schematic=4&participantId=E428B0F28E6C4535BD63256321774F23&assignmentId=732c8160-bd69-4826-8235-5bec87ddd577&projectId=051c06f1-75cc-4548-856d-4923ddaba0dc","E428B0F28E6C4535BD63256321774F23-2025-05-15-19-23-40","","1987","","images/semantic_sequence/housework_semantic/housework_semantic_3.png","0","",""
"","","","","","image-button-response","65","303254","0.0-12.0-1.0-2.2","E428B0F28E6C4535BD63256321774F23","E428B0F28E6C4535BD63256321774F23","732c8160-bd69-4826-8235-5bec87ddd577","051c06f1-75cc-4548-856d-4923ddaba0dc","{""num_scrambled_semantic"":""8"",""num_scrambled_causal"":""4"",""num_scrambled_schematic"":""4"",""participantId"":""E428B0F28E6C4535BD63256321774F23"",""assignmentId"":""732c8160-bd69-4826-8235-5bec87ddd577"",""projectId"":""051c06f1-75cc-4548-856d-4923ddaba0dc""}","https://test12345.live/?num_scrambled_semantic=8&num_scrambled_causal=4&num_scrambled_schematic=4&participantId=E428B0F28E6C4535BD63256321774F23&assignmentId=732c8160-bd69-4826-8235-5bec87ddd577&projectId=051c06f1-75cc-4548-856d-4923ddaba0dc","E428B0F28E6C4535BD63256321774F23-2025-05-15-19-23-40","","null","","[]","null","",""
"","","","","","image-button-response","66","307769","0.0-12.0-1.0-0.3","E428B0F28E6C4535BD63256321774F23","E428B0F28E6C4535BD63256321774F23","732c8160-bd69-4826-8235-5bec87ddd577","051c06f1-75cc-4548-856d-4923ddaba0dc","{""num_scrambled_semantic"":""8"",""num_scrambled_causal"":""4"",""num_scrambled_schematic"":""4"",""participantId"":""E428B0F28E6C4535BD63256321774F23"",""assignmentId"":""732c8160-bd69-4826-8235-5bec87ddd577"",""projectId"":""051c06f1-75cc-4548-856d-4923ddaba0dc""}","https://test12345.live/?num_scrambled_semantic=8&num_scrambled_causal=4&num_scrambled_schematic=4&participantId=E428B0F28E6C4535BD63256321774F23&assignmentId=732c8160-bd69-4826-8235-5bec87ddd577&projectId=051c06f1-75cc-4548-856d-4923ddaba0dc","E428B0F28E6C4535BD63256321774F23-2025-05-15-19-23-40","","null","","images/semantic_sequence/housework_semantic/housework_semantic_4.png","null","",""
"","","","","","image-button-response","67","310422","0.0-12.0-1.0-1.3","E428B0F28E6C4535BD63256321774F23","E428B0F28E6C4535BD63256321774F23","732c8160-bd69-4826-8235-5bec87ddd577","051c06f1-75cc-4548-856d-4923ddaba0dc","{""num_scrambled_semantic"":""8"",""num_scrambled_causal"":""4"",""num_scrambled_schematic"":""4"",""participantId"":""E428B0F28E6C4535BD63256321774F23"",""assignmentId"":""732c8160-bd69-4826-8235-5bec87ddd577"",""projectId"":""051c06f1-75cc-4548-856d-4923ddaba0dc""}","https://test12345.live/?num_scrambled_semantic=8&num_scrambled_causal=4&num_scrambled_schematic=4&participantId=E428B0F28E6C4535BD63256321774F23&assignmentId=732c8160-bd69-4826-8235-5bec87ddd577&projectId=051c06f1-75cc-4548-856d-4923ddaba0dc","E428B0F28E6C4535BD63256321774F23-2025-05-15-19-23-40","","2653","","images/semantic_sequence/housework_semantic/housework_semantic_4.png","0","",""
"","","","","","image-button-response","68","312226","0.0-12.0-1.0-2.3","E428B0F28E6C4535BD63256321774F23","E428B0F28E6C4535BD63256321774F23","732c8160-bd69-4826-8235-5bec87ddd577","051c06f1-75cc-4548-856d-4923ddaba0dc","{""num_scrambled_semantic"":""8"",""num_scrambled_causal"":""4"",""num_scrambled_schematic"":""4"",""participantId"":""E428B0F28E6C4535BD63256321774F23"",""assignmentId"":""732c8160-bd69-4826-8235-5bec87ddd577"",""projectId"":""051c06f1-75cc-4548-856d-4923ddaba0dc""}","https://test12345.live/?num_scrambled_semantic=8&num_scrambled_causal=4&num_scrambled_schematic=4&participantId=E428B0F28E6C4535BD63256321774F23&assignmentId=732c8160-bd69-4826-8235-5bec87ddd577&projectId=051c06f1-75cc-4548-856d-4923ddaba0dc","E428B0F28E6C4535BD63256321774F23-2025-05-15-19-23-40","","null","","[]","null","",""
"","","","","","image-button-response","69","316732","0.0-12.0-1.0-0.4","E428B0F28E6C4535BD63256321774F23","E428B0F28E6C4535BD63256321774F23","732c8160-bd69-4826-8235-5bec87ddd577","051c06f1-75cc-4548-856d-4923ddaba0dc","{""num_scrambled_semantic"":""8"",""num_scrambled_causal"":""4"",""num_scrambled_schematic"":""4"",""participantId"":""E428B0F28E6C4535BD63256321774F23"",""assignmentId"":""732c8160-bd69-4826-8235-5bec87ddd577"",""projectId"":""051c06f1-75cc-4548-856d-4923ddaba0dc""}","https://test12345.live/?num_scrambled_semantic=8&num_scrambled_causal=4&num_scrambled_schematic=4&participantId=E428B0F28E6C4535BD63256321774F23&assignmentId=732c8160-bd69-4826-8235-5bec87ddd577&projectId=051c06f1-75cc-4548-856d-4923ddaba0dc","E428B0F28E6C4535BD63256321774F23-2025-05-15-19-23-40","","null","","images/semantic_sequence/housework_semantic/housework_semantic_5.png","null","",""
"","","","","","image-button-response","70","320734","0.0-12.0-1.0-1.4","E428B0F28E6C4535BD63256321774F23","E428B0F28E6C4535BD63256321774F23","732c8160-bd69-4826-8235-5bec87ddd577","051c06f1-75cc-4548-856d-4923ddaba0dc","{""num_scrambled_semantic"":""8"",""num_scrambled_causal"":""4"",""num_scrambled_schematic"":""4"",""participantId"":""E428B0F28E6C4535BD63256321774F23"",""assignmentId"":""732c8160-bd69-4826-8235-5bec87ddd577"",""projectId"":""051c06f1-75cc-4548-856d-4923ddaba0dc""}","https://test12345.live/?num_scrambled_semantic=8&num_scrambled_causal=4&num_scrambled_schematic=4&participantId=E428B0F28E6C4535BD63256321774F23&assignmentId=732c8160-bd69-4826-8235-5bec87ddd577&projectId=051c06f1-75cc-4548-856d-4923ddaba0dc","E428B0F28E6C4535BD63256321774F23-2025-05-15-19-23-40","","null","","images/semantic_sequence/housework_semantic/housework_semantic_5.png","null","",""
"","","","","","image-button-response","71","322548","0.0-12.0-1.0-2.4","E428B0F28E6C4535BD63256321774F23","E428B0F28E6C4535BD63256321774F23","732c8160-bd69-4826-8235-5bec87ddd577","051c06f1-75cc-4548-856d-4923ddaba0dc","{""num_scrambled_semantic"":""8"",""num_scrambled_causal"":""4"",""num_scrambled_schematic"":""4"",""participantId"":""E428B0F28E6C4535BD63256321774F23"",""assignmentId"":""732c8160-bd69-4826-8235-5bec87ddd577"",""projectId"":""051c06f1-75cc-4548-856d-4923ddaba0dc""}","https://test12345.live/?num_scrambled_semantic=8&num_scrambled_causal=4&num_scrambled_schematic=4&participantId=E428B0F28E6C4535BD63256321774F23&assignmentId=732c8160-bd69-4826-8235-5bec87ddd577&projectId=051c06f1-75cc-4548-856d-4923ddaba0dc","E428B0F28E6C4535BD63256321774F23-2025-05-15-19-23-40","","null","","[]","null","",""
"","","","","","image-button-response","72","327055","0.0-12.0-1.0-0.5","E428B0F28E6C4535BD63256321774F23","E428B0F28E6C4535BD63256321774F23","732c8160-bd69-4826-8235-5bec87ddd577","051c06f1-75cc-4548-856d-4923ddaba0dc","{""num_scrambled_semantic"":""8"",""num_scrambled_causal"":""4"",""num_scrambled_schematic"":""4"",""participantId"":""E428B0F28E6C4535BD63256321774F23"",""assignmentId"":""732c8160-bd69-4826-8235-5bec87ddd577"",""projectId"":""051c06f1-75cc-4548-856d-4923ddaba0dc""}","https://test12345.live/?num_scrambled_semantic=8&num_scrambled_causal=4&num_scrambled_schematic=4&participantId=E428B0F28E6C4535BD63256321774F23&assignmentId=732c8160-bd69-4826-8235-5bec87ddd577&projectId=051c06f1-75cc-4548-856d-4923ddaba0dc","E428B0F28E6C4535BD63256321774F23-2025-05-15-19-23-40","","null","","images/semantic_sequence/housework_semantic/housework_semantic_6.png","null","",""
"","","","","","image-button-response","73","327793","0.0-12.0-1.0-1.5","E428B0F28E6C4535BD63256321774F23","E428B0F28E6C4535BD63256321774F23","732c8160-bd69-4826-8235-5bec87ddd577","051c06f1-75cc-4548-856d-4923ddaba0dc","{""num_scrambled_semantic"":""8"",""num_scrambled_causal"":""4"",""num_scrambled_schematic"":""4"",""participantId"":""E428B0F28E6C4535BD63256321774F23"",""assignmentId"":""732c8160-bd69-4826-8235-5bec87ddd577"",""projectId"":""051c06f1-75cc-4548-856d-4923ddaba0dc""}","https://test12345.live/?num_scrambled_semantic=8&num_scrambled_causal=4&num_scrambled_schematic=4&participantId=E428B0F28E6C4535BD63256321774F23&assignmentId=732c8160-bd69-4826-8235-5bec87ddd577&projectId=051c06f1-75cc-4548-856d-4923ddaba0dc","E428B0F28E6C4535BD63256321774F23-2025-05-15-19-23-40","","738","","images/semantic_sequence/housework_semantic/housework_semantic_6.png","0","",""
"","","","","","image-button-response","74","329595","0.0-12.0-1.0-2.5","E428B0F28E6C4535BD63256321774F23","E428B0F28E6C4535BD63256321774F23","732c8160-bd69-4826-8235-5bec87ddd577","051c06f1-75cc-4548-856d-4923ddaba0dc","{""num_scrambled_semantic"":""8"",""num_scrambled_causal"":""4"",""num_scrambled_schematic"":""4"",""participantId"":""E428B0F28E6C4535BD63256321774F23"",""assignmentId"":""732c8160-bd69-4826-8235-5bec87ddd577"",""projectId"":""051c06f1-75cc-4548-856d-4923ddaba0dc""}","https://test12345.live/?num_scrambled_semantic=8&num_scrambled_causal=4&num_scrambled_schematic=4&participantId=E428B0F28E6C4535BD63256321774F23&assignmentId=732c8160-bd69-4826-8235-5bec87ddd577&projectId=051c06f1-75cc-4548-856d-4923ddaba0dc","E428B0F28E6C4535BD63256321774F23-2025-05-15-19-23-40","","null","","[]","null","",""
"","","","","","image-button-response","75","334106","0.0-12.0-1.0-0.6","E428B0F28E6C4535BD63256321774F23","E428B0F28E6C4535BD63256321774F23","732c8160-bd69-4826-8235-5bec87ddd577","051c06f1-75cc-4548-856d-4923ddaba0dc","{""num_scrambled_semantic"":""8"",""num_scrambled_causal"":""4"",""num_scrambled_schematic"":""4"",""participantId"":""E428B0F28E6C4535BD63256321774F23"",""assignmentId"":""732c8160-bd69-4826-8235-5bec87ddd577"",""projectId"":""051c06f1-75cc-4548-856d-4923ddaba0dc""}","https://test12345.live/?num_scrambled_semantic=8&num_scrambled_causal=4&num_scrambled_schematic=4&participantId=E428B0F28E6C4535BD63256321774F23&assignmentId=732c8160-bd69-4826-8235-5bec87ddd577&projectId=051c06f1-75cc-4548-856d-4923ddaba0dc","E428B0F28E6C4535BD63256321774F23-2025-05-15-19-23-40","","null","","images/semantic_sequence/housework_semantic/housework_semantic_7.png","null","",""
"","","","","","image-button-response","76","335610","0.0-12.0-1.0-1.6","E428B0F28E6C4535BD63256321774F23","E428B0F28E6C4535BD63256321774F23","732c8160-bd69-4826-8235-5bec87ddd577","051c06f1-75cc-4548-856d-4923ddaba0dc","{""num_scrambled_semantic"":""8"",""num_scrambled_causal"":""4"",""num_scrambled_schematic"":""4"",""participantId"":""E428B0F28E6C4535BD63256321774F23"",""assignmentId"":""732c8160-bd69-4826-8235-5bec87ddd577"",""projectId"":""051c06f1-75cc-4548-856d-4923ddaba0dc""}","https://test12345.live/?num_scrambled_semantic=8&num_scrambled_causal=4&num_scrambled_schematic=4&participantId=E428B0F28E6C4535BD63256321774F23&assignmentId=732c8160-bd69-4826-8235-5bec87ddd577&projectId=051c06f1-75cc-4548-856d-4923ddaba0dc","E428B0F28E6C4535BD63256321774F23-2025-05-15-19-23-40","","1503","","images/semantic_sequence/housework_semantic/housework_semantic_7.png","0","",""
"","","","","","image-button-response","77","337418","0.0-12.0-1.0-2.6","E428B0F28E6C4535BD63256321774F23","E428B0F28E6C4535BD63256321774F23","732c8160-bd69-4826-8235-5bec87ddd577","051c06f1-75cc-4548-856d-4923ddaba0dc","{""num_scrambled_semantic"":""8"",""num_scrambled_causal"":""4"",""num_scrambled_schematic"":""4"",""participantId"":""E428B0F28E6C4535BD63256321774F23"",""assignmentId"":""732c8160-bd69-4826-8235-5bec87ddd577"",""projectId"":""051c06f1-75cc-4548-856d-4923ddaba0dc""}","https://test12345.live/?num_scrambled_semantic=8&num_scrambled_causal=4&num_scrambled_schematic=4&participantId=E428B0F28E6C4535BD63256321774F23&assignmentId=732c8160-bd69-4826-8235-5bec87ddd577&projectId=051c06f1-75cc-4548-856d-4923ddaba0dc","E428B0F28E6C4535BD63256321774F23-2025-05-15-19-23-40","","null","","[]","null","",""
"","","","","","image-button-response","78","341922","0.0-12.0-1.0-0.7","E428B0F28E6C4535BD63256321774F23","E428B0F28E6C4535BD63256321774F23","732c8160-bd69-4826-8235-5bec87ddd577","051c06f1-75cc-4548-856d-4923ddaba0dc","{""num_scrambled_semantic"":""8"",""num_scrambled_causal"":""4"",""num_scrambled_schematic"":""4"",""participantId"":""E428B0F28E6C4535BD63256321774F23"",""assignmentId"":""732c8160-bd69-4826-8235-5bec87ddd577"",""projectId"":""051c06f1-75cc-4548-856d-4923ddaba0dc""}","https://test12345.live/?num_scrambled_semantic=8&num_scrambled_causal=4&num_scrambled_schematic=4&participantId=E428B0F28E6C4535BD63256321774F23&assignmentId=732c8160-bd69-4826-8235-5bec87ddd577&projectId=051c06f1-75cc-4548-856d-4923ddaba0dc","E428B0F28E6C4535BD63256321774F23-2025-05-15-19-23-40","","null","","images/semantic_sequence/housework_semantic/housework_semantic_8.png","null","",""
"","","","","","image-button-response","79","343405","0.0-12.0-1.0-1.7","E428B0F28E6C4535BD63256321774F23","E428B0F28E6C4535BD63256321774F23","732c8160-bd69-4826-8235-5bec87ddd577","051c06f1-75cc-4548-856d-4923ddaba0dc","{""num_scrambled_semantic"":""8"",""num_scrambled_causal"":""4"",""num_scrambled_schematic"":""4"",""participantId"":""E428B0F28E6C4535BD63256321774F23"",""assignmentId"":""732c8160-bd69-4826-8235-5bec87ddd577"",""projectId"":""051c06f1-75cc-4548-856d-4923ddaba0dc""}","https://test12345.live/?num_scrambled_semantic=8&num_scrambled_causal=4&num_scrambled_schematic=4&participantId=E428B0F28E6C4535BD63256321774F23&assignmentId=732c8160-bd69-4826-8235-5bec87ddd577&projectId=051c06f1-75cc-4548-856d-4923ddaba0dc","E428B0F28E6C4535BD63256321774F23-2025-05-15-19-23-40","","1482","","images/semantic_sequence/housework_semantic/housework_semantic_8.png","0","",""
"","","","","","image-button-response","80","345206","0.0-12.0-1.0-2.7","E428B0F28E6C4535BD63256321774F23","E428B0F28E6C4535BD63256321774F23","732c8160-bd69-4826-8235-5bec87ddd577","051c06f1-75cc-4548-856d-4923ddaba0dc","{""num_scrambled_semantic"":""8"",""num_scrambled_causal"":""4"",""num_scrambled_schematic"":""4"",""participantId"":""E428B0F28E6C4535BD63256321774F23"",""assignmentId"":""732c8160-bd69-4826-8235-5bec87ddd577"",""projectId"":""051c06f1-75cc-4548-856d-4923ddaba0dc""}","https://test12345.live/?num_scrambled_semantic=8&num_scrambled_causal=4&num_scrambled_schematic=4&participantId=E428B0F28E6C4535BD63256321774F23&assignmentId=732c8160-bd69-4826-8235-5bec87ddd577&projectId=051c06f1-75cc-4548-856d-4923ddaba0dc","E428B0F28E6C4535BD63256321774F23-2025-05-15-19-23-40","","null","","[]","null","",""
"","","","","","image-button-response","81","349713","0.0-12.0-1.0-0.8","E428B0F28E6C4535BD63256321774F23","E428B0F28E6C4535BD63256321774F23","732c8160-bd69-4826-8235-5bec87ddd577","051c06f1-75cc-4548-856d-4923ddaba0dc","{""num_scrambled_semantic"":""8"",""num_scrambled_causal"":""4"",""num_scrambled_schematic"":""4"",""participantId"":""E428B0F28E6C4535BD63256321774F23"",""assignmentId"":""732c8160-bd69-4826-8235-5bec87ddd577"",""projectId"":""051c06f1-75cc-4548-856d-4923ddaba0dc""}","https://test12345.live/?num_scrambled_semantic=8&num_scrambled_causal=4&num_scrambled_schematic=4&participantId=E428B0F28E6C4535BD63256321774F23&assignmentId=732c8160-bd69-4826-8235-5bec87ddd577&projectId=051c06f1-75cc-4548-856d-4923ddaba0dc","E428B0F28E6C4535BD63256321774F23-2025-05-15-19-23-40","","null","","images/semantic_sequence/housework_semantic/housework_semantic_9.png","null","",""
"","","","","","image-button-response","82","350592","0.0-12.0-1.0-1.8","E428B0F28E6C4535BD63256321774F23","E428B0F28E6C4535BD63256321774F23","732c8160-bd69-4826-8235-5bec87ddd577","051c06f1-75cc-4548-856d-4923ddaba0dc","{""num_scrambled_semantic"":""8"",""num_scrambled_causal"":""4"",""num_scrambled_schematic"":""4"",""participantId"":""E428B0F28E6C4535BD63256321774F23"",""assignmentId"":""732c8160-bd69-4826-8235-5bec87ddd577"",""projectId"":""051c06f1-75cc-4548-856d-4923ddaba0dc""}","https://test12345.live/?num_scrambled_semantic=8&num_scrambled_causal=4&num_scrambled_schematic=4&participantId=E428B0F28E6C4535BD63256321774F23&assignmentId=732c8160-bd69-4826-8235-5bec87ddd577&projectId=051c06f1-75cc-4548-856d-4923ddaba0dc","E428B0F28E6C4535BD63256321774F23-2025-05-15-19-23-40","","878","","images/semantic_sequence/housework_semantic/housework_semantic_9.png","0","",""
"","","","","","image-button-response","83","352398","0.0-12.0-1.0-2.8","E428B0F28E6C4535BD63256321774F23","E428B0F28E6C4535BD63256321774F23","732c8160-bd69-4826-8235-5bec87ddd577","051c06f1-75cc-4548-856d-4923ddaba0dc","{""num_scrambled_semantic"":""8"",""num_scrambled_causal"":""4"",""num_scrambled_schematic"":""4"",""participantId"":""E428B0F28E6C4535BD63256321774F23"",""assignmentId"":""732c8160-bd69-4826-8235-5bec87ddd577"",""projectId"":""051c06f1-75cc-4548-856d-4923ddaba0dc""}","https://test12345.live/?num_scrambled_semantic=8&num_scrambled_causal=4&num_scrambled_schematic=4&participantId=E428B0F28E6C4535BD63256321774F23&assignmentId=732c8160-bd69-4826-8235-5bec87ddd577&projectId=051c06f1-75cc-4548-856d-4923ddaba0dc","E428B0F28E6C4535BD63256321774F23-2025-05-15-19-23-40","","null","","[]","null","",""
"","","","","","image-button-response","84","356909","0.0-12.0-1.0-0.9","E428B0F28E6C4535BD63256321774F23","E428B0F28E6C4535BD63256321774F23","732c8160-bd69-4826-8235-5bec87ddd577","051c06f1-75cc-4548-856d-4923ddaba0dc","{""num_scrambled_semantic"":""8"",""num_scrambled_causal"":""4"",""num_scrambled_schematic"":""4"",""participantId"":""E428B0F28E6C4535BD63256321774F23"",""assignmentId"":""732c8160-bd69-4826-8235-5bec87ddd577"",""projectId"":""051c06f1-75cc-4548-856d-4923ddaba0dc""}","https://test12345.live/?num_scrambled_semantic=8&num_scrambled_causal=4&num_scrambled_schematic=4&participantId=E428B0F28E6C4535BD63256321774F23&assignmentId=732c8160-bd69-4826-8235-5bec87ddd577&projectId=051c06f1-75cc-4548-856d-4923ddaba0dc","E428B0F28E6C4535BD63256321774F23-2025-05-15-19-23-40","","null","","images/semantic_sequence/housework_semantic/housework_semantic_ten.png","null","",""
"","","","","","image-button-response","85","358116","0.0-12.0-1.0-1.9","E428B0F28E6C4535BD63256321774F23","E428B0F28E6C4535BD63256321774F23","732c8160-bd69-4826-8235-5bec87ddd577","051c06f1-75cc-4548-856d-4923ddaba0dc","{""num_scrambled_semantic"":""8"",""num_scrambled_causal"":""4"",""num_scrambled_schematic"":""4"",""participantId"":""E428B0F28E6C4535BD63256321774F23"",""assignmentId"":""732c8160-bd69-4826-8235-5bec87ddd577"",""projectId"":""051c06f1-75cc-4548-856d-4923ddaba0dc""}","https://test12345.live/?num_scrambled_semantic=8&num_scrambled_causal=4&num_scrambled_schematic=4&participantId=E428B0F28E6C4535BD63256321774F23&assignmentId=732c8160-bd69-4826-8235-5bec87ddd577&projectId=051c06f1-75cc-4548-856d-4923ddaba0dc","E428B0F28E6C4535BD63256321774F23-2025-05-15-19-23-40","","1207","","images/semantic_sequence/housework_semantic/housework_semantic_ten.png","0","",""
"","","","","","image-button-response","86","359928","0.0-12.0-1.0-2.9","E428B0F28E6C4535BD63256321774F23","E428B0F28E6C4535BD63256321774F23","732c8160-bd69-4826-8235-5bec87ddd577","051c06f1-75cc-4548-856d-4923ddaba0dc","{""num_scrambled_semantic"":""8"",""num_scrambled_causal"":""4"",""num_scrambled_schematic"":""4"",""participantId"":""E428B0F28E6C4535BD63256321774F23"",""assignmentId"":""732c8160-bd69-4826-8235-5bec87ddd577"",""projectId"":""051c06f1-75cc-4548-856d-4923ddaba0dc""}","https://test12345.live/?num_scrambled_semantic=8&num_scrambled_causal=4&num_scrambled_schematic=4&participantId=E428B0F28E6C4535BD63256321774F23&assignmentId=732c8160-bd69-4826-8235-5bec87ddd577&projectId=051c06f1-75cc-4548-856d-4923ddaba0dc","E428B0F28E6C4535BD63256321774F23-2025-05-15-19-23-40","","null","","[]","null","",""
"","","","","","html-audio-response","87","383517","0.0-13.0","E428B0F28E6C4535BD63256321774F23","E428B0F28E6C4535BD63256321774F23","732c8160-bd69-4826-8235-5bec87ddd577","051c06f1-75cc-4548-856d-4923ddaba0dc","{""num_scrambled_semantic"":""8"",""num_scrambled_causal"":""4"",""num_scrambled_schematic"":""4"",""participantId"":""E428B0F28E6C4535BD63256321774F23"",""assignmentId"":""732c8160-bd69-4826-8235-5bec87ddd577"",""projectId"":""051c06f1-75cc-4548-856d-4923ddaba0dc""}","https://test12345.live/?num_scrambled_semantic=8&num_scrambled_causal=4&num_scrambled_schematic=4&participantId=E428B0F28E6C4535BD63256321774F23&assignmentId=732c8160-bd69-4826-8235-5bec87ddd577&projectId=051c06f1-75cc-4548-856d-4923ddaba0dc","E428B0F28E6C4535BD63256321774F23-2025-05-15-19-23-40","","22834","","[""<span style=\""color: red; font-size: 24px\""> NOW RECORDING</span><p>Please say out loud all the images you saw, as many as you can remember. The images can be said in any order.</p>""]","","1","housework_semantic"
"","","","","","image-button-response","88","389534","0.0-14.0-0.0","E428B0F28E6C4535BD63256321774F23","E428B0F28E6C4535BD63256321774F23","732c8160-bd69-4826-8235-5bec87ddd577","051c06f1-75cc-4548-856d-4923ddaba0dc","{""num_scrambled_semantic"":""8"",""num_scrambled_causal"":""4"",""num_scrambled_schematic"":""4"",""participantId"":""E428B0F28E6C4535BD63256321774F23"",""assignmentId"":""732c8160-bd69-4826-8235-5bec87ddd577"",""projectId"":""051c06f1-75cc-4548-856d-4923ddaba0dc""}","https://test12345.live/?num_scrambled_semantic=8&num_scrambled_causal=4&num_scrambled_schematic=4&participantId=E428B0F28E6C4535BD63256321774F23&assignmentId=732c8160-bd69-4826-8235-5bec87ddd577&projectId=051c06f1-75cc-4548-856d-4923ddaba0dc","E428B0F28E6C4535BD63256321774F23-2025-05-15-19-23-40","","null","","images/causal_sequence/dog_causal/dog_causal_0.png","null","",""
"","","","","","image-button-response","89","394037","0.0-14.0-1.0-0.0","E428B0F28E6C4535BD63256321774F23","E428B0F28E6C4535BD63256321774F23","732c8160-bd69-4826-8235-5bec87ddd577","051c06f1-75cc-4548-856d-4923ddaba0dc","{""num_scrambled_semantic"":""8"",""num_scrambled_causal"":""4"",""num_scrambled_schematic"":""4"",""participantId"":""E428B0F28E6C4535BD63256321774F23"",""assignmentId"":""732c8160-bd69-4826-8235-5bec87ddd577"",""projectId"":""051c06f1-75cc-4548-856d-4923ddaba0dc""}","https://test12345.live/?num_scrambled_semantic=8&num_scrambled_causal=4&num_scrambled_schematic=4&participantId=E428B0F28E6C4535BD63256321774F23&assignmentId=732c8160-bd69-4826-8235-5bec87ddd577&projectId=051c06f1-75cc-4548-856d-4923ddaba0dc","E428B0F28E6C4535BD63256321774F23-2025-05-15-19-23-40","","null","","images/causal_sequence/dog_causal/dog_causal_1.png","null","",""
"","","","","","image-button-response","90","395357","0.0-14.0-1.0-1.0","E428B0F28E6C4535BD63256321774F23","E428B0F28E6C4535BD63256321774F23","732c8160-bd69-4826-8235-5bec87ddd577","051c06f1-75cc-4548-856d-4923ddaba0dc","{""num_scrambled_semantic"":""8"",""num_scrambled_causal"":""4"",""num_scrambled_schematic"":""4"",""participantId"":""E428B0F28E6C4535BD63256321774F23"",""assignmentId"":""732c8160-bd69-4826-8235-5bec87ddd577"",""projectId"":""051c06f1-75cc-4548-856d-4923ddaba0dc""}","https://test12345.live/?num_scrambled_semantic=8&num_scrambled_causal=4&num_scrambled_schematic=4&participantId=E428B0F28E6C4535BD63256321774F23&assignmentId=732c8160-bd69-4826-8235-5bec87ddd577&projectId=051c06f1-75cc-4548-856d-4923ddaba0dc","E428B0F28E6C4535BD63256321774F23-2025-05-15-19-23-40","","1320","","images/causal_sequence/dog_causal/dog_causal_1.png","0","",""
"","","","","","image-button-response","91","397158","0.0-14.0-1.0-2.0","E428B0F28E6C4535BD63256321774F23","E428B0F28E6C4535BD63256321774F23","732c8160-bd69-4826-8235-5bec87ddd577","051c06f1-75cc-4548-856d-4923ddaba0dc","{""num_scrambled_semantic"":""8"",""num_scrambled_causal"":""4"",""num_scrambled_schematic"":""4"",""participantId"":""E428B0F28E6C4535BD63256321774F23"",""assignmentId"":""732c8160-bd69-4826-8235-5bec87ddd577"",""projectId"":""051c06f1-75cc-4548-856d-4923ddaba0dc""}","https://test12345.live/?num_scrambled_semantic=8&num_scrambled_causal=4&num_scrambled_schematic=4&participantId=E428B0F28E6C4535BD63256321774F23&assignmentId=732c8160-bd69-4826-8235-5bec87ddd577&projectId=051c06f1-75cc-4548-856d-4923ddaba0dc","E428B0F28E6C4535BD63256321774F23-2025-05-15-19-23-40","","null","","[]","null","",""
"","","","","","image-button-response","92","401664","0.0-14.0-1.0-0.1","E428B0F28E6C4535BD63256321774F23","E428B0F28E6C4535BD63256321774F23","732c8160-bd69-4826-8235-5bec87ddd577","051c06f1-75cc-4548-856d-4923ddaba0dc","{""num_scrambled_semantic"":""8"",""num_scrambled_causal"":""4"",""num_scrambled_schematic"":""4"",""participantId"":""E428B0F28E6C4535BD63256321774F23"",""assignmentId"":""732c8160-bd69-4826-8235-5bec87ddd577"",""projectId"":""051c06f1-75cc-4548-856d-4923ddaba0dc""}","https://test12345.live/?num_scrambled_semantic=8&num_scrambled_causal=4&num_scrambled_schematic=4&participantId=E428B0F28E6C4535BD63256321774F23&assignmentId=732c8160-bd69-4826-8235-5bec87ddd577&projectId=051c06f1-75cc-4548-856d-4923ddaba0dc","E428B0F28E6C4535BD63256321774F23-2025-05-15-19-23-40","","null","","images/causal_sequence/dog_causal/dog_causal_2.png","null","",""
"","","","","","image-button-response","93","403300","0.0-14.0-1.0-1.1","E428B0F28E6C4535BD63256321774F23","E428B0F28E6C4535BD63256321774F23","732c8160-bd69-4826-8235-5bec87ddd577","051c06f1-75cc-4548-856d-4923ddaba0dc","{""num_scrambled_semantic"":""8"",""num_scrambled_causal"":""4"",""num_scrambled_schematic"":""4"",""participantId"":""E428B0F28E6C4535BD63256321774F23"",""assignmentId"":""732c8160-bd69-4826-8235-5bec87ddd577"",""projectId"":""051c06f1-75cc-4548-856d-4923ddaba0dc""}","https://test12345.live/?num_scrambled_semantic=8&num_scrambled_causal=4&num_scrambled_schematic=4&participantId=E428B0F28E6C4535BD63256321774F23&assignmentId=732c8160-bd69-4826-8235-5bec87ddd577&projectId=051c06f1-75cc-4548-856d-4923ddaba0dc","E428B0F28E6C4535BD63256321774F23-2025-05-15-19-23-40","","1635","","images/causal_sequence/dog_causal/dog_causal_2.png","0","",""
"","","","","","image-button-response","94","405101","0.0-14.0-1.0-2.1","E428B0F28E6C4535BD63256321774F23","E428B0F28E6C4535BD63256321774F23","732c8160-bd69-4826-8235-5bec87ddd577","051c06f1-75cc-4548-856d-4923ddaba0dc","{""num_scrambled_semantic"":""8"",""num_scrambled_causal"":""4"",""num_scrambled_schematic"":""4"",""participantId"":""E428B0F28E6C4535BD63256321774F23"",""assignmentId"":""732c8160-bd69-4826-8235-5bec87ddd577"",""projectId"":""051c06f1-75cc-4548-856d-4923ddaba0dc""}","https://test12345.live/?num_scrambled_semantic=8&num_scrambled_causal=4&num_scrambled_schematic=4&participantId=E428B0F28E6C4535BD63256321774F23&assignmentId=732c8160-bd69-4826-8235-5bec87ddd577&projectId=051c06f1-75cc-4548-856d-4923ddaba0dc","E428B0F28E6C4535BD63256321774F23-2025-05-15-19-23-40","","null","","[]","null","",""
"","","","","","image-button-response","95","409606","0.0-14.0-1.0-0.2","E428B0F28E6C4535BD63256321774F23","E428B0F28E6C4535BD63256321774F23","732c8160-bd69-4826-8235-5bec87ddd577","051c06f1-75cc-4548-856d-4923ddaba0dc","{""num_scrambled_semantic"":""8"",""num_scrambled_causal"":""4"",""num_scrambled_schematic"":""4"",""participantId"":""E428B0F28E6C4535BD63256321774F23"",""assignmentId"":""732c8160-bd69-4826-8235-5bec87ddd577"",""projectId"":""051c06f1-75cc-4548-856d-4923ddaba0dc""}","https://test12345.live/?num_scrambled_semantic=8&num_scrambled_causal=4&num_scrambled_schematic=4&participantId=E428B0F28E6C4535BD63256321774F23&assignmentId=732c8160-bd69-4826-8235-5bec87ddd577&projectId=051c06f1-75cc-4548-856d-4923ddaba0dc","E428B0F28E6C4535BD63256321774F23-2025-05-15-19-23-40","","null","","images/causal_sequence/dog_causal/dog_causal_3.png","null","",""
"","","","","","image-button-response","96","411301","0.0-14.0-1.0-1.2","E428B0F28E6C4535BD63256321774F23","E428B0F28E6C4535BD63256321774F23","732c8160-bd69-4826-8235-5bec87ddd577","051c06f1-75cc-4548-856d-4923ddaba0dc","{""num_scrambled_semantic"":""8"",""num_scrambled_causal"":""4"",""num_scrambled_schematic"":""4"",""participantId"":""E428B0F28E6C4535BD63256321774F23"",""assignmentId"":""732c8160-bd69-4826-8235-5bec87ddd577"",""projectId"":""051c06f1-75cc-4548-856d-4923ddaba0dc""}","https://test12345.live/?num_scrambled_semantic=8&num_scrambled_causal=4&num_scrambled_schematic=4&participantId=E428B0F28E6C4535BD63256321774F23&assignmentId=732c8160-bd69-4826-8235-5bec87ddd577&projectId=051c06f1-75cc-4548-856d-4923ddaba0dc","E428B0F28E6C4535BD63256321774F23-2025-05-15-19-23-40","","1694","","images/causal_sequence/dog_causal/dog_causal_3.png","0","",""
"","","","","","image-button-response","97","413110","0.0-14.0-1.0-2.2","E428B0F28E6C4535BD63256321774F23","E428B0F28E6C4535BD63256321774F23","732c8160-bd69-4826-8235-5bec87ddd577","051c06f1-75cc-4548-856d-4923ddaba0dc","{""num_scrambled_semantic"":""8"",""num_scrambled_causal"":""4"",""num_scrambled_schematic"":""4"",""participantId"":""E428B0F28E6C4535BD63256321774F23"",""assignmentId"":""732c8160-bd69-4826-8235-5bec87ddd577"",""projectId"":""051c06f1-75cc-4548-856d-4923ddaba0dc""}","https://test12345.live/?num_scrambled_semantic=8&num_scrambled_causal=4&num_scrambled_schematic=4&participantId=E428B0F28E6C4535BD63256321774F23&assignmentId=732c8160-bd69-4826-8235-5bec87ddd577&projectId=051c06f1-75cc-4548-856d-4923ddaba0dc","E428B0F28E6C4535BD63256321774F23-2025-05-15-19-23-40","","null","","[]","null","",""
"","","","","","image-button-response","98","417614","0.0-14.0-1.0-0.3","E428B0F28E6C4535BD63256321774F23","E428B0F28E6C4535BD63256321774F23","732c8160-bd69-4826-8235-5bec87ddd577","051c06f1-75cc-4548-856d-4923ddaba0dc","{""num_scrambled_semantic"":""8"",""num_scrambled_causal"":""4"",""num_scrambled_schematic"":""4"",""participantId"":""E428B0F28E6C4535BD63256321774F23"",""assignmentId"":""732c8160-bd69-4826-8235-5bec87ddd577"",""projectId"":""051c06f1-75cc-4548-856d-4923ddaba0dc""}","https://test12345.live/?num_scrambled_semantic=8&num_scrambled_causal=4&num_scrambled_schematic=4&participantId=E428B0F28E6C4535BD63256321774F23&assignmentId=732c8160-bd69-4826-8235-5bec87ddd577&projectId=051c06f1-75cc-4548-856d-4923ddaba0dc","E428B0F28E6C4535BD63256321774F23-2025-05-15-19-23-40","","null","","images/causal_sequence/dog_causal/dog_causal_4.png","null","",""
"","","","","","image-button-response","99","418887","0.0-14.0-1.0-1.3","E428B0F28E6C4535BD63256321774F23","E428B0F28E6C4535BD63256321774F23","732c8160-bd69-4826-8235-5bec87ddd577","051c06f1-75cc-4548-856d-4923ddaba0dc","{""num_scrambled_semantic"":""8"",""num_scrambled_causal"":""4"",""num_scrambled_schematic"":""4"",""participantId"":""E428B0F28E6C4535BD63256321774F23"",""assignmentId"":""732c8160-bd69-4826-8235-5bec87ddd577"",""projectId"":""051c06f1-75cc-4548-856d-4923ddaba0dc""}","https://test12345.live/?num_scrambled_semantic=8&num_scrambled_causal=4&num_scrambled_schematic=4&participantId=E428B0F28E6C4535BD63256321774F23&assignmentId=732c8160-bd69-4826-8235-5bec87ddd577&projectId=051c06f1-75cc-4548-856d-4923ddaba0dc","E428B0F28E6C4535BD63256321774F23-2025-05-15-19-23-40","","1272","","images/causal_sequence/dog_causal/dog_causal_4.png","0","",""
"","","","","","image-button-response","100","420699","0.0-14.0-1.0-2.3","E428B0F28E6C4535BD63256321774F23","E428B0F28E6C4535BD63256321774F23","732c8160-bd69-4826-8235-5bec87ddd577","051c06f1-75cc-4548-856d-4923ddaba0dc","{""num_scrambled_semantic"":""8"",""num_scrambled_causal"":""4"",""num_scrambled_schematic"":""4"",""participantId"":""E428B0F28E6C4535BD63256321774F23"",""assignmentId"":""732c8160-bd69-4826-8235-5bec87ddd577"",""projectId"":""051c06f1-75cc-4548-856d-4923ddaba0dc""}","https://test12345.live/?num_scrambled_semantic=8&num_scrambled_causal=4&num_scrambled_schematic=4&participantId=E428B0F28E6C4535BD63256321774F23&assignmentId=732c8160-bd69-4826-8235-5bec87ddd577&projectId=051c06f1-75cc-4548-856d-4923ddaba0dc","E428B0F28E6C4535BD63256321774F23-2025-05-15-19-23-40","","null","","[]","null","",""
"","","","","","image-button-response","101","425211","0.0-14.0-1.0-0.4","E428B0F28E6C4535BD63256321774F23","E428B0F28E6C4535BD63256321774F23","732c8160-bd69-4826-8235-5bec87ddd577","051c06f1-75cc-4548-856d-4923ddaba0dc","{""num_scrambled_semantic"":""8"",""num_scrambled_causal"":""4"",""num_scrambled_schematic"":""4"",""participantId"":""E428B0F28E6C4535BD63256321774F23"",""assignmentId"":""732c8160-bd69-4826-8235-5bec87ddd577"",""projectId"":""051c06f1-75cc-4548-856d-4923ddaba0dc""}","https://test12345.live/?num_scrambled_semantic=8&num_scrambled_causal=4&num_scrambled_schematic=4&participantId=E428B0F28E6C4535BD63256321774F23&assignmentId=732c8160-bd69-4826-8235-5bec87ddd577&projectId=051c06f1-75cc-4548-856d-4923ddaba0dc","E428B0F28E6C4535BD63256321774F23-2025-05-15-19-23-40","","null","","images/causal_sequence/dog_causal/dog_causal_5.png","null","",""
"","","","","","image-button-response","102","426333","0.0-14.0-1.0-1.4","E428B0F28E6C4535BD63256321774F23","E428B0F28E6C4535BD63256321774F23","732c8160-bd69-4826-8235-5bec87ddd577","051c06f1-75cc-4548-856d-4923ddaba0dc","{""num_scrambled_semantic"":""8"",""num_scrambled_causal"":""4"",""num_scrambled_schematic"":""4"",""participantId"":""E428B0F28E6C4535BD63256321774F23"",""assignmentId"":""732c8160-bd69-4826-8235-5bec87ddd577"",""projectId"":""051c06f1-75cc-4548-856d-4923ddaba0dc""}","https://test12345.live/?num_scrambled_semantic=8&num_scrambled_causal=4&num_scrambled_schematic=4&participantId=E428B0F28E6C4535BD63256321774F23&assignmentId=732c8160-bd69-4826-8235-5bec87ddd577&projectId=051c06f1-75cc-4548-856d-4923ddaba0dc","E428B0F28E6C4535BD63256321774F23-2025-05-15-19-23-40","","1121","","images/causal_sequence/dog_causal/dog_causal_5.png","0","",""
"","","","","","image-button-response","103","428133","0.0-14.0-1.0-2.4","E428B0F28E6C4535BD63256321774F23","E428B0F28E6C4535BD63256321774F23","732c8160-bd69-4826-8235-5bec87ddd577","051c06f1-75cc-4548-856d-4923ddaba0dc","{""num_scrambled_semantic"":""8"",""num_scrambled_causal"":""4"",""num_scrambled_schematic"":""4"",""participantId"":""E428B0F28E6C4535BD63256321774F23"",""assignmentId"":""732c8160-bd69-4826-8235-5bec87ddd577"",""projectId"":""051c06f1-75cc-4548-856d-4923ddaba0dc""}","https://test12345.live/?num_scrambled_semantic=8&num_scrambled_causal=4&num_scrambled_schematic=4&participantId=E428B0F28E6C4535BD63256321774F23&assignmentId=732c8160-bd69-4826-8235-5bec87ddd577&projectId=051c06f1-75cc-4548-856d-4923ddaba0dc","E428B0F28E6C4535BD63256321774F23-2025-05-15-19-23-40","","null","","[]","null","",""
"","","","","","image-button-response","104","432650","0.0-14.0-1.0-0.5","E428B0F28E6C4535BD63256321774F23","E428B0F28E6C4535BD63256321774F23","732c8160-bd69-4826-8235-5bec87ddd577","051c06f1-75cc-4548-856d-4923ddaba0dc","{""num_scrambled_semantic"":""8"",""num_scrambled_causal"":""4"",""num_scrambled_schematic"":""4"",""participantId"":""E428B0F28E6C4535BD63256321774F23"",""assignmentId"":""732c8160-bd69-4826-8235-5bec87ddd577"",""projectId"":""051c06f1-75cc-4548-856d-4923ddaba0dc""}","https://test12345.live/?num_scrambled_semantic=8&num_scrambled_causal=4&num_scrambled_schematic=4&participantId=E428B0F28E6C4535BD63256321774F23&assignmentId=732c8160-bd69-4826-8235-5bec87ddd577&projectId=051c06f1-75cc-4548-856d-4923ddaba0dc","E428B0F28E6C4535BD63256321774F23-2025-05-15-19-23-40","","null","","images/causal_sequence/dog_causal/dog_causal_6.png","null","",""
"","","","","","image-button-response","105","433858","0.0-14.0-1.0-1.5","E428B0F28E6C4535BD63256321774F23","E428B0F28E6C4535BD63256321774F23","732c8160-bd69-4826-8235-5bec87ddd577","051c06f1-75cc-4548-856d-4923ddaba0dc","{""num_scrambled_semantic"":""8"",""num_scrambled_causal"":""4"",""num_scrambled_schematic"":""4"",""participantId"":""E428B0F28E6C4535BD63256321774F23"",""assignmentId"":""732c8160-bd69-4826-8235-5bec87ddd577"",""projectId"":""051c06f1-75cc-4548-856d-4923ddaba0dc""}","https://test12345.live/?num_scrambled_semantic=8&num_scrambled_causal=4&num_scrambled_schematic=4&participantId=E428B0F28E6C4535BD63256321774F23&assignmentId=732c8160-bd69-4826-8235-5bec87ddd577&projectId=051c06f1-75cc-4548-856d-4923ddaba0dc","E428B0F28E6C4535BD63256321774F23-2025-05-15-19-23-40","","1207","","images/causal_sequence/dog_causal/dog_causal_6.png","0","",""
"","","","","","image-button-response","106","435668","0.0-14.0-1.0-2.5","E428B0F28E6C4535BD63256321774F23","E428B0F28E6C4535BD63256321774F23","732c8160-bd69-4826-8235-5bec87ddd577","051c06f1-75cc-4548-856d-4923ddaba0dc","{""num_scrambled_semantic"":""8"",""num_scrambled_causal"":""4"",""num_scrambled_schematic"":""4"",""participantId"":""E428B0F28E6C4535BD63256321774F23"",""assignmentId"":""732c8160-bd69-4826-8235-5bec87ddd577"",""projectId"":""051c06f1-75cc-4548-856d-4923ddaba0dc""}","https://test12345.live/?num_scrambled_semantic=8&num_scrambled_causal=4&num_scrambled_schematic=4&participantId=E428B0F28E6C4535BD63256321774F23&assignmentId=732c8160-bd69-4826-8235-5bec87ddd577&projectId=051c06f1-75cc-4548-856d-4923ddaba0dc","E428B0F28E6C4535BD63256321774F23-2025-05-15-19-23-40","","null","","[]","null","",""
"","","","","","image-button-response","107","440171","0.0-14.0-1.0-0.6","E428B0F28E6C4535BD63256321774F23","E428B0F28E6C4535BD63256321774F23","732c8160-bd69-4826-8235-5bec87ddd577","051c06f1-75cc-4548-856d-4923ddaba0dc","{""num_scrambled_semantic"":""8"",""num_scrambled_causal"":""4"",""num_scrambled_schematic"":""4"",""participantId"":""E428B0F28E6C4535BD63256321774F23"",""assignmentId"":""732c8160-bd69-4826-8235-5bec87ddd577"",""projectId"":""051c06f1-75cc-4548-856d-4923ddaba0dc""}","https://test12345.live/?num_scrambled_semantic=8&num_scrambled_causal=4&num_scrambled_schematic=4&participantId=E428B0F28E6C4535BD63256321774F23&assignmentId=732c8160-bd69-4826-8235-5bec87ddd577&projectId=051c06f1-75cc-4548-856d-4923ddaba0dc","E428B0F28E6C4535BD63256321774F23-2025-05-15-19-23-40","","null","","images/causal_sequence/dog_causal/dog_causal_7.png","null","",""
"","","","","","image-button-response","108","441232","0.0-14.0-1.0-1.6","E428B0F28E6C4535BD63256321774F23","E428B0F28E6C4535BD63256321774F23","732c8160-bd69-4826-8235-5bec87ddd577","051c06f1-75cc-4548-856d-4923ddaba0dc","{""num_scrambled_semantic"":""8"",""num_scrambled_causal"":""4"",""num_scrambled_schematic"":""4"",""participantId"":""E428B0F28E6C4535BD63256321774F23"",""assignmentId"":""732c8160-bd69-4826-8235-5bec87ddd577"",""projectId"":""051c06f1-75cc-4548-856d-4923ddaba0dc""}","https://test12345.live/?num_scrambled_semantic=8&num_scrambled_causal=4&num_scrambled_schematic=4&participantId=E428B0F28E6C4535BD63256321774F23&assignmentId=732c8160-bd69-4826-8235-5bec87ddd577&projectId=051c06f1-75cc-4548-856d-4923ddaba0dc","E428B0F28E6C4535BD63256321774F23-2025-05-15-19-23-40","","1060","","images/causal_sequence/dog_causal/dog_causal_7.png","0","",""
"","","","","","image-button-response","109","443042","0.0-14.0-1.0-2.6","E428B0F28E6C4535BD63256321774F23","E428B0F28E6C4535BD63256321774F23","732c8160-bd69-4826-8235-5bec87ddd577","051c06f1-75cc-4548-856d-4923ddaba0dc","{""num_scrambled_semantic"":""8"",""num_scrambled_causal"":""4"",""num_scrambled_schematic"":""4"",""participantId"":""E428B0F28E6C4535BD63256321774F23"",""assignmentId"":""732c8160-bd69-4826-8235-5bec87ddd577"",""projectId"":""051c06f1-75cc-4548-856d-4923ddaba0dc""}","https://test12345.live/?num_scrambled_semantic=8&num_scrambled_causal=4&num_scrambled_schematic=4&participantId=E428B0F28E6C4535BD63256321774F23&assignmentId=732c8160-bd69-4826-8235-5bec87ddd577&projectId=051c06f1-75cc-4548-856d-4923ddaba0dc","E428B0F28E6C4535BD63256321774F23-2025-05-15-19-23-40","","null","","[]","null","",""
"","","","","","image-button-response","110","447556","0.0-14.0-1.0-0.7","E428B0F28E6C4535BD63256321774F23","E428B0F28E6C4535BD63256321774F23","732c8160-bd69-4826-8235-5bec87ddd577","051c06f1-75cc-4548-856d-4923ddaba0dc","{""num_scrambled_semantic"":""8"",""num_scrambled_causal"":""4"",""num_scrambled_schematic"":""4"",""participantId"":""E428B0F28E6C4535BD63256321774F23"",""assignmentId"":""732c8160-bd69-4826-8235-5bec87ddd577"",""projectId"":""051c06f1-75cc-4548-856d-4923ddaba0dc""}","https://test12345.live/?num_scrambled_semantic=8&num_scrambled_causal=4&num_scrambled_schematic=4&participantId=E428B0F28E6C4535BD63256321774F23&assignmentId=732c8160-bd69-4826-8235-5bec87ddd577&projectId=051c06f1-75cc-4548-856d-4923ddaba0dc","E428B0F28E6C4535BD63256321774F23-2025-05-15-19-23-40","","null","","images/causal_sequence/dog_causal/dog_causal_8.png","null","",""
"","","","","","image-button-response","111","449312","0.0-14.0-1.0-1.7","E428B0F28E6C4535BD63256321774F23","E428B0F28E6C4535BD63256321774F23","732c8160-bd69-4826-8235-5bec87ddd577","051c06f1-75cc-4548-856d-4923ddaba0dc","{""num_scrambled_semantic"":""8"",""num_scrambled_causal"":""4"",""num_scrambled_schematic"":""4"",""participantId"":""E428B0F28E6C4535BD63256321774F23"",""assignmentId"":""732c8160-bd69-4826-8235-5bec87ddd577"",""projectId"":""051c06f1-75cc-4548-856d-4923ddaba0dc""}","https://test12345.live/?num_scrambled_semantic=8&num_scrambled_causal=4&num_scrambled_schematic=4&participantId=E428B0F28E6C4535BD63256321774F23&assignmentId=732c8160-bd69-4826-8235-5bec87ddd577&projectId=051c06f1-75cc-4548-856d-4923ddaba0dc","E428B0F28E6C4535BD63256321774F23-2025-05-15-19-23-40","","1755","","images/causal_sequence/dog_causal/dog_causal_8.png","0","",""
"","","","","","image-button-response","112","451114","0.0-14.0-1.0-2.7","E428B0F28E6C4535BD63256321774F23","E428B0F28E6C4535BD63256321774F23","732c8160-bd69-4826-8235-5bec87ddd577","051c06f1-75cc-4548-856d-4923ddaba0dc","{""num_scrambled_semantic"":""8"",""num_scrambled_causal"":""4"",""num_scrambled_schematic"":""4"",""participantId"":""E428B0F28E6C4535BD63256321774F23"",""assignmentId"":""732c8160-bd69-4826-8235-5bec87ddd577"",""projectId"":""051c06f1-75cc-4548-856d-4923ddaba0dc""}","https://test12345.live/?num_scrambled_semantic=8&num_scrambled_causal=4&num_scrambled_schematic=4&participantId=E428B0F28E6C4535BD63256321774F23&assignmentId=732c8160-bd69-4826-8235-5bec87ddd577&projectId=051c06f1-75cc-4548-856d-4923ddaba0dc","E428B0F28E6C4535BD63256321774F23-2025-05-15-19-23-40","","null","","[]","null","",""
"","","","","","image-button-response","113","455629","0.0-14.0-1.0-0.8","E428B0F28E6C4535BD63256321774F23","E428B0F28E6C4535BD63256321774F23","732c8160-bd69-4826-8235-5bec87ddd577","051c06f1-75cc-4548-856d-4923ddaba0dc","{""num_scrambled_semantic"":""8"",""num_scrambled_causal"":""4"",""num_scrambled_schematic"":""4"",""participantId"":""E428B0F28E6C4535BD63256321774F23"",""assignmentId"":""732c8160-bd69-4826-8235-5bec87ddd577"",""projectId"":""051c06f1-75cc-4548-856d-4923ddaba0dc""}","https://test12345.live/?num_scrambled_semantic=8&num_scrambled_causal=4&num_scrambled_schematic=4&participantId=E428B0F28E6C4535BD63256321774F23&assignmentId=732c8160-bd69-4826-8235-5bec87ddd577&projectId=051c06f1-75cc-4548-856d-4923ddaba0dc","E428B0F28E6C4535BD63256321774F23-2025-05-15-19-23-40","","null","","images/causal_sequence/dog_causal/dog_causal_9.png","null","",""
"","","","","","image-button-response","114","456838","0.0-14.0-1.0-1.8","E428B0F28E6C4535BD63256321774F23","E428B0F28E6C4535BD63256321774F23","732c8160-bd69-4826-8235-5bec87ddd577","051c06f1-75cc-4548-856d-4923ddaba0dc","{""num_scrambled_semantic"":""8"",""num_scrambled_causal"":""4"",""num_scrambled_schematic"":""4"",""participantId"":""E428B0F28E6C4535BD63256321774F23"",""assignmentId"":""732c8160-bd69-4826-8235-5bec87ddd577"",""projectId"":""051c06f1-75cc-4548-856d-4923ddaba0dc""}","https://test12345.live/?num_scrambled_semantic=8&num_scrambled_causal=4&num_scrambled_schematic=4&participantId=E428B0F28E6C4535BD63256321774F23&assignmentId=732c8160-bd69-4826-8235-5bec87ddd577&projectId=051c06f1-75cc-4548-856d-4923ddaba0dc","E428B0F28E6C4535BD63256321774F23-2025-05-15-19-23-40","","1208","","images/causal_sequence/dog_causal/dog_causal_9.png","0","",""
