"success","timeout","failed_images","failed_audio","failed_video","trial_type","trial_index","time_elapsed","internal_node_id","subject","subject_id","study_id","session_id","urlvar","current_url","audio_id","view_history","rt","device_id","stimulus","response","estimated_stimulus_onset","seq_name"
"true","false","[]","[]","[]","preload","0","3916","0.0-0.0","E4E2AC07C6A347D9B49CBB3FF4B563F9","E4E2AC07C6A347D9B49CBB3FF4B563F9","07af6401-0ec6-4d01-a895-c9986d3a310b","ba640c14-69c5-453e-80b2-29051492c0e0","{""num_scrambled_semantic"":""8"",""num_scrambled_causal"":""4"",""num_scrambled_schematic"":""4"",""participantId"":""E4E2AC07C6A347D9B49CBB3FF4B563F9"",""assignmentId"":""07af6401-0ec6-4d01-a895-c9986d3a310b"",""projectId"":""ba640c14-69c5-453e-80b2-29051492c0e0""}","https://test12345.live/?num_scrambled_semantic=8&num_scrambled_causal=4&num_scrambled_schematic=4&participantId=E4E2AC07C6A347D9B49CBB3FF4B563F9&assignmentId=07af6401-0ec6-4d01-a895-c9986d3a310b&projectId=ba640c14-69c5-453e-80b2-29051492c0e0","E4E2AC07C6A347D9B49CBB3FF4B563F9-2025-05-14-21-01-43","","","","","","",""
"","","","","","instructions","1","77187","0.0-1.0","E4E2AC07C6A347D9B49CBB3FF4B563F9","E4E2AC07C6A347D9B49CBB3FF4B563F9","07af6401-0ec6-4d01-a895-c9986d3a310b","ba640c14-69c5-453e-80b2-29051492c0e0","{""num_scrambled_semantic"":""8"",""num_scrambled_causal"":""4"",""num_scrambled_schematic"":""4"",""participantId"":""E4E2AC07C6A347D9B49CBB3FF4B563F9"",""assignmentId"":""07af6401-0ec6-4d01-a895-c9986d3a310b"",""projectId"":""ba640c14-69c5-453e-80b2-29051492c0e0""}","https://test12345.live/?num_scrambled_semantic=8&num_scrambled_causal=4&num_scrambled_schematic=4&participantId=E4E2AC07C6A347D9B49CBB3FF4B563F9&assignmentId=07af6401-0ec6-4d01-a895-c9986d3a310b&projectId=ba640c14-69c5-453e-80b2-29051492c0e0","E4E2AC07C6A347D9B49CBB3FF4B563F9-2025-05-14-21-01-43","[{""page_index"":0,""viewing_time"":73270}]","73270","","","","",""
"","","","","","instructions","2","113536","0.0-2.0","E4E2AC07C6A347D9B49CBB3FF4B563F9","E4E2AC07C6A347D9B49CBB3FF4B563F9","07af6401-0ec6-4d01-a895-c9986d3a310b","ba640c14-69c5-453e-80b2-29051492c0e0","{""num_scrambled_semantic"":""8"",""num_scrambled_causal"":""4"",""num_scrambled_schematic"":""4"",""participantId"":""E4E2AC07C6A347D9B49CBB3FF4B563F9"",""assignmentId"":""07af6401-0ec6-4d01-a895-c9986d3a310b"",""projectId"":""ba640c14-69c5-453e-80b2-29051492c0e0""}","https://test12345.live/?num_scrambled_semantic=8&num_scrambled_causal=4&num_scrambled_schematic=4&participantId=E4E2AC07C6A347D9B49CBB3FF4B563F9&assignmentId=07af6401-0ec6-4d01-a895-c9986d3a310b&projectId=ba640c14-69c5-453e-80b2-29051492c0e0","E4E2AC07C6A347D9B49CBB3FF4B563F9-2025-05-14-21-01-43","[{""page_index"":0,""viewing_time"":36348}]","36348","","","","",""
"true","","","","","fullscreen","3","118304","0.0-3.0","E4E2AC07C6A347D9B49CBB3FF4B563F9","E4E2AC07C6A347D9B49CBB3FF4B563F9","07af6401-0ec6-4d01-a895-c9986d3a310b","ba640c14-69c5-453e-80b2-29051492c0e0","{""num_scrambled_semantic"":""8"",""num_scrambled_causal"":""4"",""num_scrambled_schematic"":""4"",""participantId"":""E4E2AC07C6A347D9B49CBB3FF4B563F9"",""assignmentId"":""07af6401-0ec6-4d01-a895-c9986d3a310b"",""projectId"":""ba640c14-69c5-453e-80b2-29051492c0e0""}","https://test12345.live/?num_scrambled_semantic=8&num_scrambled_causal=4&num_scrambled_schematic=4&participantId=E4E2AC07C6A347D9B49CBB3FF4B563F9&assignmentId=07af6401-0ec6-4d01-a895-c9986d3a310b&projectId=ba640c14-69c5-453e-80b2-29051492c0e0","E4E2AC07C6A347D9B49CBB3FF4B563F9-2025-05-14-21-01-43","","3765","","","","",""
"","","","","","initialize-microphone","4","130707","0.0-4.0-0.0","E4E2AC07C6A347D9B49CBB3FF4B563F9","E4E2AC07C6A347D9B49CBB3FF4B563F9","07af6401-0ec6-4d01-a895-c9986d3a310b","ba640c14-69c5-453e-80b2-29051492c0e0","{""num_scrambled_semantic"":""8"",""num_scrambled_causal"":""4"",""num_scrambled_schematic"":""4"",""participantId"":""E4E2AC07C6A347D9B49CBB3FF4B563F9"",""assignmentId"":""07af6401-0ec6-4d01-a895-c9986d3a310b"",""projectId"":""ba640c14-69c5-453e-80b2-29051492c0e0""}","https://test12345.live/?num_scrambled_semantic=8&num_scrambled_causal=4&num_scrambled_schematic=4&participantId=E4E2AC07C6A347D9B49CBB3FF4B563F9&assignmentId=07af6401-0ec6-4d01-a895-c9986d3a310b&projectId=ba640c14-69c5-453e-80b2-29051492c0e0","E4E2AC07C6A347D9B49CBB3FF4B563F9-2025-05-14-21-01-43","","","a4e0910ab1a0457c5542196c5bc7e98eeac0cff7ee4ee1f90157d60156c3a656","","","",""
"","","","","","html-audio-response","5","143005","0.0-4.0-1.0","E4E2AC07C6A347D9B49CBB3FF4B563F9","E4E2AC07C6A347D9B49CBB3FF4B563F9","07af6401-0ec6-4d01-a895-c9986d3a310b","ba640c14-69c5-453e-80b2-29051492c0e0","{""num_scrambled_semantic"":""8"",""num_scrambled_causal"":""4"",""num_scrambled_schematic"":""4"",""participantId"":""E4E2AC07C6A347D9B49CBB3FF4B563F9"",""assignmentId"":""07af6401-0ec6-4d01-a895-c9986d3a310b"",""projectId"":""ba640c14-69c5-453e-80b2-29051492c0e0""}","https://test12345.live/?num_scrambled_semantic=8&num_scrambled_causal=4&num_scrambled_schematic=4&participantId=E4E2AC07C6A347D9B49CBB3FF4B563F9&assignmentId=07af6401-0ec6-4d01-a895-c9986d3a310b&projectId=ba640c14-69c5-453e-80b2-29051492c0e0","E4E2AC07C6A347D9B49CBB3FF4B563F9-2025-05-14-21-01-43","","4138","","<span style=""color: red; font-size: 24px""> NOW RECORDING</span>
        <p>Please test Microphone</p>","","5",""
"","","","","","html-button-response","6","145208","0.0-4.0-2.0","E4E2AC07C6A347D9B49CBB3FF4B563F9","E4E2AC07C6A347D9B49CBB3FF4B563F9","07af6401-0ec6-4d01-a895-c9986d3a310b","ba640c14-69c5-453e-80b2-29051492c0e0","{""num_scrambled_semantic"":""8"",""num_scrambled_causal"":""4"",""num_scrambled_schematic"":""4"",""participantId"":""E4E2AC07C6A347D9B49CBB3FF4B563F9"",""assignmentId"":""07af6401-0ec6-4d01-a895-c9986d3a310b"",""projectId"":""ba640c14-69c5-453e-80b2-29051492c0e0""}","https://test12345.live/?num_scrambled_semantic=8&num_scrambled_causal=4&num_scrambled_schematic=4&participantId=E4E2AC07C6A347D9B49CBB3FF4B563F9&assignmentId=07af6401-0ec6-4d01-a895-c9986d3a310b&projectId=ba640c14-69c5-453e-80b2-29051492c0e0","E4E2AC07C6A347D9B49CBB3FF4B563F9-2025-05-14-21-01-43","","2202","","<p style=""font-size:48px; color:red;"">Is Microphone OK?</p>","1","",""
"","","","","","instructions","7","170215","0.0-5.0","E4E2AC07C6A347D9B49CBB3FF4B563F9","E4E2AC07C6A347D9B49CBB3FF4B563F9","07af6401-0ec6-4d01-a895-c9986d3a310b","ba640c14-69c5-453e-80b2-29051492c0e0","{""num_scrambled_semantic"":""8"",""num_scrambled_causal"":""4"",""num_scrambled_schematic"":""4"",""participantId"":""E4E2AC07C6A347D9B49CBB3FF4B563F9"",""assignmentId"":""07af6401-0ec6-4d01-a895-c9986d3a310b"",""projectId"":""ba640c14-69c5-453e-80b2-29051492c0e0""}","https://test12345.live/?num_scrambled_semantic=8&num_scrambled_causal=4&num_scrambled_schematic=4&participantId=E4E2AC07C6A347D9B49CBB3FF4B563F9&assignmentId=07af6401-0ec6-4d01-a895-c9986d3a310b&projectId=ba640c14-69c5-453e-80b2-29051492c0e0","E4E2AC07C6A347D9B49CBB3FF4B563F9-2025-05-14-21-01-43","[{""page_index"":0,""viewing_time"":15032},{""page_index"":1,""viewing_time"":9974}]","25006","","","","",""
"","","","","","image-button-response","8","176222","0.0-6.0-0.0","E4E2AC07C6A347D9B49CBB3FF4B563F9","E4E2AC07C6A347D9B49CBB3FF4B563F9","07af6401-0ec6-4d01-a895-c9986d3a310b","ba640c14-69c5-453e-80b2-29051492c0e0","{""num_scrambled_semantic"":""8"",""num_scrambled_causal"":""4"",""num_scrambled_schematic"":""4"",""participantId"":""E4E2AC07C6A347D9B49CBB3FF4B563F9"",""assignmentId"":""07af6401-0ec6-4d01-a895-c9986d3a310b"",""projectId"":""ba640c14-69c5-453e-80b2-29051492c0e0""}","https://test12345.live/?num_scrambled_semantic=8&num_scrambled_causal=4&num_scrambled_schematic=4&participantId=E4E2AC07C6A347D9B49CBB3FF4B563F9&assignmentId=07af6401-0ec6-4d01-a895-c9986d3a310b&projectId=ba640c14-69c5-453e-80b2-29051492c0e0","E4E2AC07C6A347D9B49CBB3FF4B563F9-2025-05-14-21-01-43","","null","","images/instructions/movie_0.png","null","",""
"","","","","","image-button-response","9","180725","0.0-6.0-1.0-0.0","E4E2AC07C6A347D9B49CBB3FF4B563F9","E4E2AC07C6A347D9B49CBB3FF4B563F9","07af6401-0ec6-4d01-a895-c9986d3a310b","ba640c14-69c5-453e-80b2-29051492c0e0","{""num_scrambled_semantic"":""8"",""num_scrambled_causal"":""4"",""num_scrambled_schematic"":""4"",""participantId"":""E4E2AC07C6A347D9B49CBB3FF4B563F9"",""assignmentId"":""07af6401-0ec6-4d01-a895-c9986d3a310b"",""projectId"":""ba640c14-69c5-453e-80b2-29051492c0e0""}","https://test12345.live/?num_scrambled_semantic=8&num_scrambled_causal=4&num_scrambled_schematic=4&participantId=E4E2AC07C6A347D9B49CBB3FF4B563F9&assignmentId=07af6401-0ec6-4d01-a895-c9986d3a310b&projectId=ba640c14-69c5-453e-80b2-29051492c0e0","E4E2AC07C6A347D9B49CBB3FF4B563F9-2025-05-14-21-01-43","","null","","images/instructions/movie_1.png","null","",""
"","","","","","image-button-response","10","184559","0.0-6.0-1.0-1.0","E4E2AC07C6A347D9B49CBB3FF4B563F9","E4E2AC07C6A347D9B49CBB3FF4B563F9","07af6401-0ec6-4d01-a895-c9986d3a310b","ba640c14-69c5-453e-80b2-29051492c0e0","{""num_scrambled_semantic"":""8"",""num_scrambled_causal"":""4"",""num_scrambled_schematic"":""4"",""participantId"":""E4E2AC07C6A347D9B49CBB3FF4B563F9"",""assignmentId"":""07af6401-0ec6-4d01-a895-c9986d3a310b"",""projectId"":""ba640c14-69c5-453e-80b2-29051492c0e0""}","https://test12345.live/?num_scrambled_semantic=8&num_scrambled_causal=4&num_scrambled_schematic=4&participantId=E4E2AC07C6A347D9B49CBB3FF4B563F9&assignmentId=07af6401-0ec6-4d01-a895-c9986d3a310b&projectId=ba640c14-69c5-453e-80b2-29051492c0e0","E4E2AC07C6A347D9B49CBB3FF4B563F9-2025-05-14-21-01-43","","3833","","images/instructions/movie_1.png","0","",""
"","","","","","image-button-response","11","186364","0.0-6.0-1.0-2.0","E4E2AC07C6A347D9B49CBB3FF4B563F9","E4E2AC07C6A347D9B49CBB3FF4B563F9","07af6401-0ec6-4d01-a895-c9986d3a310b","ba640c14-69c5-453e-80b2-29051492c0e0","{""num_scrambled_semantic"":""8"",""num_scrambled_causal"":""4"",""num_scrambled_schematic"":""4"",""participantId"":""E4E2AC07C6A347D9B49CBB3FF4B563F9"",""assignmentId"":""07af6401-0ec6-4d01-a895-c9986d3a310b"",""projectId"":""ba640c14-69c5-453e-80b2-29051492c0e0""}","https://test12345.live/?num_scrambled_semantic=8&num_scrambled_causal=4&num_scrambled_schematic=4&participantId=E4E2AC07C6A347D9B49CBB3FF4B563F9&assignmentId=07af6401-0ec6-4d01-a895-c9986d3a310b&projectId=ba640c14-69c5-453e-80b2-29051492c0e0","E4E2AC07C6A347D9B49CBB3FF4B563F9-2025-05-14-21-01-43","","null","","[]","null","",""
"","","","","","image-button-response","12","190868","0.0-6.0-1.0-0.1","E4E2AC07C6A347D9B49CBB3FF4B563F9","E4E2AC07C6A347D9B49CBB3FF4B563F9","07af6401-0ec6-4d01-a895-c9986d3a310b","ba640c14-69c5-453e-80b2-29051492c0e0","{""num_scrambled_semantic"":""8"",""num_scrambled_causal"":""4"",""num_scrambled_schematic"":""4"",""participantId"":""E4E2AC07C6A347D9B49CBB3FF4B563F9"",""assignmentId"":""07af6401-0ec6-4d01-a895-c9986d3a310b"",""projectId"":""ba640c14-69c5-453e-80b2-29051492c0e0""}","https://test12345.live/?num_scrambled_semantic=8&num_scrambled_causal=4&num_scrambled_schematic=4&participantId=E4E2AC07C6A347D9B49CBB3FF4B563F9&assignmentId=07af6401-0ec6-4d01-a895-c9986d3a310b&projectId=ba640c14-69c5-453e-80b2-29051492c0e0","E4E2AC07C6A347D9B49CBB3FF4B563F9-2025-05-14-21-01-43","","null","","images/instructions/movie_2.png","null","",""
"","","","","","image-button-response","13","193467","0.0-6.0-1.0-1.1","E4E2AC07C6A347D9B49CBB3FF4B563F9","E4E2AC07C6A347D9B49CBB3FF4B563F9","07af6401-0ec6-4d01-a895-c9986d3a310b","ba640c14-69c5-453e-80b2-29051492c0e0","{""num_scrambled_semantic"":""8"",""num_scrambled_causal"":""4"",""num_scrambled_schematic"":""4"",""participantId"":""E4E2AC07C6A347D9B49CBB3FF4B563F9"",""assignmentId"":""07af6401-0ec6-4d01-a895-c9986d3a310b"",""projectId"":""ba640c14-69c5-453e-80b2-29051492c0e0""}","https://test12345.live/?num_scrambled_semantic=8&num_scrambled_causal=4&num_scrambled_schematic=4&participantId=E4E2AC07C6A347D9B49CBB3FF4B563F9&assignmentId=07af6401-0ec6-4d01-a895-c9986d3a310b&projectId=ba640c14-69c5-453e-80b2-29051492c0e0","E4E2AC07C6A347D9B49CBB3FF4B563F9-2025-05-14-21-01-43","","2598","","images/instructions/movie_2.png","0","",""
"","","","","","image-button-response","14","195272","0.0-6.0-1.0-2.1","E4E2AC07C6A347D9B49CBB3FF4B563F9","E4E2AC07C6A347D9B49CBB3FF4B563F9","07af6401-0ec6-4d01-a895-c9986d3a310b","ba640c14-69c5-453e-80b2-29051492c0e0","{""num_scrambled_semantic"":""8"",""num_scrambled_causal"":""4"",""num_scrambled_schematic"":""4"",""participantId"":""E4E2AC07C6A347D9B49CBB3FF4B563F9"",""assignmentId"":""07af6401-0ec6-4d01-a895-c9986d3a310b"",""projectId"":""ba640c14-69c5-453e-80b2-29051492c0e0""}","https://test12345.live/?num_scrambled_semantic=8&num_scrambled_causal=4&num_scrambled_schematic=4&participantId=E4E2AC07C6A347D9B49CBB3FF4B563F9&assignmentId=07af6401-0ec6-4d01-a895-c9986d3a310b&projectId=ba640c14-69c5-453e-80b2-29051492c0e0","E4E2AC07C6A347D9B49CBB3FF4B563F9-2025-05-14-21-01-43","","null","","[]","null","",""
"","","","","","image-button-response","15","199779","0.0-6.0-1.0-0.2","E4E2AC07C6A347D9B49CBB3FF4B563F9","E4E2AC07C6A347D9B49CBB3FF4B563F9","07af6401-0ec6-4d01-a895-c9986d3a310b","ba640c14-69c5-453e-80b2-29051492c0e0","{""num_scrambled_semantic"":""8"",""num_scrambled_causal"":""4"",""num_scrambled_schematic"":""4"",""participantId"":""E4E2AC07C6A347D9B49CBB3FF4B563F9"",""assignmentId"":""07af6401-0ec6-4d01-a895-c9986d3a310b"",""projectId"":""ba640c14-69c5-453e-80b2-29051492c0e0""}","https://test12345.live/?num_scrambled_semantic=8&num_scrambled_causal=4&num_scrambled_schematic=4&participantId=E4E2AC07C6A347D9B49CBB3FF4B563F9&assignmentId=07af6401-0ec6-4d01-a895-c9986d3a310b&projectId=ba640c14-69c5-453e-80b2-29051492c0e0","E4E2AC07C6A347D9B49CBB3FF4B563F9-2025-05-14-21-01-43","","null","","images/instructions/movie_3.png","null","",""
"","","","","","image-button-response","16","202627","0.0-6.0-1.0-1.2","E4E2AC07C6A347D9B49CBB3FF4B563F9","E4E2AC07C6A347D9B49CBB3FF4B563F9","07af6401-0ec6-4d01-a895-c9986d3a310b","ba640c14-69c5-453e-80b2-29051492c0e0","{""num_scrambled_semantic"":""8"",""num_scrambled_causal"":""4"",""num_scrambled_schematic"":""4"",""participantId"":""E4E2AC07C6A347D9B49CBB3FF4B563F9"",""assignmentId"":""07af6401-0ec6-4d01-a895-c9986d3a310b"",""projectId"":""ba640c14-69c5-453e-80b2-29051492c0e0""}","https://test12345.live/?num_scrambled_semantic=8&num_scrambled_causal=4&num_scrambled_schematic=4&participantId=E4E2AC07C6A347D9B49CBB3FF4B563F9&assignmentId=07af6401-0ec6-4d01-a895-c9986d3a310b&projectId=ba640c14-69c5-453e-80b2-29051492c0e0","E4E2AC07C6A347D9B49CBB3FF4B563F9-2025-05-14-21-01-43","","2847","","images/instructions/movie_3.png","0","",""
"","","","","","image-button-response","17","204433","0.0-6.0-1.0-2.2","E4E2AC07C6A347D9B49CBB3FF4B563F9","E4E2AC07C6A347D9B49CBB3FF4B563F9","07af6401-0ec6-4d01-a895-c9986d3a310b","ba640c14-69c5-453e-80b2-29051492c0e0","{""num_scrambled_semantic"":""8"",""num_scrambled_causal"":""4"",""num_scrambled_schematic"":""4"",""participantId"":""E4E2AC07C6A347D9B49CBB3FF4B563F9"",""assignmentId"":""07af6401-0ec6-4d01-a895-c9986d3a310b"",""projectId"":""ba640c14-69c5-453e-80b2-29051492c0e0""}","https://test12345.live/?num_scrambled_semantic=8&num_scrambled_causal=4&num_scrambled_schematic=4&participantId=E4E2AC07C6A347D9B49CBB3FF4B563F9&assignmentId=07af6401-0ec6-4d01-a895-c9986d3a310b&projectId=ba640c14-69c5-453e-80b2-29051492c0e0","E4E2AC07C6A347D9B49CBB3FF4B563F9-2025-05-14-21-01-43","","null","","[]","null","",""
"","","","","","image-button-response","18","208940","0.0-6.0-1.0-0.3","E4E2AC07C6A347D9B49CBB3FF4B563F9","E4E2AC07C6A347D9B49CBB3FF4B563F9","07af6401-0ec6-4d01-a895-c9986d3a310b","ba640c14-69c5-453e-80b2-29051492c0e0","{""num_scrambled_semantic"":""8"",""num_scrambled_causal"":""4"",""num_scrambled_schematic"":""4"",""participantId"":""E4E2AC07C6A347D9B49CBB3FF4B563F9"",""assignmentId"":""07af6401-0ec6-4d01-a895-c9986d3a310b"",""projectId"":""ba640c14-69c5-453e-80b2-29051492c0e0""}","https://test12345.live/?num_scrambled_semantic=8&num_scrambled_causal=4&num_scrambled_schematic=4&participantId=E4E2AC07C6A347D9B49CBB3FF4B563F9&assignmentId=07af6401-0ec6-4d01-a895-c9986d3a310b&projectId=ba640c14-69c5-453e-80b2-29051492c0e0","E4E2AC07C6A347D9B49CBB3FF4B563F9-2025-05-14-21-01-43","","null","","images/instructions/movie_4.png","null","",""
"","","","","","image-button-response","19","210699","0.0-6.0-1.0-1.3","E4E2AC07C6A347D9B49CBB3FF4B563F9","E4E2AC07C6A347D9B49CBB3FF4B563F9","07af6401-0ec6-4d01-a895-c9986d3a310b","ba640c14-69c5-453e-80b2-29051492c0e0","{""num_scrambled_semantic"":""8"",""num_scrambled_causal"":""4"",""num_scrambled_schematic"":""4"",""participantId"":""E4E2AC07C6A347D9B49CBB3FF4B563F9"",""assignmentId"":""07af6401-0ec6-4d01-a895-c9986d3a310b"",""projectId"":""ba640c14-69c5-453e-80b2-29051492c0e0""}","https://test12345.live/?num_scrambled_semantic=8&num_scrambled_causal=4&num_scrambled_schematic=4&participantId=E4E2AC07C6A347D9B49CBB3FF4B563F9&assignmentId=07af6401-0ec6-4d01-a895-c9986d3a310b&projectId=ba640c14-69c5-453e-80b2-29051492c0e0","E4E2AC07C6A347D9B49CBB3FF4B563F9-2025-05-14-21-01-43","","1758","","images/instructions/movie_4.png","0","",""
"","","","","","image-button-response","20","212502","0.0-6.0-1.0-2.3","E4E2AC07C6A347D9B49CBB3FF4B563F9","E4E2AC07C6A347D9B49CBB3FF4B563F9","07af6401-0ec6-4d01-a895-c9986d3a310b","ba640c14-69c5-453e-80b2-29051492c0e0","{""num_scrambled_semantic"":""8"",""num_scrambled_causal"":""4"",""num_scrambled_schematic"":""4"",""participantId"":""E4E2AC07C6A347D9B49CBB3FF4B563F9"",""assignmentId"":""07af6401-0ec6-4d01-a895-c9986d3a310b"",""projectId"":""ba640c14-69c5-453e-80b2-29051492c0e0""}","https://test12345.live/?num_scrambled_semantic=8&num_scrambled_causal=4&num_scrambled_schematic=4&participantId=E4E2AC07C6A347D9B49CBB3FF4B563F9&assignmentId=07af6401-0ec6-4d01-a895-c9986d3a310b&projectId=ba640c14-69c5-453e-80b2-29051492c0e0","E4E2AC07C6A347D9B49CBB3FF4B563F9-2025-05-14-21-01-43","","null","","[]","null","",""
"","","","","","instructions","21","223316","0.0-7.0","E4E2AC07C6A347D9B49CBB3FF4B563F9","E4E2AC07C6A347D9B49CBB3FF4B563F9","07af6401-0ec6-4d01-a895-c9986d3a310b","ba640c14-69c5-453e-80b2-29051492c0e0","{""num_scrambled_semantic"":""8"",""num_scrambled_causal"":""4"",""num_scrambled_schematic"":""4"",""participantId"":""E4E2AC07C6A347D9B49CBB3FF4B563F9"",""assignmentId"":""07af6401-0ec6-4d01-a895-c9986d3a310b"",""projectId"":""ba640c14-69c5-453e-80b2-29051492c0e0""}","https://test12345.live/?num_scrambled_semantic=8&num_scrambled_causal=4&num_scrambled_schematic=4&participantId=E4E2AC07C6A347D9B49CBB3FF4B563F9&assignmentId=07af6401-0ec6-4d01-a895-c9986d3a310b&projectId=ba640c14-69c5-453e-80b2-29051492c0e0","E4E2AC07C6A347D9B49CBB3FF4B563F9-2025-05-14-21-01-43","[{""page_index"":0,""viewing_time"":9290},{""page_index"":1,""viewing_time"":1524}]","10814","","","","",""
"","","","","","html-audio-response","22","266068","0.0-8.0","E4E2AC07C6A347D9B49CBB3FF4B563F9","E4E2AC07C6A347D9B49CBB3FF4B563F9","07af6401-0ec6-4d01-a895-c9986d3a310b","ba640c14-69c5-453e-80b2-29051492c0e0","{""num_scrambled_semantic"":""8"",""num_scrambled_causal"":""4"",""num_scrambled_schematic"":""4"",""participantId"":""E4E2AC07C6A347D9B49CBB3FF4B563F9"",""assignmentId"":""07af6401-0ec6-4d01-a895-c9986d3a310b"",""projectId"":""ba640c14-69c5-453e-80b2-29051492c0e0""}","https://test12345.live/?num_scrambled_semantic=8&num_scrambled_causal=4&num_scrambled_schematic=4&participantId=E4E2AC07C6A347D9B49CBB3FF4B563F9&assignmentId=07af6401-0ec6-4d01-a895-c9986d3a310b&projectId=ba640c14-69c5-453e-80b2-29051492c0e0","E4E2AC07C6A347D9B49CBB3FF4B563F9-2025-05-14-21-01-43","","19232","","[""<span style=\""color: red; font-size: 24px\""> NOW RECORDING</span><p>Please say out loud all the images you saw, as many as you can remember. The images can be said in any order.</p>""]","","2",""
"","","","","","instructions","23","270616","0.0-9.0","E4E2AC07C6A347D9B49CBB3FF4B563F9","E4E2AC07C6A347D9B49CBB3FF4B563F9","07af6401-0ec6-4d01-a895-c9986d3a310b","ba640c14-69c5-453e-80b2-29051492c0e0","{""num_scrambled_semantic"":""8"",""num_scrambled_causal"":""4"",""num_scrambled_schematic"":""4"",""participantId"":""E4E2AC07C6A347D9B49CBB3FF4B563F9"",""assignmentId"":""07af6401-0ec6-4d01-a895-c9986d3a310b"",""projectId"":""ba640c14-69c5-453e-80b2-29051492c0e0""}","https://test12345.live/?num_scrambled_semantic=8&num_scrambled_causal=4&num_scrambled_schematic=4&participantId=E4E2AC07C6A347D9B49CBB3FF4B563F9&assignmentId=07af6401-0ec6-4d01-a895-c9986d3a310b&projectId=ba640c14-69c5-453e-80b2-29051492c0e0","E4E2AC07C6A347D9B49CBB3FF4B563F9-2025-05-14-21-01-43","[{""page_index"":0,""viewing_time"":4541}]","4542","","","","",""
"","","","","","image-button-response","24","276622","0.0-10.0-0.0","E4E2AC07C6A347D9B49CBB3FF4B563F9","E4E2AC07C6A347D9B49CBB3FF4B563F9","07af6401-0ec6-4d01-a895-c9986d3a310b","ba640c14-69c5-453e-80b2-29051492c0e0","{""num_scrambled_semantic"":""8"",""num_scrambled_causal"":""4"",""num_scrambled_schematic"":""4"",""participantId"":""E4E2AC07C6A347D9B49CBB3FF4B563F9"",""assignmentId"":""07af6401-0ec6-4d01-a895-c9986d3a310b"",""projectId"":""ba640c14-69c5-453e-80b2-29051492c0e0""}","https://test12345.live/?num_scrambled_semantic=8&num_scrambled_causal=4&num_scrambled_schematic=4&participantId=E4E2AC07C6A347D9B49CBB3FF4B563F9&assignmentId=07af6401-0ec6-4d01-a895-c9986d3a310b&projectId=ba640c14-69c5-453e-80b2-29051492c0e0","E4E2AC07C6A347D9B49CBB3FF4B563F9-2025-05-14-21-01-43","","null","","images/schematic_sequence/flight_scheme/flight_scheme_0.png","null","",""
"","","","","","image-button-response","25","281126","0.0-10.0-1.0-0.0","E4E2AC07C6A347D9B49CBB3FF4B563F9","E4E2AC07C6A347D9B49CBB3FF4B563F9","07af6401-0ec6-4d01-a895-c9986d3a310b","ba640c14-69c5-453e-80b2-29051492c0e0","{""num_scrambled_semantic"":""8"",""num_scrambled_causal"":""4"",""num_scrambled_schematic"":""4"",""participantId"":""E4E2AC07C6A347D9B49CBB3FF4B563F9"",""assignmentId"":""07af6401-0ec6-4d01-a895-c9986d3a310b"",""projectId"":""ba640c14-69c5-453e-80b2-29051492c0e0""}","https://test12345.live/?num_scrambled_semantic=8&num_scrambled_causal=4&num_scrambled_schematic=4&participantId=E4E2AC07C6A347D9B49CBB3FF4B563F9&assignmentId=07af6401-0ec6-4d01-a895-c9986d3a310b&projectId=ba640c14-69c5-453e-80b2-29051492c0e0","E4E2AC07C6A347D9B49CBB3FF4B563F9-2025-05-14-21-01-43","","null","","images/schematic_sequence/flight_scheme/flight_scheme_5.png","null","",""
"","","","","","image-button-response","26","284010","0.0-10.0-1.0-1.0","E4E2AC07C6A347D9B49CBB3FF4B563F9","E4E2AC07C6A347D9B49CBB3FF4B563F9","07af6401-0ec6-4d01-a895-c9986d3a310b","ba640c14-69c5-453e-80b2-29051492c0e0","{""num_scrambled_semantic"":""8"",""num_scrambled_causal"":""4"",""num_scrambled_schematic"":""4"",""participantId"":""E4E2AC07C6A347D9B49CBB3FF4B563F9"",""assignmentId"":""07af6401-0ec6-4d01-a895-c9986d3a310b"",""projectId"":""ba640c14-69c5-453e-80b2-29051492c0e0""}","https://test12345.live/?num_scrambled_semantic=8&num_scrambled_causal=4&num_scrambled_schematic=4&participantId=E4E2AC07C6A347D9B49CBB3FF4B563F9&assignmentId=07af6401-0ec6-4d01-a895-c9986d3a310b&projectId=ba640c14-69c5-453e-80b2-29051492c0e0","E4E2AC07C6A347D9B49CBB3FF4B563F9-2025-05-14-21-01-43","","2883","","images/schematic_sequence/flight_scheme/flight_scheme_5.png","0","",""
"","","","","","image-button-response","27","285816","0.0-10.0-1.0-2.0","E4E2AC07C6A347D9B49CBB3FF4B563F9","E4E2AC07C6A347D9B49CBB3FF4B563F9","07af6401-0ec6-4d01-a895-c9986d3a310b","ba640c14-69c5-453e-80b2-29051492c0e0","{""num_scrambled_semantic"":""8"",""num_scrambled_causal"":""4"",""num_scrambled_schematic"":""4"",""participantId"":""E4E2AC07C6A347D9B49CBB3FF4B563F9"",""assignmentId"":""07af6401-0ec6-4d01-a895-c9986d3a310b"",""projectId"":""ba640c14-69c5-453e-80b2-29051492c0e0""}","https://test12345.live/?num_scrambled_semantic=8&num_scrambled_causal=4&num_scrambled_schematic=4&participantId=E4E2AC07C6A347D9B49CBB3FF4B563F9&assignmentId=07af6401-0ec6-4d01-a895-c9986d3a310b&projectId=ba640c14-69c5-453e-80b2-29051492c0e0","E4E2AC07C6A347D9B49CBB3FF4B563F9-2025-05-14-21-01-43","","null","","[]","null","",""
"","","","","","image-button-response","28","290318","0.0-10.0-1.0-0.1","E4E2AC07C6A347D9B49CBB3FF4B563F9","E4E2AC07C6A347D9B49CBB3FF4B563F9","07af6401-0ec6-4d01-a895-c9986d3a310b","ba640c14-69c5-453e-80b2-29051492c0e0","{""num_scrambled_semantic"":""8"",""num_scrambled_causal"":""4"",""num_scrambled_schematic"":""4"",""participantId"":""E4E2AC07C6A347D9B49CBB3FF4B563F9"",""assignmentId"":""07af6401-0ec6-4d01-a895-c9986d3a310b"",""projectId"":""ba640c14-69c5-453e-80b2-29051492c0e0""}","https://test12345.live/?num_scrambled_semantic=8&num_scrambled_causal=4&num_scrambled_schematic=4&participantId=E4E2AC07C6A347D9B49CBB3FF4B563F9&assignmentId=07af6401-0ec6-4d01-a895-c9986d3a310b&projectId=ba640c14-69c5-453e-80b2-29051492c0e0","E4E2AC07C6A347D9B49CBB3FF4B563F9-2025-05-14-21-01-43","","null","","images/schematic_sequence/flight_scheme/flight_scheme_1.png","null","",""
"","","","","","image-button-response","29","294322","0.0-10.0-1.0-1.1","E4E2AC07C6A347D9B49CBB3FF4B563F9","E4E2AC07C6A347D9B49CBB3FF4B563F9","07af6401-0ec6-4d01-a895-c9986d3a310b","ba640c14-69c5-453e-80b2-29051492c0e0","{""num_scrambled_semantic"":""8"",""num_scrambled_causal"":""4"",""num_scrambled_schematic"":""4"",""participantId"":""E4E2AC07C6A347D9B49CBB3FF4B563F9"",""assignmentId"":""07af6401-0ec6-4d01-a895-c9986d3a310b"",""projectId"":""ba640c14-69c5-453e-80b2-29051492c0e0""}","https://test12345.live/?num_scrambled_semantic=8&num_scrambled_causal=4&num_scrambled_schematic=4&participantId=E4E2AC07C6A347D9B49CBB3FF4B563F9&assignmentId=07af6401-0ec6-4d01-a895-c9986d3a310b&projectId=ba640c14-69c5-453e-80b2-29051492c0e0","E4E2AC07C6A347D9B49CBB3FF4B563F9-2025-05-14-21-01-43","","null","","images/schematic_sequence/flight_scheme/flight_scheme_1.png","null","",""
"","","","","","image-button-response","30","296124","0.0-10.0-1.0-2.1","E4E2AC07C6A347D9B49CBB3FF4B563F9","E4E2AC07C6A347D9B49CBB3FF4B563F9","07af6401-0ec6-4d01-a895-c9986d3a310b","ba640c14-69c5-453e-80b2-29051492c0e0","{""num_scrambled_semantic"":""8"",""num_scrambled_causal"":""4"",""num_scrambled_schematic"":""4"",""participantId"":""E4E2AC07C6A347D9B49CBB3FF4B563F9"",""assignmentId"":""07af6401-0ec6-4d01-a895-c9986d3a310b"",""projectId"":""ba640c14-69c5-453e-80b2-29051492c0e0""}","https://test12345.live/?num_scrambled_semantic=8&num_scrambled_causal=4&num_scrambled_schematic=4&participantId=E4E2AC07C6A347D9B49CBB3FF4B563F9&assignmentId=07af6401-0ec6-4d01-a895-c9986d3a310b&projectId=ba640c14-69c5-453e-80b2-29051492c0e0","E4E2AC07C6A347D9B49CBB3FF4B563F9-2025-05-14-21-01-43","","null","","[]","null","",""
"","","","","","image-button-response","31","300626","0.0-10.0-1.0-0.2","E4E2AC07C6A347D9B49CBB3FF4B563F9","E4E2AC07C6A347D9B49CBB3FF4B563F9","07af6401-0ec6-4d01-a895-c9986d3a310b","ba640c14-69c5-453e-80b2-29051492c0e0","{""num_scrambled_semantic"":""8"",""num_scrambled_causal"":""4"",""num_scrambled_schematic"":""4"",""participantId"":""E4E2AC07C6A347D9B49CBB3FF4B563F9"",""assignmentId"":""07af6401-0ec6-4d01-a895-c9986d3a310b"",""projectId"":""ba640c14-69c5-453e-80b2-29051492c0e0""}","https://test12345.live/?num_scrambled_semantic=8&num_scrambled_causal=4&num_scrambled_schematic=4&participantId=E4E2AC07C6A347D9B49CBB3FF4B563F9&assignmentId=07af6401-0ec6-4d01-a895-c9986d3a310b&projectId=ba640c14-69c5-453e-80b2-29051492c0e0","E4E2AC07C6A347D9B49CBB3FF4B563F9-2025-05-14-21-01-43","","null","","images/schematic_sequence/flight_scheme/flight_scheme_8.png","null","",""
"","","","","","image-button-response","32","304629","0.0-10.0-1.0-1.2","E4E2AC07C6A347D9B49CBB3FF4B563F9","E4E2AC07C6A347D9B49CBB3FF4B563F9","07af6401-0ec6-4d01-a895-c9986d3a310b","ba640c14-69c5-453e-80b2-29051492c0e0","{""num_scrambled_semantic"":""8"",""num_scrambled_causal"":""4"",""num_scrambled_schematic"":""4"",""participantId"":""E4E2AC07C6A347D9B49CBB3FF4B563F9"",""assignmentId"":""07af6401-0ec6-4d01-a895-c9986d3a310b"",""projectId"":""ba640c14-69c5-453e-80b2-29051492c0e0""}","https://test12345.live/?num_scrambled_semantic=8&num_scrambled_causal=4&num_scrambled_schematic=4&participantId=E4E2AC07C6A347D9B49CBB3FF4B563F9&assignmentId=07af6401-0ec6-4d01-a895-c9986d3a310b&projectId=ba640c14-69c5-453e-80b2-29051492c0e0","E4E2AC07C6A347D9B49CBB3FF4B563F9-2025-05-14-21-01-43","","null","","images/schematic_sequence/flight_scheme/flight_scheme_8.png","null","",""
"","","","","","image-button-response","33","306432","0.0-10.0-1.0-2.2","E4E2AC07C6A347D9B49CBB3FF4B563F9","E4E2AC07C6A347D9B49CBB3FF4B563F9","07af6401-0ec6-4d01-a895-c9986d3a310b","ba640c14-69c5-453e-80b2-29051492c0e0","{""num_scrambled_semantic"":""8"",""num_scrambled_causal"":""4"",""num_scrambled_schematic"":""4"",""participantId"":""E4E2AC07C6A347D9B49CBB3FF4B563F9"",""assignmentId"":""07af6401-0ec6-4d01-a895-c9986d3a310b"",""projectId"":""ba640c14-69c5-453e-80b2-29051492c0e0""}","https://test12345.live/?num_scrambled_semantic=8&num_scrambled_causal=4&num_scrambled_schematic=4&participantId=E4E2AC07C6A347D9B49CBB3FF4B563F9&assignmentId=07af6401-0ec6-4d01-a895-c9986d3a310b&projectId=ba640c14-69c5-453e-80b2-29051492c0e0","E4E2AC07C6A347D9B49CBB3FF4B563F9-2025-05-14-21-01-43","","null","","[]","null","",""
"","","","","","image-button-response","34","310935","0.0-10.0-1.0-0.3","E4E2AC07C6A347D9B49CBB3FF4B563F9","E4E2AC07C6A347D9B49CBB3FF4B563F9","07af6401-0ec6-4d01-a895-c9986d3a310b","ba640c14-69c5-453e-80b2-29051492c0e0","{""num_scrambled_semantic"":""8"",""num_scrambled_causal"":""4"",""num_scrambled_schematic"":""4"",""participantId"":""E4E2AC07C6A347D9B49CBB3FF4B563F9"",""assignmentId"":""07af6401-0ec6-4d01-a895-c9986d3a310b"",""projectId"":""ba640c14-69c5-453e-80b2-29051492c0e0""}","https://test12345.live/?num_scrambled_semantic=8&num_scrambled_causal=4&num_scrambled_schematic=4&participantId=E4E2AC07C6A347D9B49CBB3FF4B563F9&assignmentId=07af6401-0ec6-4d01-a895-c9986d3a310b&projectId=ba640c14-69c5-453e-80b2-29051492c0e0","E4E2AC07C6A347D9B49CBB3FF4B563F9-2025-05-14-21-01-43","","null","","images/schematic_sequence/flight_scheme/flight_scheme_ten.png","null","",""
"","","","","","image-button-response","35","313574","0.0-10.0-1.0-1.3","E4E2AC07C6A347D9B49CBB3FF4B563F9","E4E2AC07C6A347D9B49CBB3FF4B563F9","07af6401-0ec6-4d01-a895-c9986d3a310b","ba640c14-69c5-453e-80b2-29051492c0e0","{""num_scrambled_semantic"":""8"",""num_scrambled_causal"":""4"",""num_scrambled_schematic"":""4"",""participantId"":""E4E2AC07C6A347D9B49CBB3FF4B563F9"",""assignmentId"":""07af6401-0ec6-4d01-a895-c9986d3a310b"",""projectId"":""ba640c14-69c5-453e-80b2-29051492c0e0""}","https://test12345.live/?num_scrambled_semantic=8&num_scrambled_causal=4&num_scrambled_schematic=4&participantId=E4E2AC07C6A347D9B49CBB3FF4B563F9&assignmentId=07af6401-0ec6-4d01-a895-c9986d3a310b&projectId=ba640c14-69c5-453e-80b2-29051492c0e0","E4E2AC07C6A347D9B49CBB3FF4B563F9-2025-05-14-21-01-43","","2637","","images/schematic_sequence/flight_scheme/flight_scheme_ten.png","0","",""
"","","","","","image-button-response","36","315377","0.0-10.0-1.0-2.3","E4E2AC07C6A347D9B49CBB3FF4B563F9","E4E2AC07C6A347D9B49CBB3FF4B563F9","07af6401-0ec6-4d01-a895-c9986d3a310b","ba640c14-69c5-453e-80b2-29051492c0e0","{""num_scrambled_semantic"":""8"",""num_scrambled_causal"":""4"",""num_scrambled_schematic"":""4"",""participantId"":""E4E2AC07C6A347D9B49CBB3FF4B563F9"",""assignmentId"":""07af6401-0ec6-4d01-a895-c9986d3a310b"",""projectId"":""ba640c14-69c5-453e-80b2-29051492c0e0""}","https://test12345.live/?num_scrambled_semantic=8&num_scrambled_causal=4&num_scrambled_schematic=4&participantId=E4E2AC07C6A347D9B49CBB3FF4B563F9&assignmentId=07af6401-0ec6-4d01-a895-c9986d3a310b&projectId=ba640c14-69c5-453e-80b2-29051492c0e0","E4E2AC07C6A347D9B49CBB3FF4B563F9-2025-05-14-21-01-43","","null","","[]","null","",""
"","","","","","image-button-response","37","319879","0.0-10.0-1.0-0.4","E4E2AC07C6A347D9B49CBB3FF4B563F9","E4E2AC07C6A347D9B49CBB3FF4B563F9","07af6401-0ec6-4d01-a895-c9986d3a310b","ba640c14-69c5-453e-80b2-29051492c0e0","{""num_scrambled_semantic"":""8"",""num_scrambled_causal"":""4"",""num_scrambled_schematic"":""4"",""participantId"":""E4E2AC07C6A347D9B49CBB3FF4B563F9"",""assignmentId"":""07af6401-0ec6-4d01-a895-c9986d3a310b"",""projectId"":""ba640c14-69c5-453e-80b2-29051492c0e0""}","https://test12345.live/?num_scrambled_semantic=8&num_scrambled_causal=4&num_scrambled_schematic=4&participantId=E4E2AC07C6A347D9B49CBB3FF4B563F9&assignmentId=07af6401-0ec6-4d01-a895-c9986d3a310b&projectId=ba640c14-69c5-453e-80b2-29051492c0e0","E4E2AC07C6A347D9B49CBB3FF4B563F9-2025-05-14-21-01-43","","null","","images/schematic_sequence/flight_scheme/flight_scheme_6.png","null","",""
"","","","","","image-button-response","38","321584","0.0-10.0-1.0-1.4","E4E2AC07C6A347D9B49CBB3FF4B563F9","E4E2AC07C6A347D9B49CBB3FF4B563F9","07af6401-0ec6-4d01-a895-c9986d3a310b","ba640c14-69c5-453e-80b2-29051492c0e0","{""num_scrambled_semantic"":""8"",""num_scrambled_causal"":""4"",""num_scrambled_schematic"":""4"",""participantId"":""E4E2AC07C6A347D9B49CBB3FF4B563F9"",""assignmentId"":""07af6401-0ec6-4d01-a895-c9986d3a310b"",""projectId"":""ba640c14-69c5-453e-80b2-29051492c0e0""}","https://test12345.live/?num_scrambled_semantic=8&num_scrambled_causal=4&num_scrambled_schematic=4&participantId=E4E2AC07C6A347D9B49CBB3FF4B563F9&assignmentId=07af6401-0ec6-4d01-a895-c9986d3a310b&projectId=ba640c14-69c5-453e-80b2-29051492c0e0","E4E2AC07C6A347D9B49CBB3FF4B563F9-2025-05-14-21-01-43","","1703","","images/schematic_sequence/flight_scheme/flight_scheme_6.png","1","",""
"","","","","","image-button-response","39","323390","0.0-10.0-1.0-2.4","E4E2AC07C6A347D9B49CBB3FF4B563F9","E4E2AC07C6A347D9B49CBB3FF4B563F9","07af6401-0ec6-4d01-a895-c9986d3a310b","ba640c14-69c5-453e-80b2-29051492c0e0","{""num_scrambled_semantic"":""8"",""num_scrambled_causal"":""4"",""num_scrambled_schematic"":""4"",""participantId"":""E4E2AC07C6A347D9B49CBB3FF4B563F9"",""assignmentId"":""07af6401-0ec6-4d01-a895-c9986d3a310b"",""projectId"":""ba640c14-69c5-453e-80b2-29051492c0e0""}","https://test12345.live/?num_scrambled_semantic=8&num_scrambled_causal=4&num_scrambled_schematic=4&participantId=E4E2AC07C6A347D9B49CBB3FF4B563F9&assignmentId=07af6401-0ec6-4d01-a895-c9986d3a310b&projectId=ba640c14-69c5-453e-80b2-29051492c0e0","E4E2AC07C6A347D9B49CBB3FF4B563F9-2025-05-14-21-01-43","","null","","[]","null","",""
"","","","","","image-button-response","40","327894","0.0-10.0-1.0-0.5","E4E2AC07C6A347D9B49CBB3FF4B563F9","E4E2AC07C6A347D9B49CBB3FF4B563F9","07af6401-0ec6-4d01-a895-c9986d3a310b","ba640c14-69c5-453e-80b2-29051492c0e0","{""num_scrambled_semantic"":""8"",""num_scrambled_causal"":""4"",""num_scrambled_schematic"":""4"",""participantId"":""E4E2AC07C6A347D9B49CBB3FF4B563F9"",""assignmentId"":""07af6401-0ec6-4d01-a895-c9986d3a310b"",""projectId"":""ba640c14-69c5-453e-80b2-29051492c0e0""}","https://test12345.live/?num_scrambled_semantic=8&num_scrambled_causal=4&num_scrambled_schematic=4&participantId=E4E2AC07C6A347D9B49CBB3FF4B563F9&assignmentId=07af6401-0ec6-4d01-a895-c9986d3a310b&projectId=ba640c14-69c5-453e-80b2-29051492c0e0","E4E2AC07C6A347D9B49CBB3FF4B563F9-2025-05-14-21-01-43","","null","","images/schematic_sequence/flight_scheme/flight_scheme_4.png","null","",""
"","","","","","image-button-response","41","329952","0.0-10.0-1.0-1.5","E4E2AC07C6A347D9B49CBB3FF4B563F9","E4E2AC07C6A347D9B49CBB3FF4B563F9","07af6401-0ec6-4d01-a895-c9986d3a310b","ba640c14-69c5-453e-80b2-29051492c0e0","{""num_scrambled_semantic"":""8"",""num_scrambled_causal"":""4"",""num_scrambled_schematic"":""4"",""participantId"":""E4E2AC07C6A347D9B49CBB3FF4B563F9"",""assignmentId"":""07af6401-0ec6-4d01-a895-c9986d3a310b"",""projectId"":""ba640c14-69c5-453e-80b2-29051492c0e0""}","https://test12345.live/?num_scrambled_semantic=8&num_scrambled_causal=4&num_scrambled_schematic=4&participantId=E4E2AC07C6A347D9B49CBB3FF4B563F9&assignmentId=07af6401-0ec6-4d01-a895-c9986d3a310b&projectId=ba640c14-69c5-453e-80b2-29051492c0e0","E4E2AC07C6A347D9B49CBB3FF4B563F9-2025-05-14-21-01-43","","2057","","images/schematic_sequence/flight_scheme/flight_scheme_4.png","0","",""
"","","","","","image-button-response","42","331755","0.0-10.0-1.0-2.5","E4E2AC07C6A347D9B49CBB3FF4B563F9","E4E2AC07C6A347D9B49CBB3FF4B563F9","07af6401-0ec6-4d01-a895-c9986d3a310b","ba640c14-69c5-453e-80b2-29051492c0e0","{""num_scrambled_semantic"":""8"",""num_scrambled_causal"":""4"",""num_scrambled_schematic"":""4"",""participantId"":""E4E2AC07C6A347D9B49CBB3FF4B563F9"",""assignmentId"":""07af6401-0ec6-4d01-a895-c9986d3a310b"",""projectId"":""ba640c14-69c5-453e-80b2-29051492c0e0""}","https://test12345.live/?num_scrambled_semantic=8&num_scrambled_causal=4&num_scrambled_schematic=4&participantId=E4E2AC07C6A347D9B49CBB3FF4B563F9&assignmentId=07af6401-0ec6-4d01-a895-c9986d3a310b&projectId=ba640c14-69c5-453e-80b2-29051492c0e0","E4E2AC07C6A347D9B49CBB3FF4B563F9-2025-05-14-21-01-43","","null","","[]","null","",""
"","","","","","image-button-response","43","336257","0.0-10.0-1.0-0.6","E4E2AC07C6A347D9B49CBB3FF4B563F9","E4E2AC07C6A347D9B49CBB3FF4B563F9","07af6401-0ec6-4d01-a895-c9986d3a310b","ba640c14-69c5-453e-80b2-29051492c0e0","{""num_scrambled_semantic"":""8"",""num_scrambled_causal"":""4"",""num_scrambled_schematic"":""4"",""participantId"":""E4E2AC07C6A347D9B49CBB3FF4B563F9"",""assignmentId"":""07af6401-0ec6-4d01-a895-c9986d3a310b"",""projectId"":""ba640c14-69c5-453e-80b2-29051492c0e0""}","https://test12345.live/?num_scrambled_semantic=8&num_scrambled_causal=4&num_scrambled_schematic=4&participantId=E4E2AC07C6A347D9B49CBB3FF4B563F9&assignmentId=07af6401-0ec6-4d01-a895-c9986d3a310b&projectId=ba640c14-69c5-453e-80b2-29051492c0e0","E4E2AC07C6A347D9B49CBB3FF4B563F9-2025-05-14-21-01-43","","null","","images/schematic_sequence/flight_scheme/flight_scheme_9.png","null","",""
"","","","","","image-button-response","44","337932","0.0-10.0-1.0-1.6","E4E2AC07C6A347D9B49CBB3FF4B563F9","E4E2AC07C6A347D9B49CBB3FF4B563F9","07af6401-0ec6-4d01-a895-c9986d3a310b","ba640c14-69c5-453e-80b2-29051492c0e0","{""num_scrambled_semantic"":""8"",""num_scrambled_causal"":""4"",""num_scrambled_schematic"":""4"",""participantId"":""E4E2AC07C6A347D9B49CBB3FF4B563F9"",""assignmentId"":""07af6401-0ec6-4d01-a895-c9986d3a310b"",""projectId"":""ba640c14-69c5-453e-80b2-29051492c0e0""}","https://test12345.live/?num_scrambled_semantic=8&num_scrambled_causal=4&num_scrambled_schematic=4&participantId=E4E2AC07C6A347D9B49CBB3FF4B563F9&assignmentId=07af6401-0ec6-4d01-a895-c9986d3a310b&projectId=ba640c14-69c5-453e-80b2-29051492c0e0","E4E2AC07C6A347D9B49CBB3FF4B563F9-2025-05-14-21-01-43","","1674","","images/schematic_sequence/flight_scheme/flight_scheme_9.png","0","",""
"","","","","","image-button-response","45","339738","0.0-10.0-1.0-2.6","E4E2AC07C6A347D9B49CBB3FF4B563F9","E4E2AC07C6A347D9B49CBB3FF4B563F9","07af6401-0ec6-4d01-a895-c9986d3a310b","ba640c14-69c5-453e-80b2-29051492c0e0","{""num_scrambled_semantic"":""8"",""num_scrambled_causal"":""4"",""num_scrambled_schematic"":""4"",""participantId"":""E4E2AC07C6A347D9B49CBB3FF4B563F9"",""assignmentId"":""07af6401-0ec6-4d01-a895-c9986d3a310b"",""projectId"":""ba640c14-69c5-453e-80b2-29051492c0e0""}","https://test12345.live/?num_scrambled_semantic=8&num_scrambled_causal=4&num_scrambled_schematic=4&participantId=E4E2AC07C6A347D9B49CBB3FF4B563F9&assignmentId=07af6401-0ec6-4d01-a895-c9986d3a310b&projectId=ba640c14-69c5-453e-80b2-29051492c0e0","E4E2AC07C6A347D9B49CBB3FF4B563F9-2025-05-14-21-01-43","","null","","[]","null","",""
"","","","","","image-button-response","46","344241","0.0-10.0-1.0-0.7","E4E2AC07C6A347D9B49CBB3FF4B563F9","E4E2AC07C6A347D9B49CBB3FF4B563F9","07af6401-0ec6-4d01-a895-c9986d3a310b","ba640c14-69c5-453e-80b2-29051492c0e0","{""num_scrambled_semantic"":""8"",""num_scrambled_causal"":""4"",""num_scrambled_schematic"":""4"",""participantId"":""E4E2AC07C6A347D9B49CBB3FF4B563F9"",""assignmentId"":""07af6401-0ec6-4d01-a895-c9986d3a310b"",""projectId"":""ba640c14-69c5-453e-80b2-29051492c0e0""}","https://test12345.live/?num_scrambled_semantic=8&num_scrambled_causal=4&num_scrambled_schematic=4&participantId=E4E2AC07C6A347D9B49CBB3FF4B563F9&assignmentId=07af6401-0ec6-4d01-a895-c9986d3a310b&projectId=ba640c14-69c5-453e-80b2-29051492c0e0","E4E2AC07C6A347D9B49CBB3FF4B563F9-2025-05-14-21-01-43","","null","","images/schematic_sequence/flight_scheme/flight_scheme_3.png","null","",""
"","","","","","image-button-response","47","346092","0.0-10.0-1.0-1.7","E4E2AC07C6A347D9B49CBB3FF4B563F9","E4E2AC07C6A347D9B49CBB3FF4B563F9","07af6401-0ec6-4d01-a895-c9986d3a310b","ba640c14-69c5-453e-80b2-29051492c0e0","{""num_scrambled_semantic"":""8"",""num_scrambled_causal"":""4"",""num_scrambled_schematic"":""4"",""participantId"":""E4E2AC07C6A347D9B49CBB3FF4B563F9"",""assignmentId"":""07af6401-0ec6-4d01-a895-c9986d3a310b"",""projectId"":""ba640c14-69c5-453e-80b2-29051492c0e0""}","https://test12345.live/?num_scrambled_semantic=8&num_scrambled_causal=4&num_scrambled_schematic=4&participantId=E4E2AC07C6A347D9B49CBB3FF4B563F9&assignmentId=07af6401-0ec6-4d01-a895-c9986d3a310b&projectId=ba640c14-69c5-453e-80b2-29051492c0e0","E4E2AC07C6A347D9B49CBB3FF4B563F9-2025-05-14-21-01-43","","1850","","images/schematic_sequence/flight_scheme/flight_scheme_3.png","0","",""
"","","","","","image-button-response","48","347897","0.0-10.0-1.0-2.7","E4E2AC07C6A347D9B49CBB3FF4B563F9","E4E2AC07C6A347D9B49CBB3FF4B563F9","07af6401-0ec6-4d01-a895-c9986d3a310b","ba640c14-69c5-453e-80b2-29051492c0e0","{""num_scrambled_semantic"":""8"",""num_scrambled_causal"":""4"",""num_scrambled_schematic"":""4"",""participantId"":""E4E2AC07C6A347D9B49CBB3FF4B563F9"",""assignmentId"":""07af6401-0ec6-4d01-a895-c9986d3a310b"",""projectId"":""ba640c14-69c5-453e-80b2-29051492c0e0""}","https://test12345.live/?num_scrambled_semantic=8&num_scrambled_causal=4&num_scrambled_schematic=4&participantId=E4E2AC07C6A347D9B49CBB3FF4B563F9&assignmentId=07af6401-0ec6-4d01-a895-c9986d3a310b&projectId=ba640c14-69c5-453e-80b2-29051492c0e0","E4E2AC07C6A347D9B49CBB3FF4B563F9-2025-05-14-21-01-43","","null","","[]","null","",""
"","","","","","image-button-response","49","352400","0.0-10.0-1.0-0.8","E4E2AC07C6A347D9B49CBB3FF4B563F9","E4E2AC07C6A347D9B49CBB3FF4B563F9","07af6401-0ec6-4d01-a895-c9986d3a310b","ba640c14-69c5-453e-80b2-29051492c0e0","{""num_scrambled_semantic"":""8"",""num_scrambled_causal"":""4"",""num_scrambled_schematic"":""4"",""participantId"":""E4E2AC07C6A347D9B49CBB3FF4B563F9"",""assignmentId"":""07af6401-0ec6-4d01-a895-c9986d3a310b"",""projectId"":""ba640c14-69c5-453e-80b2-29051492c0e0""}","https://test12345.live/?num_scrambled_semantic=8&num_scrambled_causal=4&num_scrambled_schematic=4&participantId=E4E2AC07C6A347D9B49CBB3FF4B563F9&assignmentId=07af6401-0ec6-4d01-a895-c9986d3a310b&projectId=ba640c14-69c5-453e-80b2-29051492c0e0","E4E2AC07C6A347D9B49CBB3FF4B563F9-2025-05-14-21-01-43","","null","","images/schematic_sequence/flight_scheme/flight_scheme_7.png","null","",""
"","","","","","image-button-response","50","356405","0.0-10.0-1.0-1.8","E4E2AC07C6A347D9B49CBB3FF4B563F9","E4E2AC07C6A347D9B49CBB3FF4B563F9","07af6401-0ec6-4d01-a895-c9986d3a310b","ba640c14-69c5-453e-80b2-29051492c0e0","{""num_scrambled_semantic"":""8"",""num_scrambled_causal"":""4"",""num_scrambled_schematic"":""4"",""participantId"":""E4E2AC07C6A347D9B49CBB3FF4B563F9"",""assignmentId"":""07af6401-0ec6-4d01-a895-c9986d3a310b"",""projectId"":""ba640c14-69c5-453e-80b2-29051492c0e0""}","https://test12345.live/?num_scrambled_semantic=8&num_scrambled_causal=4&num_scrambled_schematic=4&participantId=E4E2AC07C6A347D9B49CBB3FF4B563F9&assignmentId=07af6401-0ec6-4d01-a895-c9986d3a310b&projectId=ba640c14-69c5-453e-80b2-29051492c0e0","E4E2AC07C6A347D9B49CBB3FF4B563F9-2025-05-14-21-01-43","","null","","images/schematic_sequence/flight_scheme/flight_scheme_7.png","null","",""
"","","","","","image-button-response","51","358210","0.0-10.0-1.0-2.8","E4E2AC07C6A347D9B49CBB3FF4B563F9","E4E2AC07C6A347D9B49CBB3FF4B563F9","07af6401-0ec6-4d01-a895-c9986d3a310b","ba640c14-69c5-453e-80b2-29051492c0e0","{""num_scrambled_semantic"":""8"",""num_scrambled_causal"":""4"",""num_scrambled_schematic"":""4"",""participantId"":""E4E2AC07C6A347D9B49CBB3FF4B563F9"",""assignmentId"":""07af6401-0ec6-4d01-a895-c9986d3a310b"",""projectId"":""ba640c14-69c5-453e-80b2-29051492c0e0""}","https://test12345.live/?num_scrambled_semantic=8&num_scrambled_causal=4&num_scrambled_schematic=4&participantId=E4E2AC07C6A347D9B49CBB3FF4B563F9&assignmentId=07af6401-0ec6-4d01-a895-c9986d3a310b&projectId=ba640c14-69c5-453e-80b2-29051492c0e0","E4E2AC07C6A347D9B49CBB3FF4B563F9-2025-05-14-21-01-43","","null","","[]","null","",""
"","","","","","image-button-response","52","362714","0.0-10.0-1.0-0.9","E4E2AC07C6A347D9B49CBB3FF4B563F9","E4E2AC07C6A347D9B49CBB3FF4B563F9","07af6401-0ec6-4d01-a895-c9986d3a310b","ba640c14-69c5-453e-80b2-29051492c0e0","{""num_scrambled_semantic"":""8"",""num_scrambled_causal"":""4"",""num_scrambled_schematic"":""4"",""participantId"":""E4E2AC07C6A347D9B49CBB3FF4B563F9"",""assignmentId"":""07af6401-0ec6-4d01-a895-c9986d3a310b"",""projectId"":""ba640c14-69c5-453e-80b2-29051492c0e0""}","https://test12345.live/?num_scrambled_semantic=8&num_scrambled_causal=4&num_scrambled_schematic=4&participantId=E4E2AC07C6A347D9B49CBB3FF4B563F9&assignmentId=07af6401-0ec6-4d01-a895-c9986d3a310b&projectId=ba640c14-69c5-453e-80b2-29051492c0e0","E4E2AC07C6A347D9B49CBB3FF4B563F9-2025-05-14-21-01-43","","null","","images/schematic_sequence/flight_scheme/flight_scheme_2.png","null","",""
"","","","","","image-button-response","53","363720","0.0-10.0-1.0-1.9","E4E2AC07C6A347D9B49CBB3FF4B563F9","E4E2AC07C6A347D9B49CBB3FF4B563F9","07af6401-0ec6-4d01-a895-c9986d3a310b","ba640c14-69c5-453e-80b2-29051492c0e0","{""num_scrambled_semantic"":""8"",""num_scrambled_causal"":""4"",""num_scrambled_schematic"":""4"",""participantId"":""E4E2AC07C6A347D9B49CBB3FF4B563F9"",""assignmentId"":""07af6401-0ec6-4d01-a895-c9986d3a310b"",""projectId"":""ba640c14-69c5-453e-80b2-29051492c0e0""}","https://test12345.live/?num_scrambled_semantic=8&num_scrambled_causal=4&num_scrambled_schematic=4&participantId=E4E2AC07C6A347D9B49CBB3FF4B563F9&assignmentId=07af6401-0ec6-4d01-a895-c9986d3a310b&projectId=ba640c14-69c5-453e-80b2-29051492c0e0","E4E2AC07C6A347D9B49CBB3FF4B563F9-2025-05-14-21-01-43","","1004","","images/schematic_sequence/flight_scheme/flight_scheme_2.png","1","",""
"","","","","","image-button-response","54","365524","0.0-10.0-1.0-2.9","E4E2AC07C6A347D9B49CBB3FF4B563F9","E4E2AC07C6A347D9B49CBB3FF4B563F9","07af6401-0ec6-4d01-a895-c9986d3a310b","ba640c14-69c5-453e-80b2-29051492c0e0","{""num_scrambled_semantic"":""8"",""num_scrambled_causal"":""4"",""num_scrambled_schematic"":""4"",""participantId"":""E4E2AC07C6A347D9B49CBB3FF4B563F9"",""assignmentId"":""07af6401-0ec6-4d01-a895-c9986d3a310b"",""projectId"":""ba640c14-69c5-453e-80b2-29051492c0e0""}","https://test12345.live/?num_scrambled_semantic=8&num_scrambled_causal=4&num_scrambled_schematic=4&participantId=E4E2AC07C6A347D9B49CBB3FF4B563F9&assignmentId=07af6401-0ec6-4d01-a895-c9986d3a310b&projectId=ba640c14-69c5-453e-80b2-29051492c0e0","E4E2AC07C6A347D9B49CBB3FF4B563F9-2025-05-14-21-01-43","","null","","[]","null","",""
"","","","","","html-audio-response","55","399860","0.0-11.0","E4E2AC07C6A347D9B49CBB3FF4B563F9","E4E2AC07C6A347D9B49CBB3FF4B563F9","07af6401-0ec6-4d01-a895-c9986d3a310b","ba640c14-69c5-453e-80b2-29051492c0e0","{""num_scrambled_semantic"":""8"",""num_scrambled_causal"":""4"",""num_scrambled_schematic"":""4"",""participantId"":""E4E2AC07C6A347D9B49CBB3FF4B563F9"",""assignmentId"":""07af6401-0ec6-4d01-a895-c9986d3a310b"",""projectId"":""ba640c14-69c5-453e-80b2-29051492c0e0""}","https://test12345.live/?num_scrambled_semantic=8&num_scrambled_causal=4&num_scrambled_schematic=4&participantId=E4E2AC07C6A347D9B49CBB3FF4B563F9&assignmentId=07af6401-0ec6-4d01-a895-c9986d3a310b&projectId=ba640c14-69c5-453e-80b2-29051492c0e0","E4E2AC07C6A347D9B49CBB3FF4B563F9-2025-05-14-21-01-43","","32326","","[""<span style=\""color: red; font-size: 24px\""> NOW RECORDING</span><p>Please say out loud all the images you saw, as many as you can remember. The images can be said in any order.</p>""]","","1","flight_scheme"
"","","","","","image-button-response","56","405870","0.0-12.0-0.0","E4E2AC07C6A347D9B49CBB3FF4B563F9","E4E2AC07C6A347D9B49CBB3FF4B563F9","07af6401-0ec6-4d01-a895-c9986d3a310b","ba640c14-69c5-453e-80b2-29051492c0e0","{""num_scrambled_semantic"":""8"",""num_scrambled_causal"":""4"",""num_scrambled_schematic"":""4"",""participantId"":""E4E2AC07C6A347D9B49CBB3FF4B563F9"",""assignmentId"":""07af6401-0ec6-4d01-a895-c9986d3a310b"",""projectId"":""ba640c14-69c5-453e-80b2-29051492c0e0""}","https://test12345.live/?num_scrambled_semantic=8&num_scrambled_causal=4&num_scrambled_schematic=4&participantId=E4E2AC07C6A347D9B49CBB3FF4B563F9&assignmentId=07af6401-0ec6-4d01-a895-c9986d3a310b&projectId=ba640c14-69c5-453e-80b2-29051492c0e0","E4E2AC07C6A347D9B49CBB3FF4B563F9-2025-05-14-21-01-43","","null","","images/semantic_sequence/creative_activities_semantic/creative_activities_semantic_0.png","null","",""
"","","","","","image-button-response","57","410375","0.0-12.0-1.0-0.0","E4E2AC07C6A347D9B49CBB3FF4B563F9","E4E2AC07C6A347D9B49CBB3FF4B563F9","07af6401-0ec6-4d01-a895-c9986d3a310b","ba640c14-69c5-453e-80b2-29051492c0e0","{""num_scrambled_semantic"":""8"",""num_scrambled_causal"":""4"",""num_scrambled_schematic"":""4"",""participantId"":""E4E2AC07C6A347D9B49CBB3FF4B563F9"",""assignmentId"":""07af6401-0ec6-4d01-a895-c9986d3a310b"",""projectId"":""ba640c14-69c5-453e-80b2-29051492c0e0""}","https://test12345.live/?num_scrambled_semantic=8&num_scrambled_causal=4&num_scrambled_schematic=4&participantId=E4E2AC07C6A347D9B49CBB3FF4B563F9&assignmentId=07af6401-0ec6-4d01-a895-c9986d3a310b&projectId=ba640c14-69c5-453e-80b2-29051492c0e0","E4E2AC07C6A347D9B49CBB3FF4B563F9-2025-05-14-21-01-43","","null","","images/semantic_sequence/creative_activities_semantic/creative_activities_semantic_7.png","null","",""
"","","","","","image-button-response","58","412545","0.0-12.0-1.0-1.0","E4E2AC07C6A347D9B49CBB3FF4B563F9","E4E2AC07C6A347D9B49CBB3FF4B563F9","07af6401-0ec6-4d01-a895-c9986d3a310b","ba640c14-69c5-453e-80b2-29051492c0e0","{""num_scrambled_semantic"":""8"",""num_scrambled_causal"":""4"",""num_scrambled_schematic"":""4"",""participantId"":""E4E2AC07C6A347D9B49CBB3FF4B563F9"",""assignmentId"":""07af6401-0ec6-4d01-a895-c9986d3a310b"",""projectId"":""ba640c14-69c5-453e-80b2-29051492c0e0""}","https://test12345.live/?num_scrambled_semantic=8&num_scrambled_causal=4&num_scrambled_schematic=4&participantId=E4E2AC07C6A347D9B49CBB3FF4B563F9&assignmentId=07af6401-0ec6-4d01-a895-c9986d3a310b&projectId=ba640c14-69c5-453e-80b2-29051492c0e0","E4E2AC07C6A347D9B49CBB3FF4B563F9-2025-05-14-21-01-43","","2169","","images/semantic_sequence/creative_activities_semantic/creative_activities_semantic_7.png","0","",""
"","","","","","image-button-response","59","414348","0.0-12.0-1.0-2.0","E4E2AC07C6A347D9B49CBB3FF4B563F9","E4E2AC07C6A347D9B49CBB3FF4B563F9","07af6401-0ec6-4d01-a895-c9986d3a310b","ba640c14-69c5-453e-80b2-29051492c0e0","{""num_scrambled_semantic"":""8"",""num_scrambled_causal"":""4"",""num_scrambled_schematic"":""4"",""participantId"":""E4E2AC07C6A347D9B49CBB3FF4B563F9"",""assignmentId"":""07af6401-0ec6-4d01-a895-c9986d3a310b"",""projectId"":""ba640c14-69c5-453e-80b2-29051492c0e0""}","https://test12345.live/?num_scrambled_semantic=8&num_scrambled_causal=4&num_scrambled_schematic=4&participantId=E4E2AC07C6A347D9B49CBB3FF4B563F9&assignmentId=07af6401-0ec6-4d01-a895-c9986d3a310b&projectId=ba640c14-69c5-453e-80b2-29051492c0e0","E4E2AC07C6A347D9B49CBB3FF4B563F9-2025-05-14-21-01-43","","null","","[]","null","",""
"","","","","","image-button-response","60","418854","0.0-12.0-1.0-0.1","E4E2AC07C6A347D9B49CBB3FF4B563F9","E4E2AC07C6A347D9B49CBB3FF4B563F9","07af6401-0ec6-4d01-a895-c9986d3a310b","ba640c14-69c5-453e-80b2-29051492c0e0","{""num_scrambled_semantic"":""8"",""num_scrambled_causal"":""4"",""num_scrambled_schematic"":""4"",""participantId"":""E4E2AC07C6A347D9B49CBB3FF4B563F9"",""assignmentId"":""07af6401-0ec6-4d01-a895-c9986d3a310b"",""projectId"":""ba640c14-69c5-453e-80b2-29051492c0e0""}","https://test12345.live/?num_scrambled_semantic=8&num_scrambled_causal=4&num_scrambled_schematic=4&participantId=E4E2AC07C6A347D9B49CBB3FF4B563F9&assignmentId=07af6401-0ec6-4d01-a895-c9986d3a310b&projectId=ba640c14-69c5-453e-80b2-29051492c0e0","E4E2AC07C6A347D9B49CBB3FF4B563F9-2025-05-14-21-01-43","","null","","images/semantic_sequence/creative_activities_semantic/creative_activities_semantic_6.png","null","",""
"","","","","","image-button-response","61","420601","0.0-12.0-1.0-1.1","E4E2AC07C6A347D9B49CBB3FF4B563F9","E4E2AC07C6A347D9B49CBB3FF4B563F9","07af6401-0ec6-4d01-a895-c9986d3a310b","ba640c14-69c5-453e-80b2-29051492c0e0","{""num_scrambled_semantic"":""8"",""num_scrambled_causal"":""4"",""num_scrambled_schematic"":""4"",""participantId"":""E4E2AC07C6A347D9B49CBB3FF4B563F9"",""assignmentId"":""07af6401-0ec6-4d01-a895-c9986d3a310b"",""projectId"":""ba640c14-69c5-453e-80b2-29051492c0e0""}","https://test12345.live/?num_scrambled_semantic=8&num_scrambled_causal=4&num_scrambled_schematic=4&participantId=E4E2AC07C6A347D9B49CBB3FF4B563F9&assignmentId=07af6401-0ec6-4d01-a895-c9986d3a310b&projectId=ba640c14-69c5-453e-80b2-29051492c0e0","E4E2AC07C6A347D9B49CBB3FF4B563F9-2025-05-14-21-01-43","","1746","","images/semantic_sequence/creative_activities_semantic/creative_activities_semantic_6.png","0","",""
"","","","","","image-button-response","62","422405","0.0-12.0-1.0-2.1","E4E2AC07C6A347D9B49CBB3FF4B563F9","E4E2AC07C6A347D9B49CBB3FF4B563F9","07af6401-0ec6-4d01-a895-c9986d3a310b","ba640c14-69c5-453e-80b2-29051492c0e0","{""num_scrambled_semantic"":""8"",""num_scrambled_causal"":""4"",""num_scrambled_schematic"":""4"",""participantId"":""E4E2AC07C6A347D9B49CBB3FF4B563F9"",""assignmentId"":""07af6401-0ec6-4d01-a895-c9986d3a310b"",""projectId"":""ba640c14-69c5-453e-80b2-29051492c0e0""}","https://test12345.live/?num_scrambled_semantic=8&num_scrambled_causal=4&num_scrambled_schematic=4&participantId=E4E2AC07C6A347D9B49CBB3FF4B563F9&assignmentId=07af6401-0ec6-4d01-a895-c9986d3a310b&projectId=ba640c14-69c5-453e-80b2-29051492c0e0","E4E2AC07C6A347D9B49CBB3FF4B563F9-2025-05-14-21-01-43","","null","","[]","null","",""
"","","","","","image-button-response","63","426907","0.0-12.0-1.0-0.2","E4E2AC07C6A347D9B49CBB3FF4B563F9","E4E2AC07C6A347D9B49CBB3FF4B563F9","07af6401-0ec6-4d01-a895-c9986d3a310b","ba640c14-69c5-453e-80b2-29051492c0e0","{""num_scrambled_semantic"":""8"",""num_scrambled_causal"":""4"",""num_scrambled_schematic"":""4"",""participantId"":""E4E2AC07C6A347D9B49CBB3FF4B563F9"",""assignmentId"":""07af6401-0ec6-4d01-a895-c9986d3a310b"",""projectId"":""ba640c14-69c5-453e-80b2-29051492c0e0""}","https://test12345.live/?num_scrambled_semantic=8&num_scrambled_causal=4&num_scrambled_schematic=4&participantId=E4E2AC07C6A347D9B49CBB3FF4B563F9&assignmentId=07af6401-0ec6-4d01-a895-c9986d3a310b&projectId=ba640c14-69c5-453e-80b2-29051492c0e0","E4E2AC07C6A347D9B49CBB3FF4B563F9-2025-05-14-21-01-43","","null","","images/semantic_sequence/creative_activities_semantic/creative_activities_semantic_8.png","null","",""
"","","","","","image-button-response","64","428617","0.0-12.0-1.0-1.2","E4E2AC07C6A347D9B49CBB3FF4B563F9","E4E2AC07C6A347D9B49CBB3FF4B563F9","07af6401-0ec6-4d01-a895-c9986d3a310b","ba640c14-69c5-453e-80b2-29051492c0e0","{""num_scrambled_semantic"":""8"",""num_scrambled_causal"":""4"",""num_scrambled_schematic"":""4"",""participantId"":""E4E2AC07C6A347D9B49CBB3FF4B563F9"",""assignmentId"":""07af6401-0ec6-4d01-a895-c9986d3a310b"",""projectId"":""ba640c14-69c5-453e-80b2-29051492c0e0""}","https://test12345.live/?num_scrambled_semantic=8&num_scrambled_causal=4&num_scrambled_schematic=4&participantId=E4E2AC07C6A347D9B49CBB3FF4B563F9&assignmentId=07af6401-0ec6-4d01-a895-c9986d3a310b&projectId=ba640c14-69c5-453e-80b2-29051492c0e0","E4E2AC07C6A347D9B49CBB3FF4B563F9-2025-05-14-21-01-43","","1709","","images/semantic_sequence/creative_activities_semantic/creative_activities_semantic_8.png","0","",""
"","","","","","image-button-response","65","430420","0.0-12.0-1.0-2.2","E4E2AC07C6A347D9B49CBB3FF4B563F9","E4E2AC07C6A347D9B49CBB3FF4B563F9","07af6401-0ec6-4d01-a895-c9986d3a310b","ba640c14-69c5-453e-80b2-29051492c0e0","{""num_scrambled_semantic"":""8"",""num_scrambled_causal"":""4"",""num_scrambled_schematic"":""4"",""participantId"":""E4E2AC07C6A347D9B49CBB3FF4B563F9"",""assignmentId"":""07af6401-0ec6-4d01-a895-c9986d3a310b"",""projectId"":""ba640c14-69c5-453e-80b2-29051492c0e0""}","https://test12345.live/?num_scrambled_semantic=8&num_scrambled_causal=4&num_scrambled_schematic=4&participantId=E4E2AC07C6A347D9B49CBB3FF4B563F9&assignmentId=07af6401-0ec6-4d01-a895-c9986d3a310b&projectId=ba640c14-69c5-453e-80b2-29051492c0e0","E4E2AC07C6A347D9B49CBB3FF4B563F9-2025-05-14-21-01-43","","null","","[]","null","",""
"","","","","","image-button-response","66","434924","0.0-12.0-1.0-0.3","E4E2AC07C6A347D9B49CBB3FF4B563F9","E4E2AC07C6A347D9B49CBB3FF4B563F9","07af6401-0ec6-4d01-a895-c9986d3a310b","ba640c14-69c5-453e-80b2-29051492c0e0","{""num_scrambled_semantic"":""8"",""num_scrambled_causal"":""4"",""num_scrambled_schematic"":""4"",""participantId"":""E4E2AC07C6A347D9B49CBB3FF4B563F9"",""assignmentId"":""07af6401-0ec6-4d01-a895-c9986d3a310b"",""projectId"":""ba640c14-69c5-453e-80b2-29051492c0e0""}","https://test12345.live/?num_scrambled_semantic=8&num_scrambled_causal=4&num_scrambled_schematic=4&participantId=E4E2AC07C6A347D9B49CBB3FF4B563F9&assignmentId=07af6401-0ec6-4d01-a895-c9986d3a310b&projectId=ba640c14-69c5-453e-80b2-29051492c0e0","E4E2AC07C6A347D9B49CBB3FF4B563F9-2025-05-14-21-01-43","","null","","images/semantic_sequence/creative_activities_semantic/creative_activities_semantic_9.png","null","",""
"","","","","","image-button-response","67","437237","0.0-12.0-1.0-1.3","E4E2AC07C6A347D9B49CBB3FF4B563F9","E4E2AC07C6A347D9B49CBB3FF4B563F9","07af6401-0ec6-4d01-a895-c9986d3a310b","ba640c14-69c5-453e-80b2-29051492c0e0","{""num_scrambled_semantic"":""8"",""num_scrambled_causal"":""4"",""num_scrambled_schematic"":""4"",""participantId"":""E4E2AC07C6A347D9B49CBB3FF4B563F9"",""assignmentId"":""07af6401-0ec6-4d01-a895-c9986d3a310b"",""projectId"":""ba640c14-69c5-453e-80b2-29051492c0e0""}","https://test12345.live/?num_scrambled_semantic=8&num_scrambled_causal=4&num_scrambled_schematic=4&participantId=E4E2AC07C6A347D9B49CBB3FF4B563F9&assignmentId=07af6401-0ec6-4d01-a895-c9986d3a310b&projectId=ba640c14-69c5-453e-80b2-29051492c0e0","E4E2AC07C6A347D9B49CBB3FF4B563F9-2025-05-14-21-01-43","","2312","","images/semantic_sequence/creative_activities_semantic/creative_activities_semantic_9.png","0","",""
"","","","","","image-button-response","68","439043","0.0-12.0-1.0-2.3","E4E2AC07C6A347D9B49CBB3FF4B563F9","E4E2AC07C6A347D9B49CBB3FF4B563F9","07af6401-0ec6-4d01-a895-c9986d3a310b","ba640c14-69c5-453e-80b2-29051492c0e0","{""num_scrambled_semantic"":""8"",""num_scrambled_causal"":""4"",""num_scrambled_schematic"":""4"",""participantId"":""E4E2AC07C6A347D9B49CBB3FF4B563F9"",""assignmentId"":""07af6401-0ec6-4d01-a895-c9986d3a310b"",""projectId"":""ba640c14-69c5-453e-80b2-29051492c0e0""}","https://test12345.live/?num_scrambled_semantic=8&num_scrambled_causal=4&num_scrambled_schematic=4&participantId=E4E2AC07C6A347D9B49CBB3FF4B563F9&assignmentId=07af6401-0ec6-4d01-a895-c9986d3a310b&projectId=ba640c14-69c5-453e-80b2-29051492c0e0","E4E2AC07C6A347D9B49CBB3FF4B563F9-2025-05-14-21-01-43","","null","","[]","null","",""
"","","","","","image-button-response","69","443549","0.0-12.0-1.0-0.4","E4E2AC07C6A347D9B49CBB3FF4B563F9","E4E2AC07C6A347D9B49CBB3FF4B563F9","07af6401-0ec6-4d01-a895-c9986d3a310b","ba640c14-69c5-453e-80b2-29051492c0e0","{""num_scrambled_semantic"":""8"",""num_scrambled_causal"":""4"",""num_scrambled_schematic"":""4"",""participantId"":""E4E2AC07C6A347D9B49CBB3FF4B563F9"",""assignmentId"":""07af6401-0ec6-4d01-a895-c9986d3a310b"",""projectId"":""ba640c14-69c5-453e-80b2-29051492c0e0""}","https://test12345.live/?num_scrambled_semantic=8&num_scrambled_causal=4&num_scrambled_schematic=4&participantId=E4E2AC07C6A347D9B49CBB3FF4B563F9&assignmentId=07af6401-0ec6-4d01-a895-c9986d3a310b&projectId=ba640c14-69c5-453e-80b2-29051492c0e0","E4E2AC07C6A347D9B49CBB3FF4B563F9-2025-05-14-21-01-43","","null","","images/semantic_sequence/creative_activities_semantic/creative_activities_semantic_5.png","null","",""
"","","","","","image-button-response","70","444735","0.0-12.0-1.0-1.4","E4E2AC07C6A347D9B49CBB3FF4B563F9","E4E2AC07C6A347D9B49CBB3FF4B563F9","07af6401-0ec6-4d01-a895-c9986d3a310b","ba640c14-69c5-453e-80b2-29051492c0e0","{""num_scrambled_semantic"":""8"",""num_scrambled_causal"":""4"",""num_scrambled_schematic"":""4"",""participantId"":""E4E2AC07C6A347D9B49CBB3FF4B563F9"",""assignmentId"":""07af6401-0ec6-4d01-a895-c9986d3a310b"",""projectId"":""ba640c14-69c5-453e-80b2-29051492c0e0""}","https://test12345.live/?num_scrambled_semantic=8&num_scrambled_causal=4&num_scrambled_schematic=4&participantId=E4E2AC07C6A347D9B49CBB3FF4B563F9&assignmentId=07af6401-0ec6-4d01-a895-c9986d3a310b&projectId=ba640c14-69c5-453e-80b2-29051492c0e0","E4E2AC07C6A347D9B49CBB3FF4B563F9-2025-05-14-21-01-43","","1185","","images/semantic_sequence/creative_activities_semantic/creative_activities_semantic_5.png","0","",""
"","","","","","image-button-response","71","446540","0.0-12.0-1.0-2.4","E4E2AC07C6A347D9B49CBB3FF4B563F9","E4E2AC07C6A347D9B49CBB3FF4B563F9","07af6401-0ec6-4d01-a895-c9986d3a310b","ba640c14-69c5-453e-80b2-29051492c0e0","{""num_scrambled_semantic"":""8"",""num_scrambled_causal"":""4"",""num_scrambled_schematic"":""4"",""participantId"":""E4E2AC07C6A347D9B49CBB3FF4B563F9"",""assignmentId"":""07af6401-0ec6-4d01-a895-c9986d3a310b"",""projectId"":""ba640c14-69c5-453e-80b2-29051492c0e0""}","https://test12345.live/?num_scrambled_semantic=8&num_scrambled_causal=4&num_scrambled_schematic=4&participantId=E4E2AC07C6A347D9B49CBB3FF4B563F9&assignmentId=07af6401-0ec6-4d01-a895-c9986d3a310b&projectId=ba640c14-69c5-453e-80b2-29051492c0e0","E4E2AC07C6A347D9B49CBB3FF4B563F9-2025-05-14-21-01-43","","null","","[]","null","",""
"","","","","","image-button-response","72","451042","0.0-12.0-1.0-0.5","E4E2AC07C6A347D9B49CBB3FF4B563F9","E4E2AC07C6A347D9B49CBB3FF4B563F9","07af6401-0ec6-4d01-a895-c9986d3a310b","ba640c14-69c5-453e-80b2-29051492c0e0","{""num_scrambled_semantic"":""8"",""num_scrambled_causal"":""4"",""num_scrambled_schematic"":""4"",""participantId"":""E4E2AC07C6A347D9B49CBB3FF4B563F9"",""assignmentId"":""07af6401-0ec6-4d01-a895-c9986d3a310b"",""projectId"":""ba640c14-69c5-453e-80b2-29051492c0e0""}","https://test12345.live/?num_scrambled_semantic=8&num_scrambled_causal=4&num_scrambled_schematic=4&participantId=E4E2AC07C6A347D9B49CBB3FF4B563F9&assignmentId=07af6401-0ec6-4d01-a895-c9986d3a310b&projectId=ba640c14-69c5-453e-80b2-29051492c0e0","E4E2AC07C6A347D9B49CBB3FF4B563F9-2025-05-14-21-01-43","","null","","images/semantic_sequence/creative_activities_semantic/creative_activities_semantic_3.png","null","",""
"","","","","","image-button-response","73","452941","0.0-12.0-1.0-1.5","E4E2AC07C6A347D9B49CBB3FF4B563F9","E4E2AC07C6A347D9B49CBB3FF4B563F9","07af6401-0ec6-4d01-a895-c9986d3a310b","ba640c14-69c5-453e-80b2-29051492c0e0","{""num_scrambled_semantic"":""8"",""num_scrambled_causal"":""4"",""num_scrambled_schematic"":""4"",""participantId"":""E4E2AC07C6A347D9B49CBB3FF4B563F9"",""assignmentId"":""07af6401-0ec6-4d01-a895-c9986d3a310b"",""projectId"":""ba640c14-69c5-453e-80b2-29051492c0e0""}","https://test12345.live/?num_scrambled_semantic=8&num_scrambled_causal=4&num_scrambled_schematic=4&participantId=E4E2AC07C6A347D9B49CBB3FF4B563F9&assignmentId=07af6401-0ec6-4d01-a895-c9986d3a310b&projectId=ba640c14-69c5-453e-80b2-29051492c0e0","E4E2AC07C6A347D9B49CBB3FF4B563F9-2025-05-14-21-01-43","","1898","","images/semantic_sequence/creative_activities_semantic/creative_activities_semantic_3.png","0","",""
"","","","","","image-button-response","74","454745","0.0-12.0-1.0-2.5","E4E2AC07C6A347D9B49CBB3FF4B563F9","E4E2AC07C6A347D9B49CBB3FF4B563F9","07af6401-0ec6-4d01-a895-c9986d3a310b","ba640c14-69c5-453e-80b2-29051492c0e0","{""num_scrambled_semantic"":""8"",""num_scrambled_causal"":""4"",""num_scrambled_schematic"":""4"",""participantId"":""E4E2AC07C6A347D9B49CBB3FF4B563F9"",""assignmentId"":""07af6401-0ec6-4d01-a895-c9986d3a310b"",""projectId"":""ba640c14-69c5-453e-80b2-29051492c0e0""}","https://test12345.live/?num_scrambled_semantic=8&num_scrambled_causal=4&num_scrambled_schematic=4&participantId=E4E2AC07C6A347D9B49CBB3FF4B563F9&assignmentId=07af6401-0ec6-4d01-a895-c9986d3a310b&projectId=ba640c14-69c5-453e-80b2-29051492c0e0","E4E2AC07C6A347D9B49CBB3FF4B563F9-2025-05-14-21-01-43","","null","","[]","null","",""
"","","","","","image-button-response","75","459249","0.0-12.0-1.0-0.6","E4E2AC07C6A347D9B49CBB3FF4B563F9","E4E2AC07C6A347D9B49CBB3FF4B563F9","07af6401-0ec6-4d01-a895-c9986d3a310b","ba640c14-69c5-453e-80b2-29051492c0e0","{""num_scrambled_semantic"":""8"",""num_scrambled_causal"":""4"",""num_scrambled_schematic"":""4"",""participantId"":""E4E2AC07C6A347D9B49CBB3FF4B563F9"",""assignmentId"":""07af6401-0ec6-4d01-a895-c9986d3a310b"",""projectId"":""ba640c14-69c5-453e-80b2-29051492c0e0""}","https://test12345.live/?num_scrambled_semantic=8&num_scrambled_causal=4&num_scrambled_schematic=4&participantId=E4E2AC07C6A347D9B49CBB3FF4B563F9&assignmentId=07af6401-0ec6-4d01-a895-c9986d3a310b&projectId=ba640c14-69c5-453e-80b2-29051492c0e0","E4E2AC07C6A347D9B49CBB3FF4B563F9-2025-05-14-21-01-43","","null","","images/semantic_sequence/creative_activities_semantic/creative_activities_semantic_1.png","null","",""
"","","","","","image-button-response","76","460919","0.0-12.0-1.0-1.6","E4E2AC07C6A347D9B49CBB3FF4B563F9","E4E2AC07C6A347D9B49CBB3FF4B563F9","07af6401-0ec6-4d01-a895-c9986d3a310b","ba640c14-69c5-453e-80b2-29051492c0e0","{""num_scrambled_semantic"":""8"",""num_scrambled_causal"":""4"",""num_scrambled_schematic"":""4"",""participantId"":""E4E2AC07C6A347D9B49CBB3FF4B563F9"",""assignmentId"":""07af6401-0ec6-4d01-a895-c9986d3a310b"",""projectId"":""ba640c14-69c5-453e-80b2-29051492c0e0""}","https://test12345.live/?num_scrambled_semantic=8&num_scrambled_causal=4&num_scrambled_schematic=4&participantId=E4E2AC07C6A347D9B49CBB3FF4B563F9&assignmentId=07af6401-0ec6-4d01-a895-c9986d3a310b&projectId=ba640c14-69c5-453e-80b2-29051492c0e0","E4E2AC07C6A347D9B49CBB3FF4B563F9-2025-05-14-21-01-43","","1669","","images/semantic_sequence/creative_activities_semantic/creative_activities_semantic_1.png","0","",""
"","","","","","image-button-response","77","462725","0.0-12.0-1.0-2.6","E4E2AC07C6A347D9B49CBB3FF4B563F9","E4E2AC07C6A347D9B49CBB3FF4B563F9","07af6401-0ec6-4d01-a895-c9986d3a310b","ba640c14-69c5-453e-80b2-29051492c0e0","{""num_scrambled_semantic"":""8"",""num_scrambled_causal"":""4"",""num_scrambled_schematic"":""4"",""participantId"":""E4E2AC07C6A347D9B49CBB3FF4B563F9"",""assignmentId"":""07af6401-0ec6-4d01-a895-c9986d3a310b"",""projectId"":""ba640c14-69c5-453e-80b2-29051492c0e0""}","https://test12345.live/?num_scrambled_semantic=8&num_scrambled_causal=4&num_scrambled_schematic=4&participantId=E4E2AC07C6A347D9B49CBB3FF4B563F9&assignmentId=07af6401-0ec6-4d01-a895-c9986d3a310b&projectId=ba640c14-69c5-453e-80b2-29051492c0e0","E4E2AC07C6A347D9B49CBB3FF4B563F9-2025-05-14-21-01-43","","null","","[]","null","",""
"","","","","","image-button-response","78","467229","0.0-12.0-1.0-0.7","E4E2AC07C6A347D9B49CBB3FF4B563F9","E4E2AC07C6A347D9B49CBB3FF4B563F9","07af6401-0ec6-4d01-a895-c9986d3a310b","ba640c14-69c5-453e-80b2-29051492c0e0","{""num_scrambled_semantic"":""8"",""num_scrambled_causal"":""4"",""num_scrambled_schematic"":""4"",""participantId"":""E4E2AC07C6A347D9B49CBB3FF4B563F9"",""assignmentId"":""07af6401-0ec6-4d01-a895-c9986d3a310b"",""projectId"":""ba640c14-69c5-453e-80b2-29051492c0e0""}","https://test12345.live/?num_scrambled_semantic=8&num_scrambled_causal=4&num_scrambled_schematic=4&participantId=E4E2AC07C6A347D9B49CBB3FF4B563F9&assignmentId=07af6401-0ec6-4d01-a895-c9986d3a310b&projectId=ba640c14-69c5-453e-80b2-29051492c0e0","E4E2AC07C6A347D9B49CBB3FF4B563F9-2025-05-14-21-01-43","","null","","images/semantic_sequence/creative_activities_semantic/creative_activities_semantic_2.png","null","",""
"","","","","","image-button-response","79","468557","0.0-12.0-1.0-1.7","E4E2AC07C6A347D9B49CBB3FF4B563F9","E4E2AC07C6A347D9B49CBB3FF4B563F9","07af6401-0ec6-4d01-a895-c9986d3a310b","ba640c14-69c5-453e-80b2-29051492c0e0","{""num_scrambled_semantic"":""8"",""num_scrambled_causal"":""4"",""num_scrambled_schematic"":""4"",""participantId"":""E4E2AC07C6A347D9B49CBB3FF4B563F9"",""assignmentId"":""07af6401-0ec6-4d01-a895-c9986d3a310b"",""projectId"":""ba640c14-69c5-453e-80b2-29051492c0e0""}","https://test12345.live/?num_scrambled_semantic=8&num_scrambled_causal=4&num_scrambled_schematic=4&participantId=E4E2AC07C6A347D9B49CBB3FF4B563F9&assignmentId=07af6401-0ec6-4d01-a895-c9986d3a310b&projectId=ba640c14-69c5-453e-80b2-29051492c0e0","E4E2AC07C6A347D9B49CBB3FF4B563F9-2025-05-14-21-01-43","","1327","","images/semantic_sequence/creative_activities_semantic/creative_activities_semantic_2.png","0","",""
"","","","","","image-button-response","80","470360","0.0-12.0-1.0-2.7","E4E2AC07C6A347D9B49CBB3FF4B563F9","E4E2AC07C6A347D9B49CBB3FF4B563F9","07af6401-0ec6-4d01-a895-c9986d3a310b","ba640c14-69c5-453e-80b2-29051492c0e0","{""num_scrambled_semantic"":""8"",""num_scrambled_causal"":""4"",""num_scrambled_schematic"":""4"",""participantId"":""E4E2AC07C6A347D9B49CBB3FF4B563F9"",""assignmentId"":""07af6401-0ec6-4d01-a895-c9986d3a310b"",""projectId"":""ba640c14-69c5-453e-80b2-29051492c0e0""}","https://test12345.live/?num_scrambled_semantic=8&num_scrambled_causal=4&num_scrambled_schematic=4&participantId=E4E2AC07C6A347D9B49CBB3FF4B563F9&assignmentId=07af6401-0ec6-4d01-a895-c9986d3a310b&projectId=ba640c14-69c5-453e-80b2-29051492c0e0","E4E2AC07C6A347D9B49CBB3FF4B563F9-2025-05-14-21-01-43","","null","","[]","null","",""
"","","","","","image-button-response","81","474862","0.0-12.0-1.0-0.8","E4E2AC07C6A347D9B49CBB3FF4B563F9","E4E2AC07C6A347D9B49CBB3FF4B563F9","07af6401-0ec6-4d01-a895-c9986d3a310b","ba640c14-69c5-453e-80b2-29051492c0e0","{""num_scrambled_semantic"":""8"",""num_scrambled_causal"":""4"",""num_scrambled_schematic"":""4"",""participantId"":""E4E2AC07C6A347D9B49CBB3FF4B563F9"",""assignmentId"":""07af6401-0ec6-4d01-a895-c9986d3a310b"",""projectId"":""ba640c14-69c5-453e-80b2-29051492c0e0""}","https://test12345.live/?num_scrambled_semantic=8&num_scrambled_causal=4&num_scrambled_schematic=4&participantId=E4E2AC07C6A347D9B49CBB3FF4B563F9&assignmentId=07af6401-0ec6-4d01-a895-c9986d3a310b&projectId=ba640c14-69c5-453e-80b2-29051492c0e0","E4E2AC07C6A347D9B49CBB3FF4B563F9-2025-05-14-21-01-43","","null","","images/semantic_sequence/creative_activities_semantic/creative_activities_semantic_4.png","null","",""
"","","","","","image-button-response","82","476055","0.0-12.0-1.0-1.8","E4E2AC07C6A347D9B49CBB3FF4B563F9","E4E2AC07C6A347D9B49CBB3FF4B563F9","07af6401-0ec6-4d01-a895-c9986d3a310b","ba640c14-69c5-453e-80b2-29051492c0e0","{""num_scrambled_semantic"":""8"",""num_scrambled_causal"":""4"",""num_scrambled_schematic"":""4"",""participantId"":""E4E2AC07C6A347D9B49CBB3FF4B563F9"",""assignmentId"":""07af6401-0ec6-4d01-a895-c9986d3a310b"",""projectId"":""ba640c14-69c5-453e-80b2-29051492c0e0""}","https://test12345.live/?num_scrambled_semantic=8&num_scrambled_causal=4&num_scrambled_schematic=4&participantId=E4E2AC07C6A347D9B49CBB3FF4B563F9&assignmentId=07af6401-0ec6-4d01-a895-c9986d3a310b&projectId=ba640c14-69c5-453e-80b2-29051492c0e0","E4E2AC07C6A347D9B49CBB3FF4B563F9-2025-05-14-21-01-43","","1192","","images/semantic_sequence/creative_activities_semantic/creative_activities_semantic_4.png","0","",""
"","","","","","image-button-response","83","477860","0.0-12.0-1.0-2.8","E4E2AC07C6A347D9B49CBB3FF4B563F9","E4E2AC07C6A347D9B49CBB3FF4B563F9","07af6401-0ec6-4d01-a895-c9986d3a310b","ba640c14-69c5-453e-80b2-29051492c0e0","{""num_scrambled_semantic"":""8"",""num_scrambled_causal"":""4"",""num_scrambled_schematic"":""4"",""participantId"":""E4E2AC07C6A347D9B49CBB3FF4B563F9"",""assignmentId"":""07af6401-0ec6-4d01-a895-c9986d3a310b"",""projectId"":""ba640c14-69c5-453e-80b2-29051492c0e0""}","https://test12345.live/?num_scrambled_semantic=8&num_scrambled_causal=4&num_scrambled_schematic=4&participantId=E4E2AC07C6A347D9B49CBB3FF4B563F9&assignmentId=07af6401-0ec6-4d01-a895-c9986d3a310b&projectId=ba640c14-69c5-453e-80b2-29051492c0e0","E4E2AC07C6A347D9B49CBB3FF4B563F9-2025-05-14-21-01-43","","null","","[]","null","",""
"","","","","","image-button-response","84","482363","0.0-12.0-1.0-0.9","E4E2AC07C6A347D9B49CBB3FF4B563F9","E4E2AC07C6A347D9B49CBB3FF4B563F9","07af6401-0ec6-4d01-a895-c9986d3a310b","ba640c14-69c5-453e-80b2-29051492c0e0","{""num_scrambled_semantic"":""8"",""num_scrambled_causal"":""4"",""num_scrambled_schematic"":""4"",""participantId"":""E4E2AC07C6A347D9B49CBB3FF4B563F9"",""assignmentId"":""07af6401-0ec6-4d01-a895-c9986d3a310b"",""projectId"":""ba640c14-69c5-453e-80b2-29051492c0e0""}","https://test12345.live/?num_scrambled_semantic=8&num_scrambled_causal=4&num_scrambled_schematic=4&participantId=E4E2AC07C6A347D9B49CBB3FF4B563F9&assignmentId=07af6401-0ec6-4d01-a895-c9986d3a310b&projectId=ba640c14-69c5-453e-80b2-29051492c0e0","E4E2AC07C6A347D9B49CBB3FF4B563F9-2025-05-14-21-01-43","","null","","images/semantic_sequence/creative_activities_semantic/creative_activities_semantic_ten.png","null","",""
"","","","","","image-button-response","85","484837","0.0-12.0-1.0-1.9","E4E2AC07C6A347D9B49CBB3FF4B563F9","E4E2AC07C6A347D9B49CBB3FF4B563F9","07af6401-0ec6-4d01-a895-c9986d3a310b","ba640c14-69c5-453e-80b2-29051492c0e0","{""num_scrambled_semantic"":""8"",""num_scrambled_causal"":""4"",""num_scrambled_schematic"":""4"",""participantId"":""E4E2AC07C6A347D9B49CBB3FF4B563F9"",""assignmentId"":""07af6401-0ec6-4d01-a895-c9986d3a310b"",""projectId"":""ba640c14-69c5-453e-80b2-29051492c0e0""}","https://test12345.live/?num_scrambled_semantic=8&num_scrambled_causal=4&num_scrambled_schematic=4&participantId=E4E2AC07C6A347D9B49CBB3FF4B563F9&assignmentId=07af6401-0ec6-4d01-a895-c9986d3a310b&projectId=ba640c14-69c5-453e-80b2-29051492c0e0","E4E2AC07C6A347D9B49CBB3FF4B563F9-2025-05-14-21-01-43","","2472","","images/semantic_sequence/creative_activities_semantic/creative_activities_semantic_ten.png","0","",""
"","","","","","image-button-response","86","486639","0.0-12.0-1.0-2.9","E4E2AC07C6A347D9B49CBB3FF4B563F9","E4E2AC07C6A347D9B49CBB3FF4B563F9","07af6401-0ec6-4d01-a895-c9986d3a310b","ba640c14-69c5-453e-80b2-29051492c0e0","{""num_scrambled_semantic"":""8"",""num_scrambled_causal"":""4"",""num_scrambled_schematic"":""4"",""participantId"":""E4E2AC07C6A347D9B49CBB3FF4B563F9"",""assignmentId"":""07af6401-0ec6-4d01-a895-c9986d3a310b"",""projectId"":""ba640c14-69c5-453e-80b2-29051492c0e0""}","https://test12345.live/?num_scrambled_semantic=8&num_scrambled_causal=4&num_scrambled_schematic=4&participantId=E4E2AC07C6A347D9B49CBB3FF4B563F9&assignmentId=07af6401-0ec6-4d01-a895-c9986d3a310b&projectId=ba640c14-69c5-453e-80b2-29051492c0e0","E4E2AC07C6A347D9B49CBB3FF4B563F9-2025-05-14-21-01-43","","null","","[]","null","",""
"","","","","","html-audio-response","87","504709","0.0-13.0","E4E2AC07C6A347D9B49CBB3FF4B563F9","E4E2AC07C6A347D9B49CBB3FF4B563F9","07af6401-0ec6-4d01-a895-c9986d3a310b","ba640c14-69c5-453e-80b2-29051492c0e0","{""num_scrambled_semantic"":""8"",""num_scrambled_causal"":""4"",""num_scrambled_schematic"":""4"",""participantId"":""E4E2AC07C6A347D9B49CBB3FF4B563F9"",""assignmentId"":""07af6401-0ec6-4d01-a895-c9986d3a310b"",""projectId"":""ba640c14-69c5-453e-80b2-29051492c0e0""}","https://test12345.live/?num_scrambled_semantic=8&num_scrambled_causal=4&num_scrambled_schematic=4&participantId=E4E2AC07C6A347D9B49CBB3FF4B563F9&assignmentId=07af6401-0ec6-4d01-a895-c9986d3a310b&projectId=ba640c14-69c5-453e-80b2-29051492c0e0","E4E2AC07C6A347D9B49CBB3FF4B563F9-2025-05-14-21-01-43","","16342","","[""<span style=\""color: red; font-size: 24px\""> NOW RECORDING</span><p>Please say out loud all the images you saw, as many as you can remember. The images can be said in any order.</p>""]","","1","creative_activities_semantic"
"","","","","","image-button-response","88","510719","0.0-14.0-0.0","E4E2AC07C6A347D9B49CBB3FF4B563F9","E4E2AC07C6A347D9B49CBB3FF4B563F9","07af6401-0ec6-4d01-a895-c9986d3a310b","ba640c14-69c5-453e-80b2-29051492c0e0","{""num_scrambled_semantic"":""8"",""num_scrambled_causal"":""4"",""num_scrambled_schematic"":""4"",""participantId"":""E4E2AC07C6A347D9B49CBB3FF4B563F9"",""assignmentId"":""07af6401-0ec6-4d01-a895-c9986d3a310b"",""projectId"":""ba640c14-69c5-453e-80b2-29051492c0e0""}","https://test12345.live/?num_scrambled_semantic=8&num_scrambled_causal=4&num_scrambled_schematic=4&participantId=E4E2AC07C6A347D9B49CBB3FF4B563F9&assignmentId=07af6401-0ec6-4d01-a895-c9986d3a310b&projectId=ba640c14-69c5-453e-80b2-29051492c0e0","E4E2AC07C6A347D9B49CBB3FF4B563F9-2025-05-14-21-01-43","","null","","images/causal_sequence/saving_a_cat_causal/saving_a_cat_causal_0.png","null","",""
"","","","","","image-button-response","89","515226","0.0-14.0-1.0-0.0","E4E2AC07C6A347D9B49CBB3FF4B563F9","E4E2AC07C6A347D9B49CBB3FF4B563F9","07af6401-0ec6-4d01-a895-c9986d3a310b","ba640c14-69c5-453e-80b2-29051492c0e0","{""num_scrambled_semantic"":""8"",""num_scrambled_causal"":""4"",""num_scrambled_schematic"":""4"",""participantId"":""E4E2AC07C6A347D9B49CBB3FF4B563F9"",""assignmentId"":""07af6401-0ec6-4d01-a895-c9986d3a310b"",""projectId"":""ba640c14-69c5-453e-80b2-29051492c0e0""}","https://test12345.live/?num_scrambled_semantic=8&num_scrambled_causal=4&num_scrambled_schematic=4&participantId=E4E2AC07C6A347D9B49CBB3FF4B563F9&assignmentId=07af6401-0ec6-4d01-a895-c9986d3a310b&projectId=ba640c14-69c5-453e-80b2-29051492c0e0","E4E2AC07C6A347D9B49CBB3FF4B563F9-2025-05-14-21-01-43","","null","","images/causal_sequence/saving_a_cat_causal/saving_a_cat_causal_1.png","null","",""
"","","","","","image-button-response","90","517076","0.0-14.0-1.0-1.0","E4E2AC07C6A347D9B49CBB3FF4B563F9","E4E2AC07C6A347D9B49CBB3FF4B563F9","07af6401-0ec6-4d01-a895-c9986d3a310b","ba640c14-69c5-453e-80b2-29051492c0e0","{""num_scrambled_semantic"":""8"",""num_scrambled_causal"":""4"",""num_scrambled_schematic"":""4"",""participantId"":""E4E2AC07C6A347D9B49CBB3FF4B563F9"",""assignmentId"":""07af6401-0ec6-4d01-a895-c9986d3a310b"",""projectId"":""ba640c14-69c5-453e-80b2-29051492c0e0""}","https://test12345.live/?num_scrambled_semantic=8&num_scrambled_causal=4&num_scrambled_schematic=4&participantId=E4E2AC07C6A347D9B49CBB3FF4B563F9&assignmentId=07af6401-0ec6-4d01-a895-c9986d3a310b&projectId=ba640c14-69c5-453e-80b2-29051492c0e0","E4E2AC07C6A347D9B49CBB3FF4B563F9-2025-05-14-21-01-43","","1850","","images/causal_sequence/saving_a_cat_causal/saving_a_cat_causal_1.png","0","",""
"","","","","","image-button-response","91","518878","0.0-14.0-1.0-2.0","E4E2AC07C6A347D9B49CBB3FF4B563F9","E4E2AC07C6A347D9B49CBB3FF4B563F9","07af6401-0ec6-4d01-a895-c9986d3a310b","ba640c14-69c5-453e-80b2-29051492c0e0","{""num_scrambled_semantic"":""8"",""num_scrambled_causal"":""4"",""num_scrambled_schematic"":""4"",""participantId"":""E4E2AC07C6A347D9B49CBB3FF4B563F9"",""assignmentId"":""07af6401-0ec6-4d01-a895-c9986d3a310b"",""projectId"":""ba640c14-69c5-453e-80b2-29051492c0e0""}","https://test12345.live/?num_scrambled_semantic=8&num_scrambled_causal=4&num_scrambled_schematic=4&participantId=E4E2AC07C6A347D9B49CBB3FF4B563F9&assignmentId=07af6401-0ec6-4d01-a895-c9986d3a310b&projectId=ba640c14-69c5-453e-80b2-29051492c0e0","E4E2AC07C6A347D9B49CBB3FF4B563F9-2025-05-14-21-01-43","","null","","[]","null","",""
"","","","","","image-button-response","92","523380","0.0-14.0-1.0-0.1","E4E2AC07C6A347D9B49CBB3FF4B563F9","E4E2AC07C6A347D9B49CBB3FF4B563F9","07af6401-0ec6-4d01-a895-c9986d3a310b","ba640c14-69c5-453e-80b2-29051492c0e0","{""num_scrambled_semantic"":""8"",""num_scrambled_causal"":""4"",""num_scrambled_schematic"":""4"",""participantId"":""E4E2AC07C6A347D9B49CBB3FF4B563F9"",""assignmentId"":""07af6401-0ec6-4d01-a895-c9986d3a310b"",""projectId"":""ba640c14-69c5-453e-80b2-29051492c0e0""}","https://test12345.live/?num_scrambled_semantic=8&num_scrambled_causal=4&num_scrambled_schematic=4&participantId=E4E2AC07C6A347D9B49CBB3FF4B563F9&assignmentId=07af6401-0ec6-4d01-a895-c9986d3a310b&projectId=ba640c14-69c5-453e-80b2-29051492c0e0","E4E2AC07C6A347D9B49CBB3FF4B563F9-2025-05-14-21-01-43","","null","","images/causal_sequence/saving_a_cat_causal/saving_a_cat_causal_2.png","null","",""
"","","","","","image-button-response","93","525842","0.0-14.0-1.0-1.1","E4E2AC07C6A347D9B49CBB3FF4B563F9","E4E2AC07C6A347D9B49CBB3FF4B563F9","07af6401-0ec6-4d01-a895-c9986d3a310b","ba640c14-69c5-453e-80b2-29051492c0e0","{""num_scrambled_semantic"":""8"",""num_scrambled_causal"":""4"",""num_scrambled_schematic"":""4"",""participantId"":""E4E2AC07C6A347D9B49CBB3FF4B563F9"",""assignmentId"":""07af6401-0ec6-4d01-a895-c9986d3a310b"",""projectId"":""ba640c14-69c5-453e-80b2-29051492c0e0""}","https://test12345.live/?num_scrambled_semantic=8&num_scrambled_causal=4&num_scrambled_schematic=4&participantId=E4E2AC07C6A347D9B49CBB3FF4B563F9&assignmentId=07af6401-0ec6-4d01-a895-c9986d3a310b&projectId=ba640c14-69c5-453e-80b2-29051492c0e0","E4E2AC07C6A347D9B49CBB3FF4B563F9-2025-05-14-21-01-43","","2461","","images/causal_sequence/saving_a_cat_causal/saving_a_cat_causal_2.png","1","",""
"","","","","","image-button-response","94","527648","0.0-14.0-1.0-2.1","E4E2AC07C6A347D9B49CBB3FF4B563F9","E4E2AC07C6A347D9B49CBB3FF4B563F9","07af6401-0ec6-4d01-a895-c9986d3a310b","ba640c14-69c5-453e-80b2-29051492c0e0","{""num_scrambled_semantic"":""8"",""num_scrambled_causal"":""4"",""num_scrambled_schematic"":""4"",""participantId"":""E4E2AC07C6A347D9B49CBB3FF4B563F9"",""assignmentId"":""07af6401-0ec6-4d01-a895-c9986d3a310b"",""projectId"":""ba640c14-69c5-453e-80b2-29051492c0e0""}","https://test12345.live/?num_scrambled_semantic=8&num_scrambled_causal=4&num_scrambled_schematic=4&participantId=E4E2AC07C6A347D9B49CBB3FF4B563F9&assignmentId=07af6401-0ec6-4d01-a895-c9986d3a310b&projectId=ba640c14-69c5-453e-80b2-29051492c0e0","E4E2AC07C6A347D9B49CBB3FF4B563F9-2025-05-14-21-01-43","","null","","[]","null","",""
"","","","","","image-button-response","95","532151","0.0-14.0-1.0-0.2","E4E2AC07C6A347D9B49CBB3FF4B563F9","E4E2AC07C6A347D9B49CBB3FF4B563F9","07af6401-0ec6-4d01-a895-c9986d3a310b","ba640c14-69c5-453e-80b2-29051492c0e0","{""num_scrambled_semantic"":""8"",""num_scrambled_causal"":""4"",""num_scrambled_schematic"":""4"",""participantId"":""E4E2AC07C6A347D9B49CBB3FF4B563F9"",""assignmentId"":""07af6401-0ec6-4d01-a895-c9986d3a310b"",""projectId"":""ba640c14-69c5-453e-80b2-29051492c0e0""}","https://test12345.live/?num_scrambled_semantic=8&num_scrambled_causal=4&num_scrambled_schematic=4&participantId=E4E2AC07C6A347D9B49CBB3FF4B563F9&assignmentId=07af6401-0ec6-4d01-a895-c9986d3a310b&projectId=ba640c14-69c5-453e-80b2-29051492c0e0","E4E2AC07C6A347D9B49CBB3FF4B563F9-2025-05-14-21-01-43","","null","","images/causal_sequence/saving_a_cat_causal/saving_a_cat_causal_3.png","null","",""
"","","","","","image-button-response","96","535327","0.0-14.0-1.0-1.2","E4E2AC07C6A347D9B49CBB3FF4B563F9","E4E2AC07C6A347D9B49CBB3FF4B563F9","07af6401-0ec6-4d01-a895-c9986d3a310b","ba640c14-69c5-453e-80b2-29051492c0e0","{""num_scrambled_semantic"":""8"",""num_scrambled_causal"":""4"",""num_scrambled_schematic"":""4"",""participantId"":""E4E2AC07C6A347D9B49CBB3FF4B563F9"",""assignmentId"":""07af6401-0ec6-4d01-a895-c9986d3a310b"",""projectId"":""ba640c14-69c5-453e-80b2-29051492c0e0""}","https://test12345.live/?num_scrambled_semantic=8&num_scrambled_causal=4&num_scrambled_schematic=4&participantId=E4E2AC07C6A347D9B49CBB3FF4B563F9&assignmentId=07af6401-0ec6-4d01-a895-c9986d3a310b&projectId=ba640c14-69c5-453e-80b2-29051492c0e0","E4E2AC07C6A347D9B49CBB3FF4B563F9-2025-05-14-21-01-43","","3175","","images/causal_sequence/saving_a_cat_causal/saving_a_cat_causal_3.png","1","",""
"","","","","","image-button-response","97","537129","0.0-14.0-1.0-2.2","E4E2AC07C6A347D9B49CBB3FF4B563F9","E4E2AC07C6A347D9B49CBB3FF4B563F9","07af6401-0ec6-4d01-a895-c9986d3a310b","ba640c14-69c5-453e-80b2-29051492c0e0","{""num_scrambled_semantic"":""8"",""num_scrambled_causal"":""4"",""num_scrambled_schematic"":""4"",""participantId"":""E4E2AC07C6A347D9B49CBB3FF4B563F9"",""assignmentId"":""07af6401-0ec6-4d01-a895-c9986d3a310b"",""projectId"":""ba640c14-69c5-453e-80b2-29051492c0e0""}","https://test12345.live/?num_scrambled_semantic=8&num_scrambled_causal=4&num_scrambled_schematic=4&participantId=E4E2AC07C6A347D9B49CBB3FF4B563F9&assignmentId=07af6401-0ec6-4d01-a895-c9986d3a310b&projectId=ba640c14-69c5-453e-80b2-29051492c0e0","E4E2AC07C6A347D9B49CBB3FF4B563F9-2025-05-14-21-01-43","","null","","[]","null","",""
"","","","","","image-button-response","98","541633","0.0-14.0-1.0-0.3","E4E2AC07C6A347D9B49CBB3FF4B563F9","E4E2AC07C6A347D9B49CBB3FF4B563F9","07af6401-0ec6-4d01-a895-c9986d3a310b","ba640c14-69c5-453e-80b2-29051492c0e0","{""num_scrambled_semantic"":""8"",""num_scrambled_causal"":""4"",""num_scrambled_schematic"":""4"",""participantId"":""E4E2AC07C6A347D9B49CBB3FF4B563F9"",""assignmentId"":""07af6401-0ec6-4d01-a895-c9986d3a310b"",""projectId"":""ba640c14-69c5-453e-80b2-29051492c0e0""}","https://test12345.live/?num_scrambled_semantic=8&num_scrambled_causal=4&num_scrambled_schematic=4&participantId=E4E2AC07C6A347D9B49CBB3FF4B563F9&assignmentId=07af6401-0ec6-4d01-a895-c9986d3a310b&projectId=ba640c14-69c5-453e-80b2-29051492c0e0","E4E2AC07C6A347D9B49CBB3FF4B563F9-2025-05-14-21-01-43","","null","","images/causal_sequence/saving_a_cat_causal/saving_a_cat_causal_4.png","null","",""
"","","","","","image-button-response","99","542978","0.0-14.0-1.0-1.3","E4E2AC07C6A347D9B49CBB3FF4B563F9","E4E2AC07C6A347D9B49CBB3FF4B563F9","07af6401-0ec6-4d01-a895-c9986d3a310b","ba640c14-69c5-453e-80b2-29051492c0e0","{""num_scrambled_semantic"":""8"",""num_scrambled_causal"":""4"",""num_scrambled_schematic"":""4"",""participantId"":""E4E2AC07C6A347D9B49CBB3FF4B563F9"",""assignmentId"":""07af6401-0ec6-4d01-a895-c9986d3a310b"",""projectId"":""ba640c14-69c5-453e-80b2-29051492c0e0""}","https://test12345.live/?num_scrambled_semantic=8&num_scrambled_causal=4&num_scrambled_schematic=4&participantId=E4E2AC07C6A347D9B49CBB3FF4B563F9&assignmentId=07af6401-0ec6-4d01-a895-c9986d3a310b&projectId=ba640c14-69c5-453e-80b2-29051492c0e0","E4E2AC07C6A347D9B49CBB3FF4B563F9-2025-05-14-21-01-43","","1345","","images/causal_sequence/saving_a_cat_causal/saving_a_cat_causal_4.png","0","",""
"","","","","","image-button-response","100","544783","0.0-14.0-1.0-2.3","E4E2AC07C6A347D9B49CBB3FF4B563F9","E4E2AC07C6A347D9B49CBB3FF4B563F9","07af6401-0ec6-4d01-a895-c9986d3a310b","ba640c14-69c5-453e-80b2-29051492c0e0","{""num_scrambled_semantic"":""8"",""num_scrambled_causal"":""4"",""num_scrambled_schematic"":""4"",""participantId"":""E4E2AC07C6A347D9B49CBB3FF4B563F9"",""assignmentId"":""07af6401-0ec6-4d01-a895-c9986d3a310b"",""projectId"":""ba640c14-69c5-453e-80b2-29051492c0e0""}","https://test12345.live/?num_scrambled_semantic=8&num_scrambled_causal=4&num_scrambled_schematic=4&participantId=E4E2AC07C6A347D9B49CBB3FF4B563F9&assignmentId=07af6401-0ec6-4d01-a895-c9986d3a310b&projectId=ba640c14-69c5-453e-80b2-29051492c0e0","E4E2AC07C6A347D9B49CBB3FF4B563F9-2025-05-14-21-01-43","","null","","[]","null","",""
"","","","","","image-button-response","101","549289","0.0-14.0-1.0-0.4","E4E2AC07C6A347D9B49CBB3FF4B563F9","E4E2AC07C6A347D9B49CBB3FF4B563F9","07af6401-0ec6-4d01-a895-c9986d3a310b","ba640c14-69c5-453e-80b2-29051492c0e0","{""num_scrambled_semantic"":""8"",""num_scrambled_causal"":""4"",""num_scrambled_schematic"":""4"",""participantId"":""E4E2AC07C6A347D9B49CBB3FF4B563F9"",""assignmentId"":""07af6401-0ec6-4d01-a895-c9986d3a310b"",""projectId"":""ba640c14-69c5-453e-80b2-29051492c0e0""}","https://test12345.live/?num_scrambled_semantic=8&num_scrambled_causal=4&num_scrambled_schematic=4&participantId=E4E2AC07C6A347D9B49CBB3FF4B563F9&assignmentId=07af6401-0ec6-4d01-a895-c9986d3a310b&projectId=ba640c14-69c5-453e-80b2-29051492c0e0","E4E2AC07C6A347D9B49CBB3FF4B563F9-2025-05-14-21-01-43","","null","","images/causal_sequence/saving_a_cat_causal/saving_a_cat_causal_5.png","null","",""
"","","","","","image-button-response","102","551872","0.0-14.0-1.0-1.4","E4E2AC07C6A347D9B49CBB3FF4B563F9","E4E2AC07C6A347D9B49CBB3FF4B563F9","07af6401-0ec6-4d01-a895-c9986d3a310b","ba640c14-69c5-453e-80b2-29051492c0e0","{""num_scrambled_semantic"":""8"",""num_scrambled_causal"":""4"",""num_scrambled_schematic"":""4"",""participantId"":""E4E2AC07C6A347D9B49CBB3FF4B563F9"",""assignmentId"":""07af6401-0ec6-4d01-a895-c9986d3a310b"",""projectId"":""ba640c14-69c5-453e-80b2-29051492c0e0""}","https://test12345.live/?num_scrambled_semantic=8&num_scrambled_causal=4&num_scrambled_schematic=4&participantId=E4E2AC07C6A347D9B49CBB3FF4B563F9&assignmentId=07af6401-0ec6-4d01-a895-c9986d3a310b&projectId=ba640c14-69c5-453e-80b2-29051492c0e0","E4E2AC07C6A347D9B49CBB3FF4B563F9-2025-05-14-21-01-43","","2582","","images/causal_sequence/saving_a_cat_causal/saving_a_cat_causal_5.png","0","",""
"","","","","","image-button-response","103","553677","0.0-14.0-1.0-2.4","E4E2AC07C6A347D9B49CBB3FF4B563F9","E4E2AC07C6A347D9B49CBB3FF4B563F9","07af6401-0ec6-4d01-a895-c9986d3a310b","ba640c14-69c5-453e-80b2-29051492c0e0","{""num_scrambled_semantic"":""8"",""num_scrambled_causal"":""4"",""num_scrambled_schematic"":""4"",""participantId"":""E4E2AC07C6A347D9B49CBB3FF4B563F9"",""assignmentId"":""07af6401-0ec6-4d01-a895-c9986d3a310b"",""projectId"":""ba640c14-69c5-453e-80b2-29051492c0e0""}","https://test12345.live/?num_scrambled_semantic=8&num_scrambled_causal=4&num_scrambled_schematic=4&participantId=E4E2AC07C6A347D9B49CBB3FF4B563F9&assignmentId=07af6401-0ec6-4d01-a895-c9986d3a310b&projectId=ba640c14-69c5-453e-80b2-29051492c0e0","E4E2AC07C6A347D9B49CBB3FF4B563F9-2025-05-14-21-01-43","","null","","[]","null","",""
"","","","","","image-button-response","104","558183","0.0-14.0-1.0-0.5","E4E2AC07C6A347D9B49CBB3FF4B563F9","E4E2AC07C6A347D9B49CBB3FF4B563F9","07af6401-0ec6-4d01-a895-c9986d3a310b","ba640c14-69c5-453e-80b2-29051492c0e0","{""num_scrambled_semantic"":""8"",""num_scrambled_causal"":""4"",""num_scrambled_schematic"":""4"",""participantId"":""E4E2AC07C6A347D9B49CBB3FF4B563F9"",""assignmentId"":""07af6401-0ec6-4d01-a895-c9986d3a310b"",""projectId"":""ba640c14-69c5-453e-80b2-29051492c0e0""}","https://test12345.live/?num_scrambled_semantic=8&num_scrambled_causal=4&num_scrambled_schematic=4&participantId=E4E2AC07C6A347D9B49CBB3FF4B563F9&assignmentId=07af6401-0ec6-4d01-a895-c9986d3a310b&projectId=ba640c14-69c5-453e-80b2-29051492c0e0","E4E2AC07C6A347D9B49CBB3FF4B563F9-2025-05-14-21-01-43","","null","","images/causal_sequence/saving_a_cat_causal/saving_a_cat_causal_6.png","null","",""
"","","","","","image-button-response","105","560332","0.0-14.0-1.0-1.5","E4E2AC07C6A347D9B49CBB3FF4B563F9","E4E2AC07C6A347D9B49CBB3FF4B563F9","07af6401-0ec6-4d01-a895-c9986d3a310b","ba640c14-69c5-453e-80b2-29051492c0e0","{""num_scrambled_semantic"":""8"",""num_scrambled_causal"":""4"",""num_scrambled_schematic"":""4"",""participantId"":""E4E2AC07C6A347D9B49CBB3FF4B563F9"",""assignmentId"":""07af6401-0ec6-4d01-a895-c9986d3a310b"",""projectId"":""ba640c14-69c5-453e-80b2-29051492c0e0""}","https://test12345.live/?num_scrambled_semantic=8&num_scrambled_causal=4&num_scrambled_schematic=4&participantId=E4E2AC07C6A347D9B49CBB3FF4B563F9&assignmentId=07af6401-0ec6-4d01-a895-c9986d3a310b&projectId=ba640c14-69c5-453e-80b2-29051492c0e0","E4E2AC07C6A347D9B49CBB3FF4B563F9-2025-05-14-21-01-43","","2148","","images/causal_sequence/saving_a_cat_causal/saving_a_cat_causal_6.png","0","",""
"","","","","","image-button-response","106","562135","0.0-14.0-1.0-2.5","E4E2AC07C6A347D9B49CBB3FF4B563F9","E4E2AC07C6A347D9B49CBB3FF4B563F9","07af6401-0ec6-4d01-a895-c9986d3a310b","ba640c14-69c5-453e-80b2-29051492c0e0","{""num_scrambled_semantic"":""8"",""num_scrambled_causal"":""4"",""num_scrambled_schematic"":""4"",""participantId"":""E4E2AC07C6A347D9B49CBB3FF4B563F9"",""assignmentId"":""07af6401-0ec6-4d01-a895-c9986d3a310b"",""projectId"":""ba640c14-69c5-453e-80b2-29051492c0e0""}","https://test12345.live/?num_scrambled_semantic=8&num_scrambled_causal=4&num_scrambled_schematic=4&participantId=E4E2AC07C6A347D9B49CBB3FF4B563F9&assignmentId=07af6401-0ec6-4d01-a895-c9986d3a310b&projectId=ba640c14-69c5-453e-80b2-29051492c0e0","E4E2AC07C6A347D9B49CBB3FF4B563F9-2025-05-14-21-01-43","","null","","[]","null","",""
"","","","","","image-button-response","107","566638","0.0-14.0-1.0-0.6","E4E2AC07C6A347D9B49CBB3FF4B563F9","E4E2AC07C6A347D9B49CBB3FF4B563F9","07af6401-0ec6-4d01-a895-c9986d3a310b","ba640c14-69c5-453e-80b2-29051492c0e0","{""num_scrambled_semantic"":""8"",""num_scrambled_causal"":""4"",""num_scrambled_schematic"":""4"",""participantId"":""E4E2AC07C6A347D9B49CBB3FF4B563F9"",""assignmentId"":""07af6401-0ec6-4d01-a895-c9986d3a310b"",""projectId"":""ba640c14-69c5-453e-80b2-29051492c0e0""}","https://test12345.live/?num_scrambled_semantic=8&num_scrambled_causal=4&num_scrambled_schematic=4&participantId=E4E2AC07C6A347D9B49CBB3FF4B563F9&assignmentId=07af6401-0ec6-4d01-a895-c9986d3a310b&projectId=ba640c14-69c5-453e-80b2-29051492c0e0","E4E2AC07C6A347D9B49CBB3FF4B563F9-2025-05-14-21-01-43","","null","","images/causal_sequence/saving_a_cat_causal/saving_a_cat_causal_7.png","null","",""
"","","","","","image-button-response","108","567750","0.0-14.0-1.0-1.6","E4E2AC07C6A347D9B49CBB3FF4B563F9","E4E2AC07C6A347D9B49CBB3FF4B563F9","07af6401-0ec6-4d01-a895-c9986d3a310b","ba640c14-69c5-453e-80b2-29051492c0e0","{""num_scrambled_semantic"":""8"",""num_scrambled_causal"":""4"",""num_scrambled_schematic"":""4"",""participantId"":""E4E2AC07C6A347D9B49CBB3FF4B563F9"",""assignmentId"":""07af6401-0ec6-4d01-a895-c9986d3a310b"",""projectId"":""ba640c14-69c5-453e-80b2-29051492c0e0""}","https://test12345.live/?num_scrambled_semantic=8&num_scrambled_causal=4&num_scrambled_schematic=4&participantId=E4E2AC07C6A347D9B49CBB3FF4B563F9&assignmentId=07af6401-0ec6-4d01-a895-c9986d3a310b&projectId=ba640c14-69c5-453e-80b2-29051492c0e0","E4E2AC07C6A347D9B49CBB3FF4B563F9-2025-05-14-21-01-43","","1111","","images/causal_sequence/saving_a_cat_causal/saving_a_cat_causal_7.png","0","",""
"","","","","","image-button-response","109","569555","0.0-14.0-1.0-2.6","E4E2AC07C6A347D9B49CBB3FF4B563F9","E4E2AC07C6A347D9B49CBB3FF4B563F9","07af6401-0ec6-4d01-a895-c9986d3a310b","ba640c14-69c5-453e-80b2-29051492c0e0","{""num_scrambled_semantic"":""8"",""num_scrambled_causal"":""4"",""num_scrambled_schematic"":""4"",""participantId"":""E4E2AC07C6A347D9B49CBB3FF4B563F9"",""assignmentId"":""07af6401-0ec6-4d01-a895-c9986d3a310b"",""projectId"":""ba640c14-69c5-453e-80b2-29051492c0e0""}","https://test12345.live/?num_scrambled_semantic=8&num_scrambled_causal=4&num_scrambled_schematic=4&participantId=E4E2AC07C6A347D9B49CBB3FF4B563F9&assignmentId=07af6401-0ec6-4d01-a895-c9986d3a310b&projectId=ba640c14-69c5-453e-80b2-29051492c0e0","E4E2AC07C6A347D9B49CBB3FF4B563F9-2025-05-14-21-01-43","","null","","[]","null","",""
"","","","","","image-button-response","110","574058","0.0-14.0-1.0-0.7","E4E2AC07C6A347D9B49CBB3FF4B563F9","E4E2AC07C6A347D9B49CBB3FF4B563F9","07af6401-0ec6-4d01-a895-c9986d3a310b","ba640c14-69c5-453e-80b2-29051492c0e0","{""num_scrambled_semantic"":""8"",""num_scrambled_causal"":""4"",""num_scrambled_schematic"":""4"",""participantId"":""E4E2AC07C6A347D9B49CBB3FF4B563F9"",""assignmentId"":""07af6401-0ec6-4d01-a895-c9986d3a310b"",""projectId"":""ba640c14-69c5-453e-80b2-29051492c0e0""}","https://test12345.live/?num_scrambled_semantic=8&num_scrambled_causal=4&num_scrambled_schematic=4&participantId=E4E2AC07C6A347D9B49CBB3FF4B563F9&assignmentId=07af6401-0ec6-4d01-a895-c9986d3a310b&projectId=ba640c14-69c5-453e-80b2-29051492c0e0","E4E2AC07C6A347D9B49CBB3FF4B563F9-2025-05-14-21-01-43","","null","","images/causal_sequence/saving_a_cat_causal/saving_a_cat_causal_8.png","null","",""
"","","","","","image-button-response","111","575876","0.0-14.0-1.0-1.7","E4E2AC07C6A347D9B49CBB3FF4B563F9","E4E2AC07C6A347D9B49CBB3FF4B563F9","07af6401-0ec6-4d01-a895-c9986d3a310b","ba640c14-69c5-453e-80b2-29051492c0e0","{""num_scrambled_semantic"":""8"",""num_scrambled_causal"":""4"",""num_scrambled_schematic"":""4"",""participantId"":""E4E2AC07C6A347D9B49CBB3FF4B563F9"",""assignmentId"":""07af6401-0ec6-4d01-a895-c9986d3a310b"",""projectId"":""ba640c14-69c5-453e-80b2-29051492c0e0""}","https://test12345.live/?num_scrambled_semantic=8&num_scrambled_causal=4&num_scrambled_schematic=4&participantId=E4E2AC07C6A347D9B49CBB3FF4B563F9&assignmentId=07af6401-0ec6-4d01-a895-c9986d3a310b&projectId=ba640c14-69c5-453e-80b2-29051492c0e0","E4E2AC07C6A347D9B49CBB3FF4B563F9-2025-05-14-21-01-43","","1816","","images/causal_sequence/saving_a_cat_causal/saving_a_cat_causal_8.png","0","",""
"","","","","","image-button-response","112","577679","0.0-14.0-1.0-2.7","E4E2AC07C6A347D9B49CBB3FF4B563F9","E4E2AC07C6A347D9B49CBB3FF4B563F9","07af6401-0ec6-4d01-a895-c9986d3a310b","ba640c14-69c5-453e-80b2-29051492c0e0","{""num_scrambled_semantic"":""8"",""num_scrambled_causal"":""4"",""num_scrambled_schematic"":""4"",""participantId"":""E4E2AC07C6A347D9B49CBB3FF4B563F9"",""assignmentId"":""07af6401-0ec6-4d01-a895-c9986d3a310b"",""projectId"":""ba640c14-69c5-453e-80b2-29051492c0e0""}","https://test12345.live/?num_scrambled_semantic=8&num_scrambled_causal=4&num_scrambled_schematic=4&participantId=E4E2AC07C6A347D9B49CBB3FF4B563F9&assignmentId=07af6401-0ec6-4d01-a895-c9986d3a310b&projectId=ba640c14-69c5-453e-80b2-29051492c0e0","E4E2AC07C6A347D9B49CBB3FF4B563F9-2025-05-14-21-01-43","","null","","[]","null","",""
"","","","","","image-button-response","113","582183","0.0-14.0-1.0-0.8","E4E2AC07C6A347D9B49CBB3FF4B563F9","E4E2AC07C6A347D9B49CBB3FF4B563F9","07af6401-0ec6-4d01-a895-c9986d3a310b","ba640c14-69c5-453e-80b2-29051492c0e0","{""num_scrambled_semantic"":""8"",""num_scrambled_causal"":""4"",""num_scrambled_schematic"":""4"",""participantId"":""E4E2AC07C6A347D9B49CBB3FF4B563F9"",""assignmentId"":""07af6401-0ec6-4d01-a895-c9986d3a310b"",""projectId"":""ba640c14-69c5-453e-80b2-29051492c0e0""}","https://test12345.live/?num_scrambled_semantic=8&num_scrambled_causal=4&num_scrambled_schematic=4&participantId=E4E2AC07C6A347D9B49CBB3FF4B563F9&assignmentId=07af6401-0ec6-4d01-a895-c9986d3a310b&projectId=ba640c14-69c5-453e-80b2-29051492c0e0","E4E2AC07C6A347D9B49CBB3FF4B563F9-2025-05-14-21-01-43","","null","","images/causal_sequence/saving_a_cat_causal/saving_a_cat_causal_9.png","null","",""
