"success","timeout","failed_images","failed_audio","failed_video","trial_type","trial_index","time_elapsed","internal_node_id","subject","subject_id","study_id","session_id","urlvar","current_url","audio_id","view_history","rt","device_id","stimulus","response","estimated_stimulus_onset","seq_name"
"true","false","[]","[]","[]","preload","0","7675","0.0-0.0","E52BBDBACEAD4955B2BFCDF31CC0ACF4","E52BBDBACEAD4955B2BFCDF31CC0ACF4","0198ba0c-b71d-7d82-860f-d5ed05f89020","0198b9d0-29d4-7df3-8625-4b4515841beb","{""num_scrambled_semantic"":""8"",""num_scrambled_causal"":""4"",""num_scrambled_schematic"":""4"",""participantId"":""E52BBDBACEAD4955B2BFCDF31CC0ACF4"",""assignmentId"":""0198ba0c-b71d-7d82-860f-d5ed05f89020"",""projectId"":""0198b9d0-29d4-7df3-8625-4b4515841beb""}","https://test12345.live/?num_scrambled_semantic=8&num_scrambled_causal=4&num_scrambled_schematic=4&participantId=E52BBDBACEAD4955B2BFCDF31CC0ACF4&assignmentId=0198ba0c-b71d-7d82-860f-d5ed05f89020&projectId=0198b9d0-29d4-7df3-8625-4b4515841beb","E52BBDBACEAD4955B2BFCDF31CC0ACF4-2025-08-17-22-40-46","","","","","","",""
"","","","","","instructions","1","20084","0.0-1.0","E52BBDBACEAD4955B2BFCDF31CC0ACF4","E52BBDBACEAD4955B2BFCDF31CC0ACF4","0198ba0c-b71d-7d82-860f-d5ed05f89020","0198b9d0-29d4-7df3-8625-4b4515841beb","{""num_scrambled_semantic"":""8"",""num_scrambled_causal"":""4"",""num_scrambled_schematic"":""4"",""participantId"":""E52BBDBACEAD4955B2BFCDF31CC0ACF4"",""assignmentId"":""0198ba0c-b71d-7d82-860f-d5ed05f89020"",""projectId"":""0198b9d0-29d4-7df3-8625-4b4515841beb""}","https://test12345.live/?num_scrambled_semantic=8&num_scrambled_causal=4&num_scrambled_schematic=4&participantId=E52BBDBACEAD4955B2BFCDF31CC0ACF4&assignmentId=0198ba0c-b71d-7d82-860f-d5ed05f89020&projectId=0198b9d0-29d4-7df3-8625-4b4515841beb","E52BBDBACEAD4955B2BFCDF31CC0ACF4-2025-08-17-22-40-46","[{""page_index"":0,""viewing_time"":12409}]","12409","","","","",""
"","","","","","instructions","2","23443","0.0-2.0","E52BBDBACEAD4955B2BFCDF31CC0ACF4","E52BBDBACEAD4955B2BFCDF31CC0ACF4","0198ba0c-b71d-7d82-860f-d5ed05f89020","0198b9d0-29d4-7df3-8625-4b4515841beb","{""num_scrambled_semantic"":""8"",""num_scrambled_causal"":""4"",""num_scrambled_schematic"":""4"",""participantId"":""E52BBDBACEAD4955B2BFCDF31CC0ACF4"",""assignmentId"":""0198ba0c-b71d-7d82-860f-d5ed05f89020"",""projectId"":""0198b9d0-29d4-7df3-8625-4b4515841beb""}","https://test12345.live/?num_scrambled_semantic=8&num_scrambled_causal=4&num_scrambled_schematic=4&participantId=E52BBDBACEAD4955B2BFCDF31CC0ACF4&assignmentId=0198ba0c-b71d-7d82-860f-d5ed05f89020&projectId=0198b9d0-29d4-7df3-8625-4b4515841beb","E52BBDBACEAD4955B2BFCDF31CC0ACF4-2025-08-17-22-40-46","[{""page_index"":0,""viewing_time"":3354}]","3354","","","","",""
"true","","","","","fullscreen","3","26194","0.0-3.0","E52BBDBACEAD4955B2BFCDF31CC0ACF4","E52BBDBACEAD4955B2BFCDF31CC0ACF4","0198ba0c-b71d-7d82-860f-d5ed05f89020","0198b9d0-29d4-7df3-8625-4b4515841beb","{""num_scrambled_semantic"":""8"",""num_scrambled_causal"":""4"",""num_scrambled_schematic"":""4"",""participantId"":""E52BBDBACEAD4955B2BFCDF31CC0ACF4"",""assignmentId"":""0198ba0c-b71d-7d82-860f-d5ed05f89020"",""projectId"":""0198b9d0-29d4-7df3-8625-4b4515841beb""}","https://test12345.live/?num_scrambled_semantic=8&num_scrambled_causal=4&num_scrambled_schematic=4&participantId=E52BBDBACEAD4955B2BFCDF31CC0ACF4&assignmentId=0198ba0c-b71d-7d82-860f-d5ed05f89020&projectId=0198b9d0-29d4-7df3-8625-4b4515841beb","E52BBDBACEAD4955B2BFCDF31CC0ACF4-2025-08-17-22-40-46","","1747","","","","",""
"","","","","","initialize-microphone","4","34150","0.0-4.0-0.0","E52BBDBACEAD4955B2BFCDF31CC0ACF4","E52BBDBACEAD4955B2BFCDF31CC0ACF4","0198ba0c-b71d-7d82-860f-d5ed05f89020","0198b9d0-29d4-7df3-8625-4b4515841beb","{""num_scrambled_semantic"":""8"",""num_scrambled_causal"":""4"",""num_scrambled_schematic"":""4"",""participantId"":""E52BBDBACEAD4955B2BFCDF31CC0ACF4"",""assignmentId"":""0198ba0c-b71d-7d82-860f-d5ed05f89020"",""projectId"":""0198b9d0-29d4-7df3-8625-4b4515841beb""}","https://test12345.live/?num_scrambled_semantic=8&num_scrambled_causal=4&num_scrambled_schematic=4&participantId=E52BBDBACEAD4955B2BFCDF31CC0ACF4&assignmentId=0198ba0c-b71d-7d82-860f-d5ed05f89020&projectId=0198b9d0-29d4-7df3-8625-4b4515841beb","E52BBDBACEAD4955B2BFCDF31CC0ACF4-2025-08-17-22-40-46","","","98852aa5c6554ac03bb56a250d0356cabdeabc8055c91a7feceb99e9e66a04f4","","","",""
"","","","","","html-audio-response","5","45750","0.0-4.0-1.0","E52BBDBACEAD4955B2BFCDF31CC0ACF4","E52BBDBACEAD4955B2BFCDF31CC0ACF4","0198ba0c-b71d-7d82-860f-d5ed05f89020","0198b9d0-29d4-7df3-8625-4b4515841beb","{""num_scrambled_semantic"":""8"",""num_scrambled_causal"":""4"",""num_scrambled_schematic"":""4"",""participantId"":""E52BBDBACEAD4955B2BFCDF31CC0ACF4"",""assignmentId"":""0198ba0c-b71d-7d82-860f-d5ed05f89020"",""projectId"":""0198b9d0-29d4-7df3-8625-4b4515841beb""}","https://test12345.live/?num_scrambled_semantic=8&num_scrambled_causal=4&num_scrambled_schematic=4&participantId=E52BBDBACEAD4955B2BFCDF31CC0ACF4&assignmentId=0198ba0c-b71d-7d82-860f-d5ed05f89020&projectId=0198b9d0-29d4-7df3-8625-4b4515841beb","E52BBDBACEAD4955B2BFCDF31CC0ACF4-2025-08-17-22-40-46","","4839","","<span style=""color: red; font-size: 24px""> NOW RECORDING</span>
        <p>Please test Microphone</p>","","16",""
"","","","","","html-button-response","6","47361","0.0-4.0-2.0","E52BBDBACEAD4955B2BFCDF31CC0ACF4","E52BBDBACEAD4955B2BFCDF31CC0ACF4","0198ba0c-b71d-7d82-860f-d5ed05f89020","0198b9d0-29d4-7df3-8625-4b4515841beb","{""num_scrambled_semantic"":""8"",""num_scrambled_causal"":""4"",""num_scrambled_schematic"":""4"",""participantId"":""E52BBDBACEAD4955B2BFCDF31CC0ACF4"",""assignmentId"":""0198ba0c-b71d-7d82-860f-d5ed05f89020"",""projectId"":""0198b9d0-29d4-7df3-8625-4b4515841beb""}","https://test12345.live/?num_scrambled_semantic=8&num_scrambled_causal=4&num_scrambled_schematic=4&participantId=E52BBDBACEAD4955B2BFCDF31CC0ACF4&assignmentId=0198ba0c-b71d-7d82-860f-d5ed05f89020&projectId=0198b9d0-29d4-7df3-8625-4b4515841beb","E52BBDBACEAD4955B2BFCDF31CC0ACF4-2025-08-17-22-40-46","","1609","","<p style=""font-size:48px; color:red;"">Is Microphone OK?</p>","1","",""
"","","","","","instructions","7","56087","0.0-5.0","E52BBDBACEAD4955B2BFCDF31CC0ACF4","E52BBDBACEAD4955B2BFCDF31CC0ACF4","0198ba0c-b71d-7d82-860f-d5ed05f89020","0198b9d0-29d4-7df3-8625-4b4515841beb","{""num_scrambled_semantic"":""8"",""num_scrambled_causal"":""4"",""num_scrambled_schematic"":""4"",""participantId"":""E52BBDBACEAD4955B2BFCDF31CC0ACF4"",""assignmentId"":""0198ba0c-b71d-7d82-860f-d5ed05f89020"",""projectId"":""0198b9d0-29d4-7df3-8625-4b4515841beb""}","https://test12345.live/?num_scrambled_semantic=8&num_scrambled_causal=4&num_scrambled_schematic=4&participantId=E52BBDBACEAD4955B2BFCDF31CC0ACF4&assignmentId=0198ba0c-b71d-7d82-860f-d5ed05f89020&projectId=0198b9d0-29d4-7df3-8625-4b4515841beb","E52BBDBACEAD4955B2BFCDF31CC0ACF4-2025-08-17-22-40-46","[{""page_index"":0,""viewing_time"":2345},{""page_index"":1,""viewing_time"":6379}]","8725","","","","",""
"","","","","","image-button-response","8","62097","0.0-6.0-0.0","E52BBDBACEAD4955B2BFCDF31CC0ACF4","E52BBDBACEAD4955B2BFCDF31CC0ACF4","0198ba0c-b71d-7d82-860f-d5ed05f89020","0198b9d0-29d4-7df3-8625-4b4515841beb","{""num_scrambled_semantic"":""8"",""num_scrambled_causal"":""4"",""num_scrambled_schematic"":""4"",""participantId"":""E52BBDBACEAD4955B2BFCDF31CC0ACF4"",""assignmentId"":""0198ba0c-b71d-7d82-860f-d5ed05f89020"",""projectId"":""0198b9d0-29d4-7df3-8625-4b4515841beb""}","https://test12345.live/?num_scrambled_semantic=8&num_scrambled_causal=4&num_scrambled_schematic=4&participantId=E52BBDBACEAD4955B2BFCDF31CC0ACF4&assignmentId=0198ba0c-b71d-7d82-860f-d5ed05f89020&projectId=0198b9d0-29d4-7df3-8625-4b4515841beb","E52BBDBACEAD4955B2BFCDF31CC0ACF4-2025-08-17-22-40-46","","null","","images/instructions/movie_0.png","null","",""
"","","","","","image-button-response","9","66601","0.0-6.0-1.0-0.0","E52BBDBACEAD4955B2BFCDF31CC0ACF4","E52BBDBACEAD4955B2BFCDF31CC0ACF4","0198ba0c-b71d-7d82-860f-d5ed05f89020","0198b9d0-29d4-7df3-8625-4b4515841beb","{""num_scrambled_semantic"":""8"",""num_scrambled_causal"":""4"",""num_scrambled_schematic"":""4"",""participantId"":""E52BBDBACEAD4955B2BFCDF31CC0ACF4"",""assignmentId"":""0198ba0c-b71d-7d82-860f-d5ed05f89020"",""projectId"":""0198b9d0-29d4-7df3-8625-4b4515841beb""}","https://test12345.live/?num_scrambled_semantic=8&num_scrambled_causal=4&num_scrambled_schematic=4&participantId=E52BBDBACEAD4955B2BFCDF31CC0ACF4&assignmentId=0198ba0c-b71d-7d82-860f-d5ed05f89020&projectId=0198b9d0-29d4-7df3-8625-4b4515841beb","E52BBDBACEAD4955B2BFCDF31CC0ACF4-2025-08-17-22-40-46","","null","","images/instructions/movie_1.png","null","",""
"","","","","","image-button-response","10","68870","0.0-6.0-1.0-1.0","E52BBDBACEAD4955B2BFCDF31CC0ACF4","E52BBDBACEAD4955B2BFCDF31CC0ACF4","0198ba0c-b71d-7d82-860f-d5ed05f89020","0198b9d0-29d4-7df3-8625-4b4515841beb","{""num_scrambled_semantic"":""8"",""num_scrambled_causal"":""4"",""num_scrambled_schematic"":""4"",""participantId"":""E52BBDBACEAD4955B2BFCDF31CC0ACF4"",""assignmentId"":""0198ba0c-b71d-7d82-860f-d5ed05f89020"",""projectId"":""0198b9d0-29d4-7df3-8625-4b4515841beb""}","https://test12345.live/?num_scrambled_semantic=8&num_scrambled_causal=4&num_scrambled_schematic=4&participantId=E52BBDBACEAD4955B2BFCDF31CC0ACF4&assignmentId=0198ba0c-b71d-7d82-860f-d5ed05f89020&projectId=0198b9d0-29d4-7df3-8625-4b4515841beb","E52BBDBACEAD4955B2BFCDF31CC0ACF4-2025-08-17-22-40-46","","2266","","images/instructions/movie_1.png","0","",""
"","","","","","image-button-response","11","74274","0.0-6.0-1.0-2.0","E52BBDBACEAD4955B2BFCDF31CC0ACF4","E52BBDBACEAD4955B2BFCDF31CC0ACF4","0198ba0c-b71d-7d82-860f-d5ed05f89020","0198b9d0-29d4-7df3-8625-4b4515841beb","{""num_scrambled_semantic"":""8"",""num_scrambled_causal"":""4"",""num_scrambled_schematic"":""4"",""participantId"":""E52BBDBACEAD4955B2BFCDF31CC0ACF4"",""assignmentId"":""0198ba0c-b71d-7d82-860f-d5ed05f89020"",""projectId"":""0198b9d0-29d4-7df3-8625-4b4515841beb""}","https://test12345.live/?num_scrambled_semantic=8&num_scrambled_causal=4&num_scrambled_schematic=4&participantId=E52BBDBACEAD4955B2BFCDF31CC0ACF4&assignmentId=0198ba0c-b71d-7d82-860f-d5ed05f89020&projectId=0198b9d0-29d4-7df3-8625-4b4515841beb","E52BBDBACEAD4955B2BFCDF31CC0ACF4-2025-08-17-22-40-46","","null","","[]","null","",""
"","","","","","image-button-response","12","78781","0.0-6.0-1.0-0.1","E52BBDBACEAD4955B2BFCDF31CC0ACF4","E52BBDBACEAD4955B2BFCDF31CC0ACF4","0198ba0c-b71d-7d82-860f-d5ed05f89020","0198b9d0-29d4-7df3-8625-4b4515841beb","{""num_scrambled_semantic"":""8"",""num_scrambled_causal"":""4"",""num_scrambled_schematic"":""4"",""participantId"":""E52BBDBACEAD4955B2BFCDF31CC0ACF4"",""assignmentId"":""0198ba0c-b71d-7d82-860f-d5ed05f89020"",""projectId"":""0198b9d0-29d4-7df3-8625-4b4515841beb""}","https://test12345.live/?num_scrambled_semantic=8&num_scrambled_causal=4&num_scrambled_schematic=4&participantId=E52BBDBACEAD4955B2BFCDF31CC0ACF4&assignmentId=0198ba0c-b71d-7d82-860f-d5ed05f89020&projectId=0198b9d0-29d4-7df3-8625-4b4515841beb","E52BBDBACEAD4955B2BFCDF31CC0ACF4-2025-08-17-22-40-46","","null","","images/instructions/movie_2.png","null","",""
"","","","","","image-button-response","13","80897","0.0-6.0-1.0-1.1","E52BBDBACEAD4955B2BFCDF31CC0ACF4","E52BBDBACEAD4955B2BFCDF31CC0ACF4","0198ba0c-b71d-7d82-860f-d5ed05f89020","0198b9d0-29d4-7df3-8625-4b4515841beb","{""num_scrambled_semantic"":""8"",""num_scrambled_causal"":""4"",""num_scrambled_schematic"":""4"",""participantId"":""E52BBDBACEAD4955B2BFCDF31CC0ACF4"",""assignmentId"":""0198ba0c-b71d-7d82-860f-d5ed05f89020"",""projectId"":""0198b9d0-29d4-7df3-8625-4b4515841beb""}","https://test12345.live/?num_scrambled_semantic=8&num_scrambled_causal=4&num_scrambled_schematic=4&participantId=E52BBDBACEAD4955B2BFCDF31CC0ACF4&assignmentId=0198ba0c-b71d-7d82-860f-d5ed05f89020&projectId=0198b9d0-29d4-7df3-8625-4b4515841beb","E52BBDBACEAD4955B2BFCDF31CC0ACF4-2025-08-17-22-40-46","","2114","","images/instructions/movie_2.png","0","",""
"","","","","","image-button-response","14","86300","0.0-6.0-1.0-2.1","E52BBDBACEAD4955B2BFCDF31CC0ACF4","E52BBDBACEAD4955B2BFCDF31CC0ACF4","0198ba0c-b71d-7d82-860f-d5ed05f89020","0198b9d0-29d4-7df3-8625-4b4515841beb","{""num_scrambled_semantic"":""8"",""num_scrambled_causal"":""4"",""num_scrambled_schematic"":""4"",""participantId"":""E52BBDBACEAD4955B2BFCDF31CC0ACF4"",""assignmentId"":""0198ba0c-b71d-7d82-860f-d5ed05f89020"",""projectId"":""0198b9d0-29d4-7df3-8625-4b4515841beb""}","https://test12345.live/?num_scrambled_semantic=8&num_scrambled_causal=4&num_scrambled_schematic=4&participantId=E52BBDBACEAD4955B2BFCDF31CC0ACF4&assignmentId=0198ba0c-b71d-7d82-860f-d5ed05f89020&projectId=0198b9d0-29d4-7df3-8625-4b4515841beb","E52BBDBACEAD4955B2BFCDF31CC0ACF4-2025-08-17-22-40-46","","null","","[]","null","",""
"","","","","","image-button-response","15","90806","0.0-6.0-1.0-0.2","E52BBDBACEAD4955B2BFCDF31CC0ACF4","E52BBDBACEAD4955B2BFCDF31CC0ACF4","0198ba0c-b71d-7d82-860f-d5ed05f89020","0198b9d0-29d4-7df3-8625-4b4515841beb","{""num_scrambled_semantic"":""8"",""num_scrambled_causal"":""4"",""num_scrambled_schematic"":""4"",""participantId"":""E52BBDBACEAD4955B2BFCDF31CC0ACF4"",""assignmentId"":""0198ba0c-b71d-7d82-860f-d5ed05f89020"",""projectId"":""0198b9d0-29d4-7df3-8625-4b4515841beb""}","https://test12345.live/?num_scrambled_semantic=8&num_scrambled_causal=4&num_scrambled_schematic=4&participantId=E52BBDBACEAD4955B2BFCDF31CC0ACF4&assignmentId=0198ba0c-b71d-7d82-860f-d5ed05f89020&projectId=0198b9d0-29d4-7df3-8625-4b4515841beb","E52BBDBACEAD4955B2BFCDF31CC0ACF4-2025-08-17-22-40-46","","null","","images/instructions/movie_3.png","null","",""
"","","","","","image-button-response","16","92302","0.0-6.0-1.0-1.2","E52BBDBACEAD4955B2BFCDF31CC0ACF4","E52BBDBACEAD4955B2BFCDF31CC0ACF4","0198ba0c-b71d-7d82-860f-d5ed05f89020","0198b9d0-29d4-7df3-8625-4b4515841beb","{""num_scrambled_semantic"":""8"",""num_scrambled_causal"":""4"",""num_scrambled_schematic"":""4"",""participantId"":""E52BBDBACEAD4955B2BFCDF31CC0ACF4"",""assignmentId"":""0198ba0c-b71d-7d82-860f-d5ed05f89020"",""projectId"":""0198b9d0-29d4-7df3-8625-4b4515841beb""}","https://test12345.live/?num_scrambled_semantic=8&num_scrambled_causal=4&num_scrambled_schematic=4&participantId=E52BBDBACEAD4955B2BFCDF31CC0ACF4&assignmentId=0198ba0c-b71d-7d82-860f-d5ed05f89020&projectId=0198b9d0-29d4-7df3-8625-4b4515841beb","E52BBDBACEAD4955B2BFCDF31CC0ACF4-2025-08-17-22-40-46","","1493","","images/instructions/movie_3.png","0","",""
"","","","","","image-button-response","17","97708","0.0-6.0-1.0-2.2","E52BBDBACEAD4955B2BFCDF31CC0ACF4","E52BBDBACEAD4955B2BFCDF31CC0ACF4","0198ba0c-b71d-7d82-860f-d5ed05f89020","0198b9d0-29d4-7df3-8625-4b4515841beb","{""num_scrambled_semantic"":""8"",""num_scrambled_causal"":""4"",""num_scrambled_schematic"":""4"",""participantId"":""E52BBDBACEAD4955B2BFCDF31CC0ACF4"",""assignmentId"":""0198ba0c-b71d-7d82-860f-d5ed05f89020"",""projectId"":""0198b9d0-29d4-7df3-8625-4b4515841beb""}","https://test12345.live/?num_scrambled_semantic=8&num_scrambled_causal=4&num_scrambled_schematic=4&participantId=E52BBDBACEAD4955B2BFCDF31CC0ACF4&assignmentId=0198ba0c-b71d-7d82-860f-d5ed05f89020&projectId=0198b9d0-29d4-7df3-8625-4b4515841beb","E52BBDBACEAD4955B2BFCDF31CC0ACF4-2025-08-17-22-40-46","","null","","[]","null","",""
"","","","","","image-button-response","18","102215","0.0-6.0-1.0-0.3","E52BBDBACEAD4955B2BFCDF31CC0ACF4","E52BBDBACEAD4955B2BFCDF31CC0ACF4","0198ba0c-b71d-7d82-860f-d5ed05f89020","0198b9d0-29d4-7df3-8625-4b4515841beb","{""num_scrambled_semantic"":""8"",""num_scrambled_causal"":""4"",""num_scrambled_schematic"":""4"",""participantId"":""E52BBDBACEAD4955B2BFCDF31CC0ACF4"",""assignmentId"":""0198ba0c-b71d-7d82-860f-d5ed05f89020"",""projectId"":""0198b9d0-29d4-7df3-8625-4b4515841beb""}","https://test12345.live/?num_scrambled_semantic=8&num_scrambled_causal=4&num_scrambled_schematic=4&participantId=E52BBDBACEAD4955B2BFCDF31CC0ACF4&assignmentId=0198ba0c-b71d-7d82-860f-d5ed05f89020&projectId=0198b9d0-29d4-7df3-8625-4b4515841beb","E52BBDBACEAD4955B2BFCDF31CC0ACF4-2025-08-17-22-40-46","","null","","images/instructions/movie_4.png","null","",""
"","","","","","image-button-response","19","103075","0.0-6.0-1.0-1.3","E52BBDBACEAD4955B2BFCDF31CC0ACF4","E52BBDBACEAD4955B2BFCDF31CC0ACF4","0198ba0c-b71d-7d82-860f-d5ed05f89020","0198b9d0-29d4-7df3-8625-4b4515841beb","{""num_scrambled_semantic"":""8"",""num_scrambled_causal"":""4"",""num_scrambled_schematic"":""4"",""participantId"":""E52BBDBACEAD4955B2BFCDF31CC0ACF4"",""assignmentId"":""0198ba0c-b71d-7d82-860f-d5ed05f89020"",""projectId"":""0198b9d0-29d4-7df3-8625-4b4515841beb""}","https://test12345.live/?num_scrambled_semantic=8&num_scrambled_causal=4&num_scrambled_schematic=4&participantId=E52BBDBACEAD4955B2BFCDF31CC0ACF4&assignmentId=0198ba0c-b71d-7d82-860f-d5ed05f89020&projectId=0198b9d0-29d4-7df3-8625-4b4515841beb","E52BBDBACEAD4955B2BFCDF31CC0ACF4-2025-08-17-22-40-46","","859","","images/instructions/movie_4.png","0","",""
"","","","","","image-button-response","20","108482","0.0-6.0-1.0-2.3","E52BBDBACEAD4955B2BFCDF31CC0ACF4","E52BBDBACEAD4955B2BFCDF31CC0ACF4","0198ba0c-b71d-7d82-860f-d5ed05f89020","0198b9d0-29d4-7df3-8625-4b4515841beb","{""num_scrambled_semantic"":""8"",""num_scrambled_causal"":""4"",""num_scrambled_schematic"":""4"",""participantId"":""E52BBDBACEAD4955B2BFCDF31CC0ACF4"",""assignmentId"":""0198ba0c-b71d-7d82-860f-d5ed05f89020"",""projectId"":""0198b9d0-29d4-7df3-8625-4b4515841beb""}","https://test12345.live/?num_scrambled_semantic=8&num_scrambled_causal=4&num_scrambled_schematic=4&participantId=E52BBDBACEAD4955B2BFCDF31CC0ACF4&assignmentId=0198ba0c-b71d-7d82-860f-d5ed05f89020&projectId=0198b9d0-29d4-7df3-8625-4b4515841beb","E52BBDBACEAD4955B2BFCDF31CC0ACF4-2025-08-17-22-40-46","","null","","[]","null","",""
"","","","","","instructions","21","115226","0.0-7.0","E52BBDBACEAD4955B2BFCDF31CC0ACF4","E52BBDBACEAD4955B2BFCDF31CC0ACF4","0198ba0c-b71d-7d82-860f-d5ed05f89020","0198b9d0-29d4-7df3-8625-4b4515841beb","{""num_scrambled_semantic"":""8"",""num_scrambled_causal"":""4"",""num_scrambled_schematic"":""4"",""participantId"":""E52BBDBACEAD4955B2BFCDF31CC0ACF4"",""assignmentId"":""0198ba0c-b71d-7d82-860f-d5ed05f89020"",""projectId"":""0198b9d0-29d4-7df3-8625-4b4515841beb""}","https://test12345.live/?num_scrambled_semantic=8&num_scrambled_causal=4&num_scrambled_schematic=4&participantId=E52BBDBACEAD4955B2BFCDF31CC0ACF4&assignmentId=0198ba0c-b71d-7d82-860f-d5ed05f89020&projectId=0198b9d0-29d4-7df3-8625-4b4515841beb","E52BBDBACEAD4955B2BFCDF31CC0ACF4-2025-08-17-22-40-46","[{""page_index"":0,""viewing_time"":4817},{""page_index"":1,""viewing_time"":1926}]","6743","","","","",""
"","","","","","html-audio-response","22","135798","0.0-8.0","E52BBDBACEAD4955B2BFCDF31CC0ACF4","E52BBDBACEAD4955B2BFCDF31CC0ACF4","0198ba0c-b71d-7d82-860f-d5ed05f89020","0198b9d0-29d4-7df3-8625-4b4515841beb","{""num_scrambled_semantic"":""8"",""num_scrambled_causal"":""4"",""num_scrambled_schematic"":""4"",""participantId"":""E52BBDBACEAD4955B2BFCDF31CC0ACF4"",""assignmentId"":""0198ba0c-b71d-7d82-860f-d5ed05f89020"",""projectId"":""0198b9d0-29d4-7df3-8625-4b4515841beb""}","https://test12345.live/?num_scrambled_semantic=8&num_scrambled_causal=4&num_scrambled_schematic=4&participantId=E52BBDBACEAD4955B2BFCDF31CC0ACF4&assignmentId=0198ba0c-b71d-7d82-860f-d5ed05f89020&projectId=0198b9d0-29d4-7df3-8625-4b4515841beb","E52BBDBACEAD4955B2BFCDF31CC0ACF4-2025-08-17-22-40-46","","14252","","[""<span style=\""color: red; font-size: 24px\""> NOW RECORDING</span><p>Please say out loud all the images you saw, as many as you can remember. The images can be said in any order.</p>""]","","2",""
"","","","","","instructions","23","137348","0.0-9.0","E52BBDBACEAD4955B2BFCDF31CC0ACF4","E52BBDBACEAD4955B2BFCDF31CC0ACF4","0198ba0c-b71d-7d82-860f-d5ed05f89020","0198b9d0-29d4-7df3-8625-4b4515841beb","{""num_scrambled_semantic"":""8"",""num_scrambled_causal"":""4"",""num_scrambled_schematic"":""4"",""participantId"":""E52BBDBACEAD4955B2BFCDF31CC0ACF4"",""assignmentId"":""0198ba0c-b71d-7d82-860f-d5ed05f89020"",""projectId"":""0198b9d0-29d4-7df3-8625-4b4515841beb""}","https://test12345.live/?num_scrambled_semantic=8&num_scrambled_causal=4&num_scrambled_schematic=4&participantId=E52BBDBACEAD4955B2BFCDF31CC0ACF4&assignmentId=0198ba0c-b71d-7d82-860f-d5ed05f89020&projectId=0198b9d0-29d4-7df3-8625-4b4515841beb","E52BBDBACEAD4955B2BFCDF31CC0ACF4-2025-08-17-22-40-46","[{""page_index"":0,""viewing_time"":1546}]","1547","","","","",""
"","","","","","image-button-response","24","143351","0.0-10.0-0.0","E52BBDBACEAD4955B2BFCDF31CC0ACF4","E52BBDBACEAD4955B2BFCDF31CC0ACF4","0198ba0c-b71d-7d82-860f-d5ed05f89020","0198b9d0-29d4-7df3-8625-4b4515841beb","{""num_scrambled_semantic"":""8"",""num_scrambled_causal"":""4"",""num_scrambled_schematic"":""4"",""participantId"":""E52BBDBACEAD4955B2BFCDF31CC0ACF4"",""assignmentId"":""0198ba0c-b71d-7d82-860f-d5ed05f89020"",""projectId"":""0198b9d0-29d4-7df3-8625-4b4515841beb""}","https://test12345.live/?num_scrambled_semantic=8&num_scrambled_causal=4&num_scrambled_schematic=4&participantId=E52BBDBACEAD4955B2BFCDF31CC0ACF4&assignmentId=0198ba0c-b71d-7d82-860f-d5ed05f89020&projectId=0198b9d0-29d4-7df3-8625-4b4515841beb","E52BBDBACEAD4955B2BFCDF31CC0ACF4-2025-08-17-22-40-46","","null","","images/causal_sequence/museum_causal/museum_causal_0.png","null","",""
"","","","","","image-button-response","25","147854","0.0-10.0-1.0-0.0","E52BBDBACEAD4955B2BFCDF31CC0ACF4","E52BBDBACEAD4955B2BFCDF31CC0ACF4","0198ba0c-b71d-7d82-860f-d5ed05f89020","0198b9d0-29d4-7df3-8625-4b4515841beb","{""num_scrambled_semantic"":""8"",""num_scrambled_causal"":""4"",""num_scrambled_schematic"":""4"",""participantId"":""E52BBDBACEAD4955B2BFCDF31CC0ACF4"",""assignmentId"":""0198ba0c-b71d-7d82-860f-d5ed05f89020"",""projectId"":""0198b9d0-29d4-7df3-8625-4b4515841beb""}","https://test12345.live/?num_scrambled_semantic=8&num_scrambled_causal=4&num_scrambled_schematic=4&participantId=E52BBDBACEAD4955B2BFCDF31CC0ACF4&assignmentId=0198ba0c-b71d-7d82-860f-d5ed05f89020&projectId=0198b9d0-29d4-7df3-8625-4b4515841beb","E52BBDBACEAD4955B2BFCDF31CC0ACF4-2025-08-17-22-40-46","","null","","images/causal_sequence/museum_causal/museum_causal_1.png","null","",""
"","","","","","image-button-response","26","149199","0.0-10.0-1.0-1.0","E52BBDBACEAD4955B2BFCDF31CC0ACF4","E52BBDBACEAD4955B2BFCDF31CC0ACF4","0198ba0c-b71d-7d82-860f-d5ed05f89020","0198b9d0-29d4-7df3-8625-4b4515841beb","{""num_scrambled_semantic"":""8"",""num_scrambled_causal"":""4"",""num_scrambled_schematic"":""4"",""participantId"":""E52BBDBACEAD4955B2BFCDF31CC0ACF4"",""assignmentId"":""0198ba0c-b71d-7d82-860f-d5ed05f89020"",""projectId"":""0198b9d0-29d4-7df3-8625-4b4515841beb""}","https://test12345.live/?num_scrambled_semantic=8&num_scrambled_causal=4&num_scrambled_schematic=4&participantId=E52BBDBACEAD4955B2BFCDF31CC0ACF4&assignmentId=0198ba0c-b71d-7d82-860f-d5ed05f89020&projectId=0198b9d0-29d4-7df3-8625-4b4515841beb","E52BBDBACEAD4955B2BFCDF31CC0ACF4-2025-08-17-22-40-46","","1343","","images/causal_sequence/museum_causal/museum_causal_1.png","0","",""
"","","","","","image-button-response","27","154605","0.0-10.0-1.0-2.0","E52BBDBACEAD4955B2BFCDF31CC0ACF4","E52BBDBACEAD4955B2BFCDF31CC0ACF4","0198ba0c-b71d-7d82-860f-d5ed05f89020","0198b9d0-29d4-7df3-8625-4b4515841beb","{""num_scrambled_semantic"":""8"",""num_scrambled_causal"":""4"",""num_scrambled_schematic"":""4"",""participantId"":""E52BBDBACEAD4955B2BFCDF31CC0ACF4"",""assignmentId"":""0198ba0c-b71d-7d82-860f-d5ed05f89020"",""projectId"":""0198b9d0-29d4-7df3-8625-4b4515841beb""}","https://test12345.live/?num_scrambled_semantic=8&num_scrambled_causal=4&num_scrambled_schematic=4&participantId=E52BBDBACEAD4955B2BFCDF31CC0ACF4&assignmentId=0198ba0c-b71d-7d82-860f-d5ed05f89020&projectId=0198b9d0-29d4-7df3-8625-4b4515841beb","E52BBDBACEAD4955B2BFCDF31CC0ACF4-2025-08-17-22-40-46","","null","","[]","null","",""
"","","","","","image-button-response","28","159109","0.0-10.0-1.0-0.1","E52BBDBACEAD4955B2BFCDF31CC0ACF4","E52BBDBACEAD4955B2BFCDF31CC0ACF4","0198ba0c-b71d-7d82-860f-d5ed05f89020","0198b9d0-29d4-7df3-8625-4b4515841beb","{""num_scrambled_semantic"":""8"",""num_scrambled_causal"":""4"",""num_scrambled_schematic"":""4"",""participantId"":""E52BBDBACEAD4955B2BFCDF31CC0ACF4"",""assignmentId"":""0198ba0c-b71d-7d82-860f-d5ed05f89020"",""projectId"":""0198b9d0-29d4-7df3-8625-4b4515841beb""}","https://test12345.live/?num_scrambled_semantic=8&num_scrambled_causal=4&num_scrambled_schematic=4&participantId=E52BBDBACEAD4955B2BFCDF31CC0ACF4&assignmentId=0198ba0c-b71d-7d82-860f-d5ed05f89020&projectId=0198b9d0-29d4-7df3-8625-4b4515841beb","E52BBDBACEAD4955B2BFCDF31CC0ACF4-2025-08-17-22-40-46","","null","","images/causal_sequence/museum_causal/museum_causal_2.png","null","",""
"","","","","","image-button-response","29","160458","0.0-10.0-1.0-1.1","E52BBDBACEAD4955B2BFCDF31CC0ACF4","E52BBDBACEAD4955B2BFCDF31CC0ACF4","0198ba0c-b71d-7d82-860f-d5ed05f89020","0198b9d0-29d4-7df3-8625-4b4515841beb","{""num_scrambled_semantic"":""8"",""num_scrambled_causal"":""4"",""num_scrambled_schematic"":""4"",""participantId"":""E52BBDBACEAD4955B2BFCDF31CC0ACF4"",""assignmentId"":""0198ba0c-b71d-7d82-860f-d5ed05f89020"",""projectId"":""0198b9d0-29d4-7df3-8625-4b4515841beb""}","https://test12345.live/?num_scrambled_semantic=8&num_scrambled_causal=4&num_scrambled_schematic=4&participantId=E52BBDBACEAD4955B2BFCDF31CC0ACF4&assignmentId=0198ba0c-b71d-7d82-860f-d5ed05f89020&projectId=0198b9d0-29d4-7df3-8625-4b4515841beb","E52BBDBACEAD4955B2BFCDF31CC0ACF4-2025-08-17-22-40-46","","1347","","images/causal_sequence/museum_causal/museum_causal_2.png","0","",""
"","","","","","image-button-response","30","165864","0.0-10.0-1.0-2.1","E52BBDBACEAD4955B2BFCDF31CC0ACF4","E52BBDBACEAD4955B2BFCDF31CC0ACF4","0198ba0c-b71d-7d82-860f-d5ed05f89020","0198b9d0-29d4-7df3-8625-4b4515841beb","{""num_scrambled_semantic"":""8"",""num_scrambled_causal"":""4"",""num_scrambled_schematic"":""4"",""participantId"":""E52BBDBACEAD4955B2BFCDF31CC0ACF4"",""assignmentId"":""0198ba0c-b71d-7d82-860f-d5ed05f89020"",""projectId"":""0198b9d0-29d4-7df3-8625-4b4515841beb""}","https://test12345.live/?num_scrambled_semantic=8&num_scrambled_causal=4&num_scrambled_schematic=4&participantId=E52BBDBACEAD4955B2BFCDF31CC0ACF4&assignmentId=0198ba0c-b71d-7d82-860f-d5ed05f89020&projectId=0198b9d0-29d4-7df3-8625-4b4515841beb","E52BBDBACEAD4955B2BFCDF31CC0ACF4-2025-08-17-22-40-46","","null","","[]","null","",""
"","","","","","image-button-response","31","170369","0.0-10.0-1.0-0.2","E52BBDBACEAD4955B2BFCDF31CC0ACF4","E52BBDBACEAD4955B2BFCDF31CC0ACF4","0198ba0c-b71d-7d82-860f-d5ed05f89020","0198b9d0-29d4-7df3-8625-4b4515841beb","{""num_scrambled_semantic"":""8"",""num_scrambled_causal"":""4"",""num_scrambled_schematic"":""4"",""participantId"":""E52BBDBACEAD4955B2BFCDF31CC0ACF4"",""assignmentId"":""0198ba0c-b71d-7d82-860f-d5ed05f89020"",""projectId"":""0198b9d0-29d4-7df3-8625-4b4515841beb""}","https://test12345.live/?num_scrambled_semantic=8&num_scrambled_causal=4&num_scrambled_schematic=4&participantId=E52BBDBACEAD4955B2BFCDF31CC0ACF4&assignmentId=0198ba0c-b71d-7d82-860f-d5ed05f89020&projectId=0198b9d0-29d4-7df3-8625-4b4515841beb","E52BBDBACEAD4955B2BFCDF31CC0ACF4-2025-08-17-22-40-46","","null","","images/causal_sequence/museum_causal/museum_causal_3.png","null","",""
"","","","","","image-button-response","32","170948","0.0-10.0-1.0-1.2","E52BBDBACEAD4955B2BFCDF31CC0ACF4","E52BBDBACEAD4955B2BFCDF31CC0ACF4","0198ba0c-b71d-7d82-860f-d5ed05f89020","0198b9d0-29d4-7df3-8625-4b4515841beb","{""num_scrambled_semantic"":""8"",""num_scrambled_causal"":""4"",""num_scrambled_schematic"":""4"",""participantId"":""E52BBDBACEAD4955B2BFCDF31CC0ACF4"",""assignmentId"":""0198ba0c-b71d-7d82-860f-d5ed05f89020"",""projectId"":""0198b9d0-29d4-7df3-8625-4b4515841beb""}","https://test12345.live/?num_scrambled_semantic=8&num_scrambled_causal=4&num_scrambled_schematic=4&participantId=E52BBDBACEAD4955B2BFCDF31CC0ACF4&assignmentId=0198ba0c-b71d-7d82-860f-d5ed05f89020&projectId=0198b9d0-29d4-7df3-8625-4b4515841beb","E52BBDBACEAD4955B2BFCDF31CC0ACF4-2025-08-17-22-40-46","","576","","images/causal_sequence/museum_causal/museum_causal_3.png","0","",""
"","","","","","image-button-response","33","176355","0.0-10.0-1.0-2.2","E52BBDBACEAD4955B2BFCDF31CC0ACF4","E52BBDBACEAD4955B2BFCDF31CC0ACF4","0198ba0c-b71d-7d82-860f-d5ed05f89020","0198b9d0-29d4-7df3-8625-4b4515841beb","{""num_scrambled_semantic"":""8"",""num_scrambled_causal"":""4"",""num_scrambled_schematic"":""4"",""participantId"":""E52BBDBACEAD4955B2BFCDF31CC0ACF4"",""assignmentId"":""0198ba0c-b71d-7d82-860f-d5ed05f89020"",""projectId"":""0198b9d0-29d4-7df3-8625-4b4515841beb""}","https://test12345.live/?num_scrambled_semantic=8&num_scrambled_causal=4&num_scrambled_schematic=4&participantId=E52BBDBACEAD4955B2BFCDF31CC0ACF4&assignmentId=0198ba0c-b71d-7d82-860f-d5ed05f89020&projectId=0198b9d0-29d4-7df3-8625-4b4515841beb","E52BBDBACEAD4955B2BFCDF31CC0ACF4-2025-08-17-22-40-46","","null","","[]","null","",""
"","","","","","image-button-response","34","180856","0.0-10.0-1.0-0.3","E52BBDBACEAD4955B2BFCDF31CC0ACF4","E52BBDBACEAD4955B2BFCDF31CC0ACF4","0198ba0c-b71d-7d82-860f-d5ed05f89020","0198b9d0-29d4-7df3-8625-4b4515841beb","{""num_scrambled_semantic"":""8"",""num_scrambled_causal"":""4"",""num_scrambled_schematic"":""4"",""participantId"":""E52BBDBACEAD4955B2BFCDF31CC0ACF4"",""assignmentId"":""0198ba0c-b71d-7d82-860f-d5ed05f89020"",""projectId"":""0198b9d0-29d4-7df3-8625-4b4515841beb""}","https://test12345.live/?num_scrambled_semantic=8&num_scrambled_causal=4&num_scrambled_schematic=4&participantId=E52BBDBACEAD4955B2BFCDF31CC0ACF4&assignmentId=0198ba0c-b71d-7d82-860f-d5ed05f89020&projectId=0198b9d0-29d4-7df3-8625-4b4515841beb","E52BBDBACEAD4955B2BFCDF31CC0ACF4-2025-08-17-22-40-46","","null","","images/causal_sequence/museum_causal/museum_causal_4.png","null","",""
"","","","","","image-button-response","35","181518","0.0-10.0-1.0-1.3","E52BBDBACEAD4955B2BFCDF31CC0ACF4","E52BBDBACEAD4955B2BFCDF31CC0ACF4","0198ba0c-b71d-7d82-860f-d5ed05f89020","0198b9d0-29d4-7df3-8625-4b4515841beb","{""num_scrambled_semantic"":""8"",""num_scrambled_causal"":""4"",""num_scrambled_schematic"":""4"",""participantId"":""E52BBDBACEAD4955B2BFCDF31CC0ACF4"",""assignmentId"":""0198ba0c-b71d-7d82-860f-d5ed05f89020"",""projectId"":""0198b9d0-29d4-7df3-8625-4b4515841beb""}","https://test12345.live/?num_scrambled_semantic=8&num_scrambled_causal=4&num_scrambled_schematic=4&participantId=E52BBDBACEAD4955B2BFCDF31CC0ACF4&assignmentId=0198ba0c-b71d-7d82-860f-d5ed05f89020&projectId=0198b9d0-29d4-7df3-8625-4b4515841beb","E52BBDBACEAD4955B2BFCDF31CC0ACF4-2025-08-17-22-40-46","","660","","images/causal_sequence/museum_causal/museum_causal_4.png","0","",""
"","","","","","image-button-response","36","186921","0.0-10.0-1.0-2.3","E52BBDBACEAD4955B2BFCDF31CC0ACF4","E52BBDBACEAD4955B2BFCDF31CC0ACF4","0198ba0c-b71d-7d82-860f-d5ed05f89020","0198b9d0-29d4-7df3-8625-4b4515841beb","{""num_scrambled_semantic"":""8"",""num_scrambled_causal"":""4"",""num_scrambled_schematic"":""4"",""participantId"":""E52BBDBACEAD4955B2BFCDF31CC0ACF4"",""assignmentId"":""0198ba0c-b71d-7d82-860f-d5ed05f89020"",""projectId"":""0198b9d0-29d4-7df3-8625-4b4515841beb""}","https://test12345.live/?num_scrambled_semantic=8&num_scrambled_causal=4&num_scrambled_schematic=4&participantId=E52BBDBACEAD4955B2BFCDF31CC0ACF4&assignmentId=0198ba0c-b71d-7d82-860f-d5ed05f89020&projectId=0198b9d0-29d4-7df3-8625-4b4515841beb","E52BBDBACEAD4955B2BFCDF31CC0ACF4-2025-08-17-22-40-46","","null","","[]","null","",""
"","","","","","image-button-response","37","191428","0.0-10.0-1.0-0.4","E52BBDBACEAD4955B2BFCDF31CC0ACF4","E52BBDBACEAD4955B2BFCDF31CC0ACF4","0198ba0c-b71d-7d82-860f-d5ed05f89020","0198b9d0-29d4-7df3-8625-4b4515841beb","{""num_scrambled_semantic"":""8"",""num_scrambled_causal"":""4"",""num_scrambled_schematic"":""4"",""participantId"":""E52BBDBACEAD4955B2BFCDF31CC0ACF4"",""assignmentId"":""0198ba0c-b71d-7d82-860f-d5ed05f89020"",""projectId"":""0198b9d0-29d4-7df3-8625-4b4515841beb""}","https://test12345.live/?num_scrambled_semantic=8&num_scrambled_causal=4&num_scrambled_schematic=4&participantId=E52BBDBACEAD4955B2BFCDF31CC0ACF4&assignmentId=0198ba0c-b71d-7d82-860f-d5ed05f89020&projectId=0198b9d0-29d4-7df3-8625-4b4515841beb","E52BBDBACEAD4955B2BFCDF31CC0ACF4-2025-08-17-22-40-46","","null","","images/causal_sequence/museum_causal/museum_causal_5.png","null","",""
"","","","","","image-button-response","38","193335","0.0-10.0-1.0-1.4","E52BBDBACEAD4955B2BFCDF31CC0ACF4","E52BBDBACEAD4955B2BFCDF31CC0ACF4","0198ba0c-b71d-7d82-860f-d5ed05f89020","0198b9d0-29d4-7df3-8625-4b4515841beb","{""num_scrambled_semantic"":""8"",""num_scrambled_causal"":""4"",""num_scrambled_schematic"":""4"",""participantId"":""E52BBDBACEAD4955B2BFCDF31CC0ACF4"",""assignmentId"":""0198ba0c-b71d-7d82-860f-d5ed05f89020"",""projectId"":""0198b9d0-29d4-7df3-8625-4b4515841beb""}","https://test12345.live/?num_scrambled_semantic=8&num_scrambled_causal=4&num_scrambled_schematic=4&participantId=E52BBDBACEAD4955B2BFCDF31CC0ACF4&assignmentId=0198ba0c-b71d-7d82-860f-d5ed05f89020&projectId=0198b9d0-29d4-7df3-8625-4b4515841beb","E52BBDBACEAD4955B2BFCDF31CC0ACF4-2025-08-17-22-40-46","","1905","","images/causal_sequence/museum_causal/museum_causal_5.png","0","",""
"","","","","","image-button-response","39","198741","0.0-10.0-1.0-2.4","E52BBDBACEAD4955B2BFCDF31CC0ACF4","E52BBDBACEAD4955B2BFCDF31CC0ACF4","0198ba0c-b71d-7d82-860f-d5ed05f89020","0198b9d0-29d4-7df3-8625-4b4515841beb","{""num_scrambled_semantic"":""8"",""num_scrambled_causal"":""4"",""num_scrambled_schematic"":""4"",""participantId"":""E52BBDBACEAD4955B2BFCDF31CC0ACF4"",""assignmentId"":""0198ba0c-b71d-7d82-860f-d5ed05f89020"",""projectId"":""0198b9d0-29d4-7df3-8625-4b4515841beb""}","https://test12345.live/?num_scrambled_semantic=8&num_scrambled_causal=4&num_scrambled_schematic=4&participantId=E52BBDBACEAD4955B2BFCDF31CC0ACF4&assignmentId=0198ba0c-b71d-7d82-860f-d5ed05f89020&projectId=0198b9d0-29d4-7df3-8625-4b4515841beb","E52BBDBACEAD4955B2BFCDF31CC0ACF4-2025-08-17-22-40-46","","null","","[]","null","",""
"","","","","","image-button-response","40","203244","0.0-10.0-1.0-0.5","E52BBDBACEAD4955B2BFCDF31CC0ACF4","E52BBDBACEAD4955B2BFCDF31CC0ACF4","0198ba0c-b71d-7d82-860f-d5ed05f89020","0198b9d0-29d4-7df3-8625-4b4515841beb","{""num_scrambled_semantic"":""8"",""num_scrambled_causal"":""4"",""num_scrambled_schematic"":""4"",""participantId"":""E52BBDBACEAD4955B2BFCDF31CC0ACF4"",""assignmentId"":""0198ba0c-b71d-7d82-860f-d5ed05f89020"",""projectId"":""0198b9d0-29d4-7df3-8625-4b4515841beb""}","https://test12345.live/?num_scrambled_semantic=8&num_scrambled_causal=4&num_scrambled_schematic=4&participantId=E52BBDBACEAD4955B2BFCDF31CC0ACF4&assignmentId=0198ba0c-b71d-7d82-860f-d5ed05f89020&projectId=0198b9d0-29d4-7df3-8625-4b4515841beb","E52BBDBACEAD4955B2BFCDF31CC0ACF4-2025-08-17-22-40-46","","null","","images/causal_sequence/museum_causal/museum_causal_6.png","null","",""
"","","","","","image-button-response","41","204219","0.0-10.0-1.0-1.5","E52BBDBACEAD4955B2BFCDF31CC0ACF4","E52BBDBACEAD4955B2BFCDF31CC0ACF4","0198ba0c-b71d-7d82-860f-d5ed05f89020","0198b9d0-29d4-7df3-8625-4b4515841beb","{""num_scrambled_semantic"":""8"",""num_scrambled_causal"":""4"",""num_scrambled_schematic"":""4"",""participantId"":""E52BBDBACEAD4955B2BFCDF31CC0ACF4"",""assignmentId"":""0198ba0c-b71d-7d82-860f-d5ed05f89020"",""projectId"":""0198b9d0-29d4-7df3-8625-4b4515841beb""}","https://test12345.live/?num_scrambled_semantic=8&num_scrambled_causal=4&num_scrambled_schematic=4&participantId=E52BBDBACEAD4955B2BFCDF31CC0ACF4&assignmentId=0198ba0c-b71d-7d82-860f-d5ed05f89020&projectId=0198b9d0-29d4-7df3-8625-4b4515841beb","E52BBDBACEAD4955B2BFCDF31CC0ACF4-2025-08-17-22-40-46","","974","","images/causal_sequence/museum_causal/museum_causal_6.png","0","",""
"","","","","","image-button-response","42","209624","0.0-10.0-1.0-2.5","E52BBDBACEAD4955B2BFCDF31CC0ACF4","E52BBDBACEAD4955B2BFCDF31CC0ACF4","0198ba0c-b71d-7d82-860f-d5ed05f89020","0198b9d0-29d4-7df3-8625-4b4515841beb","{""num_scrambled_semantic"":""8"",""num_scrambled_causal"":""4"",""num_scrambled_schematic"":""4"",""participantId"":""E52BBDBACEAD4955B2BFCDF31CC0ACF4"",""assignmentId"":""0198ba0c-b71d-7d82-860f-d5ed05f89020"",""projectId"":""0198b9d0-29d4-7df3-8625-4b4515841beb""}","https://test12345.live/?num_scrambled_semantic=8&num_scrambled_causal=4&num_scrambled_schematic=4&participantId=E52BBDBACEAD4955B2BFCDF31CC0ACF4&assignmentId=0198ba0c-b71d-7d82-860f-d5ed05f89020&projectId=0198b9d0-29d4-7df3-8625-4b4515841beb","E52BBDBACEAD4955B2BFCDF31CC0ACF4-2025-08-17-22-40-46","","null","","[]","null","",""
"","","","","","image-button-response","43","214130","0.0-10.0-1.0-0.6","E52BBDBACEAD4955B2BFCDF31CC0ACF4","E52BBDBACEAD4955B2BFCDF31CC0ACF4","0198ba0c-b71d-7d82-860f-d5ed05f89020","0198b9d0-29d4-7df3-8625-4b4515841beb","{""num_scrambled_semantic"":""8"",""num_scrambled_causal"":""4"",""num_scrambled_schematic"":""4"",""participantId"":""E52BBDBACEAD4955B2BFCDF31CC0ACF4"",""assignmentId"":""0198ba0c-b71d-7d82-860f-d5ed05f89020"",""projectId"":""0198b9d0-29d4-7df3-8625-4b4515841beb""}","https://test12345.live/?num_scrambled_semantic=8&num_scrambled_causal=4&num_scrambled_schematic=4&participantId=E52BBDBACEAD4955B2BFCDF31CC0ACF4&assignmentId=0198ba0c-b71d-7d82-860f-d5ed05f89020&projectId=0198b9d0-29d4-7df3-8625-4b4515841beb","E52BBDBACEAD4955B2BFCDF31CC0ACF4-2025-08-17-22-40-46","","null","","images/causal_sequence/museum_causal/museum_causal_7.png","null","",""
"","","","","","image-button-response","44","215123","0.0-10.0-1.0-1.6","E52BBDBACEAD4955B2BFCDF31CC0ACF4","E52BBDBACEAD4955B2BFCDF31CC0ACF4","0198ba0c-b71d-7d82-860f-d5ed05f89020","0198b9d0-29d4-7df3-8625-4b4515841beb","{""num_scrambled_semantic"":""8"",""num_scrambled_causal"":""4"",""num_scrambled_schematic"":""4"",""participantId"":""E52BBDBACEAD4955B2BFCDF31CC0ACF4"",""assignmentId"":""0198ba0c-b71d-7d82-860f-d5ed05f89020"",""projectId"":""0198b9d0-29d4-7df3-8625-4b4515841beb""}","https://test12345.live/?num_scrambled_semantic=8&num_scrambled_causal=4&num_scrambled_schematic=4&participantId=E52BBDBACEAD4955B2BFCDF31CC0ACF4&assignmentId=0198ba0c-b71d-7d82-860f-d5ed05f89020&projectId=0198b9d0-29d4-7df3-8625-4b4515841beb","E52BBDBACEAD4955B2BFCDF31CC0ACF4-2025-08-17-22-40-46","","992","","images/causal_sequence/museum_causal/museum_causal_7.png","1","",""
"","","","","","image-button-response","45","220529","0.0-10.0-1.0-2.6","E52BBDBACEAD4955B2BFCDF31CC0ACF4","E52BBDBACEAD4955B2BFCDF31CC0ACF4","0198ba0c-b71d-7d82-860f-d5ed05f89020","0198b9d0-29d4-7df3-8625-4b4515841beb","{""num_scrambled_semantic"":""8"",""num_scrambled_causal"":""4"",""num_scrambled_schematic"":""4"",""participantId"":""E52BBDBACEAD4955B2BFCDF31CC0ACF4"",""assignmentId"":""0198ba0c-b71d-7d82-860f-d5ed05f89020"",""projectId"":""0198b9d0-29d4-7df3-8625-4b4515841beb""}","https://test12345.live/?num_scrambled_semantic=8&num_scrambled_causal=4&num_scrambled_schematic=4&participantId=E52BBDBACEAD4955B2BFCDF31CC0ACF4&assignmentId=0198ba0c-b71d-7d82-860f-d5ed05f89020&projectId=0198b9d0-29d4-7df3-8625-4b4515841beb","E52BBDBACEAD4955B2BFCDF31CC0ACF4-2025-08-17-22-40-46","","null","","[]","null","",""
"","","","","","image-button-response","46","225032","0.0-10.0-1.0-0.7","E52BBDBACEAD4955B2BFCDF31CC0ACF4","E52BBDBACEAD4955B2BFCDF31CC0ACF4","0198ba0c-b71d-7d82-860f-d5ed05f89020","0198b9d0-29d4-7df3-8625-4b4515841beb","{""num_scrambled_semantic"":""8"",""num_scrambled_causal"":""4"",""num_scrambled_schematic"":""4"",""participantId"":""E52BBDBACEAD4955B2BFCDF31CC0ACF4"",""assignmentId"":""0198ba0c-b71d-7d82-860f-d5ed05f89020"",""projectId"":""0198b9d0-29d4-7df3-8625-4b4515841beb""}","https://test12345.live/?num_scrambled_semantic=8&num_scrambled_causal=4&num_scrambled_schematic=4&participantId=E52BBDBACEAD4955B2BFCDF31CC0ACF4&assignmentId=0198ba0c-b71d-7d82-860f-d5ed05f89020&projectId=0198b9d0-29d4-7df3-8625-4b4515841beb","E52BBDBACEAD4955B2BFCDF31CC0ACF4-2025-08-17-22-40-46","","null","","images/causal_sequence/museum_causal/museum_causal_8.png","null","",""
"","","","","","image-button-response","47","225938","0.0-10.0-1.0-1.7","E52BBDBACEAD4955B2BFCDF31CC0ACF4","E52BBDBACEAD4955B2BFCDF31CC0ACF4","0198ba0c-b71d-7d82-860f-d5ed05f89020","0198b9d0-29d4-7df3-8625-4b4515841beb","{""num_scrambled_semantic"":""8"",""num_scrambled_causal"":""4"",""num_scrambled_schematic"":""4"",""participantId"":""E52BBDBACEAD4955B2BFCDF31CC0ACF4"",""assignmentId"":""0198ba0c-b71d-7d82-860f-d5ed05f89020"",""projectId"":""0198b9d0-29d4-7df3-8625-4b4515841beb""}","https://test12345.live/?num_scrambled_semantic=8&num_scrambled_causal=4&num_scrambled_schematic=4&participantId=E52BBDBACEAD4955B2BFCDF31CC0ACF4&assignmentId=0198ba0c-b71d-7d82-860f-d5ed05f89020&projectId=0198b9d0-29d4-7df3-8625-4b4515841beb","E52BBDBACEAD4955B2BFCDF31CC0ACF4-2025-08-17-22-40-46","","905","","images/causal_sequence/museum_causal/museum_causal_8.png","0","",""
"","","","","","image-button-response","48","231341","0.0-10.0-1.0-2.7","E52BBDBACEAD4955B2BFCDF31CC0ACF4","E52BBDBACEAD4955B2BFCDF31CC0ACF4","0198ba0c-b71d-7d82-860f-d5ed05f89020","0198b9d0-29d4-7df3-8625-4b4515841beb","{""num_scrambled_semantic"":""8"",""num_scrambled_causal"":""4"",""num_scrambled_schematic"":""4"",""participantId"":""E52BBDBACEAD4955B2BFCDF31CC0ACF4"",""assignmentId"":""0198ba0c-b71d-7d82-860f-d5ed05f89020"",""projectId"":""0198b9d0-29d4-7df3-8625-4b4515841beb""}","https://test12345.live/?num_scrambled_semantic=8&num_scrambled_causal=4&num_scrambled_schematic=4&participantId=E52BBDBACEAD4955B2BFCDF31CC0ACF4&assignmentId=0198ba0c-b71d-7d82-860f-d5ed05f89020&projectId=0198b9d0-29d4-7df3-8625-4b4515841beb","E52BBDBACEAD4955B2BFCDF31CC0ACF4-2025-08-17-22-40-46","","null","","[]","null","",""
"","","","","","image-button-response","49","235849","0.0-10.0-1.0-0.8","E52BBDBACEAD4955B2BFCDF31CC0ACF4","E52BBDBACEAD4955B2BFCDF31CC0ACF4","0198ba0c-b71d-7d82-860f-d5ed05f89020","0198b9d0-29d4-7df3-8625-4b4515841beb","{""num_scrambled_semantic"":""8"",""num_scrambled_causal"":""4"",""num_scrambled_schematic"":""4"",""participantId"":""E52BBDBACEAD4955B2BFCDF31CC0ACF4"",""assignmentId"":""0198ba0c-b71d-7d82-860f-d5ed05f89020"",""projectId"":""0198b9d0-29d4-7df3-8625-4b4515841beb""}","https://test12345.live/?num_scrambled_semantic=8&num_scrambled_causal=4&num_scrambled_schematic=4&participantId=E52BBDBACEAD4955B2BFCDF31CC0ACF4&assignmentId=0198ba0c-b71d-7d82-860f-d5ed05f89020&projectId=0198b9d0-29d4-7df3-8625-4b4515841beb","E52BBDBACEAD4955B2BFCDF31CC0ACF4-2025-08-17-22-40-46","","null","","images/causal_sequence/museum_causal/museum_causal_9.png","null","",""
"","","","","","image-button-response","50","236634","0.0-10.0-1.0-1.8","E52BBDBACEAD4955B2BFCDF31CC0ACF4","E52BBDBACEAD4955B2BFCDF31CC0ACF4","0198ba0c-b71d-7d82-860f-d5ed05f89020","0198b9d0-29d4-7df3-8625-4b4515841beb","{""num_scrambled_semantic"":""8"",""num_scrambled_causal"":""4"",""num_scrambled_schematic"":""4"",""participantId"":""E52BBDBACEAD4955B2BFCDF31CC0ACF4"",""assignmentId"":""0198ba0c-b71d-7d82-860f-d5ed05f89020"",""projectId"":""0198b9d0-29d4-7df3-8625-4b4515841beb""}","https://test12345.live/?num_scrambled_semantic=8&num_scrambled_causal=4&num_scrambled_schematic=4&participantId=E52BBDBACEAD4955B2BFCDF31CC0ACF4&assignmentId=0198ba0c-b71d-7d82-860f-d5ed05f89020&projectId=0198b9d0-29d4-7df3-8625-4b4515841beb","E52BBDBACEAD4955B2BFCDF31CC0ACF4-2025-08-17-22-40-46","","783","","images/causal_sequence/museum_causal/museum_causal_9.png","1","",""
"","","","","","image-button-response","51","242039","0.0-10.0-1.0-2.8","E52BBDBACEAD4955B2BFCDF31CC0ACF4","E52BBDBACEAD4955B2BFCDF31CC0ACF4","0198ba0c-b71d-7d82-860f-d5ed05f89020","0198b9d0-29d4-7df3-8625-4b4515841beb","{""num_scrambled_semantic"":""8"",""num_scrambled_causal"":""4"",""num_scrambled_schematic"":""4"",""participantId"":""E52BBDBACEAD4955B2BFCDF31CC0ACF4"",""assignmentId"":""0198ba0c-b71d-7d82-860f-d5ed05f89020"",""projectId"":""0198b9d0-29d4-7df3-8625-4b4515841beb""}","https://test12345.live/?num_scrambled_semantic=8&num_scrambled_causal=4&num_scrambled_schematic=4&participantId=E52BBDBACEAD4955B2BFCDF31CC0ACF4&assignmentId=0198ba0c-b71d-7d82-860f-d5ed05f89020&projectId=0198b9d0-29d4-7df3-8625-4b4515841beb","E52BBDBACEAD4955B2BFCDF31CC0ACF4-2025-08-17-22-40-46","","null","","[]","null","",""
"","","","","","image-button-response","52","246547","0.0-10.0-1.0-0.9","E52BBDBACEAD4955B2BFCDF31CC0ACF4","E52BBDBACEAD4955B2BFCDF31CC0ACF4","0198ba0c-b71d-7d82-860f-d5ed05f89020","0198b9d0-29d4-7df3-8625-4b4515841beb","{""num_scrambled_semantic"":""8"",""num_scrambled_causal"":""4"",""num_scrambled_schematic"":""4"",""participantId"":""E52BBDBACEAD4955B2BFCDF31CC0ACF4"",""assignmentId"":""0198ba0c-b71d-7d82-860f-d5ed05f89020"",""projectId"":""0198b9d0-29d4-7df3-8625-4b4515841beb""}","https://test12345.live/?num_scrambled_semantic=8&num_scrambled_causal=4&num_scrambled_schematic=4&participantId=E52BBDBACEAD4955B2BFCDF31CC0ACF4&assignmentId=0198ba0c-b71d-7d82-860f-d5ed05f89020&projectId=0198b9d0-29d4-7df3-8625-4b4515841beb","E52BBDBACEAD4955B2BFCDF31CC0ACF4-2025-08-17-22-40-46","","null","","images/causal_sequence/museum_causal/museum_causal_ten.png","null","",""
"","","","","","image-button-response","53","248013","0.0-10.0-1.0-1.9","E52BBDBACEAD4955B2BFCDF31CC0ACF4","E52BBDBACEAD4955B2BFCDF31CC0ACF4","0198ba0c-b71d-7d82-860f-d5ed05f89020","0198b9d0-29d4-7df3-8625-4b4515841beb","{""num_scrambled_semantic"":""8"",""num_scrambled_causal"":""4"",""num_scrambled_schematic"":""4"",""participantId"":""E52BBDBACEAD4955B2BFCDF31CC0ACF4"",""assignmentId"":""0198ba0c-b71d-7d82-860f-d5ed05f89020"",""projectId"":""0198b9d0-29d4-7df3-8625-4b4515841beb""}","https://test12345.live/?num_scrambled_semantic=8&num_scrambled_causal=4&num_scrambled_schematic=4&participantId=E52BBDBACEAD4955B2BFCDF31CC0ACF4&assignmentId=0198ba0c-b71d-7d82-860f-d5ed05f89020&projectId=0198b9d0-29d4-7df3-8625-4b4515841beb","E52BBDBACEAD4955B2BFCDF31CC0ACF4-2025-08-17-22-40-46","","1464","","images/causal_sequence/museum_causal/museum_causal_ten.png","0","",""
"","","","","","image-button-response","54","253419","0.0-10.0-1.0-2.9","E52BBDBACEAD4955B2BFCDF31CC0ACF4","E52BBDBACEAD4955B2BFCDF31CC0ACF4","0198ba0c-b71d-7d82-860f-d5ed05f89020","0198b9d0-29d4-7df3-8625-4b4515841beb","{""num_scrambled_semantic"":""8"",""num_scrambled_causal"":""4"",""num_scrambled_schematic"":""4"",""participantId"":""E52BBDBACEAD4955B2BFCDF31CC0ACF4"",""assignmentId"":""0198ba0c-b71d-7d82-860f-d5ed05f89020"",""projectId"":""0198b9d0-29d4-7df3-8625-4b4515841beb""}","https://test12345.live/?num_scrambled_semantic=8&num_scrambled_causal=4&num_scrambled_schematic=4&participantId=E52BBDBACEAD4955B2BFCDF31CC0ACF4&assignmentId=0198ba0c-b71d-7d82-860f-d5ed05f89020&projectId=0198b9d0-29d4-7df3-8625-4b4515841beb","E52BBDBACEAD4955B2BFCDF31CC0ACF4-2025-08-17-22-40-46","","null","","[]","null","",""
"","","","","","html-audio-response","55","276251","0.0-11.0","E52BBDBACEAD4955B2BFCDF31CC0ACF4","E52BBDBACEAD4955B2BFCDF31CC0ACF4","0198ba0c-b71d-7d82-860f-d5ed05f89020","0198b9d0-29d4-7df3-8625-4b4515841beb","{""num_scrambled_semantic"":""8"",""num_scrambled_causal"":""4"",""num_scrambled_schematic"":""4"",""participantId"":""E52BBDBACEAD4955B2BFCDF31CC0ACF4"",""assignmentId"":""0198ba0c-b71d-7d82-860f-d5ed05f89020"",""projectId"":""0198b9d0-29d4-7df3-8625-4b4515841beb""}","https://test12345.live/?num_scrambled_semantic=8&num_scrambled_causal=4&num_scrambled_schematic=4&participantId=E52BBDBACEAD4955B2BFCDF31CC0ACF4&assignmentId=0198ba0c-b71d-7d82-860f-d5ed05f89020&projectId=0198b9d0-29d4-7df3-8625-4b4515841beb","E52BBDBACEAD4955B2BFCDF31CC0ACF4-2025-08-17-22-40-46","","21768","","[""<span style=\""color: red; font-size: 24px\""> NOW RECORDING</span><p>Please say out loud all the images you saw, as many as you can remember. The images can be said in any order.</p>""]","","32","museum_causal"
"","","","","","image-button-response","56","282260","0.0-12.0-0.0","E52BBDBACEAD4955B2BFCDF31CC0ACF4","E52BBDBACEAD4955B2BFCDF31CC0ACF4","0198ba0c-b71d-7d82-860f-d5ed05f89020","0198b9d0-29d4-7df3-8625-4b4515841beb","{""num_scrambled_semantic"":""8"",""num_scrambled_causal"":""4"",""num_scrambled_schematic"":""4"",""participantId"":""E52BBDBACEAD4955B2BFCDF31CC0ACF4"",""assignmentId"":""0198ba0c-b71d-7d82-860f-d5ed05f89020"",""projectId"":""0198b9d0-29d4-7df3-8625-4b4515841beb""}","https://test12345.live/?num_scrambled_semantic=8&num_scrambled_causal=4&num_scrambled_schematic=4&participantId=E52BBDBACEAD4955B2BFCDF31CC0ACF4&assignmentId=0198ba0c-b71d-7d82-860f-d5ed05f89020&projectId=0198b9d0-29d4-7df3-8625-4b4515841beb","E52BBDBACEAD4955B2BFCDF31CC0ACF4-2025-08-17-22-40-46","","null","","images/causal_sequence/coin_causal/coin_causal_0.png","null","",""
"","","","","","image-button-response","57","286766","0.0-12.0-1.0-0.0","E52BBDBACEAD4955B2BFCDF31CC0ACF4","E52BBDBACEAD4955B2BFCDF31CC0ACF4","0198ba0c-b71d-7d82-860f-d5ed05f89020","0198b9d0-29d4-7df3-8625-4b4515841beb","{""num_scrambled_semantic"":""8"",""num_scrambled_causal"":""4"",""num_scrambled_schematic"":""4"",""participantId"":""E52BBDBACEAD4955B2BFCDF31CC0ACF4"",""assignmentId"":""0198ba0c-b71d-7d82-860f-d5ed05f89020"",""projectId"":""0198b9d0-29d4-7df3-8625-4b4515841beb""}","https://test12345.live/?num_scrambled_semantic=8&num_scrambled_causal=4&num_scrambled_schematic=4&participantId=E52BBDBACEAD4955B2BFCDF31CC0ACF4&assignmentId=0198ba0c-b71d-7d82-860f-d5ed05f89020&projectId=0198b9d0-29d4-7df3-8625-4b4515841beb","E52BBDBACEAD4955B2BFCDF31CC0ACF4-2025-08-17-22-40-46","","null","","images/causal_sequence/coin_causal/coin_causal_1.png","null","",""
"","","","","","image-button-response","58","288221","0.0-12.0-1.0-1.0","E52BBDBACEAD4955B2BFCDF31CC0ACF4","E52BBDBACEAD4955B2BFCDF31CC0ACF4","0198ba0c-b71d-7d82-860f-d5ed05f89020","0198b9d0-29d4-7df3-8625-4b4515841beb","{""num_scrambled_semantic"":""8"",""num_scrambled_causal"":""4"",""num_scrambled_schematic"":""4"",""participantId"":""E52BBDBACEAD4955B2BFCDF31CC0ACF4"",""assignmentId"":""0198ba0c-b71d-7d82-860f-d5ed05f89020"",""projectId"":""0198b9d0-29d4-7df3-8625-4b4515841beb""}","https://test12345.live/?num_scrambled_semantic=8&num_scrambled_causal=4&num_scrambled_schematic=4&participantId=E52BBDBACEAD4955B2BFCDF31CC0ACF4&assignmentId=0198ba0c-b71d-7d82-860f-d5ed05f89020&projectId=0198b9d0-29d4-7df3-8625-4b4515841beb","E52BBDBACEAD4955B2BFCDF31CC0ACF4-2025-08-17-22-40-46","","1454","","images/causal_sequence/coin_causal/coin_causal_1.png","0","",""
"","","","","","image-button-response","59","293626","0.0-12.0-1.0-2.0","E52BBDBACEAD4955B2BFCDF31CC0ACF4","E52BBDBACEAD4955B2BFCDF31CC0ACF4","0198ba0c-b71d-7d82-860f-d5ed05f89020","0198b9d0-29d4-7df3-8625-4b4515841beb","{""num_scrambled_semantic"":""8"",""num_scrambled_causal"":""4"",""num_scrambled_schematic"":""4"",""participantId"":""E52BBDBACEAD4955B2BFCDF31CC0ACF4"",""assignmentId"":""0198ba0c-b71d-7d82-860f-d5ed05f89020"",""projectId"":""0198b9d0-29d4-7df3-8625-4b4515841beb""}","https://test12345.live/?num_scrambled_semantic=8&num_scrambled_causal=4&num_scrambled_schematic=4&participantId=E52BBDBACEAD4955B2BFCDF31CC0ACF4&assignmentId=0198ba0c-b71d-7d82-860f-d5ed05f89020&projectId=0198b9d0-29d4-7df3-8625-4b4515841beb","E52BBDBACEAD4955B2BFCDF31CC0ACF4-2025-08-17-22-40-46","","null","","[]","null","",""
"","","","","","image-button-response","60","298131","0.0-12.0-1.0-0.1","E52BBDBACEAD4955B2BFCDF31CC0ACF4","E52BBDBACEAD4955B2BFCDF31CC0ACF4","0198ba0c-b71d-7d82-860f-d5ed05f89020","0198b9d0-29d4-7df3-8625-4b4515841beb","{""num_scrambled_semantic"":""8"",""num_scrambled_causal"":""4"",""num_scrambled_schematic"":""4"",""participantId"":""E52BBDBACEAD4955B2BFCDF31CC0ACF4"",""assignmentId"":""0198ba0c-b71d-7d82-860f-d5ed05f89020"",""projectId"":""0198b9d0-29d4-7df3-8625-4b4515841beb""}","https://test12345.live/?num_scrambled_semantic=8&num_scrambled_causal=4&num_scrambled_schematic=4&participantId=E52BBDBACEAD4955B2BFCDF31CC0ACF4&assignmentId=0198ba0c-b71d-7d82-860f-d5ed05f89020&projectId=0198b9d0-29d4-7df3-8625-4b4515841beb","E52BBDBACEAD4955B2BFCDF31CC0ACF4-2025-08-17-22-40-46","","null","","images/causal_sequence/coin_causal/coin_causal_2.png","null","",""
"","","","","","image-button-response","61","298956","0.0-12.0-1.0-1.1","E52BBDBACEAD4955B2BFCDF31CC0ACF4","E52BBDBACEAD4955B2BFCDF31CC0ACF4","0198ba0c-b71d-7d82-860f-d5ed05f89020","0198b9d0-29d4-7df3-8625-4b4515841beb","{""num_scrambled_semantic"":""8"",""num_scrambled_causal"":""4"",""num_scrambled_schematic"":""4"",""participantId"":""E52BBDBACEAD4955B2BFCDF31CC0ACF4"",""assignmentId"":""0198ba0c-b71d-7d82-860f-d5ed05f89020"",""projectId"":""0198b9d0-29d4-7df3-8625-4b4515841beb""}","https://test12345.live/?num_scrambled_semantic=8&num_scrambled_causal=4&num_scrambled_schematic=4&participantId=E52BBDBACEAD4955B2BFCDF31CC0ACF4&assignmentId=0198ba0c-b71d-7d82-860f-d5ed05f89020&projectId=0198b9d0-29d4-7df3-8625-4b4515841beb","E52BBDBACEAD4955B2BFCDF31CC0ACF4-2025-08-17-22-40-46","","823","","images/causal_sequence/coin_causal/coin_causal_2.png","0","",""
"","","","","","image-button-response","62","304361","0.0-12.0-1.0-2.1","E52BBDBACEAD4955B2BFCDF31CC0ACF4","E52BBDBACEAD4955B2BFCDF31CC0ACF4","0198ba0c-b71d-7d82-860f-d5ed05f89020","0198b9d0-29d4-7df3-8625-4b4515841beb","{""num_scrambled_semantic"":""8"",""num_scrambled_causal"":""4"",""num_scrambled_schematic"":""4"",""participantId"":""E52BBDBACEAD4955B2BFCDF31CC0ACF4"",""assignmentId"":""0198ba0c-b71d-7d82-860f-d5ed05f89020"",""projectId"":""0198b9d0-29d4-7df3-8625-4b4515841beb""}","https://test12345.live/?num_scrambled_semantic=8&num_scrambled_causal=4&num_scrambled_schematic=4&participantId=E52BBDBACEAD4955B2BFCDF31CC0ACF4&assignmentId=0198ba0c-b71d-7d82-860f-d5ed05f89020&projectId=0198b9d0-29d4-7df3-8625-4b4515841beb","E52BBDBACEAD4955B2BFCDF31CC0ACF4-2025-08-17-22-40-46","","null","","[]","null","",""
"","","","","","image-button-response","63","308868","0.0-12.0-1.0-0.2","E52BBDBACEAD4955B2BFCDF31CC0ACF4","E52BBDBACEAD4955B2BFCDF31CC0ACF4","0198ba0c-b71d-7d82-860f-d5ed05f89020","0198b9d0-29d4-7df3-8625-4b4515841beb","{""num_scrambled_semantic"":""8"",""num_scrambled_causal"":""4"",""num_scrambled_schematic"":""4"",""participantId"":""E52BBDBACEAD4955B2BFCDF31CC0ACF4"",""assignmentId"":""0198ba0c-b71d-7d82-860f-d5ed05f89020"",""projectId"":""0198b9d0-29d4-7df3-8625-4b4515841beb""}","https://test12345.live/?num_scrambled_semantic=8&num_scrambled_causal=4&num_scrambled_schematic=4&participantId=E52BBDBACEAD4955B2BFCDF31CC0ACF4&assignmentId=0198ba0c-b71d-7d82-860f-d5ed05f89020&projectId=0198b9d0-29d4-7df3-8625-4b4515841beb","E52BBDBACEAD4955B2BFCDF31CC0ACF4-2025-08-17-22-40-46","","null","","images/causal_sequence/coin_causal/coin_causal_3.png","null","",""
"","","","","","image-button-response","64","309473","0.0-12.0-1.0-1.2","E52BBDBACEAD4955B2BFCDF31CC0ACF4","E52BBDBACEAD4955B2BFCDF31CC0ACF4","0198ba0c-b71d-7d82-860f-d5ed05f89020","0198b9d0-29d4-7df3-8625-4b4515841beb","{""num_scrambled_semantic"":""8"",""num_scrambled_causal"":""4"",""num_scrambled_schematic"":""4"",""participantId"":""E52BBDBACEAD4955B2BFCDF31CC0ACF4"",""assignmentId"":""0198ba0c-b71d-7d82-860f-d5ed05f89020"",""projectId"":""0198b9d0-29d4-7df3-8625-4b4515841beb""}","https://test12345.live/?num_scrambled_semantic=8&num_scrambled_causal=4&num_scrambled_schematic=4&participantId=E52BBDBACEAD4955B2BFCDF31CC0ACF4&assignmentId=0198ba0c-b71d-7d82-860f-d5ed05f89020&projectId=0198b9d0-29d4-7df3-8625-4b4515841beb","E52BBDBACEAD4955B2BFCDF31CC0ACF4-2025-08-17-22-40-46","","603","","images/causal_sequence/coin_causal/coin_causal_3.png","0","",""
"","","","","","image-button-response","65","314879","0.0-12.0-1.0-2.2","E52BBDBACEAD4955B2BFCDF31CC0ACF4","E52BBDBACEAD4955B2BFCDF31CC0ACF4","0198ba0c-b71d-7d82-860f-d5ed05f89020","0198b9d0-29d4-7df3-8625-4b4515841beb","{""num_scrambled_semantic"":""8"",""num_scrambled_causal"":""4"",""num_scrambled_schematic"":""4"",""participantId"":""E52BBDBACEAD4955B2BFCDF31CC0ACF4"",""assignmentId"":""0198ba0c-b71d-7d82-860f-d5ed05f89020"",""projectId"":""0198b9d0-29d4-7df3-8625-4b4515841beb""}","https://test12345.live/?num_scrambled_semantic=8&num_scrambled_causal=4&num_scrambled_schematic=4&participantId=E52BBDBACEAD4955B2BFCDF31CC0ACF4&assignmentId=0198ba0c-b71d-7d82-860f-d5ed05f89020&projectId=0198b9d0-29d4-7df3-8625-4b4515841beb","E52BBDBACEAD4955B2BFCDF31CC0ACF4-2025-08-17-22-40-46","","null","","[]","null","",""
"","","","","","image-button-response","66","319386","0.0-12.0-1.0-0.3","E52BBDBACEAD4955B2BFCDF31CC0ACF4","E52BBDBACEAD4955B2BFCDF31CC0ACF4","0198ba0c-b71d-7d82-860f-d5ed05f89020","0198b9d0-29d4-7df3-8625-4b4515841beb","{""num_scrambled_semantic"":""8"",""num_scrambled_causal"":""4"",""num_scrambled_schematic"":""4"",""participantId"":""E52BBDBACEAD4955B2BFCDF31CC0ACF4"",""assignmentId"":""0198ba0c-b71d-7d82-860f-d5ed05f89020"",""projectId"":""0198b9d0-29d4-7df3-8625-4b4515841beb""}","https://test12345.live/?num_scrambled_semantic=8&num_scrambled_causal=4&num_scrambled_schematic=4&participantId=E52BBDBACEAD4955B2BFCDF31CC0ACF4&assignmentId=0198ba0c-b71d-7d82-860f-d5ed05f89020&projectId=0198b9d0-29d4-7df3-8625-4b4515841beb","E52BBDBACEAD4955B2BFCDF31CC0ACF4-2025-08-17-22-40-46","","null","","images/causal_sequence/coin_causal/coin_causal_4.png","null","",""
"","","","","","image-button-response","67","319922","0.0-12.0-1.0-1.3","E52BBDBACEAD4955B2BFCDF31CC0ACF4","E52BBDBACEAD4955B2BFCDF31CC0ACF4","0198ba0c-b71d-7d82-860f-d5ed05f89020","0198b9d0-29d4-7df3-8625-4b4515841beb","{""num_scrambled_semantic"":""8"",""num_scrambled_causal"":""4"",""num_scrambled_schematic"":""4"",""participantId"":""E52BBDBACEAD4955B2BFCDF31CC0ACF4"",""assignmentId"":""0198ba0c-b71d-7d82-860f-d5ed05f89020"",""projectId"":""0198b9d0-29d4-7df3-8625-4b4515841beb""}","https://test12345.live/?num_scrambled_semantic=8&num_scrambled_causal=4&num_scrambled_schematic=4&participantId=E52BBDBACEAD4955B2BFCDF31CC0ACF4&assignmentId=0198ba0c-b71d-7d82-860f-d5ed05f89020&projectId=0198b9d0-29d4-7df3-8625-4b4515841beb","E52BBDBACEAD4955B2BFCDF31CC0ACF4-2025-08-17-22-40-46","","534","","images/causal_sequence/coin_causal/coin_causal_4.png","0","",""
"","","","","","image-button-response","68","325329","0.0-12.0-1.0-2.3","E52BBDBACEAD4955B2BFCDF31CC0ACF4","E52BBDBACEAD4955B2BFCDF31CC0ACF4","0198ba0c-b71d-7d82-860f-d5ed05f89020","0198b9d0-29d4-7df3-8625-4b4515841beb","{""num_scrambled_semantic"":""8"",""num_scrambled_causal"":""4"",""num_scrambled_schematic"":""4"",""participantId"":""E52BBDBACEAD4955B2BFCDF31CC0ACF4"",""assignmentId"":""0198ba0c-b71d-7d82-860f-d5ed05f89020"",""projectId"":""0198b9d0-29d4-7df3-8625-4b4515841beb""}","https://test12345.live/?num_scrambled_semantic=8&num_scrambled_causal=4&num_scrambled_schematic=4&participantId=E52BBDBACEAD4955B2BFCDF31CC0ACF4&assignmentId=0198ba0c-b71d-7d82-860f-d5ed05f89020&projectId=0198b9d0-29d4-7df3-8625-4b4515841beb","E52BBDBACEAD4955B2BFCDF31CC0ACF4-2025-08-17-22-40-46","","null","","[]","null","",""
"","","","","","image-button-response","69","329833","0.0-12.0-1.0-0.4","E52BBDBACEAD4955B2BFCDF31CC0ACF4","E52BBDBACEAD4955B2BFCDF31CC0ACF4","0198ba0c-b71d-7d82-860f-d5ed05f89020","0198b9d0-29d4-7df3-8625-4b4515841beb","{""num_scrambled_semantic"":""8"",""num_scrambled_causal"":""4"",""num_scrambled_schematic"":""4"",""participantId"":""E52BBDBACEAD4955B2BFCDF31CC0ACF4"",""assignmentId"":""0198ba0c-b71d-7d82-860f-d5ed05f89020"",""projectId"":""0198b9d0-29d4-7df3-8625-4b4515841beb""}","https://test12345.live/?num_scrambled_semantic=8&num_scrambled_causal=4&num_scrambled_schematic=4&participantId=E52BBDBACEAD4955B2BFCDF31CC0ACF4&assignmentId=0198ba0c-b71d-7d82-860f-d5ed05f89020&projectId=0198b9d0-29d4-7df3-8625-4b4515841beb","E52BBDBACEAD4955B2BFCDF31CC0ACF4-2025-08-17-22-40-46","","null","","images/causal_sequence/coin_causal/coin_causal_5.png","null","",""
"","","","","","image-button-response","70","330536","0.0-12.0-1.0-1.4","E52BBDBACEAD4955B2BFCDF31CC0ACF4","E52BBDBACEAD4955B2BFCDF31CC0ACF4","0198ba0c-b71d-7d82-860f-d5ed05f89020","0198b9d0-29d4-7df3-8625-4b4515841beb","{""num_scrambled_semantic"":""8"",""num_scrambled_causal"":""4"",""num_scrambled_schematic"":""4"",""participantId"":""E52BBDBACEAD4955B2BFCDF31CC0ACF4"",""assignmentId"":""0198ba0c-b71d-7d82-860f-d5ed05f89020"",""projectId"":""0198b9d0-29d4-7df3-8625-4b4515841beb""}","https://test12345.live/?num_scrambled_semantic=8&num_scrambled_causal=4&num_scrambled_schematic=4&participantId=E52BBDBACEAD4955B2BFCDF31CC0ACF4&assignmentId=0198ba0c-b71d-7d82-860f-d5ed05f89020&projectId=0198b9d0-29d4-7df3-8625-4b4515841beb","E52BBDBACEAD4955B2BFCDF31CC0ACF4-2025-08-17-22-40-46","","701","","images/causal_sequence/coin_causal/coin_causal_5.png","0","",""
"","","","","","image-button-response","71","335939","0.0-12.0-1.0-2.4","E52BBDBACEAD4955B2BFCDF31CC0ACF4","E52BBDBACEAD4955B2BFCDF31CC0ACF4","0198ba0c-b71d-7d82-860f-d5ed05f89020","0198b9d0-29d4-7df3-8625-4b4515841beb","{""num_scrambled_semantic"":""8"",""num_scrambled_causal"":""4"",""num_scrambled_schematic"":""4"",""participantId"":""E52BBDBACEAD4955B2BFCDF31CC0ACF4"",""assignmentId"":""0198ba0c-b71d-7d82-860f-d5ed05f89020"",""projectId"":""0198b9d0-29d4-7df3-8625-4b4515841beb""}","https://test12345.live/?num_scrambled_semantic=8&num_scrambled_causal=4&num_scrambled_schematic=4&participantId=E52BBDBACEAD4955B2BFCDF31CC0ACF4&assignmentId=0198ba0c-b71d-7d82-860f-d5ed05f89020&projectId=0198b9d0-29d4-7df3-8625-4b4515841beb","E52BBDBACEAD4955B2BFCDF31CC0ACF4-2025-08-17-22-40-46","","null","","[]","null","",""
"","","","","","image-button-response","72","340446","0.0-12.0-1.0-0.5","E52BBDBACEAD4955B2BFCDF31CC0ACF4","E52BBDBACEAD4955B2BFCDF31CC0ACF4","0198ba0c-b71d-7d82-860f-d5ed05f89020","0198b9d0-29d4-7df3-8625-4b4515841beb","{""num_scrambled_semantic"":""8"",""num_scrambled_causal"":""4"",""num_scrambled_schematic"":""4"",""participantId"":""E52BBDBACEAD4955B2BFCDF31CC0ACF4"",""assignmentId"":""0198ba0c-b71d-7d82-860f-d5ed05f89020"",""projectId"":""0198b9d0-29d4-7df3-8625-4b4515841beb""}","https://test12345.live/?num_scrambled_semantic=8&num_scrambled_causal=4&num_scrambled_schematic=4&participantId=E52BBDBACEAD4955B2BFCDF31CC0ACF4&assignmentId=0198ba0c-b71d-7d82-860f-d5ed05f89020&projectId=0198b9d0-29d4-7df3-8625-4b4515841beb","E52BBDBACEAD4955B2BFCDF31CC0ACF4-2025-08-17-22-40-46","","null","","images/causal_sequence/coin_causal/coin_causal_6.png","null","",""
"","","","","","image-button-response","73","340952","0.0-12.0-1.0-1.5","E52BBDBACEAD4955B2BFCDF31CC0ACF4","E52BBDBACEAD4955B2BFCDF31CC0ACF4","0198ba0c-b71d-7d82-860f-d5ed05f89020","0198b9d0-29d4-7df3-8625-4b4515841beb","{""num_scrambled_semantic"":""8"",""num_scrambled_causal"":""4"",""num_scrambled_schematic"":""4"",""participantId"":""E52BBDBACEAD4955B2BFCDF31CC0ACF4"",""assignmentId"":""0198ba0c-b71d-7d82-860f-d5ed05f89020"",""projectId"":""0198b9d0-29d4-7df3-8625-4b4515841beb""}","https://test12345.live/?num_scrambled_semantic=8&num_scrambled_causal=4&num_scrambled_schematic=4&participantId=E52BBDBACEAD4955B2BFCDF31CC0ACF4&assignmentId=0198ba0c-b71d-7d82-860f-d5ed05f89020&projectId=0198b9d0-29d4-7df3-8625-4b4515841beb","E52BBDBACEAD4955B2BFCDF31CC0ACF4-2025-08-17-22-40-46","","504","","images/causal_sequence/coin_causal/coin_causal_6.png","0","",""
"","","","","","image-button-response","74","346359","0.0-12.0-1.0-2.5","E52BBDBACEAD4955B2BFCDF31CC0ACF4","E52BBDBACEAD4955B2BFCDF31CC0ACF4","0198ba0c-b71d-7d82-860f-d5ed05f89020","0198b9d0-29d4-7df3-8625-4b4515841beb","{""num_scrambled_semantic"":""8"",""num_scrambled_causal"":""4"",""num_scrambled_schematic"":""4"",""participantId"":""E52BBDBACEAD4955B2BFCDF31CC0ACF4"",""assignmentId"":""0198ba0c-b71d-7d82-860f-d5ed05f89020"",""projectId"":""0198b9d0-29d4-7df3-8625-4b4515841beb""}","https://test12345.live/?num_scrambled_semantic=8&num_scrambled_causal=4&num_scrambled_schematic=4&participantId=E52BBDBACEAD4955B2BFCDF31CC0ACF4&assignmentId=0198ba0c-b71d-7d82-860f-d5ed05f89020&projectId=0198b9d0-29d4-7df3-8625-4b4515841beb","E52BBDBACEAD4955B2BFCDF31CC0ACF4-2025-08-17-22-40-46","","null","","[]","null","",""
"","","","","","image-button-response","75","350861","0.0-12.0-1.0-0.6","E52BBDBACEAD4955B2BFCDF31CC0ACF4","E52BBDBACEAD4955B2BFCDF31CC0ACF4","0198ba0c-b71d-7d82-860f-d5ed05f89020","0198b9d0-29d4-7df3-8625-4b4515841beb","{""num_scrambled_semantic"":""8"",""num_scrambled_causal"":""4"",""num_scrambled_schematic"":""4"",""participantId"":""E52BBDBACEAD4955B2BFCDF31CC0ACF4"",""assignmentId"":""0198ba0c-b71d-7d82-860f-d5ed05f89020"",""projectId"":""0198b9d0-29d4-7df3-8625-4b4515841beb""}","https://test12345.live/?num_scrambled_semantic=8&num_scrambled_causal=4&num_scrambled_schematic=4&participantId=E52BBDBACEAD4955B2BFCDF31CC0ACF4&assignmentId=0198ba0c-b71d-7d82-860f-d5ed05f89020&projectId=0198b9d0-29d4-7df3-8625-4b4515841beb","E52BBDBACEAD4955B2BFCDF31CC0ACF4-2025-08-17-22-40-46","","null","","images/causal_sequence/coin_causal/coin_causal_7.png","null","",""
"","","","","","image-button-response","76","351818","0.0-12.0-1.0-1.6","E52BBDBACEAD4955B2BFCDF31CC0ACF4","E52BBDBACEAD4955B2BFCDF31CC0ACF4","0198ba0c-b71d-7d82-860f-d5ed05f89020","0198b9d0-29d4-7df3-8625-4b4515841beb","{""num_scrambled_semantic"":""8"",""num_scrambled_causal"":""4"",""num_scrambled_schematic"":""4"",""participantId"":""E52BBDBACEAD4955B2BFCDF31CC0ACF4"",""assignmentId"":""0198ba0c-b71d-7d82-860f-d5ed05f89020"",""projectId"":""0198b9d0-29d4-7df3-8625-4b4515841beb""}","https://test12345.live/?num_scrambled_semantic=8&num_scrambled_causal=4&num_scrambled_schematic=4&participantId=E52BBDBACEAD4955B2BFCDF31CC0ACF4&assignmentId=0198ba0c-b71d-7d82-860f-d5ed05f89020&projectId=0198b9d0-29d4-7df3-8625-4b4515841beb","E52BBDBACEAD4955B2BFCDF31CC0ACF4-2025-08-17-22-40-46","","955","","images/causal_sequence/coin_causal/coin_causal_7.png","1","",""
"","","","","","image-button-response","77","357221","0.0-12.0-1.0-2.6","E52BBDBACEAD4955B2BFCDF31CC0ACF4","E52BBDBACEAD4955B2BFCDF31CC0ACF4","0198ba0c-b71d-7d82-860f-d5ed05f89020","0198b9d0-29d4-7df3-8625-4b4515841beb","{""num_scrambled_semantic"":""8"",""num_scrambled_causal"":""4"",""num_scrambled_schematic"":""4"",""participantId"":""E52BBDBACEAD4955B2BFCDF31CC0ACF4"",""assignmentId"":""0198ba0c-b71d-7d82-860f-d5ed05f89020"",""projectId"":""0198b9d0-29d4-7df3-8625-4b4515841beb""}","https://test12345.live/?num_scrambled_semantic=8&num_scrambled_causal=4&num_scrambled_schematic=4&participantId=E52BBDBACEAD4955B2BFCDF31CC0ACF4&assignmentId=0198ba0c-b71d-7d82-860f-d5ed05f89020&projectId=0198b9d0-29d4-7df3-8625-4b4515841beb","E52BBDBACEAD4955B2BFCDF31CC0ACF4-2025-08-17-22-40-46","","null","","[]","null","",""
"","","","","","image-button-response","78","361727","0.0-12.0-1.0-0.7","E52BBDBACEAD4955B2BFCDF31CC0ACF4","E52BBDBACEAD4955B2BFCDF31CC0ACF4","0198ba0c-b71d-7d82-860f-d5ed05f89020","0198b9d0-29d4-7df3-8625-4b4515841beb","{""num_scrambled_semantic"":""8"",""num_scrambled_causal"":""4"",""num_scrambled_schematic"":""4"",""participantId"":""E52BBDBACEAD4955B2BFCDF31CC0ACF4"",""assignmentId"":""0198ba0c-b71d-7d82-860f-d5ed05f89020"",""projectId"":""0198b9d0-29d4-7df3-8625-4b4515841beb""}","https://test12345.live/?num_scrambled_semantic=8&num_scrambled_causal=4&num_scrambled_schematic=4&participantId=E52BBDBACEAD4955B2BFCDF31CC0ACF4&assignmentId=0198ba0c-b71d-7d82-860f-d5ed05f89020&projectId=0198b9d0-29d4-7df3-8625-4b4515841beb","E52BBDBACEAD4955B2BFCDF31CC0ACF4-2025-08-17-22-40-46","","null","","images/causal_sequence/coin_causal/coin_causal_8.png","null","",""
"","","","","","image-button-response","79","363062","0.0-12.0-1.0-1.7","E52BBDBACEAD4955B2BFCDF31CC0ACF4","E52BBDBACEAD4955B2BFCDF31CC0ACF4","0198ba0c-b71d-7d82-860f-d5ed05f89020","0198b9d0-29d4-7df3-8625-4b4515841beb","{""num_scrambled_semantic"":""8"",""num_scrambled_causal"":""4"",""num_scrambled_schematic"":""4"",""participantId"":""E52BBDBACEAD4955B2BFCDF31CC0ACF4"",""assignmentId"":""0198ba0c-b71d-7d82-860f-d5ed05f89020"",""projectId"":""0198b9d0-29d4-7df3-8625-4b4515841beb""}","https://test12345.live/?num_scrambled_semantic=8&num_scrambled_causal=4&num_scrambled_schematic=4&participantId=E52BBDBACEAD4955B2BFCDF31CC0ACF4&assignmentId=0198ba0c-b71d-7d82-860f-d5ed05f89020&projectId=0198b9d0-29d4-7df3-8625-4b4515841beb","E52BBDBACEAD4955B2BFCDF31CC0ACF4-2025-08-17-22-40-46","","1333","","images/causal_sequence/coin_causal/coin_causal_8.png","0","",""
"","","","","","image-button-response","80","368466","0.0-12.0-1.0-2.7","E52BBDBACEAD4955B2BFCDF31CC0ACF4","E52BBDBACEAD4955B2BFCDF31CC0ACF4","0198ba0c-b71d-7d82-860f-d5ed05f89020","0198b9d0-29d4-7df3-8625-4b4515841beb","{""num_scrambled_semantic"":""8"",""num_scrambled_causal"":""4"",""num_scrambled_schematic"":""4"",""participantId"":""E52BBDBACEAD4955B2BFCDF31CC0ACF4"",""assignmentId"":""0198ba0c-b71d-7d82-860f-d5ed05f89020"",""projectId"":""0198b9d0-29d4-7df3-8625-4b4515841beb""}","https://test12345.live/?num_scrambled_semantic=8&num_scrambled_causal=4&num_scrambled_schematic=4&participantId=E52BBDBACEAD4955B2BFCDF31CC0ACF4&assignmentId=0198ba0c-b71d-7d82-860f-d5ed05f89020&projectId=0198b9d0-29d4-7df3-8625-4b4515841beb","E52BBDBACEAD4955B2BFCDF31CC0ACF4-2025-08-17-22-40-46","","null","","[]","null","",""
"","","","","","image-button-response","81","372969","0.0-12.0-1.0-0.8","E52BBDBACEAD4955B2BFCDF31CC0ACF4","E52BBDBACEAD4955B2BFCDF31CC0ACF4","0198ba0c-b71d-7d82-860f-d5ed05f89020","0198b9d0-29d4-7df3-8625-4b4515841beb","{""num_scrambled_semantic"":""8"",""num_scrambled_causal"":""4"",""num_scrambled_schematic"":""4"",""participantId"":""E52BBDBACEAD4955B2BFCDF31CC0ACF4"",""assignmentId"":""0198ba0c-b71d-7d82-860f-d5ed05f89020"",""projectId"":""0198b9d0-29d4-7df3-8625-4b4515841beb""}","https://test12345.live/?num_scrambled_semantic=8&num_scrambled_causal=4&num_scrambled_schematic=4&participantId=E52BBDBACEAD4955B2BFCDF31CC0ACF4&assignmentId=0198ba0c-b71d-7d82-860f-d5ed05f89020&projectId=0198b9d0-29d4-7df3-8625-4b4515841beb","E52BBDBACEAD4955B2BFCDF31CC0ACF4-2025-08-17-22-40-46","","null","","images/causal_sequence/coin_causal/coin_causal_9.png","null","",""
"","","","","","image-button-response","82","373735","0.0-12.0-1.0-1.8","E52BBDBACEAD4955B2BFCDF31CC0ACF4","E52BBDBACEAD4955B2BFCDF31CC0ACF4","0198ba0c-b71d-7d82-860f-d5ed05f89020","0198b9d0-29d4-7df3-8625-4b4515841beb","{""num_scrambled_semantic"":""8"",""num_scrambled_causal"":""4"",""num_scrambled_schematic"":""4"",""participantId"":""E52BBDBACEAD4955B2BFCDF31CC0ACF4"",""assignmentId"":""0198ba0c-b71d-7d82-860f-d5ed05f89020"",""projectId"":""0198b9d0-29d4-7df3-8625-4b4515841beb""}","https://test12345.live/?num_scrambled_semantic=8&num_scrambled_causal=4&num_scrambled_schematic=4&participantId=E52BBDBACEAD4955B2BFCDF31CC0ACF4&assignmentId=0198ba0c-b71d-7d82-860f-d5ed05f89020&projectId=0198b9d0-29d4-7df3-8625-4b4515841beb","E52BBDBACEAD4955B2BFCDF31CC0ACF4-2025-08-17-22-40-46","","764","","images/causal_sequence/coin_causal/coin_causal_9.png","0","",""
"","","","","","image-button-response","83","379141","0.0-12.0-1.0-2.8","E52BBDBACEAD4955B2BFCDF31CC0ACF4","E52BBDBACEAD4955B2BFCDF31CC0ACF4","0198ba0c-b71d-7d82-860f-d5ed05f89020","0198b9d0-29d4-7df3-8625-4b4515841beb","{""num_scrambled_semantic"":""8"",""num_scrambled_causal"":""4"",""num_scrambled_schematic"":""4"",""participantId"":""E52BBDBACEAD4955B2BFCDF31CC0ACF4"",""assignmentId"":""0198ba0c-b71d-7d82-860f-d5ed05f89020"",""projectId"":""0198b9d0-29d4-7df3-8625-4b4515841beb""}","https://test12345.live/?num_scrambled_semantic=8&num_scrambled_causal=4&num_scrambled_schematic=4&participantId=E52BBDBACEAD4955B2BFCDF31CC0ACF4&assignmentId=0198ba0c-b71d-7d82-860f-d5ed05f89020&projectId=0198b9d0-29d4-7df3-8625-4b4515841beb","E52BBDBACEAD4955B2BFCDF31CC0ACF4-2025-08-17-22-40-46","","null","","[]","null","",""
"","","","","","image-button-response","84","383648","0.0-12.0-1.0-0.9","E52BBDBACEAD4955B2BFCDF31CC0ACF4","E52BBDBACEAD4955B2BFCDF31CC0ACF4","0198ba0c-b71d-7d82-860f-d5ed05f89020","0198b9d0-29d4-7df3-8625-4b4515841beb","{""num_scrambled_semantic"":""8"",""num_scrambled_causal"":""4"",""num_scrambled_schematic"":""4"",""participantId"":""E52BBDBACEAD4955B2BFCDF31CC0ACF4"",""assignmentId"":""0198ba0c-b71d-7d82-860f-d5ed05f89020"",""projectId"":""0198b9d0-29d4-7df3-8625-4b4515841beb""}","https://test12345.live/?num_scrambled_semantic=8&num_scrambled_causal=4&num_scrambled_schematic=4&participantId=E52BBDBACEAD4955B2BFCDF31CC0ACF4&assignmentId=0198ba0c-b71d-7d82-860f-d5ed05f89020&projectId=0198b9d0-29d4-7df3-8625-4b4515841beb","E52BBDBACEAD4955B2BFCDF31CC0ACF4-2025-08-17-22-40-46","","null","","images/causal_sequence/coin_causal/coin_causal_ten.png","null","",""
"","","","","","image-button-response","85","384142","0.0-12.0-1.0-1.9","E52BBDBACEAD4955B2BFCDF31CC0ACF4","E52BBDBACEAD4955B2BFCDF31CC0ACF4","0198ba0c-b71d-7d82-860f-d5ed05f89020","0198b9d0-29d4-7df3-8625-4b4515841beb","{""num_scrambled_semantic"":""8"",""num_scrambled_causal"":""4"",""num_scrambled_schematic"":""4"",""participantId"":""E52BBDBACEAD4955B2BFCDF31CC0ACF4"",""assignmentId"":""0198ba0c-b71d-7d82-860f-d5ed05f89020"",""projectId"":""0198b9d0-29d4-7df3-8625-4b4515841beb""}","https://test12345.live/?num_scrambled_semantic=8&num_scrambled_causal=4&num_scrambled_schematic=4&participantId=E52BBDBACEAD4955B2BFCDF31CC0ACF4&assignmentId=0198ba0c-b71d-7d82-860f-d5ed05f89020&projectId=0198b9d0-29d4-7df3-8625-4b4515841beb","E52BBDBACEAD4955B2BFCDF31CC0ACF4-2025-08-17-22-40-46","","492","","images/causal_sequence/coin_causal/coin_causal_ten.png","0","",""
"","","","","","image-button-response","86","389549","0.0-12.0-1.0-2.9","E52BBDBACEAD4955B2BFCDF31CC0ACF4","E52BBDBACEAD4955B2BFCDF31CC0ACF4","0198ba0c-b71d-7d82-860f-d5ed05f89020","0198b9d0-29d4-7df3-8625-4b4515841beb","{""num_scrambled_semantic"":""8"",""num_scrambled_causal"":""4"",""num_scrambled_schematic"":""4"",""participantId"":""E52BBDBACEAD4955B2BFCDF31CC0ACF4"",""assignmentId"":""0198ba0c-b71d-7d82-860f-d5ed05f89020"",""projectId"":""0198b9d0-29d4-7df3-8625-4b4515841beb""}","https://test12345.live/?num_scrambled_semantic=8&num_scrambled_causal=4&num_scrambled_schematic=4&participantId=E52BBDBACEAD4955B2BFCDF31CC0ACF4&assignmentId=0198ba0c-b71d-7d82-860f-d5ed05f89020&projectId=0198b9d0-29d4-7df3-8625-4b4515841beb","E52BBDBACEAD4955B2BFCDF31CC0ACF4-2025-08-17-22-40-46","","null","","[]","null","",""
"","","","","","html-audio-response","87","408801","0.0-13.0","E52BBDBACEAD4955B2BFCDF31CC0ACF4","E52BBDBACEAD4955B2BFCDF31CC0ACF4","0198ba0c-b71d-7d82-860f-d5ed05f89020","0198b9d0-29d4-7df3-8625-4b4515841beb","{""num_scrambled_semantic"":""8"",""num_scrambled_causal"":""4"",""num_scrambled_schematic"":""4"",""participantId"":""E52BBDBACEAD4955B2BFCDF31CC0ACF4"",""assignmentId"":""0198ba0c-b71d-7d82-860f-d5ed05f89020"",""projectId"":""0198b9d0-29d4-7df3-8625-4b4515841beb""}","https://test12345.live/?num_scrambled_semantic=8&num_scrambled_causal=4&num_scrambled_schematic=4&participantId=E52BBDBACEAD4955B2BFCDF31CC0ACF4&assignmentId=0198ba0c-b71d-7d82-860f-d5ed05f89020&projectId=0198b9d0-29d4-7df3-8625-4b4515841beb","E52BBDBACEAD4955B2BFCDF31CC0ACF4-2025-08-17-22-40-46","","18285","","[""<span style=\""color: red; font-size: 24px\""> NOW RECORDING</span><p>Please say out loud all the images you saw, as many as you can remember. The images can be said in any order.</p>""]","","1","coin_causal"
"","","","","","image-button-response","88","414811","0.0-14.0-0.0","E52BBDBACEAD4955B2BFCDF31CC0ACF4","E52BBDBACEAD4955B2BFCDF31CC0ACF4","0198ba0c-b71d-7d82-860f-d5ed05f89020","0198b9d0-29d4-7df3-8625-4b4515841beb","{""num_scrambled_semantic"":""8"",""num_scrambled_causal"":""4"",""num_scrambled_schematic"":""4"",""participantId"":""E52BBDBACEAD4955B2BFCDF31CC0ACF4"",""assignmentId"":""0198ba0c-b71d-7d82-860f-d5ed05f89020"",""projectId"":""0198b9d0-29d4-7df3-8625-4b4515841beb""}","https://test12345.live/?num_scrambled_semantic=8&num_scrambled_causal=4&num_scrambled_schematic=4&participantId=E52BBDBACEAD4955B2BFCDF31CC0ACF4&assignmentId=0198ba0c-b71d-7d82-860f-d5ed05f89020&projectId=0198b9d0-29d4-7df3-8625-4b4515841beb","E52BBDBACEAD4955B2BFCDF31CC0ACF4-2025-08-17-22-40-46","","null","","images/semantic_sequence/maintaining_a_car_semantic/maintaining_a_car_semantic_0.png","null","",""
"","","","","","image-button-response","89","419316","0.0-14.0-1.0-0.0","E52BBDBACEAD4955B2BFCDF31CC0ACF4","E52BBDBACEAD4955B2BFCDF31CC0ACF4","0198ba0c-b71d-7d82-860f-d5ed05f89020","0198b9d0-29d4-7df3-8625-4b4515841beb","{""num_scrambled_semantic"":""8"",""num_scrambled_causal"":""4"",""num_scrambled_schematic"":""4"",""participantId"":""E52BBDBACEAD4955B2BFCDF31CC0ACF4"",""assignmentId"":""0198ba0c-b71d-7d82-860f-d5ed05f89020"",""projectId"":""0198b9d0-29d4-7df3-8625-4b4515841beb""}","https://test12345.live/?num_scrambled_semantic=8&num_scrambled_causal=4&num_scrambled_schematic=4&participantId=E52BBDBACEAD4955B2BFCDF31CC0ACF4&assignmentId=0198ba0c-b71d-7d82-860f-d5ed05f89020&projectId=0198b9d0-29d4-7df3-8625-4b4515841beb","E52BBDBACEAD4955B2BFCDF31CC0ACF4-2025-08-17-22-40-46","","null","","images/semantic_sequence/maintaining_a_car_semantic/maintaining_a_car_semantic_8.png","null","",""
"","","","","","image-button-response","90","420440","0.0-14.0-1.0-1.0","E52BBDBACEAD4955B2BFCDF31CC0ACF4","E52BBDBACEAD4955B2BFCDF31CC0ACF4","0198ba0c-b71d-7d82-860f-d5ed05f89020","0198b9d0-29d4-7df3-8625-4b4515841beb","{""num_scrambled_semantic"":""8"",""num_scrambled_causal"":""4"",""num_scrambled_schematic"":""4"",""participantId"":""E52BBDBACEAD4955B2BFCDF31CC0ACF4"",""assignmentId"":""0198ba0c-b71d-7d82-860f-d5ed05f89020"",""projectId"":""0198b9d0-29d4-7df3-8625-4b4515841beb""}","https://test12345.live/?num_scrambled_semantic=8&num_scrambled_causal=4&num_scrambled_schematic=4&participantId=E52BBDBACEAD4955B2BFCDF31CC0ACF4&assignmentId=0198ba0c-b71d-7d82-860f-d5ed05f89020&projectId=0198b9d0-29d4-7df3-8625-4b4515841beb","E52BBDBACEAD4955B2BFCDF31CC0ACF4-2025-08-17-22-40-46","","1122","","images/semantic_sequence/maintaining_a_car_semantic/maintaining_a_car_semantic_8.png","0","",""
"","","","","","image-button-response","91","425846","0.0-14.0-1.0-2.0","E52BBDBACEAD4955B2BFCDF31CC0ACF4","E52BBDBACEAD4955B2BFCDF31CC0ACF4","0198ba0c-b71d-7d82-860f-d5ed05f89020","0198b9d0-29d4-7df3-8625-4b4515841beb","{""num_scrambled_semantic"":""8"",""num_scrambled_causal"":""4"",""num_scrambled_schematic"":""4"",""participantId"":""E52BBDBACEAD4955B2BFCDF31CC0ACF4"",""assignmentId"":""0198ba0c-b71d-7d82-860f-d5ed05f89020"",""projectId"":""0198b9d0-29d4-7df3-8625-4b4515841beb""}","https://test12345.live/?num_scrambled_semantic=8&num_scrambled_causal=4&num_scrambled_schematic=4&participantId=E52BBDBACEAD4955B2BFCDF31CC0ACF4&assignmentId=0198ba0c-b71d-7d82-860f-d5ed05f89020&projectId=0198b9d0-29d4-7df3-8625-4b4515841beb","E52BBDBACEAD4955B2BFCDF31CC0ACF4-2025-08-17-22-40-46","","null","","[]","null","",""
"","","","","","image-button-response","92","430354","0.0-14.0-1.0-0.1","E52BBDBACEAD4955B2BFCDF31CC0ACF4","E52BBDBACEAD4955B2BFCDF31CC0ACF4","0198ba0c-b71d-7d82-860f-d5ed05f89020","0198b9d0-29d4-7df3-8625-4b4515841beb","{""num_scrambled_semantic"":""8"",""num_scrambled_causal"":""4"",""num_scrambled_schematic"":""4"",""participantId"":""E52BBDBACEAD4955B2BFCDF31CC0ACF4"",""assignmentId"":""0198ba0c-b71d-7d82-860f-d5ed05f89020"",""projectId"":""0198b9d0-29d4-7df3-8625-4b4515841beb""}","https://test12345.live/?num_scrambled_semantic=8&num_scrambled_causal=4&num_scrambled_schematic=4&participantId=E52BBDBACEAD4955B2BFCDF31CC0ACF4&assignmentId=0198ba0c-b71d-7d82-860f-d5ed05f89020&projectId=0198b9d0-29d4-7df3-8625-4b4515841beb","E52BBDBACEAD4955B2BFCDF31CC0ACF4-2025-08-17-22-40-46","","null","","images/semantic_sequence/maintaining_a_car_semantic/maintaining_a_car_semantic_9.png","null","",""
"","","","","","image-button-response","93","431556","0.0-14.0-1.0-1.1","E52BBDBACEAD4955B2BFCDF31CC0ACF4","E52BBDBACEAD4955B2BFCDF31CC0ACF4","0198ba0c-b71d-7d82-860f-d5ed05f89020","0198b9d0-29d4-7df3-8625-4b4515841beb","{""num_scrambled_semantic"":""8"",""num_scrambled_causal"":""4"",""num_scrambled_schematic"":""4"",""participantId"":""E52BBDBACEAD4955B2BFCDF31CC0ACF4"",""assignmentId"":""0198ba0c-b71d-7d82-860f-d5ed05f89020"",""projectId"":""0198b9d0-29d4-7df3-8625-4b4515841beb""}","https://test12345.live/?num_scrambled_semantic=8&num_scrambled_causal=4&num_scrambled_schematic=4&participantId=E52BBDBACEAD4955B2BFCDF31CC0ACF4&assignmentId=0198ba0c-b71d-7d82-860f-d5ed05f89020&projectId=0198b9d0-29d4-7df3-8625-4b4515841beb","E52BBDBACEAD4955B2BFCDF31CC0ACF4-2025-08-17-22-40-46","","1200","","images/semantic_sequence/maintaining_a_car_semantic/maintaining_a_car_semantic_9.png","0","",""
"","","","","","image-button-response","94","436959","0.0-14.0-1.0-2.1","E52BBDBACEAD4955B2BFCDF31CC0ACF4","E52BBDBACEAD4955B2BFCDF31CC0ACF4","0198ba0c-b71d-7d82-860f-d5ed05f89020","0198b9d0-29d4-7df3-8625-4b4515841beb","{""num_scrambled_semantic"":""8"",""num_scrambled_causal"":""4"",""num_scrambled_schematic"":""4"",""participantId"":""E52BBDBACEAD4955B2BFCDF31CC0ACF4"",""assignmentId"":""0198ba0c-b71d-7d82-860f-d5ed05f89020"",""projectId"":""0198b9d0-29d4-7df3-8625-4b4515841beb""}","https://test12345.live/?num_scrambled_semantic=8&num_scrambled_causal=4&num_scrambled_schematic=4&participantId=E52BBDBACEAD4955B2BFCDF31CC0ACF4&assignmentId=0198ba0c-b71d-7d82-860f-d5ed05f89020&projectId=0198b9d0-29d4-7df3-8625-4b4515841beb","E52BBDBACEAD4955B2BFCDF31CC0ACF4-2025-08-17-22-40-46","","null","","[]","null","",""
"","","","","","image-button-response","95","441464","0.0-14.0-1.0-0.2","E52BBDBACEAD4955B2BFCDF31CC0ACF4","E52BBDBACEAD4955B2BFCDF31CC0ACF4","0198ba0c-b71d-7d82-860f-d5ed05f89020","0198b9d0-29d4-7df3-8625-4b4515841beb","{""num_scrambled_semantic"":""8"",""num_scrambled_causal"":""4"",""num_scrambled_schematic"":""4"",""participantId"":""E52BBDBACEAD4955B2BFCDF31CC0ACF4"",""assignmentId"":""0198ba0c-b71d-7d82-860f-d5ed05f89020"",""projectId"":""0198b9d0-29d4-7df3-8625-4b4515841beb""}","https://test12345.live/?num_scrambled_semantic=8&num_scrambled_causal=4&num_scrambled_schematic=4&participantId=E52BBDBACEAD4955B2BFCDF31CC0ACF4&assignmentId=0198ba0c-b71d-7d82-860f-d5ed05f89020&projectId=0198b9d0-29d4-7df3-8625-4b4515841beb","E52BBDBACEAD4955B2BFCDF31CC0ACF4-2025-08-17-22-40-46","","null","","images/semantic_sequence/maintaining_a_car_semantic/maintaining_a_car_semantic_6.png","null","",""
"","","","","","image-button-response","96","442250","0.0-14.0-1.0-1.2","E52BBDBACEAD4955B2BFCDF31CC0ACF4","E52BBDBACEAD4955B2BFCDF31CC0ACF4","0198ba0c-b71d-7d82-860f-d5ed05f89020","0198b9d0-29d4-7df3-8625-4b4515841beb","{""num_scrambled_semantic"":""8"",""num_scrambled_causal"":""4"",""num_scrambled_schematic"":""4"",""participantId"":""E52BBDBACEAD4955B2BFCDF31CC0ACF4"",""assignmentId"":""0198ba0c-b71d-7d82-860f-d5ed05f89020"",""projectId"":""0198b9d0-29d4-7df3-8625-4b4515841beb""}","https://test12345.live/?num_scrambled_semantic=8&num_scrambled_causal=4&num_scrambled_schematic=4&participantId=E52BBDBACEAD4955B2BFCDF31CC0ACF4&assignmentId=0198ba0c-b71d-7d82-860f-d5ed05f89020&projectId=0198b9d0-29d4-7df3-8625-4b4515841beb","E52BBDBACEAD4955B2BFCDF31CC0ACF4-2025-08-17-22-40-46","","784","","images/semantic_sequence/maintaining_a_car_semantic/maintaining_a_car_semantic_6.png","0","",""
"","","","","","image-button-response","97","447657","0.0-14.0-1.0-2.2","E52BBDBACEAD4955B2BFCDF31CC0ACF4","E52BBDBACEAD4955B2BFCDF31CC0ACF4","0198ba0c-b71d-7d82-860f-d5ed05f89020","0198b9d0-29d4-7df3-8625-4b4515841beb","{""num_scrambled_semantic"":""8"",""num_scrambled_causal"":""4"",""num_scrambled_schematic"":""4"",""participantId"":""E52BBDBACEAD4955B2BFCDF31CC0ACF4"",""assignmentId"":""0198ba0c-b71d-7d82-860f-d5ed05f89020"",""projectId"":""0198b9d0-29d4-7df3-8625-4b4515841beb""}","https://test12345.live/?num_scrambled_semantic=8&num_scrambled_causal=4&num_scrambled_schematic=4&participantId=E52BBDBACEAD4955B2BFCDF31CC0ACF4&assignmentId=0198ba0c-b71d-7d82-860f-d5ed05f89020&projectId=0198b9d0-29d4-7df3-8625-4b4515841beb","E52BBDBACEAD4955B2BFCDF31CC0ACF4-2025-08-17-22-40-46","","null","","[]","null","",""
"","","","","","image-button-response","98","452162","0.0-14.0-1.0-0.3","E52BBDBACEAD4955B2BFCDF31CC0ACF4","E52BBDBACEAD4955B2BFCDF31CC0ACF4","0198ba0c-b71d-7d82-860f-d5ed05f89020","0198b9d0-29d4-7df3-8625-4b4515841beb","{""num_scrambled_semantic"":""8"",""num_scrambled_causal"":""4"",""num_scrambled_schematic"":""4"",""participantId"":""E52BBDBACEAD4955B2BFCDF31CC0ACF4"",""assignmentId"":""0198ba0c-b71d-7d82-860f-d5ed05f89020"",""projectId"":""0198b9d0-29d4-7df3-8625-4b4515841beb""}","https://test12345.live/?num_scrambled_semantic=8&num_scrambled_causal=4&num_scrambled_schematic=4&participantId=E52BBDBACEAD4955B2BFCDF31CC0ACF4&assignmentId=0198ba0c-b71d-7d82-860f-d5ed05f89020&projectId=0198b9d0-29d4-7df3-8625-4b4515841beb","E52BBDBACEAD4955B2BFCDF31CC0ACF4-2025-08-17-22-40-46","","null","","images/semantic_sequence/maintaining_a_car_semantic/maintaining_a_car_semantic_7.png","null","",""
"","","","","","image-button-response","99","452855","0.0-14.0-1.0-1.3","E52BBDBACEAD4955B2BFCDF31CC0ACF4","E52BBDBACEAD4955B2BFCDF31CC0ACF4","0198ba0c-b71d-7d82-860f-d5ed05f89020","0198b9d0-29d4-7df3-8625-4b4515841beb","{""num_scrambled_semantic"":""8"",""num_scrambled_causal"":""4"",""num_scrambled_schematic"":""4"",""participantId"":""E52BBDBACEAD4955B2BFCDF31CC0ACF4"",""assignmentId"":""0198ba0c-b71d-7d82-860f-d5ed05f89020"",""projectId"":""0198b9d0-29d4-7df3-8625-4b4515841beb""}","https://test12345.live/?num_scrambled_semantic=8&num_scrambled_causal=4&num_scrambled_schematic=4&participantId=E52BBDBACEAD4955B2BFCDF31CC0ACF4&assignmentId=0198ba0c-b71d-7d82-860f-d5ed05f89020&projectId=0198b9d0-29d4-7df3-8625-4b4515841beb","E52BBDBACEAD4955B2BFCDF31CC0ACF4-2025-08-17-22-40-46","","691","","images/semantic_sequence/maintaining_a_car_semantic/maintaining_a_car_semantic_7.png","0","",""
"","","","","","image-button-response","100","458260","0.0-14.0-1.0-2.3","E52BBDBACEAD4955B2BFCDF31CC0ACF4","E52BBDBACEAD4955B2BFCDF31CC0ACF4","0198ba0c-b71d-7d82-860f-d5ed05f89020","0198b9d0-29d4-7df3-8625-4b4515841beb","{""num_scrambled_semantic"":""8"",""num_scrambled_causal"":""4"",""num_scrambled_schematic"":""4"",""participantId"":""E52BBDBACEAD4955B2BFCDF31CC0ACF4"",""assignmentId"":""0198ba0c-b71d-7d82-860f-d5ed05f89020"",""projectId"":""0198b9d0-29d4-7df3-8625-4b4515841beb""}","https://test12345.live/?num_scrambled_semantic=8&num_scrambled_causal=4&num_scrambled_schematic=4&participantId=E52BBDBACEAD4955B2BFCDF31CC0ACF4&assignmentId=0198ba0c-b71d-7d82-860f-d5ed05f89020&projectId=0198b9d0-29d4-7df3-8625-4b4515841beb","E52BBDBACEAD4955B2BFCDF31CC0ACF4-2025-08-17-22-40-46","","null","","[]","null","",""
"","","","","","image-button-response","101","462765","0.0-14.0-1.0-0.4","E52BBDBACEAD4955B2BFCDF31CC0ACF4","E52BBDBACEAD4955B2BFCDF31CC0ACF4","0198ba0c-b71d-7d82-860f-d5ed05f89020","0198b9d0-29d4-7df3-8625-4b4515841beb","{""num_scrambled_semantic"":""8"",""num_scrambled_causal"":""4"",""num_scrambled_schematic"":""4"",""participantId"":""E52BBDBACEAD4955B2BFCDF31CC0ACF4"",""assignmentId"":""0198ba0c-b71d-7d82-860f-d5ed05f89020"",""projectId"":""0198b9d0-29d4-7df3-8625-4b4515841beb""}","https://test12345.live/?num_scrambled_semantic=8&num_scrambled_causal=4&num_scrambled_schematic=4&participantId=E52BBDBACEAD4955B2BFCDF31CC0ACF4&assignmentId=0198ba0c-b71d-7d82-860f-d5ed05f89020&projectId=0198b9d0-29d4-7df3-8625-4b4515841beb","E52BBDBACEAD4955B2BFCDF31CC0ACF4-2025-08-17-22-40-46","","null","","images/semantic_sequence/maintaining_a_car_semantic/maintaining_a_car_semantic_3.png","null","",""
"","","","","","image-button-response","102","463428","0.0-14.0-1.0-1.4","E52BBDBACEAD4955B2BFCDF31CC0ACF4","E52BBDBACEAD4955B2BFCDF31CC0ACF4","0198ba0c-b71d-7d82-860f-d5ed05f89020","0198b9d0-29d4-7df3-8625-4b4515841beb","{""num_scrambled_semantic"":""8"",""num_scrambled_causal"":""4"",""num_scrambled_schematic"":""4"",""participantId"":""E52BBDBACEAD4955B2BFCDF31CC0ACF4"",""assignmentId"":""0198ba0c-b71d-7d82-860f-d5ed05f89020"",""projectId"":""0198b9d0-29d4-7df3-8625-4b4515841beb""}","https://test12345.live/?num_scrambled_semantic=8&num_scrambled_causal=4&num_scrambled_schematic=4&participantId=E52BBDBACEAD4955B2BFCDF31CC0ACF4&assignmentId=0198ba0c-b71d-7d82-860f-d5ed05f89020&projectId=0198b9d0-29d4-7df3-8625-4b4515841beb","E52BBDBACEAD4955B2BFCDF31CC0ACF4-2025-08-17-22-40-46","","660","","images/semantic_sequence/maintaining_a_car_semantic/maintaining_a_car_semantic_3.png","0","",""
"","","","","","image-button-response","103","468831","0.0-14.0-1.0-2.4","E52BBDBACEAD4955B2BFCDF31CC0ACF4","E52BBDBACEAD4955B2BFCDF31CC0ACF4","0198ba0c-b71d-7d82-860f-d5ed05f89020","0198b9d0-29d4-7df3-8625-4b4515841beb","{""num_scrambled_semantic"":""8"",""num_scrambled_causal"":""4"",""num_scrambled_schematic"":""4"",""participantId"":""E52BBDBACEAD4955B2BFCDF31CC0ACF4"",""assignmentId"":""0198ba0c-b71d-7d82-860f-d5ed05f89020"",""projectId"":""0198b9d0-29d4-7df3-8625-4b4515841beb""}","https://test12345.live/?num_scrambled_semantic=8&num_scrambled_causal=4&num_scrambled_schematic=4&participantId=E52BBDBACEAD4955B2BFCDF31CC0ACF4&assignmentId=0198ba0c-b71d-7d82-860f-d5ed05f89020&projectId=0198b9d0-29d4-7df3-8625-4b4515841beb","E52BBDBACEAD4955B2BFCDF31CC0ACF4-2025-08-17-22-40-46","","null","","[]","null","",""
"","","","","","image-button-response","104","473338","0.0-14.0-1.0-0.5","E52BBDBACEAD4955B2BFCDF31CC0ACF4","E52BBDBACEAD4955B2BFCDF31CC0ACF4","0198ba0c-b71d-7d82-860f-d5ed05f89020","0198b9d0-29d4-7df3-8625-4b4515841beb","{""num_scrambled_semantic"":""8"",""num_scrambled_causal"":""4"",""num_scrambled_schematic"":""4"",""participantId"":""E52BBDBACEAD4955B2BFCDF31CC0ACF4"",""assignmentId"":""0198ba0c-b71d-7d82-860f-d5ed05f89020"",""projectId"":""0198b9d0-29d4-7df3-8625-4b4515841beb""}","https://test12345.live/?num_scrambled_semantic=8&num_scrambled_causal=4&num_scrambled_schematic=4&participantId=E52BBDBACEAD4955B2BFCDF31CC0ACF4&assignmentId=0198ba0c-b71d-7d82-860f-d5ed05f89020&projectId=0198b9d0-29d4-7df3-8625-4b4515841beb","E52BBDBACEAD4955B2BFCDF31CC0ACF4-2025-08-17-22-40-46","","null","","images/semantic_sequence/maintaining_a_car_semantic/maintaining_a_car_semantic_ten.png","null","",""
"","","","","","image-button-response","105","474287","0.0-14.0-1.0-1.5","E52BBDBACEAD4955B2BFCDF31CC0ACF4","E52BBDBACEAD4955B2BFCDF31CC0ACF4","0198ba0c-b71d-7d82-860f-d5ed05f89020","0198b9d0-29d4-7df3-8625-4b4515841beb","{""num_scrambled_semantic"":""8"",""num_scrambled_causal"":""4"",""num_scrambled_schematic"":""4"",""participantId"":""E52BBDBACEAD4955B2BFCDF31CC0ACF4"",""assignmentId"":""0198ba0c-b71d-7d82-860f-d5ed05f89020"",""projectId"":""0198b9d0-29d4-7df3-8625-4b4515841beb""}","https://test12345.live/?num_scrambled_semantic=8&num_scrambled_causal=4&num_scrambled_schematic=4&participantId=E52BBDBACEAD4955B2BFCDF31CC0ACF4&assignmentId=0198ba0c-b71d-7d82-860f-d5ed05f89020&projectId=0198b9d0-29d4-7df3-8625-4b4515841beb","E52BBDBACEAD4955B2BFCDF31CC0ACF4-2025-08-17-22-40-46","","948","","images/semantic_sequence/maintaining_a_car_semantic/maintaining_a_car_semantic_ten.png","0","",""
"","","","","","image-button-response","106","479694","0.0-14.0-1.0-2.5","E52BBDBACEAD4955B2BFCDF31CC0ACF4","E52BBDBACEAD4955B2BFCDF31CC0ACF4","0198ba0c-b71d-7d82-860f-d5ed05f89020","0198b9d0-29d4-7df3-8625-4b4515841beb","{""num_scrambled_semantic"":""8"",""num_scrambled_causal"":""4"",""num_scrambled_schematic"":""4"",""participantId"":""E52BBDBACEAD4955B2BFCDF31CC0ACF4"",""assignmentId"":""0198ba0c-b71d-7d82-860f-d5ed05f89020"",""projectId"":""0198b9d0-29d4-7df3-8625-4b4515841beb""}","https://test12345.live/?num_scrambled_semantic=8&num_scrambled_causal=4&num_scrambled_schematic=4&participantId=E52BBDBACEAD4955B2BFCDF31CC0ACF4&assignmentId=0198ba0c-b71d-7d82-860f-d5ed05f89020&projectId=0198b9d0-29d4-7df3-8625-4b4515841beb","E52BBDBACEAD4955B2BFCDF31CC0ACF4-2025-08-17-22-40-46","","null","","[]","null","",""
"","","","","","image-button-response","107","484197","0.0-14.0-1.0-0.6","E52BBDBACEAD4955B2BFCDF31CC0ACF4","E52BBDBACEAD4955B2BFCDF31CC0ACF4","0198ba0c-b71d-7d82-860f-d5ed05f89020","0198b9d0-29d4-7df3-8625-4b4515841beb","{""num_scrambled_semantic"":""8"",""num_scrambled_causal"":""4"",""num_scrambled_schematic"":""4"",""participantId"":""E52BBDBACEAD4955B2BFCDF31CC0ACF4"",""assignmentId"":""0198ba0c-b71d-7d82-860f-d5ed05f89020"",""projectId"":""0198b9d0-29d4-7df3-8625-4b4515841beb""}","https://test12345.live/?num_scrambled_semantic=8&num_scrambled_causal=4&num_scrambled_schematic=4&participantId=E52BBDBACEAD4955B2BFCDF31CC0ACF4&assignmentId=0198ba0c-b71d-7d82-860f-d5ed05f89020&projectId=0198b9d0-29d4-7df3-8625-4b4515841beb","E52BBDBACEAD4955B2BFCDF31CC0ACF4-2025-08-17-22-40-46","","null","","images/semantic_sequence/maintaining_a_car_semantic/maintaining_a_car_semantic_2.png","null","",""
"","","","","","image-button-response","108","485016","0.0-14.0-1.0-1.6","E52BBDBACEAD4955B2BFCDF31CC0ACF4","E52BBDBACEAD4955B2BFCDF31CC0ACF4","0198ba0c-b71d-7d82-860f-d5ed05f89020","0198b9d0-29d4-7df3-8625-4b4515841beb","{""num_scrambled_semantic"":""8"",""num_scrambled_causal"":""4"",""num_scrambled_schematic"":""4"",""participantId"":""E52BBDBACEAD4955B2BFCDF31CC0ACF4"",""assignmentId"":""0198ba0c-b71d-7d82-860f-d5ed05f89020"",""projectId"":""0198b9d0-29d4-7df3-8625-4b4515841beb""}","https://test12345.live/?num_scrambled_semantic=8&num_scrambled_causal=4&num_scrambled_schematic=4&participantId=E52BBDBACEAD4955B2BFCDF31CC0ACF4&assignmentId=0198ba0c-b71d-7d82-860f-d5ed05f89020&projectId=0198b9d0-29d4-7df3-8625-4b4515841beb","E52BBDBACEAD4955B2BFCDF31CC0ACF4-2025-08-17-22-40-46","","817","","images/semantic_sequence/maintaining_a_car_semantic/maintaining_a_car_semantic_2.png","0","",""
"","","","","","image-button-response","109","490422","0.0-14.0-1.0-2.6","E52BBDBACEAD4955B2BFCDF31CC0ACF4","E52BBDBACEAD4955B2BFCDF31CC0ACF4","0198ba0c-b71d-7d82-860f-d5ed05f89020","0198b9d0-29d4-7df3-8625-4b4515841beb","{""num_scrambled_semantic"":""8"",""num_scrambled_causal"":""4"",""num_scrambled_schematic"":""4"",""participantId"":""E52BBDBACEAD4955B2BFCDF31CC0ACF4"",""assignmentId"":""0198ba0c-b71d-7d82-860f-d5ed05f89020"",""projectId"":""0198b9d0-29d4-7df3-8625-4b4515841beb""}","https://test12345.live/?num_scrambled_semantic=8&num_scrambled_causal=4&num_scrambled_schematic=4&participantId=E52BBDBACEAD4955B2BFCDF31CC0ACF4&assignmentId=0198ba0c-b71d-7d82-860f-d5ed05f89020&projectId=0198b9d0-29d4-7df3-8625-4b4515841beb","E52BBDBACEAD4955B2BFCDF31CC0ACF4-2025-08-17-22-40-46","","null","","[]","null","",""
"","","","","","image-button-response","110","494924","0.0-14.0-1.0-0.7","E52BBDBACEAD4955B2BFCDF31CC0ACF4","E52BBDBACEAD4955B2BFCDF31CC0ACF4","0198ba0c-b71d-7d82-860f-d5ed05f89020","0198b9d0-29d4-7df3-8625-4b4515841beb","{""num_scrambled_semantic"":""8"",""num_scrambled_causal"":""4"",""num_scrambled_schematic"":""4"",""participantId"":""E52BBDBACEAD4955B2BFCDF31CC0ACF4"",""assignmentId"":""0198ba0c-b71d-7d82-860f-d5ed05f89020"",""projectId"":""0198b9d0-29d4-7df3-8625-4b4515841beb""}","https://test12345.live/?num_scrambled_semantic=8&num_scrambled_causal=4&num_scrambled_schematic=4&participantId=E52BBDBACEAD4955B2BFCDF31CC0ACF4&assignmentId=0198ba0c-b71d-7d82-860f-d5ed05f89020&projectId=0198b9d0-29d4-7df3-8625-4b4515841beb","E52BBDBACEAD4955B2BFCDF31CC0ACF4-2025-08-17-22-40-46","","null","","images/semantic_sequence/maintaining_a_car_semantic/maintaining_a_car_semantic_1.png","null","",""
"","","","","","image-button-response","111","495934","0.0-14.0-1.0-1.7","E52BBDBACEAD4955B2BFCDF31CC0ACF4","E52BBDBACEAD4955B2BFCDF31CC0ACF4","0198ba0c-b71d-7d82-860f-d5ed05f89020","0198b9d0-29d4-7df3-8625-4b4515841beb","{""num_scrambled_semantic"":""8"",""num_scrambled_causal"":""4"",""num_scrambled_schematic"":""4"",""participantId"":""E52BBDBACEAD4955B2BFCDF31CC0ACF4"",""assignmentId"":""0198ba0c-b71d-7d82-860f-d5ed05f89020"",""projectId"":""0198b9d0-29d4-7df3-8625-4b4515841beb""}","https://test12345.live/?num_scrambled_semantic=8&num_scrambled_causal=4&num_scrambled_schematic=4&participantId=E52BBDBACEAD4955B2BFCDF31CC0ACF4&assignmentId=0198ba0c-b71d-7d82-860f-d5ed05f89020&projectId=0198b9d0-29d4-7df3-8625-4b4515841beb","E52BBDBACEAD4955B2BFCDF31CC0ACF4-2025-08-17-22-40-46","","1008","","images/semantic_sequence/maintaining_a_car_semantic/maintaining_a_car_semantic_1.png","0","",""
"","","","","","image-button-response","112","501339","0.0-14.0-1.0-2.7","E52BBDBACEAD4955B2BFCDF31CC0ACF4","E52BBDBACEAD4955B2BFCDF31CC0ACF4","0198ba0c-b71d-7d82-860f-d5ed05f89020","0198b9d0-29d4-7df3-8625-4b4515841beb","{""num_scrambled_semantic"":""8"",""num_scrambled_causal"":""4"",""num_scrambled_schematic"":""4"",""participantId"":""E52BBDBACEAD4955B2BFCDF31CC0ACF4"",""assignmentId"":""0198ba0c-b71d-7d82-860f-d5ed05f89020"",""projectId"":""0198b9d0-29d4-7df3-8625-4b4515841beb""}","https://test12345.live/?num_scrambled_semantic=8&num_scrambled_causal=4&num_scrambled_schematic=4&participantId=E52BBDBACEAD4955B2BFCDF31CC0ACF4&assignmentId=0198ba0c-b71d-7d82-860f-d5ed05f89020&projectId=0198b9d0-29d4-7df3-8625-4b4515841beb","E52BBDBACEAD4955B2BFCDF31CC0ACF4-2025-08-17-22-40-46","","null","","[]","null","",""
"","","","","","image-button-response","113","505846","0.0-14.0-1.0-0.8","E52BBDBACEAD4955B2BFCDF31CC0ACF4","E52BBDBACEAD4955B2BFCDF31CC0ACF4","0198ba0c-b71d-7d82-860f-d5ed05f89020","0198b9d0-29d4-7df3-8625-4b4515841beb","{""num_scrambled_semantic"":""8"",""num_scrambled_causal"":""4"",""num_scrambled_schematic"":""4"",""participantId"":""E52BBDBACEAD4955B2BFCDF31CC0ACF4"",""assignmentId"":""0198ba0c-b71d-7d82-860f-d5ed05f89020"",""projectId"":""0198b9d0-29d4-7df3-8625-4b4515841beb""}","https://test12345.live/?num_scrambled_semantic=8&num_scrambled_causal=4&num_scrambled_schematic=4&participantId=E52BBDBACEAD4955B2BFCDF31CC0ACF4&assignmentId=0198ba0c-b71d-7d82-860f-d5ed05f89020&projectId=0198b9d0-29d4-7df3-8625-4b4515841beb","E52BBDBACEAD4955B2BFCDF31CC0ACF4-2025-08-17-22-40-46","","null","","images/semantic_sequence/maintaining_a_car_semantic/maintaining_a_car_semantic_5.png","null","",""
"","","","","","image-button-response","114","506736","0.0-14.0-1.0-1.8","E52BBDBACEAD4955B2BFCDF31CC0ACF4","E52BBDBACEAD4955B2BFCDF31CC0ACF4","0198ba0c-b71d-7d82-860f-d5ed05f89020","0198b9d0-29d4-7df3-8625-4b4515841beb","{""num_scrambled_semantic"":""8"",""num_scrambled_causal"":""4"",""num_scrambled_schematic"":""4"",""participantId"":""E52BBDBACEAD4955B2BFCDF31CC0ACF4"",""assignmentId"":""0198ba0c-b71d-7d82-860f-d5ed05f89020"",""projectId"":""0198b9d0-29d4-7df3-8625-4b4515841beb""}","https://test12345.live/?num_scrambled_semantic=8&num_scrambled_causal=4&num_scrambled_schematic=4&participantId=E52BBDBACEAD4955B2BFCDF31CC0ACF4&assignmentId=0198ba0c-b71d-7d82-860f-d5ed05f89020&projectId=0198b9d0-29d4-7df3-8625-4b4515841beb","E52BBDBACEAD4955B2BFCDF31CC0ACF4-2025-08-17-22-40-46","","889","","images/semantic_sequence/maintaining_a_car_semantic/maintaining_a_car_semantic_5.png","0","",""
