"success","timeout","failed_images","failed_audio","failed_video","trial_type","trial_index","time_elapsed","internal_node_id","subject","subject_id","study_id","session_id","urlvar","current_url","audio_id","view_history","rt","device_id","stimulus","response","estimated_stimulus_onset","seq_name"
"true","false","[]","[]","[]","preload","0","6777","0.0-0.0","E667F3EBE3634605B2953BFAA3A0A434","E667F3EBE3634605B2953BFAA3A0A434","0198beaf-2390-714c-a085-42a6312f6d24","0198be8b-78cf-72d2-ba2b-1e62c78022e0","{""num_scrambled_semantic"":""8"",""num_scrambled_causal"":""4"",""num_scrambled_schematic"":""4"",""participantId"":""E667F3EBE3634605B2953BFAA3A0A434"",""assignmentId"":""0198beaf-2390-714c-a085-42a6312f6d24"",""projectId"":""0198be8b-78cf-72d2-ba2b-1e62c78022e0""}","https://test12345.live/?num_scrambled_semantic=8&num_scrambled_causal=4&num_scrambled_schematic=4&participantId=E667F3EBE3634605B2953BFAA3A0A434&assignmentId=0198beaf-2390-714c-a085-42a6312f6d24&projectId=0198be8b-78cf-72d2-ba2b-1e62c78022e0","E667F3EBE3634605B2953BFAA3A0A434-2025-08-18-20-13-59","","","","","","",""
"","","","","","instructions","1","30423","0.0-1.0","E667F3EBE3634605B2953BFAA3A0A434","E667F3EBE3634605B2953BFAA3A0A434","0198beaf-2390-714c-a085-42a6312f6d24","0198be8b-78cf-72d2-ba2b-1e62c78022e0","{""num_scrambled_semantic"":""8"",""num_scrambled_causal"":""4"",""num_scrambled_schematic"":""4"",""participantId"":""E667F3EBE3634605B2953BFAA3A0A434"",""assignmentId"":""0198beaf-2390-714c-a085-42a6312f6d24"",""projectId"":""0198be8b-78cf-72d2-ba2b-1e62c78022e0""}","https://test12345.live/?num_scrambled_semantic=8&num_scrambled_causal=4&num_scrambled_schematic=4&participantId=E667F3EBE3634605B2953BFAA3A0A434&assignmentId=0198beaf-2390-714c-a085-42a6312f6d24&projectId=0198be8b-78cf-72d2-ba2b-1e62c78022e0","E667F3EBE3634605B2953BFAA3A0A434-2025-08-18-20-13-59","[{""page_index"":0,""viewing_time"":23643}]","23645","","","","",""
"","","","","","instructions","2","39213","0.0-2.0","E667F3EBE3634605B2953BFAA3A0A434","E667F3EBE3634605B2953BFAA3A0A434","0198beaf-2390-714c-a085-42a6312f6d24","0198be8b-78cf-72d2-ba2b-1e62c78022e0","{""num_scrambled_semantic"":""8"",""num_scrambled_causal"":""4"",""num_scrambled_schematic"":""4"",""participantId"":""E667F3EBE3634605B2953BFAA3A0A434"",""assignmentId"":""0198beaf-2390-714c-a085-42a6312f6d24"",""projectId"":""0198be8b-78cf-72d2-ba2b-1e62c78022e0""}","https://test12345.live/?num_scrambled_semantic=8&num_scrambled_causal=4&num_scrambled_schematic=4&participantId=E667F3EBE3634605B2953BFAA3A0A434&assignmentId=0198beaf-2390-714c-a085-42a6312f6d24&projectId=0198be8b-78cf-72d2-ba2b-1e62c78022e0","E667F3EBE3634605B2953BFAA3A0A434-2025-08-18-20-13-59","[{""page_index"":0,""viewing_time"":8787}]","8788","","","","",""
"true","","","","","fullscreen","3","42653","0.0-3.0","E667F3EBE3634605B2953BFAA3A0A434","E667F3EBE3634605B2953BFAA3A0A434","0198beaf-2390-714c-a085-42a6312f6d24","0198be8b-78cf-72d2-ba2b-1e62c78022e0","{""num_scrambled_semantic"":""8"",""num_scrambled_causal"":""4"",""num_scrambled_schematic"":""4"",""participantId"":""E667F3EBE3634605B2953BFAA3A0A434"",""assignmentId"":""0198beaf-2390-714c-a085-42a6312f6d24"",""projectId"":""0198be8b-78cf-72d2-ba2b-1e62c78022e0""}","https://test12345.live/?num_scrambled_semantic=8&num_scrambled_causal=4&num_scrambled_schematic=4&participantId=E667F3EBE3634605B2953BFAA3A0A434&assignmentId=0198beaf-2390-714c-a085-42a6312f6d24&projectId=0198be8b-78cf-72d2-ba2b-1e62c78022e0","E667F3EBE3634605B2953BFAA3A0A434-2025-08-18-20-13-59","","2424","","","","",""
"","","","","","initialize-microphone","4","50908","0.0-4.0-0.0","E667F3EBE3634605B2953BFAA3A0A434","E667F3EBE3634605B2953BFAA3A0A434","0198beaf-2390-714c-a085-42a6312f6d24","0198be8b-78cf-72d2-ba2b-1e62c78022e0","{""num_scrambled_semantic"":""8"",""num_scrambled_causal"":""4"",""num_scrambled_schematic"":""4"",""participantId"":""E667F3EBE3634605B2953BFAA3A0A434"",""assignmentId"":""0198beaf-2390-714c-a085-42a6312f6d24"",""projectId"":""0198be8b-78cf-72d2-ba2b-1e62c78022e0""}","https://test12345.live/?num_scrambled_semantic=8&num_scrambled_causal=4&num_scrambled_schematic=4&participantId=E667F3EBE3634605B2953BFAA3A0A434&assignmentId=0198beaf-2390-714c-a085-42a6312f6d24&projectId=0198be8b-78cf-72d2-ba2b-1e62c78022e0","E667F3EBE3634605B2953BFAA3A0A434-2025-08-18-20-13-59","","","073ce68817506e30a95863546322fb3fced75d7ea5e8dfc853ec9bc58214ba66","","","",""
"","","","","","html-audio-response","5","72223","0.0-4.0-1.0","E667F3EBE3634605B2953BFAA3A0A434","E667F3EBE3634605B2953BFAA3A0A434","0198beaf-2390-714c-a085-42a6312f6d24","0198be8b-78cf-72d2-ba2b-1e62c78022e0","{""num_scrambled_semantic"":""8"",""num_scrambled_causal"":""4"",""num_scrambled_schematic"":""4"",""participantId"":""E667F3EBE3634605B2953BFAA3A0A434"",""assignmentId"":""0198beaf-2390-714c-a085-42a6312f6d24"",""projectId"":""0198be8b-78cf-72d2-ba2b-1e62c78022e0""}","https://test12345.live/?num_scrambled_semantic=8&num_scrambled_causal=4&num_scrambled_schematic=4&participantId=E667F3EBE3634605B2953BFAA3A0A434&assignmentId=0198beaf-2390-714c-a085-42a6312f6d24&projectId=0198be8b-78cf-72d2-ba2b-1e62c78022e0","E667F3EBE3634605B2953BFAA3A0A434-2025-08-18-20-13-59","","8681","","<span style=""color: red; font-size: 24px""> NOW RECORDING</span>
        <p>Please test Microphone</p>","","18",""
"","","","","","html-button-response","6","74384","0.0-4.0-2.0","E667F3EBE3634605B2953BFAA3A0A434","E667F3EBE3634605B2953BFAA3A0A434","0198beaf-2390-714c-a085-42a6312f6d24","0198be8b-78cf-72d2-ba2b-1e62c78022e0","{""num_scrambled_semantic"":""8"",""num_scrambled_causal"":""4"",""num_scrambled_schematic"":""4"",""participantId"":""E667F3EBE3634605B2953BFAA3A0A434"",""assignmentId"":""0198beaf-2390-714c-a085-42a6312f6d24"",""projectId"":""0198be8b-78cf-72d2-ba2b-1e62c78022e0""}","https://test12345.live/?num_scrambled_semantic=8&num_scrambled_causal=4&num_scrambled_schematic=4&participantId=E667F3EBE3634605B2953BFAA3A0A434&assignmentId=0198beaf-2390-714c-a085-42a6312f6d24&projectId=0198be8b-78cf-72d2-ba2b-1e62c78022e0","E667F3EBE3634605B2953BFAA3A0A434-2025-08-18-20-13-59","","2159","","<p style=""font-size:48px; color:red;"">Is Microphone OK?</p>","1","",""
"","","","","","instructions","7","95348","0.0-5.0","E667F3EBE3634605B2953BFAA3A0A434","E667F3EBE3634605B2953BFAA3A0A434","0198beaf-2390-714c-a085-42a6312f6d24","0198be8b-78cf-72d2-ba2b-1e62c78022e0","{""num_scrambled_semantic"":""8"",""num_scrambled_causal"":""4"",""num_scrambled_schematic"":""4"",""participantId"":""E667F3EBE3634605B2953BFAA3A0A434"",""assignmentId"":""0198beaf-2390-714c-a085-42a6312f6d24"",""projectId"":""0198be8b-78cf-72d2-ba2b-1e62c78022e0""}","https://test12345.live/?num_scrambled_semantic=8&num_scrambled_causal=4&num_scrambled_schematic=4&participantId=E667F3EBE3634605B2953BFAA3A0A434&assignmentId=0198beaf-2390-714c-a085-42a6312f6d24&projectId=0198be8b-78cf-72d2-ba2b-1e62c78022e0","E667F3EBE3634605B2953BFAA3A0A434-2025-08-18-20-13-59","[{""page_index"":0,""viewing_time"":12922},{""page_index"":1,""viewing_time"":8040}]","20962","","","","",""
"","","","","","image-button-response","8","101363","0.0-6.0-0.0","E667F3EBE3634605B2953BFAA3A0A434","E667F3EBE3634605B2953BFAA3A0A434","0198beaf-2390-714c-a085-42a6312f6d24","0198be8b-78cf-72d2-ba2b-1e62c78022e0","{""num_scrambled_semantic"":""8"",""num_scrambled_causal"":""4"",""num_scrambled_schematic"":""4"",""participantId"":""E667F3EBE3634605B2953BFAA3A0A434"",""assignmentId"":""0198beaf-2390-714c-a085-42a6312f6d24"",""projectId"":""0198be8b-78cf-72d2-ba2b-1e62c78022e0""}","https://test12345.live/?num_scrambled_semantic=8&num_scrambled_causal=4&num_scrambled_schematic=4&participantId=E667F3EBE3634605B2953BFAA3A0A434&assignmentId=0198beaf-2390-714c-a085-42a6312f6d24&projectId=0198be8b-78cf-72d2-ba2b-1e62c78022e0","E667F3EBE3634605B2953BFAA3A0A434-2025-08-18-20-13-59","","null","","images/instructions/movie_0.png","null","",""
"","","","","","image-button-response","9","105869","0.0-6.0-1.0-0.0","E667F3EBE3634605B2953BFAA3A0A434","E667F3EBE3634605B2953BFAA3A0A434","0198beaf-2390-714c-a085-42a6312f6d24","0198be8b-78cf-72d2-ba2b-1e62c78022e0","{""num_scrambled_semantic"":""8"",""num_scrambled_causal"":""4"",""num_scrambled_schematic"":""4"",""participantId"":""E667F3EBE3634605B2953BFAA3A0A434"",""assignmentId"":""0198beaf-2390-714c-a085-42a6312f6d24"",""projectId"":""0198be8b-78cf-72d2-ba2b-1e62c78022e0""}","https://test12345.live/?num_scrambled_semantic=8&num_scrambled_causal=4&num_scrambled_schematic=4&participantId=E667F3EBE3634605B2953BFAA3A0A434&assignmentId=0198beaf-2390-714c-a085-42a6312f6d24&projectId=0198be8b-78cf-72d2-ba2b-1e62c78022e0","E667F3EBE3634605B2953BFAA3A0A434-2025-08-18-20-13-59","","null","","images/instructions/movie_1.png","null","",""
"","","","","","image-button-response","10","109348","0.0-6.0-1.0-1.0","E667F3EBE3634605B2953BFAA3A0A434","E667F3EBE3634605B2953BFAA3A0A434","0198beaf-2390-714c-a085-42a6312f6d24","0198be8b-78cf-72d2-ba2b-1e62c78022e0","{""num_scrambled_semantic"":""8"",""num_scrambled_causal"":""4"",""num_scrambled_schematic"":""4"",""participantId"":""E667F3EBE3634605B2953BFAA3A0A434"",""assignmentId"":""0198beaf-2390-714c-a085-42a6312f6d24"",""projectId"":""0198be8b-78cf-72d2-ba2b-1e62c78022e0""}","https://test12345.live/?num_scrambled_semantic=8&num_scrambled_causal=4&num_scrambled_schematic=4&participantId=E667F3EBE3634605B2953BFAA3A0A434&assignmentId=0198beaf-2390-714c-a085-42a6312f6d24&projectId=0198be8b-78cf-72d2-ba2b-1e62c78022e0","E667F3EBE3634605B2953BFAA3A0A434-2025-08-18-20-13-59","","3475","","images/instructions/movie_1.png","0","",""
"","","","","","image-button-response","11","111164","0.0-6.0-1.0-2.0","E667F3EBE3634605B2953BFAA3A0A434","E667F3EBE3634605B2953BFAA3A0A434","0198beaf-2390-714c-a085-42a6312f6d24","0198be8b-78cf-72d2-ba2b-1e62c78022e0","{""num_scrambled_semantic"":""8"",""num_scrambled_causal"":""4"",""num_scrambled_schematic"":""4"",""participantId"":""E667F3EBE3634605B2953BFAA3A0A434"",""assignmentId"":""0198beaf-2390-714c-a085-42a6312f6d24"",""projectId"":""0198be8b-78cf-72d2-ba2b-1e62c78022e0""}","https://test12345.live/?num_scrambled_semantic=8&num_scrambled_causal=4&num_scrambled_schematic=4&participantId=E667F3EBE3634605B2953BFAA3A0A434&assignmentId=0198beaf-2390-714c-a085-42a6312f6d24&projectId=0198be8b-78cf-72d2-ba2b-1e62c78022e0","E667F3EBE3634605B2953BFAA3A0A434-2025-08-18-20-13-59","","null","","[]","null","",""
"","","","","","image-button-response","12","115676","0.0-6.0-1.0-0.1","E667F3EBE3634605B2953BFAA3A0A434","E667F3EBE3634605B2953BFAA3A0A434","0198beaf-2390-714c-a085-42a6312f6d24","0198be8b-78cf-72d2-ba2b-1e62c78022e0","{""num_scrambled_semantic"":""8"",""num_scrambled_causal"":""4"",""num_scrambled_schematic"":""4"",""participantId"":""E667F3EBE3634605B2953BFAA3A0A434"",""assignmentId"":""0198beaf-2390-714c-a085-42a6312f6d24"",""projectId"":""0198be8b-78cf-72d2-ba2b-1e62c78022e0""}","https://test12345.live/?num_scrambled_semantic=8&num_scrambled_causal=4&num_scrambled_schematic=4&participantId=E667F3EBE3634605B2953BFAA3A0A434&assignmentId=0198beaf-2390-714c-a085-42a6312f6d24&projectId=0198be8b-78cf-72d2-ba2b-1e62c78022e0","E667F3EBE3634605B2953BFAA3A0A434-2025-08-18-20-13-59","","null","","images/instructions/movie_2.png","null","",""
"","","","","","image-button-response","13","119678","0.0-6.0-1.0-1.1","E667F3EBE3634605B2953BFAA3A0A434","E667F3EBE3634605B2953BFAA3A0A434","0198beaf-2390-714c-a085-42a6312f6d24","0198be8b-78cf-72d2-ba2b-1e62c78022e0","{""num_scrambled_semantic"":""8"",""num_scrambled_causal"":""4"",""num_scrambled_schematic"":""4"",""participantId"":""E667F3EBE3634605B2953BFAA3A0A434"",""assignmentId"":""0198beaf-2390-714c-a085-42a6312f6d24"",""projectId"":""0198be8b-78cf-72d2-ba2b-1e62c78022e0""}","https://test12345.live/?num_scrambled_semantic=8&num_scrambled_causal=4&num_scrambled_schematic=4&participantId=E667F3EBE3634605B2953BFAA3A0A434&assignmentId=0198beaf-2390-714c-a085-42a6312f6d24&projectId=0198be8b-78cf-72d2-ba2b-1e62c78022e0","E667F3EBE3634605B2953BFAA3A0A434-2025-08-18-20-13-59","","null","","images/instructions/movie_2.png","null","",""
"","","","","","image-button-response","14","121483","0.0-6.0-1.0-2.1","E667F3EBE3634605B2953BFAA3A0A434","E667F3EBE3634605B2953BFAA3A0A434","0198beaf-2390-714c-a085-42a6312f6d24","0198be8b-78cf-72d2-ba2b-1e62c78022e0","{""num_scrambled_semantic"":""8"",""num_scrambled_causal"":""4"",""num_scrambled_schematic"":""4"",""participantId"":""E667F3EBE3634605B2953BFAA3A0A434"",""assignmentId"":""0198beaf-2390-714c-a085-42a6312f6d24"",""projectId"":""0198be8b-78cf-72d2-ba2b-1e62c78022e0""}","https://test12345.live/?num_scrambled_semantic=8&num_scrambled_causal=4&num_scrambled_schematic=4&participantId=E667F3EBE3634605B2953BFAA3A0A434&assignmentId=0198beaf-2390-714c-a085-42a6312f6d24&projectId=0198be8b-78cf-72d2-ba2b-1e62c78022e0","E667F3EBE3634605B2953BFAA3A0A434-2025-08-18-20-13-59","","null","","[]","null","",""
"","","","","","image-button-response","15","125989","0.0-6.0-1.0-0.2","E667F3EBE3634605B2953BFAA3A0A434","E667F3EBE3634605B2953BFAA3A0A434","0198beaf-2390-714c-a085-42a6312f6d24","0198be8b-78cf-72d2-ba2b-1e62c78022e0","{""num_scrambled_semantic"":""8"",""num_scrambled_causal"":""4"",""num_scrambled_schematic"":""4"",""participantId"":""E667F3EBE3634605B2953BFAA3A0A434"",""assignmentId"":""0198beaf-2390-714c-a085-42a6312f6d24"",""projectId"":""0198be8b-78cf-72d2-ba2b-1e62c78022e0""}","https://test12345.live/?num_scrambled_semantic=8&num_scrambled_causal=4&num_scrambled_schematic=4&participantId=E667F3EBE3634605B2953BFAA3A0A434&assignmentId=0198beaf-2390-714c-a085-42a6312f6d24&projectId=0198be8b-78cf-72d2-ba2b-1e62c78022e0","E667F3EBE3634605B2953BFAA3A0A434-2025-08-18-20-13-59","","null","","images/instructions/movie_3.png","null","",""
"","","","","","image-button-response","16","127245","0.0-6.0-1.0-1.2","E667F3EBE3634605B2953BFAA3A0A434","E667F3EBE3634605B2953BFAA3A0A434","0198beaf-2390-714c-a085-42a6312f6d24","0198be8b-78cf-72d2-ba2b-1e62c78022e0","{""num_scrambled_semantic"":""8"",""num_scrambled_causal"":""4"",""num_scrambled_schematic"":""4"",""participantId"":""E667F3EBE3634605B2953BFAA3A0A434"",""assignmentId"":""0198beaf-2390-714c-a085-42a6312f6d24"",""projectId"":""0198be8b-78cf-72d2-ba2b-1e62c78022e0""}","https://test12345.live/?num_scrambled_semantic=8&num_scrambled_causal=4&num_scrambled_schematic=4&participantId=E667F3EBE3634605B2953BFAA3A0A434&assignmentId=0198beaf-2390-714c-a085-42a6312f6d24&projectId=0198be8b-78cf-72d2-ba2b-1e62c78022e0","E667F3EBE3634605B2953BFAA3A0A434-2025-08-18-20-13-59","","1253","","images/instructions/movie_3.png","0","",""
"","","","","","image-button-response","17","129051","0.0-6.0-1.0-2.2","E667F3EBE3634605B2953BFAA3A0A434","E667F3EBE3634605B2953BFAA3A0A434","0198beaf-2390-714c-a085-42a6312f6d24","0198be8b-78cf-72d2-ba2b-1e62c78022e0","{""num_scrambled_semantic"":""8"",""num_scrambled_causal"":""4"",""num_scrambled_schematic"":""4"",""participantId"":""E667F3EBE3634605B2953BFAA3A0A434"",""assignmentId"":""0198beaf-2390-714c-a085-42a6312f6d24"",""projectId"":""0198be8b-78cf-72d2-ba2b-1e62c78022e0""}","https://test12345.live/?num_scrambled_semantic=8&num_scrambled_causal=4&num_scrambled_schematic=4&participantId=E667F3EBE3634605B2953BFAA3A0A434&assignmentId=0198beaf-2390-714c-a085-42a6312f6d24&projectId=0198be8b-78cf-72d2-ba2b-1e62c78022e0","E667F3EBE3634605B2953BFAA3A0A434-2025-08-18-20-13-59","","null","","[]","null","",""
"","","","","","image-button-response","18","133558","0.0-6.0-1.0-0.3","E667F3EBE3634605B2953BFAA3A0A434","E667F3EBE3634605B2953BFAA3A0A434","0198beaf-2390-714c-a085-42a6312f6d24","0198be8b-78cf-72d2-ba2b-1e62c78022e0","{""num_scrambled_semantic"":""8"",""num_scrambled_causal"":""4"",""num_scrambled_schematic"":""4"",""participantId"":""E667F3EBE3634605B2953BFAA3A0A434"",""assignmentId"":""0198beaf-2390-714c-a085-42a6312f6d24"",""projectId"":""0198be8b-78cf-72d2-ba2b-1e62c78022e0""}","https://test12345.live/?num_scrambled_semantic=8&num_scrambled_causal=4&num_scrambled_schematic=4&participantId=E667F3EBE3634605B2953BFAA3A0A434&assignmentId=0198beaf-2390-714c-a085-42a6312f6d24&projectId=0198be8b-78cf-72d2-ba2b-1e62c78022e0","E667F3EBE3634605B2953BFAA3A0A434-2025-08-18-20-13-59","","null","","images/instructions/movie_4.png","null","",""
"","","","","","image-button-response","19","134819","0.0-6.0-1.0-1.3","E667F3EBE3634605B2953BFAA3A0A434","E667F3EBE3634605B2953BFAA3A0A434","0198beaf-2390-714c-a085-42a6312f6d24","0198be8b-78cf-72d2-ba2b-1e62c78022e0","{""num_scrambled_semantic"":""8"",""num_scrambled_causal"":""4"",""num_scrambled_schematic"":""4"",""participantId"":""E667F3EBE3634605B2953BFAA3A0A434"",""assignmentId"":""0198beaf-2390-714c-a085-42a6312f6d24"",""projectId"":""0198be8b-78cf-72d2-ba2b-1e62c78022e0""}","https://test12345.live/?num_scrambled_semantic=8&num_scrambled_causal=4&num_scrambled_schematic=4&participantId=E667F3EBE3634605B2953BFAA3A0A434&assignmentId=0198beaf-2390-714c-a085-42a6312f6d24&projectId=0198be8b-78cf-72d2-ba2b-1e62c78022e0","E667F3EBE3634605B2953BFAA3A0A434-2025-08-18-20-13-59","","1258","","images/instructions/movie_4.png","0","",""
"","","","","","image-button-response","20","136629","0.0-6.0-1.0-2.3","E667F3EBE3634605B2953BFAA3A0A434","E667F3EBE3634605B2953BFAA3A0A434","0198beaf-2390-714c-a085-42a6312f6d24","0198be8b-78cf-72d2-ba2b-1e62c78022e0","{""num_scrambled_semantic"":""8"",""num_scrambled_causal"":""4"",""num_scrambled_schematic"":""4"",""participantId"":""E667F3EBE3634605B2953BFAA3A0A434"",""assignmentId"":""0198beaf-2390-714c-a085-42a6312f6d24"",""projectId"":""0198be8b-78cf-72d2-ba2b-1e62c78022e0""}","https://test12345.live/?num_scrambled_semantic=8&num_scrambled_causal=4&num_scrambled_schematic=4&participantId=E667F3EBE3634605B2953BFAA3A0A434&assignmentId=0198beaf-2390-714c-a085-42a6312f6d24&projectId=0198be8b-78cf-72d2-ba2b-1e62c78022e0","E667F3EBE3634605B2953BFAA3A0A434-2025-08-18-20-13-59","","null","","[]","null","",""
"","","","","","instructions","21","174652","0.0-7.0","E667F3EBE3634605B2953BFAA3A0A434","E667F3EBE3634605B2953BFAA3A0A434","0198beaf-2390-714c-a085-42a6312f6d24","0198be8b-78cf-72d2-ba2b-1e62c78022e0","{""num_scrambled_semantic"":""8"",""num_scrambled_causal"":""4"",""num_scrambled_schematic"":""4"",""participantId"":""E667F3EBE3634605B2953BFAA3A0A434"",""assignmentId"":""0198beaf-2390-714c-a085-42a6312f6d24"",""projectId"":""0198be8b-78cf-72d2-ba2b-1e62c78022e0""}","https://test12345.live/?num_scrambled_semantic=8&num_scrambled_causal=4&num_scrambled_schematic=4&participantId=E667F3EBE3634605B2953BFAA3A0A434&assignmentId=0198beaf-2390-714c-a085-42a6312f6d24&projectId=0198be8b-78cf-72d2-ba2b-1e62c78022e0","E667F3EBE3634605B2953BFAA3A0A434-2025-08-18-20-13-59","[{""page_index"":0,""viewing_time"":38021}]","38022","","","","",""
"","","","","","html-audio-response","22","250949","0.0-8.0","E667F3EBE3634605B2953BFAA3A0A434","E667F3EBE3634605B2953BFAA3A0A434","0198beaf-2390-714c-a085-42a6312f6d24","0198be8b-78cf-72d2-ba2b-1e62c78022e0","{""num_scrambled_semantic"":""8"",""num_scrambled_causal"":""4"",""num_scrambled_schematic"":""4"",""participantId"":""E667F3EBE3634605B2953BFAA3A0A434"",""assignmentId"":""0198beaf-2390-714c-a085-42a6312f6d24"",""projectId"":""0198be8b-78cf-72d2-ba2b-1e62c78022e0""}","https://test12345.live/?num_scrambled_semantic=8&num_scrambled_causal=4&num_scrambled_schematic=4&participantId=E667F3EBE3634605B2953BFAA3A0A434&assignmentId=0198beaf-2390-714c-a085-42a6312f6d24&projectId=0198be8b-78cf-72d2-ba2b-1e62c78022e0","E667F3EBE3634605B2953BFAA3A0A434-2025-08-18-20-13-59","","14590","","[""<span style=\""color: red; font-size: 24px\""> NOW RECORDING</span><p>Please say out loud all the images you saw, in the order of the story they create. Try to recall the sequence of events as they appeared in the story, not necessarily the order they were presented on the screen.</p>""]","","4",""
"","","","","","instructions","23","252624","0.0-9.0","E667F3EBE3634605B2953BFAA3A0A434","E667F3EBE3634605B2953BFAA3A0A434","0198beaf-2390-714c-a085-42a6312f6d24","0198be8b-78cf-72d2-ba2b-1e62c78022e0","{""num_scrambled_semantic"":""8"",""num_scrambled_causal"":""4"",""num_scrambled_schematic"":""4"",""participantId"":""E667F3EBE3634605B2953BFAA3A0A434"",""assignmentId"":""0198beaf-2390-714c-a085-42a6312f6d24"",""projectId"":""0198be8b-78cf-72d2-ba2b-1e62c78022e0""}","https://test12345.live/?num_scrambled_semantic=8&num_scrambled_causal=4&num_scrambled_schematic=4&participantId=E667F3EBE3634605B2953BFAA3A0A434&assignmentId=0198beaf-2390-714c-a085-42a6312f6d24&projectId=0198be8b-78cf-72d2-ba2b-1e62c78022e0","E667F3EBE3634605B2953BFAA3A0A434-2025-08-18-20-13-59","[{""page_index"":0,""viewing_time"":1655}]","1655","","","","",""
"","","","","","image-button-response","24","258637","0.0-10.0-0.0","E667F3EBE3634605B2953BFAA3A0A434","E667F3EBE3634605B2953BFAA3A0A434","0198beaf-2390-714c-a085-42a6312f6d24","0198be8b-78cf-72d2-ba2b-1e62c78022e0","{""num_scrambled_semantic"":""8"",""num_scrambled_causal"":""4"",""num_scrambled_schematic"":""4"",""participantId"":""E667F3EBE3634605B2953BFAA3A0A434"",""assignmentId"":""0198beaf-2390-714c-a085-42a6312f6d24"",""projectId"":""0198be8b-78cf-72d2-ba2b-1e62c78022e0""}","https://test12345.live/?num_scrambled_semantic=8&num_scrambled_causal=4&num_scrambled_schematic=4&participantId=E667F3EBE3634605B2953BFAA3A0A434&assignmentId=0198beaf-2390-714c-a085-42a6312f6d24&projectId=0198be8b-78cf-72d2-ba2b-1e62c78022e0","E667F3EBE3634605B2953BFAA3A0A434-2025-08-18-20-13-59","","null","","images/semantic_sequence/creative_activities_semantic/creative_activities_semantic_0.png","null","",""
"","","","","","image-button-response","25","263138","0.0-10.0-1.0-0.0","E667F3EBE3634605B2953BFAA3A0A434","E667F3EBE3634605B2953BFAA3A0A434","0198beaf-2390-714c-a085-42a6312f6d24","0198be8b-78cf-72d2-ba2b-1e62c78022e0","{""num_scrambled_semantic"":""8"",""num_scrambled_causal"":""4"",""num_scrambled_schematic"":""4"",""participantId"":""E667F3EBE3634605B2953BFAA3A0A434"",""assignmentId"":""0198beaf-2390-714c-a085-42a6312f6d24"",""projectId"":""0198be8b-78cf-72d2-ba2b-1e62c78022e0""}","https://test12345.live/?num_scrambled_semantic=8&num_scrambled_causal=4&num_scrambled_schematic=4&participantId=E667F3EBE3634605B2953BFAA3A0A434&assignmentId=0198beaf-2390-714c-a085-42a6312f6d24&projectId=0198be8b-78cf-72d2-ba2b-1e62c78022e0","E667F3EBE3634605B2953BFAA3A0A434-2025-08-18-20-13-59","","null","","images/semantic_sequence/creative_activities_semantic/creative_activities_semantic_5.png","null","",""
"","","","","","image-button-response","26","264838","0.0-10.0-1.0-1.0","E667F3EBE3634605B2953BFAA3A0A434","E667F3EBE3634605B2953BFAA3A0A434","0198beaf-2390-714c-a085-42a6312f6d24","0198be8b-78cf-72d2-ba2b-1e62c78022e0","{""num_scrambled_semantic"":""8"",""num_scrambled_causal"":""4"",""num_scrambled_schematic"":""4"",""participantId"":""E667F3EBE3634605B2953BFAA3A0A434"",""assignmentId"":""0198beaf-2390-714c-a085-42a6312f6d24"",""projectId"":""0198be8b-78cf-72d2-ba2b-1e62c78022e0""}","https://test12345.live/?num_scrambled_semantic=8&num_scrambled_causal=4&num_scrambled_schematic=4&participantId=E667F3EBE3634605B2953BFAA3A0A434&assignmentId=0198beaf-2390-714c-a085-42a6312f6d24&projectId=0198be8b-78cf-72d2-ba2b-1e62c78022e0","E667F3EBE3634605B2953BFAA3A0A434-2025-08-18-20-13-59","","1697","","images/semantic_sequence/creative_activities_semantic/creative_activities_semantic_5.png","0","",""
"","","","","","image-button-response","27","266645","0.0-10.0-1.0-2.0","E667F3EBE3634605B2953BFAA3A0A434","E667F3EBE3634605B2953BFAA3A0A434","0198beaf-2390-714c-a085-42a6312f6d24","0198be8b-78cf-72d2-ba2b-1e62c78022e0","{""num_scrambled_semantic"":""8"",""num_scrambled_causal"":""4"",""num_scrambled_schematic"":""4"",""participantId"":""E667F3EBE3634605B2953BFAA3A0A434"",""assignmentId"":""0198beaf-2390-714c-a085-42a6312f6d24"",""projectId"":""0198be8b-78cf-72d2-ba2b-1e62c78022e0""}","https://test12345.live/?num_scrambled_semantic=8&num_scrambled_causal=4&num_scrambled_schematic=4&participantId=E667F3EBE3634605B2953BFAA3A0A434&assignmentId=0198beaf-2390-714c-a085-42a6312f6d24&projectId=0198be8b-78cf-72d2-ba2b-1e62c78022e0","E667F3EBE3634605B2953BFAA3A0A434-2025-08-18-20-13-59","","null","","[]","null","",""
"","","","","","image-button-response","28","271160","0.0-10.0-1.0-0.1","E667F3EBE3634605B2953BFAA3A0A434","E667F3EBE3634605B2953BFAA3A0A434","0198beaf-2390-714c-a085-42a6312f6d24","0198be8b-78cf-72d2-ba2b-1e62c78022e0","{""num_scrambled_semantic"":""8"",""num_scrambled_causal"":""4"",""num_scrambled_schematic"":""4"",""participantId"":""E667F3EBE3634605B2953BFAA3A0A434"",""assignmentId"":""0198beaf-2390-714c-a085-42a6312f6d24"",""projectId"":""0198be8b-78cf-72d2-ba2b-1e62c78022e0""}","https://test12345.live/?num_scrambled_semantic=8&num_scrambled_causal=4&num_scrambled_schematic=4&participantId=E667F3EBE3634605B2953BFAA3A0A434&assignmentId=0198beaf-2390-714c-a085-42a6312f6d24&projectId=0198be8b-78cf-72d2-ba2b-1e62c78022e0","E667F3EBE3634605B2953BFAA3A0A434-2025-08-18-20-13-59","","null","","images/semantic_sequence/creative_activities_semantic/creative_activities_semantic_3.png","null","",""
"","","","","","image-button-response","29","274304","0.0-10.0-1.0-1.1","E667F3EBE3634605B2953BFAA3A0A434","E667F3EBE3634605B2953BFAA3A0A434","0198beaf-2390-714c-a085-42a6312f6d24","0198be8b-78cf-72d2-ba2b-1e62c78022e0","{""num_scrambled_semantic"":""8"",""num_scrambled_causal"":""4"",""num_scrambled_schematic"":""4"",""participantId"":""E667F3EBE3634605B2953BFAA3A0A434"",""assignmentId"":""0198beaf-2390-714c-a085-42a6312f6d24"",""projectId"":""0198be8b-78cf-72d2-ba2b-1e62c78022e0""}","https://test12345.live/?num_scrambled_semantic=8&num_scrambled_causal=4&num_scrambled_schematic=4&participantId=E667F3EBE3634605B2953BFAA3A0A434&assignmentId=0198beaf-2390-714c-a085-42a6312f6d24&projectId=0198be8b-78cf-72d2-ba2b-1e62c78022e0","E667F3EBE3634605B2953BFAA3A0A434-2025-08-18-20-13-59","","3140","","images/semantic_sequence/creative_activities_semantic/creative_activities_semantic_3.png","0","",""
"","","","","","image-button-response","30","276116","0.0-10.0-1.0-2.1","E667F3EBE3634605B2953BFAA3A0A434","E667F3EBE3634605B2953BFAA3A0A434","0198beaf-2390-714c-a085-42a6312f6d24","0198be8b-78cf-72d2-ba2b-1e62c78022e0","{""num_scrambled_semantic"":""8"",""num_scrambled_causal"":""4"",""num_scrambled_schematic"":""4"",""participantId"":""E667F3EBE3634605B2953BFAA3A0A434"",""assignmentId"":""0198beaf-2390-714c-a085-42a6312f6d24"",""projectId"":""0198be8b-78cf-72d2-ba2b-1e62c78022e0""}","https://test12345.live/?num_scrambled_semantic=8&num_scrambled_causal=4&num_scrambled_schematic=4&participantId=E667F3EBE3634605B2953BFAA3A0A434&assignmentId=0198beaf-2390-714c-a085-42a6312f6d24&projectId=0198be8b-78cf-72d2-ba2b-1e62c78022e0","E667F3EBE3634605B2953BFAA3A0A434-2025-08-18-20-13-59","","null","","[]","null","",""
"","","","","","image-button-response","31","280624","0.0-10.0-1.0-0.2","E667F3EBE3634605B2953BFAA3A0A434","E667F3EBE3634605B2953BFAA3A0A434","0198beaf-2390-714c-a085-42a6312f6d24","0198be8b-78cf-72d2-ba2b-1e62c78022e0","{""num_scrambled_semantic"":""8"",""num_scrambled_causal"":""4"",""num_scrambled_schematic"":""4"",""participantId"":""E667F3EBE3634605B2953BFAA3A0A434"",""assignmentId"":""0198beaf-2390-714c-a085-42a6312f6d24"",""projectId"":""0198be8b-78cf-72d2-ba2b-1e62c78022e0""}","https://test12345.live/?num_scrambled_semantic=8&num_scrambled_causal=4&num_scrambled_schematic=4&participantId=E667F3EBE3634605B2953BFAA3A0A434&assignmentId=0198beaf-2390-714c-a085-42a6312f6d24&projectId=0198be8b-78cf-72d2-ba2b-1e62c78022e0","E667F3EBE3634605B2953BFAA3A0A434-2025-08-18-20-13-59","","null","","images/semantic_sequence/creative_activities_semantic/creative_activities_semantic_1.png","null","",""
"","","","","","image-button-response","32","283088","0.0-10.0-1.0-1.2","E667F3EBE3634605B2953BFAA3A0A434","E667F3EBE3634605B2953BFAA3A0A434","0198beaf-2390-714c-a085-42a6312f6d24","0198be8b-78cf-72d2-ba2b-1e62c78022e0","{""num_scrambled_semantic"":""8"",""num_scrambled_causal"":""4"",""num_scrambled_schematic"":""4"",""participantId"":""E667F3EBE3634605B2953BFAA3A0A434"",""assignmentId"":""0198beaf-2390-714c-a085-42a6312f6d24"",""projectId"":""0198be8b-78cf-72d2-ba2b-1e62c78022e0""}","https://test12345.live/?num_scrambled_semantic=8&num_scrambled_causal=4&num_scrambled_schematic=4&participantId=E667F3EBE3634605B2953BFAA3A0A434&assignmentId=0198beaf-2390-714c-a085-42a6312f6d24&projectId=0198be8b-78cf-72d2-ba2b-1e62c78022e0","E667F3EBE3634605B2953BFAA3A0A434-2025-08-18-20-13-59","","2461","","images/semantic_sequence/creative_activities_semantic/creative_activities_semantic_1.png","0","",""
"","","","","","image-button-response","33","284897","0.0-10.0-1.0-2.2","E667F3EBE3634605B2953BFAA3A0A434","E667F3EBE3634605B2953BFAA3A0A434","0198beaf-2390-714c-a085-42a6312f6d24","0198be8b-78cf-72d2-ba2b-1e62c78022e0","{""num_scrambled_semantic"":""8"",""num_scrambled_causal"":""4"",""num_scrambled_schematic"":""4"",""participantId"":""E667F3EBE3634605B2953BFAA3A0A434"",""assignmentId"":""0198beaf-2390-714c-a085-42a6312f6d24"",""projectId"":""0198be8b-78cf-72d2-ba2b-1e62c78022e0""}","https://test12345.live/?num_scrambled_semantic=8&num_scrambled_causal=4&num_scrambled_schematic=4&participantId=E667F3EBE3634605B2953BFAA3A0A434&assignmentId=0198beaf-2390-714c-a085-42a6312f6d24&projectId=0198be8b-78cf-72d2-ba2b-1e62c78022e0","E667F3EBE3634605B2953BFAA3A0A434-2025-08-18-20-13-59","","null","","[]","null","",""
"","","","","","image-button-response","34","289407","0.0-10.0-1.0-0.3","E667F3EBE3634605B2953BFAA3A0A434","E667F3EBE3634605B2953BFAA3A0A434","0198beaf-2390-714c-a085-42a6312f6d24","0198be8b-78cf-72d2-ba2b-1e62c78022e0","{""num_scrambled_semantic"":""8"",""num_scrambled_causal"":""4"",""num_scrambled_schematic"":""4"",""participantId"":""E667F3EBE3634605B2953BFAA3A0A434"",""assignmentId"":""0198beaf-2390-714c-a085-42a6312f6d24"",""projectId"":""0198be8b-78cf-72d2-ba2b-1e62c78022e0""}","https://test12345.live/?num_scrambled_semantic=8&num_scrambled_causal=4&num_scrambled_schematic=4&participantId=E667F3EBE3634605B2953BFAA3A0A434&assignmentId=0198beaf-2390-714c-a085-42a6312f6d24&projectId=0198be8b-78cf-72d2-ba2b-1e62c78022e0","E667F3EBE3634605B2953BFAA3A0A434-2025-08-18-20-13-59","","null","","images/semantic_sequence/creative_activities_semantic/creative_activities_semantic_9.png","null","",""
"","","","","","image-button-response","35","291804","0.0-10.0-1.0-1.3","E667F3EBE3634605B2953BFAA3A0A434","E667F3EBE3634605B2953BFAA3A0A434","0198beaf-2390-714c-a085-42a6312f6d24","0198be8b-78cf-72d2-ba2b-1e62c78022e0","{""num_scrambled_semantic"":""8"",""num_scrambled_causal"":""4"",""num_scrambled_schematic"":""4"",""participantId"":""E667F3EBE3634605B2953BFAA3A0A434"",""assignmentId"":""0198beaf-2390-714c-a085-42a6312f6d24"",""projectId"":""0198be8b-78cf-72d2-ba2b-1e62c78022e0""}","https://test12345.live/?num_scrambled_semantic=8&num_scrambled_causal=4&num_scrambled_schematic=4&participantId=E667F3EBE3634605B2953BFAA3A0A434&assignmentId=0198beaf-2390-714c-a085-42a6312f6d24&projectId=0198be8b-78cf-72d2-ba2b-1e62c78022e0","E667F3EBE3634605B2953BFAA3A0A434-2025-08-18-20-13-59","","2395","","images/semantic_sequence/creative_activities_semantic/creative_activities_semantic_9.png","0","",""
"","","","","","image-button-response","36","293628","0.0-10.0-1.0-2.3","E667F3EBE3634605B2953BFAA3A0A434","E667F3EBE3634605B2953BFAA3A0A434","0198beaf-2390-714c-a085-42a6312f6d24","0198be8b-78cf-72d2-ba2b-1e62c78022e0","{""num_scrambled_semantic"":""8"",""num_scrambled_causal"":""4"",""num_scrambled_schematic"":""4"",""participantId"":""E667F3EBE3634605B2953BFAA3A0A434"",""assignmentId"":""0198beaf-2390-714c-a085-42a6312f6d24"",""projectId"":""0198be8b-78cf-72d2-ba2b-1e62c78022e0""}","https://test12345.live/?num_scrambled_semantic=8&num_scrambled_causal=4&num_scrambled_schematic=4&participantId=E667F3EBE3634605B2953BFAA3A0A434&assignmentId=0198beaf-2390-714c-a085-42a6312f6d24&projectId=0198be8b-78cf-72d2-ba2b-1e62c78022e0","E667F3EBE3634605B2953BFAA3A0A434-2025-08-18-20-13-59","","null","","[]","null","",""
"","","","","","image-button-response","37","298141","0.0-10.0-1.0-0.4","E667F3EBE3634605B2953BFAA3A0A434","E667F3EBE3634605B2953BFAA3A0A434","0198beaf-2390-714c-a085-42a6312f6d24","0198be8b-78cf-72d2-ba2b-1e62c78022e0","{""num_scrambled_semantic"":""8"",""num_scrambled_causal"":""4"",""num_scrambled_schematic"":""4"",""participantId"":""E667F3EBE3634605B2953BFAA3A0A434"",""assignmentId"":""0198beaf-2390-714c-a085-42a6312f6d24"",""projectId"":""0198be8b-78cf-72d2-ba2b-1e62c78022e0""}","https://test12345.live/?num_scrambled_semantic=8&num_scrambled_causal=4&num_scrambled_schematic=4&participantId=E667F3EBE3634605B2953BFAA3A0A434&assignmentId=0198beaf-2390-714c-a085-42a6312f6d24&projectId=0198be8b-78cf-72d2-ba2b-1e62c78022e0","E667F3EBE3634605B2953BFAA3A0A434-2025-08-18-20-13-59","","null","","images/semantic_sequence/creative_activities_semantic/creative_activities_semantic_4.png","null","",""
"","","","","","image-button-response","38","299100","0.0-10.0-1.0-1.4","E667F3EBE3634605B2953BFAA3A0A434","E667F3EBE3634605B2953BFAA3A0A434","0198beaf-2390-714c-a085-42a6312f6d24","0198be8b-78cf-72d2-ba2b-1e62c78022e0","{""num_scrambled_semantic"":""8"",""num_scrambled_causal"":""4"",""num_scrambled_schematic"":""4"",""participantId"":""E667F3EBE3634605B2953BFAA3A0A434"",""assignmentId"":""0198beaf-2390-714c-a085-42a6312f6d24"",""projectId"":""0198be8b-78cf-72d2-ba2b-1e62c78022e0""}","https://test12345.live/?num_scrambled_semantic=8&num_scrambled_causal=4&num_scrambled_schematic=4&participantId=E667F3EBE3634605B2953BFAA3A0A434&assignmentId=0198beaf-2390-714c-a085-42a6312f6d24&projectId=0198be8b-78cf-72d2-ba2b-1e62c78022e0","E667F3EBE3634605B2953BFAA3A0A434-2025-08-18-20-13-59","","956","","images/semantic_sequence/creative_activities_semantic/creative_activities_semantic_4.png","0","",""
"","","","","","image-button-response","39","300902","0.0-10.0-1.0-2.4","E667F3EBE3634605B2953BFAA3A0A434","E667F3EBE3634605B2953BFAA3A0A434","0198beaf-2390-714c-a085-42a6312f6d24","0198be8b-78cf-72d2-ba2b-1e62c78022e0","{""num_scrambled_semantic"":""8"",""num_scrambled_causal"":""4"",""num_scrambled_schematic"":""4"",""participantId"":""E667F3EBE3634605B2953BFAA3A0A434"",""assignmentId"":""0198beaf-2390-714c-a085-42a6312f6d24"",""projectId"":""0198be8b-78cf-72d2-ba2b-1e62c78022e0""}","https://test12345.live/?num_scrambled_semantic=8&num_scrambled_causal=4&num_scrambled_schematic=4&participantId=E667F3EBE3634605B2953BFAA3A0A434&assignmentId=0198beaf-2390-714c-a085-42a6312f6d24&projectId=0198be8b-78cf-72d2-ba2b-1e62c78022e0","E667F3EBE3634605B2953BFAA3A0A434-2025-08-18-20-13-59","","null","","[]","null","",""
"","","","","","image-button-response","40","305417","0.0-10.0-1.0-0.5","E667F3EBE3634605B2953BFAA3A0A434","E667F3EBE3634605B2953BFAA3A0A434","0198beaf-2390-714c-a085-42a6312f6d24","0198be8b-78cf-72d2-ba2b-1e62c78022e0","{""num_scrambled_semantic"":""8"",""num_scrambled_causal"":""4"",""num_scrambled_schematic"":""4"",""participantId"":""E667F3EBE3634605B2953BFAA3A0A434"",""assignmentId"":""0198beaf-2390-714c-a085-42a6312f6d24"",""projectId"":""0198be8b-78cf-72d2-ba2b-1e62c78022e0""}","https://test12345.live/?num_scrambled_semantic=8&num_scrambled_causal=4&num_scrambled_schematic=4&participantId=E667F3EBE3634605B2953BFAA3A0A434&assignmentId=0198beaf-2390-714c-a085-42a6312f6d24&projectId=0198be8b-78cf-72d2-ba2b-1e62c78022e0","E667F3EBE3634605B2953BFAA3A0A434-2025-08-18-20-13-59","","null","","images/semantic_sequence/creative_activities_semantic/creative_activities_semantic_2.png","null","",""
"","","","","","image-button-response","41","306872","0.0-10.0-1.0-1.5","E667F3EBE3634605B2953BFAA3A0A434","E667F3EBE3634605B2953BFAA3A0A434","0198beaf-2390-714c-a085-42a6312f6d24","0198be8b-78cf-72d2-ba2b-1e62c78022e0","{""num_scrambled_semantic"":""8"",""num_scrambled_causal"":""4"",""num_scrambled_schematic"":""4"",""participantId"":""E667F3EBE3634605B2953BFAA3A0A434"",""assignmentId"":""0198beaf-2390-714c-a085-42a6312f6d24"",""projectId"":""0198be8b-78cf-72d2-ba2b-1e62c78022e0""}","https://test12345.live/?num_scrambled_semantic=8&num_scrambled_causal=4&num_scrambled_schematic=4&participantId=E667F3EBE3634605B2953BFAA3A0A434&assignmentId=0198beaf-2390-714c-a085-42a6312f6d24&projectId=0198be8b-78cf-72d2-ba2b-1e62c78022e0","E667F3EBE3634605B2953BFAA3A0A434-2025-08-18-20-13-59","","1453","","images/semantic_sequence/creative_activities_semantic/creative_activities_semantic_2.png","0","",""
"","","","","","image-button-response","42","308680","0.0-10.0-1.0-2.5","E667F3EBE3634605B2953BFAA3A0A434","E667F3EBE3634605B2953BFAA3A0A434","0198beaf-2390-714c-a085-42a6312f6d24","0198be8b-78cf-72d2-ba2b-1e62c78022e0","{""num_scrambled_semantic"":""8"",""num_scrambled_causal"":""4"",""num_scrambled_schematic"":""4"",""participantId"":""E667F3EBE3634605B2953BFAA3A0A434"",""assignmentId"":""0198beaf-2390-714c-a085-42a6312f6d24"",""projectId"":""0198be8b-78cf-72d2-ba2b-1e62c78022e0""}","https://test12345.live/?num_scrambled_semantic=8&num_scrambled_causal=4&num_scrambled_schematic=4&participantId=E667F3EBE3634605B2953BFAA3A0A434&assignmentId=0198beaf-2390-714c-a085-42a6312f6d24&projectId=0198be8b-78cf-72d2-ba2b-1e62c78022e0","E667F3EBE3634605B2953BFAA3A0A434-2025-08-18-20-13-59","","null","","[]","null","",""
"","","","","","image-button-response","43","313198","0.0-10.0-1.0-0.6","E667F3EBE3634605B2953BFAA3A0A434","E667F3EBE3634605B2953BFAA3A0A434","0198beaf-2390-714c-a085-42a6312f6d24","0198be8b-78cf-72d2-ba2b-1e62c78022e0","{""num_scrambled_semantic"":""8"",""num_scrambled_causal"":""4"",""num_scrambled_schematic"":""4"",""participantId"":""E667F3EBE3634605B2953BFAA3A0A434"",""assignmentId"":""0198beaf-2390-714c-a085-42a6312f6d24"",""projectId"":""0198be8b-78cf-72d2-ba2b-1e62c78022e0""}","https://test12345.live/?num_scrambled_semantic=8&num_scrambled_causal=4&num_scrambled_schematic=4&participantId=E667F3EBE3634605B2953BFAA3A0A434&assignmentId=0198beaf-2390-714c-a085-42a6312f6d24&projectId=0198be8b-78cf-72d2-ba2b-1e62c78022e0","E667F3EBE3634605B2953BFAA3A0A434-2025-08-18-20-13-59","","null","","images/semantic_sequence/creative_activities_semantic/creative_activities_semantic_7.png","null","",""
"","","","","","image-button-response","44","314208","0.0-10.0-1.0-1.6","E667F3EBE3634605B2953BFAA3A0A434","E667F3EBE3634605B2953BFAA3A0A434","0198beaf-2390-714c-a085-42a6312f6d24","0198be8b-78cf-72d2-ba2b-1e62c78022e0","{""num_scrambled_semantic"":""8"",""num_scrambled_causal"":""4"",""num_scrambled_schematic"":""4"",""participantId"":""E667F3EBE3634605B2953BFAA3A0A434"",""assignmentId"":""0198beaf-2390-714c-a085-42a6312f6d24"",""projectId"":""0198be8b-78cf-72d2-ba2b-1e62c78022e0""}","https://test12345.live/?num_scrambled_semantic=8&num_scrambled_causal=4&num_scrambled_schematic=4&participantId=E667F3EBE3634605B2953BFAA3A0A434&assignmentId=0198beaf-2390-714c-a085-42a6312f6d24&projectId=0198be8b-78cf-72d2-ba2b-1e62c78022e0","E667F3EBE3634605B2953BFAA3A0A434-2025-08-18-20-13-59","","1007","","images/semantic_sequence/creative_activities_semantic/creative_activities_semantic_7.png","0","",""
"","","","","","image-button-response","45","316024","0.0-10.0-1.0-2.6","E667F3EBE3634605B2953BFAA3A0A434","E667F3EBE3634605B2953BFAA3A0A434","0198beaf-2390-714c-a085-42a6312f6d24","0198be8b-78cf-72d2-ba2b-1e62c78022e0","{""num_scrambled_semantic"":""8"",""num_scrambled_causal"":""4"",""num_scrambled_schematic"":""4"",""participantId"":""E667F3EBE3634605B2953BFAA3A0A434"",""assignmentId"":""0198beaf-2390-714c-a085-42a6312f6d24"",""projectId"":""0198be8b-78cf-72d2-ba2b-1e62c78022e0""}","https://test12345.live/?num_scrambled_semantic=8&num_scrambled_causal=4&num_scrambled_schematic=4&participantId=E667F3EBE3634605B2953BFAA3A0A434&assignmentId=0198beaf-2390-714c-a085-42a6312f6d24&projectId=0198be8b-78cf-72d2-ba2b-1e62c78022e0","E667F3EBE3634605B2953BFAA3A0A434-2025-08-18-20-13-59","","null","","[]","null","",""
"","","","","","image-button-response","46","320535","0.0-10.0-1.0-0.7","E667F3EBE3634605B2953BFAA3A0A434","E667F3EBE3634605B2953BFAA3A0A434","0198beaf-2390-714c-a085-42a6312f6d24","0198be8b-78cf-72d2-ba2b-1e62c78022e0","{""num_scrambled_semantic"":""8"",""num_scrambled_causal"":""4"",""num_scrambled_schematic"":""4"",""participantId"":""E667F3EBE3634605B2953BFAA3A0A434"",""assignmentId"":""0198beaf-2390-714c-a085-42a6312f6d24"",""projectId"":""0198be8b-78cf-72d2-ba2b-1e62c78022e0""}","https://test12345.live/?num_scrambled_semantic=8&num_scrambled_causal=4&num_scrambled_schematic=4&participantId=E667F3EBE3634605B2953BFAA3A0A434&assignmentId=0198beaf-2390-714c-a085-42a6312f6d24&projectId=0198be8b-78cf-72d2-ba2b-1e62c78022e0","E667F3EBE3634605B2953BFAA3A0A434-2025-08-18-20-13-59","","null","","images/semantic_sequence/creative_activities_semantic/creative_activities_semantic_8.png","null","",""
"","","","","","image-button-response","47","321614","0.0-10.0-1.0-1.7","E667F3EBE3634605B2953BFAA3A0A434","E667F3EBE3634605B2953BFAA3A0A434","0198beaf-2390-714c-a085-42a6312f6d24","0198be8b-78cf-72d2-ba2b-1e62c78022e0","{""num_scrambled_semantic"":""8"",""num_scrambled_causal"":""4"",""num_scrambled_schematic"":""4"",""participantId"":""E667F3EBE3634605B2953BFAA3A0A434"",""assignmentId"":""0198beaf-2390-714c-a085-42a6312f6d24"",""projectId"":""0198be8b-78cf-72d2-ba2b-1e62c78022e0""}","https://test12345.live/?num_scrambled_semantic=8&num_scrambled_causal=4&num_scrambled_schematic=4&participantId=E667F3EBE3634605B2953BFAA3A0A434&assignmentId=0198beaf-2390-714c-a085-42a6312f6d24&projectId=0198be8b-78cf-72d2-ba2b-1e62c78022e0","E667F3EBE3634605B2953BFAA3A0A434-2025-08-18-20-13-59","","1075","","images/semantic_sequence/creative_activities_semantic/creative_activities_semantic_8.png","0","",""
"","","","","","image-button-response","48","323432","0.0-10.0-1.0-2.7","E667F3EBE3634605B2953BFAA3A0A434","E667F3EBE3634605B2953BFAA3A0A434","0198beaf-2390-714c-a085-42a6312f6d24","0198be8b-78cf-72d2-ba2b-1e62c78022e0","{""num_scrambled_semantic"":""8"",""num_scrambled_causal"":""4"",""num_scrambled_schematic"":""4"",""participantId"":""E667F3EBE3634605B2953BFAA3A0A434"",""assignmentId"":""0198beaf-2390-714c-a085-42a6312f6d24"",""projectId"":""0198be8b-78cf-72d2-ba2b-1e62c78022e0""}","https://test12345.live/?num_scrambled_semantic=8&num_scrambled_causal=4&num_scrambled_schematic=4&participantId=E667F3EBE3634605B2953BFAA3A0A434&assignmentId=0198beaf-2390-714c-a085-42a6312f6d24&projectId=0198be8b-78cf-72d2-ba2b-1e62c78022e0","E667F3EBE3634605B2953BFAA3A0A434-2025-08-18-20-13-59","","null","","[]","null","",""
"","","","","","image-button-response","49","327949","0.0-10.0-1.0-0.8","E667F3EBE3634605B2953BFAA3A0A434","E667F3EBE3634605B2953BFAA3A0A434","0198beaf-2390-714c-a085-42a6312f6d24","0198be8b-78cf-72d2-ba2b-1e62c78022e0","{""num_scrambled_semantic"":""8"",""num_scrambled_causal"":""4"",""num_scrambled_schematic"":""4"",""participantId"":""E667F3EBE3634605B2953BFAA3A0A434"",""assignmentId"":""0198beaf-2390-714c-a085-42a6312f6d24"",""projectId"":""0198be8b-78cf-72d2-ba2b-1e62c78022e0""}","https://test12345.live/?num_scrambled_semantic=8&num_scrambled_causal=4&num_scrambled_schematic=4&participantId=E667F3EBE3634605B2953BFAA3A0A434&assignmentId=0198beaf-2390-714c-a085-42a6312f6d24&projectId=0198be8b-78cf-72d2-ba2b-1e62c78022e0","E667F3EBE3634605B2953BFAA3A0A434-2025-08-18-20-13-59","","null","","images/semantic_sequence/creative_activities_semantic/creative_activities_semantic_ten.png","null","",""
"","","","","","image-button-response","50","329662","0.0-10.0-1.0-1.8","E667F3EBE3634605B2953BFAA3A0A434","E667F3EBE3634605B2953BFAA3A0A434","0198beaf-2390-714c-a085-42a6312f6d24","0198be8b-78cf-72d2-ba2b-1e62c78022e0","{""num_scrambled_semantic"":""8"",""num_scrambled_causal"":""4"",""num_scrambled_schematic"":""4"",""participantId"":""E667F3EBE3634605B2953BFAA3A0A434"",""assignmentId"":""0198beaf-2390-714c-a085-42a6312f6d24"",""projectId"":""0198be8b-78cf-72d2-ba2b-1e62c78022e0""}","https://test12345.live/?num_scrambled_semantic=8&num_scrambled_causal=4&num_scrambled_schematic=4&participantId=E667F3EBE3634605B2953BFAA3A0A434&assignmentId=0198beaf-2390-714c-a085-42a6312f6d24&projectId=0198be8b-78cf-72d2-ba2b-1e62c78022e0","E667F3EBE3634605B2953BFAA3A0A434-2025-08-18-20-13-59","","1709","","images/semantic_sequence/creative_activities_semantic/creative_activities_semantic_ten.png","0","",""
"","","","","","image-button-response","51","331476","0.0-10.0-1.0-2.8","E667F3EBE3634605B2953BFAA3A0A434","E667F3EBE3634605B2953BFAA3A0A434","0198beaf-2390-714c-a085-42a6312f6d24","0198be8b-78cf-72d2-ba2b-1e62c78022e0","{""num_scrambled_semantic"":""8"",""num_scrambled_causal"":""4"",""num_scrambled_schematic"":""4"",""participantId"":""E667F3EBE3634605B2953BFAA3A0A434"",""assignmentId"":""0198beaf-2390-714c-a085-42a6312f6d24"",""projectId"":""0198be8b-78cf-72d2-ba2b-1e62c78022e0""}","https://test12345.live/?num_scrambled_semantic=8&num_scrambled_causal=4&num_scrambled_schematic=4&participantId=E667F3EBE3634605B2953BFAA3A0A434&assignmentId=0198beaf-2390-714c-a085-42a6312f6d24&projectId=0198be8b-78cf-72d2-ba2b-1e62c78022e0","E667F3EBE3634605B2953BFAA3A0A434-2025-08-18-20-13-59","","null","","[]","null","",""
"","","","","","image-button-response","52","335981","0.0-10.0-1.0-0.9","E667F3EBE3634605B2953BFAA3A0A434","E667F3EBE3634605B2953BFAA3A0A434","0198beaf-2390-714c-a085-42a6312f6d24","0198be8b-78cf-72d2-ba2b-1e62c78022e0","{""num_scrambled_semantic"":""8"",""num_scrambled_causal"":""4"",""num_scrambled_schematic"":""4"",""participantId"":""E667F3EBE3634605B2953BFAA3A0A434"",""assignmentId"":""0198beaf-2390-714c-a085-42a6312f6d24"",""projectId"":""0198be8b-78cf-72d2-ba2b-1e62c78022e0""}","https://test12345.live/?num_scrambled_semantic=8&num_scrambled_causal=4&num_scrambled_schematic=4&participantId=E667F3EBE3634605B2953BFAA3A0A434&assignmentId=0198beaf-2390-714c-a085-42a6312f6d24&projectId=0198be8b-78cf-72d2-ba2b-1e62c78022e0","E667F3EBE3634605B2953BFAA3A0A434-2025-08-18-20-13-59","","null","","images/semantic_sequence/creative_activities_semantic/creative_activities_semantic_6.png","null","",""
"","","","","","image-button-response","53","336941","0.0-10.0-1.0-1.9","E667F3EBE3634605B2953BFAA3A0A434","E667F3EBE3634605B2953BFAA3A0A434","0198beaf-2390-714c-a085-42a6312f6d24","0198be8b-78cf-72d2-ba2b-1e62c78022e0","{""num_scrambled_semantic"":""8"",""num_scrambled_causal"":""4"",""num_scrambled_schematic"":""4"",""participantId"":""E667F3EBE3634605B2953BFAA3A0A434"",""assignmentId"":""0198beaf-2390-714c-a085-42a6312f6d24"",""projectId"":""0198be8b-78cf-72d2-ba2b-1e62c78022e0""}","https://test12345.live/?num_scrambled_semantic=8&num_scrambled_causal=4&num_scrambled_schematic=4&participantId=E667F3EBE3634605B2953BFAA3A0A434&assignmentId=0198beaf-2390-714c-a085-42a6312f6d24&projectId=0198be8b-78cf-72d2-ba2b-1e62c78022e0","E667F3EBE3634605B2953BFAA3A0A434-2025-08-18-20-13-59","","957","","images/semantic_sequence/creative_activities_semantic/creative_activities_semantic_6.png","0","",""
"","","","","","image-button-response","54","338756","0.0-10.0-1.0-2.9","E667F3EBE3634605B2953BFAA3A0A434","E667F3EBE3634605B2953BFAA3A0A434","0198beaf-2390-714c-a085-42a6312f6d24","0198be8b-78cf-72d2-ba2b-1e62c78022e0","{""num_scrambled_semantic"":""8"",""num_scrambled_causal"":""4"",""num_scrambled_schematic"":""4"",""participantId"":""E667F3EBE3634605B2953BFAA3A0A434"",""assignmentId"":""0198beaf-2390-714c-a085-42a6312f6d24"",""projectId"":""0198be8b-78cf-72d2-ba2b-1e62c78022e0""}","https://test12345.live/?num_scrambled_semantic=8&num_scrambled_causal=4&num_scrambled_schematic=4&participantId=E667F3EBE3634605B2953BFAA3A0A434&assignmentId=0198beaf-2390-714c-a085-42a6312f6d24&projectId=0198be8b-78cf-72d2-ba2b-1e62c78022e0","E667F3EBE3634605B2953BFAA3A0A434-2025-08-18-20-13-59","","null","","[]","null","",""
"","","","","","html-audio-response","55","381723","0.0-11.0","E667F3EBE3634605B2953BFAA3A0A434","E667F3EBE3634605B2953BFAA3A0A434","0198beaf-2390-714c-a085-42a6312f6d24","0198be8b-78cf-72d2-ba2b-1e62c78022e0","{""num_scrambled_semantic"":""8"",""num_scrambled_causal"":""4"",""num_scrambled_schematic"":""4"",""participantId"":""E667F3EBE3634605B2953BFAA3A0A434"",""assignmentId"":""0198beaf-2390-714c-a085-42a6312f6d24"",""projectId"":""0198be8b-78cf-72d2-ba2b-1e62c78022e0""}","https://test12345.live/?num_scrambled_semantic=8&num_scrambled_causal=4&num_scrambled_schematic=4&participantId=E667F3EBE3634605B2953BFAA3A0A434&assignmentId=0198beaf-2390-714c-a085-42a6312f6d24&projectId=0198be8b-78cf-72d2-ba2b-1e62c78022e0","E667F3EBE3634605B2953BFAA3A0A434-2025-08-18-20-13-59","","37152","","[""<span style=\""color: red; font-size: 24px\""> NOW RECORDING</span><p>Please say out loud all the images you saw, in the order of the story they create. Try to recall the sequence of events as they appeared in the story, not necessarily the order they were presented on the screen.</p>""]","","3","creative_activities_semantic"
"","","","","","image-button-response","56","387749","0.0-12.0-0.0","E667F3EBE3634605B2953BFAA3A0A434","E667F3EBE3634605B2953BFAA3A0A434","0198beaf-2390-714c-a085-42a6312f6d24","0198be8b-78cf-72d2-ba2b-1e62c78022e0","{""num_scrambled_semantic"":""8"",""num_scrambled_causal"":""4"",""num_scrambled_schematic"":""4"",""participantId"":""E667F3EBE3634605B2953BFAA3A0A434"",""assignmentId"":""0198beaf-2390-714c-a085-42a6312f6d24"",""projectId"":""0198be8b-78cf-72d2-ba2b-1e62c78022e0""}","https://test12345.live/?num_scrambled_semantic=8&num_scrambled_causal=4&num_scrambled_schematic=4&participantId=E667F3EBE3634605B2953BFAA3A0A434&assignmentId=0198beaf-2390-714c-a085-42a6312f6d24&projectId=0198be8b-78cf-72d2-ba2b-1e62c78022e0","E667F3EBE3634605B2953BFAA3A0A434-2025-08-18-20-13-59","","null","","images/causal_sequence/museum_causal/museum_causal_0.png","null","",""
"","","","","","image-button-response","57","392256","0.0-12.0-1.0-0.0","E667F3EBE3634605B2953BFAA3A0A434","E667F3EBE3634605B2953BFAA3A0A434","0198beaf-2390-714c-a085-42a6312f6d24","0198be8b-78cf-72d2-ba2b-1e62c78022e0","{""num_scrambled_semantic"":""8"",""num_scrambled_causal"":""4"",""num_scrambled_schematic"":""4"",""participantId"":""E667F3EBE3634605B2953BFAA3A0A434"",""assignmentId"":""0198beaf-2390-714c-a085-42a6312f6d24"",""projectId"":""0198be8b-78cf-72d2-ba2b-1e62c78022e0""}","https://test12345.live/?num_scrambled_semantic=8&num_scrambled_causal=4&num_scrambled_schematic=4&participantId=E667F3EBE3634605B2953BFAA3A0A434&assignmentId=0198beaf-2390-714c-a085-42a6312f6d24&projectId=0198be8b-78cf-72d2-ba2b-1e62c78022e0","E667F3EBE3634605B2953BFAA3A0A434-2025-08-18-20-13-59","","null","","images/causal_sequence/museum_causal/museum_causal_5.png","null","",""
"","","","","","image-button-response","58","394441","0.0-12.0-1.0-1.0","E667F3EBE3634605B2953BFAA3A0A434","E667F3EBE3634605B2953BFAA3A0A434","0198beaf-2390-714c-a085-42a6312f6d24","0198be8b-78cf-72d2-ba2b-1e62c78022e0","{""num_scrambled_semantic"":""8"",""num_scrambled_causal"":""4"",""num_scrambled_schematic"":""4"",""participantId"":""E667F3EBE3634605B2953BFAA3A0A434"",""assignmentId"":""0198beaf-2390-714c-a085-42a6312f6d24"",""projectId"":""0198be8b-78cf-72d2-ba2b-1e62c78022e0""}","https://test12345.live/?num_scrambled_semantic=8&num_scrambled_causal=4&num_scrambled_schematic=4&participantId=E667F3EBE3634605B2953BFAA3A0A434&assignmentId=0198beaf-2390-714c-a085-42a6312f6d24&projectId=0198be8b-78cf-72d2-ba2b-1e62c78022e0","E667F3EBE3634605B2953BFAA3A0A434-2025-08-18-20-13-59","","2183","","images/causal_sequence/museum_causal/museum_causal_5.png","0","",""
"","","","","","image-button-response","59","396257","0.0-12.0-1.0-2.0","E667F3EBE3634605B2953BFAA3A0A434","E667F3EBE3634605B2953BFAA3A0A434","0198beaf-2390-714c-a085-42a6312f6d24","0198be8b-78cf-72d2-ba2b-1e62c78022e0","{""num_scrambled_semantic"":""8"",""num_scrambled_causal"":""4"",""num_scrambled_schematic"":""4"",""participantId"":""E667F3EBE3634605B2953BFAA3A0A434"",""assignmentId"":""0198beaf-2390-714c-a085-42a6312f6d24"",""projectId"":""0198be8b-78cf-72d2-ba2b-1e62c78022e0""}","https://test12345.live/?num_scrambled_semantic=8&num_scrambled_causal=4&num_scrambled_schematic=4&participantId=E667F3EBE3634605B2953BFAA3A0A434&assignmentId=0198beaf-2390-714c-a085-42a6312f6d24&projectId=0198be8b-78cf-72d2-ba2b-1e62c78022e0","E667F3EBE3634605B2953BFAA3A0A434-2025-08-18-20-13-59","","null","","[]","null","",""
"","","","","","image-button-response","60","400765","0.0-12.0-1.0-0.1","E667F3EBE3634605B2953BFAA3A0A434","E667F3EBE3634605B2953BFAA3A0A434","0198beaf-2390-714c-a085-42a6312f6d24","0198be8b-78cf-72d2-ba2b-1e62c78022e0","{""num_scrambled_semantic"":""8"",""num_scrambled_causal"":""4"",""num_scrambled_schematic"":""4"",""participantId"":""E667F3EBE3634605B2953BFAA3A0A434"",""assignmentId"":""0198beaf-2390-714c-a085-42a6312f6d24"",""projectId"":""0198be8b-78cf-72d2-ba2b-1e62c78022e0""}","https://test12345.live/?num_scrambled_semantic=8&num_scrambled_causal=4&num_scrambled_schematic=4&participantId=E667F3EBE3634605B2953BFAA3A0A434&assignmentId=0198beaf-2390-714c-a085-42a6312f6d24&projectId=0198be8b-78cf-72d2-ba2b-1e62c78022e0","E667F3EBE3634605B2953BFAA3A0A434-2025-08-18-20-13-59","","null","","images/causal_sequence/museum_causal/museum_causal_2.png","null","",""
"","","","","","image-button-response","61","404779","0.0-12.0-1.0-1.1","E667F3EBE3634605B2953BFAA3A0A434","E667F3EBE3634605B2953BFAA3A0A434","0198beaf-2390-714c-a085-42a6312f6d24","0198be8b-78cf-72d2-ba2b-1e62c78022e0","{""num_scrambled_semantic"":""8"",""num_scrambled_causal"":""4"",""num_scrambled_schematic"":""4"",""participantId"":""E667F3EBE3634605B2953BFAA3A0A434"",""assignmentId"":""0198beaf-2390-714c-a085-42a6312f6d24"",""projectId"":""0198be8b-78cf-72d2-ba2b-1e62c78022e0""}","https://test12345.live/?num_scrambled_semantic=8&num_scrambled_causal=4&num_scrambled_schematic=4&participantId=E667F3EBE3634605B2953BFAA3A0A434&assignmentId=0198beaf-2390-714c-a085-42a6312f6d24&projectId=0198be8b-78cf-72d2-ba2b-1e62c78022e0","E667F3EBE3634605B2953BFAA3A0A434-2025-08-18-20-13-59","","null","","images/causal_sequence/museum_causal/museum_causal_2.png","null","",""
"","","","","","image-button-response","62","406584","0.0-12.0-1.0-2.1","E667F3EBE3634605B2953BFAA3A0A434","E667F3EBE3634605B2953BFAA3A0A434","0198beaf-2390-714c-a085-42a6312f6d24","0198be8b-78cf-72d2-ba2b-1e62c78022e0","{""num_scrambled_semantic"":""8"",""num_scrambled_causal"":""4"",""num_scrambled_schematic"":""4"",""participantId"":""E667F3EBE3634605B2953BFAA3A0A434"",""assignmentId"":""0198beaf-2390-714c-a085-42a6312f6d24"",""projectId"":""0198be8b-78cf-72d2-ba2b-1e62c78022e0""}","https://test12345.live/?num_scrambled_semantic=8&num_scrambled_causal=4&num_scrambled_schematic=4&participantId=E667F3EBE3634605B2953BFAA3A0A434&assignmentId=0198beaf-2390-714c-a085-42a6312f6d24&projectId=0198be8b-78cf-72d2-ba2b-1e62c78022e0","E667F3EBE3634605B2953BFAA3A0A434-2025-08-18-20-13-59","","null","","[]","null","",""
"","","","","","image-button-response","63","411096","0.0-12.0-1.0-0.2","E667F3EBE3634605B2953BFAA3A0A434","E667F3EBE3634605B2953BFAA3A0A434","0198beaf-2390-714c-a085-42a6312f6d24","0198be8b-78cf-72d2-ba2b-1e62c78022e0","{""num_scrambled_semantic"":""8"",""num_scrambled_causal"":""4"",""num_scrambled_schematic"":""4"",""participantId"":""E667F3EBE3634605B2953BFAA3A0A434"",""assignmentId"":""0198beaf-2390-714c-a085-42a6312f6d24"",""projectId"":""0198be8b-78cf-72d2-ba2b-1e62c78022e0""}","https://test12345.live/?num_scrambled_semantic=8&num_scrambled_causal=4&num_scrambled_schematic=4&participantId=E667F3EBE3634605B2953BFAA3A0A434&assignmentId=0198beaf-2390-714c-a085-42a6312f6d24&projectId=0198be8b-78cf-72d2-ba2b-1e62c78022e0","E667F3EBE3634605B2953BFAA3A0A434-2025-08-18-20-13-59","","null","","images/causal_sequence/museum_causal/museum_causal_8.png","null","",""
"","","","","","image-button-response","64","414909","0.0-12.0-1.0-1.2","E667F3EBE3634605B2953BFAA3A0A434","E667F3EBE3634605B2953BFAA3A0A434","0198beaf-2390-714c-a085-42a6312f6d24","0198be8b-78cf-72d2-ba2b-1e62c78022e0","{""num_scrambled_semantic"":""8"",""num_scrambled_causal"":""4"",""num_scrambled_schematic"":""4"",""participantId"":""E667F3EBE3634605B2953BFAA3A0A434"",""assignmentId"":""0198beaf-2390-714c-a085-42a6312f6d24"",""projectId"":""0198be8b-78cf-72d2-ba2b-1e62c78022e0""}","https://test12345.live/?num_scrambled_semantic=8&num_scrambled_causal=4&num_scrambled_schematic=4&participantId=E667F3EBE3634605B2953BFAA3A0A434&assignmentId=0198beaf-2390-714c-a085-42a6312f6d24&projectId=0198be8b-78cf-72d2-ba2b-1e62c78022e0","E667F3EBE3634605B2953BFAA3A0A434-2025-08-18-20-13-59","","3810","","images/causal_sequence/museum_causal/museum_causal_8.png","0","",""
"","","","","","image-button-response","65","416715","0.0-12.0-1.0-2.2","E667F3EBE3634605B2953BFAA3A0A434","E667F3EBE3634605B2953BFAA3A0A434","0198beaf-2390-714c-a085-42a6312f6d24","0198be8b-78cf-72d2-ba2b-1e62c78022e0","{""num_scrambled_semantic"":""8"",""num_scrambled_causal"":""4"",""num_scrambled_schematic"":""4"",""participantId"":""E667F3EBE3634605B2953BFAA3A0A434"",""assignmentId"":""0198beaf-2390-714c-a085-42a6312f6d24"",""projectId"":""0198be8b-78cf-72d2-ba2b-1e62c78022e0""}","https://test12345.live/?num_scrambled_semantic=8&num_scrambled_causal=4&num_scrambled_schematic=4&participantId=E667F3EBE3634605B2953BFAA3A0A434&assignmentId=0198beaf-2390-714c-a085-42a6312f6d24&projectId=0198be8b-78cf-72d2-ba2b-1e62c78022e0","E667F3EBE3634605B2953BFAA3A0A434-2025-08-18-20-13-59","","null","","[]","null","",""
"","","","","","image-button-response","66","421234","0.0-12.0-1.0-0.3","E667F3EBE3634605B2953BFAA3A0A434","E667F3EBE3634605B2953BFAA3A0A434","0198beaf-2390-714c-a085-42a6312f6d24","0198be8b-78cf-72d2-ba2b-1e62c78022e0","{""num_scrambled_semantic"":""8"",""num_scrambled_causal"":""4"",""num_scrambled_schematic"":""4"",""participantId"":""E667F3EBE3634605B2953BFAA3A0A434"",""assignmentId"":""0198beaf-2390-714c-a085-42a6312f6d24"",""projectId"":""0198be8b-78cf-72d2-ba2b-1e62c78022e0""}","https://test12345.live/?num_scrambled_semantic=8&num_scrambled_causal=4&num_scrambled_schematic=4&participantId=E667F3EBE3634605B2953BFAA3A0A434&assignmentId=0198beaf-2390-714c-a085-42a6312f6d24&projectId=0198be8b-78cf-72d2-ba2b-1e62c78022e0","E667F3EBE3634605B2953BFAA3A0A434-2025-08-18-20-13-59","","null","","images/causal_sequence/museum_causal/museum_causal_7.png","null","",""
"","","","","","image-button-response","67","425243","0.0-12.0-1.0-1.3","E667F3EBE3634605B2953BFAA3A0A434","E667F3EBE3634605B2953BFAA3A0A434","0198beaf-2390-714c-a085-42a6312f6d24","0198be8b-78cf-72d2-ba2b-1e62c78022e0","{""num_scrambled_semantic"":""8"",""num_scrambled_causal"":""4"",""num_scrambled_schematic"":""4"",""participantId"":""E667F3EBE3634605B2953BFAA3A0A434"",""assignmentId"":""0198beaf-2390-714c-a085-42a6312f6d24"",""projectId"":""0198be8b-78cf-72d2-ba2b-1e62c78022e0""}","https://test12345.live/?num_scrambled_semantic=8&num_scrambled_causal=4&num_scrambled_schematic=4&participantId=E667F3EBE3634605B2953BFAA3A0A434&assignmentId=0198beaf-2390-714c-a085-42a6312f6d24&projectId=0198be8b-78cf-72d2-ba2b-1e62c78022e0","E667F3EBE3634605B2953BFAA3A0A434-2025-08-18-20-13-59","","null","","images/causal_sequence/museum_causal/museum_causal_7.png","null","",""
"","","","","","image-button-response","68","427059","0.0-12.0-1.0-2.3","E667F3EBE3634605B2953BFAA3A0A434","E667F3EBE3634605B2953BFAA3A0A434","0198beaf-2390-714c-a085-42a6312f6d24","0198be8b-78cf-72d2-ba2b-1e62c78022e0","{""num_scrambled_semantic"":""8"",""num_scrambled_causal"":""4"",""num_scrambled_schematic"":""4"",""participantId"":""E667F3EBE3634605B2953BFAA3A0A434"",""assignmentId"":""0198beaf-2390-714c-a085-42a6312f6d24"",""projectId"":""0198be8b-78cf-72d2-ba2b-1e62c78022e0""}","https://test12345.live/?num_scrambled_semantic=8&num_scrambled_causal=4&num_scrambled_schematic=4&participantId=E667F3EBE3634605B2953BFAA3A0A434&assignmentId=0198beaf-2390-714c-a085-42a6312f6d24&projectId=0198be8b-78cf-72d2-ba2b-1e62c78022e0","E667F3EBE3634605B2953BFAA3A0A434-2025-08-18-20-13-59","","null","","[]","null","",""
"","","","","","image-button-response","69","431561","0.0-12.0-1.0-0.4","E667F3EBE3634605B2953BFAA3A0A434","E667F3EBE3634605B2953BFAA3A0A434","0198beaf-2390-714c-a085-42a6312f6d24","0198be8b-78cf-72d2-ba2b-1e62c78022e0","{""num_scrambled_semantic"":""8"",""num_scrambled_causal"":""4"",""num_scrambled_schematic"":""4"",""participantId"":""E667F3EBE3634605B2953BFAA3A0A434"",""assignmentId"":""0198beaf-2390-714c-a085-42a6312f6d24"",""projectId"":""0198be8b-78cf-72d2-ba2b-1e62c78022e0""}","https://test12345.live/?num_scrambled_semantic=8&num_scrambled_causal=4&num_scrambled_schematic=4&participantId=E667F3EBE3634605B2953BFAA3A0A434&assignmentId=0198beaf-2390-714c-a085-42a6312f6d24&projectId=0198be8b-78cf-72d2-ba2b-1e62c78022e0","E667F3EBE3634605B2953BFAA3A0A434-2025-08-18-20-13-59","","null","","images/causal_sequence/museum_causal/museum_causal_9.png","null","",""
"","","","","","image-button-response","70","432381","0.0-12.0-1.0-1.4","E667F3EBE3634605B2953BFAA3A0A434","E667F3EBE3634605B2953BFAA3A0A434","0198beaf-2390-714c-a085-42a6312f6d24","0198be8b-78cf-72d2-ba2b-1e62c78022e0","{""num_scrambled_semantic"":""8"",""num_scrambled_causal"":""4"",""num_scrambled_schematic"":""4"",""participantId"":""E667F3EBE3634605B2953BFAA3A0A434"",""assignmentId"":""0198beaf-2390-714c-a085-42a6312f6d24"",""projectId"":""0198be8b-78cf-72d2-ba2b-1e62c78022e0""}","https://test12345.live/?num_scrambled_semantic=8&num_scrambled_causal=4&num_scrambled_schematic=4&participantId=E667F3EBE3634605B2953BFAA3A0A434&assignmentId=0198beaf-2390-714c-a085-42a6312f6d24&projectId=0198be8b-78cf-72d2-ba2b-1e62c78022e0","E667F3EBE3634605B2953BFAA3A0A434-2025-08-18-20-13-59","","817","","images/causal_sequence/museum_causal/museum_causal_9.png","1","",""
"","","","","","image-button-response","71","434199","0.0-12.0-1.0-2.4","E667F3EBE3634605B2953BFAA3A0A434","E667F3EBE3634605B2953BFAA3A0A434","0198beaf-2390-714c-a085-42a6312f6d24","0198be8b-78cf-72d2-ba2b-1e62c78022e0","{""num_scrambled_semantic"":""8"",""num_scrambled_causal"":""4"",""num_scrambled_schematic"":""4"",""participantId"":""E667F3EBE3634605B2953BFAA3A0A434"",""assignmentId"":""0198beaf-2390-714c-a085-42a6312f6d24"",""projectId"":""0198be8b-78cf-72d2-ba2b-1e62c78022e0""}","https://test12345.live/?num_scrambled_semantic=8&num_scrambled_causal=4&num_scrambled_schematic=4&participantId=E667F3EBE3634605B2953BFAA3A0A434&assignmentId=0198beaf-2390-714c-a085-42a6312f6d24&projectId=0198be8b-78cf-72d2-ba2b-1e62c78022e0","E667F3EBE3634605B2953BFAA3A0A434-2025-08-18-20-13-59","","null","","[]","null","",""
"","","","","","image-button-response","72","438709","0.0-12.0-1.0-0.5","E667F3EBE3634605B2953BFAA3A0A434","E667F3EBE3634605B2953BFAA3A0A434","0198beaf-2390-714c-a085-42a6312f6d24","0198be8b-78cf-72d2-ba2b-1e62c78022e0","{""num_scrambled_semantic"":""8"",""num_scrambled_causal"":""4"",""num_scrambled_schematic"":""4"",""participantId"":""E667F3EBE3634605B2953BFAA3A0A434"",""assignmentId"":""0198beaf-2390-714c-a085-42a6312f6d24"",""projectId"":""0198be8b-78cf-72d2-ba2b-1e62c78022e0""}","https://test12345.live/?num_scrambled_semantic=8&num_scrambled_causal=4&num_scrambled_schematic=4&participantId=E667F3EBE3634605B2953BFAA3A0A434&assignmentId=0198beaf-2390-714c-a085-42a6312f6d24&projectId=0198be8b-78cf-72d2-ba2b-1e62c78022e0","E667F3EBE3634605B2953BFAA3A0A434-2025-08-18-20-13-59","","null","","images/causal_sequence/museum_causal/museum_causal_6.png","null","",""
"","","","","","image-button-response","73","440395","0.0-12.0-1.0-1.5","E667F3EBE3634605B2953BFAA3A0A434","E667F3EBE3634605B2953BFAA3A0A434","0198beaf-2390-714c-a085-42a6312f6d24","0198be8b-78cf-72d2-ba2b-1e62c78022e0","{""num_scrambled_semantic"":""8"",""num_scrambled_causal"":""4"",""num_scrambled_schematic"":""4"",""participantId"":""E667F3EBE3634605B2953BFAA3A0A434"",""assignmentId"":""0198beaf-2390-714c-a085-42a6312f6d24"",""projectId"":""0198be8b-78cf-72d2-ba2b-1e62c78022e0""}","https://test12345.live/?num_scrambled_semantic=8&num_scrambled_causal=4&num_scrambled_schematic=4&participantId=E667F3EBE3634605B2953BFAA3A0A434&assignmentId=0198beaf-2390-714c-a085-42a6312f6d24&projectId=0198be8b-78cf-72d2-ba2b-1e62c78022e0","E667F3EBE3634605B2953BFAA3A0A434-2025-08-18-20-13-59","","1683","","images/causal_sequence/museum_causal/museum_causal_6.png","0","",""
"","","","","","image-button-response","74","442203","0.0-12.0-1.0-2.5","E667F3EBE3634605B2953BFAA3A0A434","E667F3EBE3634605B2953BFAA3A0A434","0198beaf-2390-714c-a085-42a6312f6d24","0198be8b-78cf-72d2-ba2b-1e62c78022e0","{""num_scrambled_semantic"":""8"",""num_scrambled_causal"":""4"",""num_scrambled_schematic"":""4"",""participantId"":""E667F3EBE3634605B2953BFAA3A0A434"",""assignmentId"":""0198beaf-2390-714c-a085-42a6312f6d24"",""projectId"":""0198be8b-78cf-72d2-ba2b-1e62c78022e0""}","https://test12345.live/?num_scrambled_semantic=8&num_scrambled_causal=4&num_scrambled_schematic=4&participantId=E667F3EBE3634605B2953BFAA3A0A434&assignmentId=0198beaf-2390-714c-a085-42a6312f6d24&projectId=0198be8b-78cf-72d2-ba2b-1e62c78022e0","E667F3EBE3634605B2953BFAA3A0A434-2025-08-18-20-13-59","","null","","[]","null","",""
"","","","","","image-button-response","75","446718","0.0-12.0-1.0-0.6","E667F3EBE3634605B2953BFAA3A0A434","E667F3EBE3634605B2953BFAA3A0A434","0198beaf-2390-714c-a085-42a6312f6d24","0198be8b-78cf-72d2-ba2b-1e62c78022e0","{""num_scrambled_semantic"":""8"",""num_scrambled_causal"":""4"",""num_scrambled_schematic"":""4"",""participantId"":""E667F3EBE3634605B2953BFAA3A0A434"",""assignmentId"":""0198beaf-2390-714c-a085-42a6312f6d24"",""projectId"":""0198be8b-78cf-72d2-ba2b-1e62c78022e0""}","https://test12345.live/?num_scrambled_semantic=8&num_scrambled_causal=4&num_scrambled_schematic=4&participantId=E667F3EBE3634605B2953BFAA3A0A434&assignmentId=0198beaf-2390-714c-a085-42a6312f6d24&projectId=0198be8b-78cf-72d2-ba2b-1e62c78022e0","E667F3EBE3634605B2953BFAA3A0A434-2025-08-18-20-13-59","","null","","images/causal_sequence/museum_causal/museum_causal_3.png","null","",""
"","","","","","image-button-response","76","449139","0.0-12.0-1.0-1.6","E667F3EBE3634605B2953BFAA3A0A434","E667F3EBE3634605B2953BFAA3A0A434","0198beaf-2390-714c-a085-42a6312f6d24","0198be8b-78cf-72d2-ba2b-1e62c78022e0","{""num_scrambled_semantic"":""8"",""num_scrambled_causal"":""4"",""num_scrambled_schematic"":""4"",""participantId"":""E667F3EBE3634605B2953BFAA3A0A434"",""assignmentId"":""0198beaf-2390-714c-a085-42a6312f6d24"",""projectId"":""0198be8b-78cf-72d2-ba2b-1e62c78022e0""}","https://test12345.live/?num_scrambled_semantic=8&num_scrambled_causal=4&num_scrambled_schematic=4&participantId=E667F3EBE3634605B2953BFAA3A0A434&assignmentId=0198beaf-2390-714c-a085-42a6312f6d24&projectId=0198be8b-78cf-72d2-ba2b-1e62c78022e0","E667F3EBE3634605B2953BFAA3A0A434-2025-08-18-20-13-59","","2418","","images/causal_sequence/museum_causal/museum_causal_3.png","0","",""
"","","","","","image-button-response","77","450943","0.0-12.0-1.0-2.6","E667F3EBE3634605B2953BFAA3A0A434","E667F3EBE3634605B2953BFAA3A0A434","0198beaf-2390-714c-a085-42a6312f6d24","0198be8b-78cf-72d2-ba2b-1e62c78022e0","{""num_scrambled_semantic"":""8"",""num_scrambled_causal"":""4"",""num_scrambled_schematic"":""4"",""participantId"":""E667F3EBE3634605B2953BFAA3A0A434"",""assignmentId"":""0198beaf-2390-714c-a085-42a6312f6d24"",""projectId"":""0198be8b-78cf-72d2-ba2b-1e62c78022e0""}","https://test12345.live/?num_scrambled_semantic=8&num_scrambled_causal=4&num_scrambled_schematic=4&participantId=E667F3EBE3634605B2953BFAA3A0A434&assignmentId=0198beaf-2390-714c-a085-42a6312f6d24&projectId=0198be8b-78cf-72d2-ba2b-1e62c78022e0","E667F3EBE3634605B2953BFAA3A0A434-2025-08-18-20-13-59","","null","","[]","null","",""
"","","","","","image-button-response","78","455457","0.0-12.0-1.0-0.7","E667F3EBE3634605B2953BFAA3A0A434","E667F3EBE3634605B2953BFAA3A0A434","0198beaf-2390-714c-a085-42a6312f6d24","0198be8b-78cf-72d2-ba2b-1e62c78022e0","{""num_scrambled_semantic"":""8"",""num_scrambled_causal"":""4"",""num_scrambled_schematic"":""4"",""participantId"":""E667F3EBE3634605B2953BFAA3A0A434"",""assignmentId"":""0198beaf-2390-714c-a085-42a6312f6d24"",""projectId"":""0198be8b-78cf-72d2-ba2b-1e62c78022e0""}","https://test12345.live/?num_scrambled_semantic=8&num_scrambled_causal=4&num_scrambled_schematic=4&participantId=E667F3EBE3634605B2953BFAA3A0A434&assignmentId=0198beaf-2390-714c-a085-42a6312f6d24&projectId=0198be8b-78cf-72d2-ba2b-1e62c78022e0","E667F3EBE3634605B2953BFAA3A0A434-2025-08-18-20-13-59","","null","","images/causal_sequence/museum_causal/museum_causal_ten.png","null","",""
"","","","","","image-button-response","79","456585","0.0-12.0-1.0-1.7","E667F3EBE3634605B2953BFAA3A0A434","E667F3EBE3634605B2953BFAA3A0A434","0198beaf-2390-714c-a085-42a6312f6d24","0198be8b-78cf-72d2-ba2b-1e62c78022e0","{""num_scrambled_semantic"":""8"",""num_scrambled_causal"":""4"",""num_scrambled_schematic"":""4"",""participantId"":""E667F3EBE3634605B2953BFAA3A0A434"",""assignmentId"":""0198beaf-2390-714c-a085-42a6312f6d24"",""projectId"":""0198be8b-78cf-72d2-ba2b-1e62c78022e0""}","https://test12345.live/?num_scrambled_semantic=8&num_scrambled_causal=4&num_scrambled_schematic=4&participantId=E667F3EBE3634605B2953BFAA3A0A434&assignmentId=0198beaf-2390-714c-a085-42a6312f6d24&projectId=0198be8b-78cf-72d2-ba2b-1e62c78022e0","E667F3EBE3634605B2953BFAA3A0A434-2025-08-18-20-13-59","","1125","","images/causal_sequence/museum_causal/museum_causal_ten.png","0","",""
"","","","","","image-button-response","80","458402","0.0-12.0-1.0-2.7","E667F3EBE3634605B2953BFAA3A0A434","E667F3EBE3634605B2953BFAA3A0A434","0198beaf-2390-714c-a085-42a6312f6d24","0198be8b-78cf-72d2-ba2b-1e62c78022e0","{""num_scrambled_semantic"":""8"",""num_scrambled_causal"":""4"",""num_scrambled_schematic"":""4"",""participantId"":""E667F3EBE3634605B2953BFAA3A0A434"",""assignmentId"":""0198beaf-2390-714c-a085-42a6312f6d24"",""projectId"":""0198be8b-78cf-72d2-ba2b-1e62c78022e0""}","https://test12345.live/?num_scrambled_semantic=8&num_scrambled_causal=4&num_scrambled_schematic=4&participantId=E667F3EBE3634605B2953BFAA3A0A434&assignmentId=0198beaf-2390-714c-a085-42a6312f6d24&projectId=0198be8b-78cf-72d2-ba2b-1e62c78022e0","E667F3EBE3634605B2953BFAA3A0A434-2025-08-18-20-13-59","","null","","[]","null","",""
"","","","","","image-button-response","81","462908","0.0-12.0-1.0-0.8","E667F3EBE3634605B2953BFAA3A0A434","E667F3EBE3634605B2953BFAA3A0A434","0198beaf-2390-714c-a085-42a6312f6d24","0198be8b-78cf-72d2-ba2b-1e62c78022e0","{""num_scrambled_semantic"":""8"",""num_scrambled_causal"":""4"",""num_scrambled_schematic"":""4"",""participantId"":""E667F3EBE3634605B2953BFAA3A0A434"",""assignmentId"":""0198beaf-2390-714c-a085-42a6312f6d24"",""projectId"":""0198be8b-78cf-72d2-ba2b-1e62c78022e0""}","https://test12345.live/?num_scrambled_semantic=8&num_scrambled_causal=4&num_scrambled_schematic=4&participantId=E667F3EBE3634605B2953BFAA3A0A434&assignmentId=0198beaf-2390-714c-a085-42a6312f6d24&projectId=0198be8b-78cf-72d2-ba2b-1e62c78022e0","E667F3EBE3634605B2953BFAA3A0A434-2025-08-18-20-13-59","","null","","images/causal_sequence/museum_causal/museum_causal_4.png","null","",""
"","","","","","image-button-response","82","465600","0.0-12.0-1.0-1.8","E667F3EBE3634605B2953BFAA3A0A434","E667F3EBE3634605B2953BFAA3A0A434","0198beaf-2390-714c-a085-42a6312f6d24","0198be8b-78cf-72d2-ba2b-1e62c78022e0","{""num_scrambled_semantic"":""8"",""num_scrambled_causal"":""4"",""num_scrambled_schematic"":""4"",""participantId"":""E667F3EBE3634605B2953BFAA3A0A434"",""assignmentId"":""0198beaf-2390-714c-a085-42a6312f6d24"",""projectId"":""0198be8b-78cf-72d2-ba2b-1e62c78022e0""}","https://test12345.live/?num_scrambled_semantic=8&num_scrambled_causal=4&num_scrambled_schematic=4&participantId=E667F3EBE3634605B2953BFAA3A0A434&assignmentId=0198beaf-2390-714c-a085-42a6312f6d24&projectId=0198be8b-78cf-72d2-ba2b-1e62c78022e0","E667F3EBE3634605B2953BFAA3A0A434-2025-08-18-20-13-59","","2689","","images/causal_sequence/museum_causal/museum_causal_4.png","1","",""
"","","","","","image-button-response","83","467414","0.0-12.0-1.0-2.8","E667F3EBE3634605B2953BFAA3A0A434","E667F3EBE3634605B2953BFAA3A0A434","0198beaf-2390-714c-a085-42a6312f6d24","0198be8b-78cf-72d2-ba2b-1e62c78022e0","{""num_scrambled_semantic"":""8"",""num_scrambled_causal"":""4"",""num_scrambled_schematic"":""4"",""participantId"":""E667F3EBE3634605B2953BFAA3A0A434"",""assignmentId"":""0198beaf-2390-714c-a085-42a6312f6d24"",""projectId"":""0198be8b-78cf-72d2-ba2b-1e62c78022e0""}","https://test12345.live/?num_scrambled_semantic=8&num_scrambled_causal=4&num_scrambled_schematic=4&participantId=E667F3EBE3634605B2953BFAA3A0A434&assignmentId=0198beaf-2390-714c-a085-42a6312f6d24&projectId=0198be8b-78cf-72d2-ba2b-1e62c78022e0","E667F3EBE3634605B2953BFAA3A0A434-2025-08-18-20-13-59","","null","","[]","null","",""
"","","","","","image-button-response","84","471929","0.0-12.0-1.0-0.9","E667F3EBE3634605B2953BFAA3A0A434","E667F3EBE3634605B2953BFAA3A0A434","0198beaf-2390-714c-a085-42a6312f6d24","0198be8b-78cf-72d2-ba2b-1e62c78022e0","{""num_scrambled_semantic"":""8"",""num_scrambled_causal"":""4"",""num_scrambled_schematic"":""4"",""participantId"":""E667F3EBE3634605B2953BFAA3A0A434"",""assignmentId"":""0198beaf-2390-714c-a085-42a6312f6d24"",""projectId"":""0198be8b-78cf-72d2-ba2b-1e62c78022e0""}","https://test12345.live/?num_scrambled_semantic=8&num_scrambled_causal=4&num_scrambled_schematic=4&participantId=E667F3EBE3634605B2953BFAA3A0A434&assignmentId=0198beaf-2390-714c-a085-42a6312f6d24&projectId=0198be8b-78cf-72d2-ba2b-1e62c78022e0","E667F3EBE3634605B2953BFAA3A0A434-2025-08-18-20-13-59","","null","","images/causal_sequence/museum_causal/museum_causal_1.png","null","",""
"","","","","","image-button-response","85","473234","0.0-12.0-1.0-1.9","E667F3EBE3634605B2953BFAA3A0A434","E667F3EBE3634605B2953BFAA3A0A434","0198beaf-2390-714c-a085-42a6312f6d24","0198be8b-78cf-72d2-ba2b-1e62c78022e0","{""num_scrambled_semantic"":""8"",""num_scrambled_causal"":""4"",""num_scrambled_schematic"":""4"",""participantId"":""E667F3EBE3634605B2953BFAA3A0A434"",""assignmentId"":""0198beaf-2390-714c-a085-42a6312f6d24"",""projectId"":""0198be8b-78cf-72d2-ba2b-1e62c78022e0""}","https://test12345.live/?num_scrambled_semantic=8&num_scrambled_causal=4&num_scrambled_schematic=4&participantId=E667F3EBE3634605B2953BFAA3A0A434&assignmentId=0198beaf-2390-714c-a085-42a6312f6d24&projectId=0198be8b-78cf-72d2-ba2b-1e62c78022e0","E667F3EBE3634605B2953BFAA3A0A434-2025-08-18-20-13-59","","1301","","images/causal_sequence/museum_causal/museum_causal_1.png","0","",""
"","","","","","image-button-response","86","475048","0.0-12.0-1.0-2.9","E667F3EBE3634605B2953BFAA3A0A434","E667F3EBE3634605B2953BFAA3A0A434","0198beaf-2390-714c-a085-42a6312f6d24","0198be8b-78cf-72d2-ba2b-1e62c78022e0","{""num_scrambled_semantic"":""8"",""num_scrambled_causal"":""4"",""num_scrambled_schematic"":""4"",""participantId"":""E667F3EBE3634605B2953BFAA3A0A434"",""assignmentId"":""0198beaf-2390-714c-a085-42a6312f6d24"",""projectId"":""0198be8b-78cf-72d2-ba2b-1e62c78022e0""}","https://test12345.live/?num_scrambled_semantic=8&num_scrambled_causal=4&num_scrambled_schematic=4&participantId=E667F3EBE3634605B2953BFAA3A0A434&assignmentId=0198beaf-2390-714c-a085-42a6312f6d24&projectId=0198be8b-78cf-72d2-ba2b-1e62c78022e0","E667F3EBE3634605B2953BFAA3A0A434-2025-08-18-20-13-59","","null","","[]","null","",""
"","","","","","html-audio-response","87","523766","0.0-13.0","E667F3EBE3634605B2953BFAA3A0A434","E667F3EBE3634605B2953BFAA3A0A434","0198beaf-2390-714c-a085-42a6312f6d24","0198be8b-78cf-72d2-ba2b-1e62c78022e0","{""num_scrambled_semantic"":""8"",""num_scrambled_causal"":""4"",""num_scrambled_schematic"":""4"",""participantId"":""E667F3EBE3634605B2953BFAA3A0A434"",""assignmentId"":""0198beaf-2390-714c-a085-42a6312f6d24"",""projectId"":""0198be8b-78cf-72d2-ba2b-1e62c78022e0""}","https://test12345.live/?num_scrambled_semantic=8&num_scrambled_causal=4&num_scrambled_schematic=4&participantId=E667F3EBE3634605B2953BFAA3A0A434&assignmentId=0198beaf-2390-714c-a085-42a6312f6d24&projectId=0198be8b-78cf-72d2-ba2b-1e62c78022e0","E667F3EBE3634605B2953BFAA3A0A434-2025-08-18-20-13-59","","46325","","[""<span style=\""color: red; font-size: 24px\""> NOW RECORDING</span><p>Please say out loud all the images you saw, in the order of the story they create. Try to recall the sequence of events as they appeared in the story, not necessarily the order they were presented on the screen.</p>""]","","3","museum_causal"
"","","","","","image-button-response","88","529809","0.0-14.0-0.0","E667F3EBE3634605B2953BFAA3A0A434","E667F3EBE3634605B2953BFAA3A0A434","0198beaf-2390-714c-a085-42a6312f6d24","0198be8b-78cf-72d2-ba2b-1e62c78022e0","{""num_scrambled_semantic"":""8"",""num_scrambled_causal"":""4"",""num_scrambled_schematic"":""4"",""participantId"":""E667F3EBE3634605B2953BFAA3A0A434"",""assignmentId"":""0198beaf-2390-714c-a085-42a6312f6d24"",""projectId"":""0198be8b-78cf-72d2-ba2b-1e62c78022e0""}","https://test12345.live/?num_scrambled_semantic=8&num_scrambled_causal=4&num_scrambled_schematic=4&participantId=E667F3EBE3634605B2953BFAA3A0A434&assignmentId=0198beaf-2390-714c-a085-42a6312f6d24&projectId=0198be8b-78cf-72d2-ba2b-1e62c78022e0","E667F3EBE3634605B2953BFAA3A0A434-2025-08-18-20-13-59","","null","","images/causal_sequence/the_performance_causal/the_performance_causal_0.png","null","",""
"","","","","","image-button-response","89","534325","0.0-14.0-1.0-0.0","E667F3EBE3634605B2953BFAA3A0A434","E667F3EBE3634605B2953BFAA3A0A434","0198beaf-2390-714c-a085-42a6312f6d24","0198be8b-78cf-72d2-ba2b-1e62c78022e0","{""num_scrambled_semantic"":""8"",""num_scrambled_causal"":""4"",""num_scrambled_schematic"":""4"",""participantId"":""E667F3EBE3634605B2953BFAA3A0A434"",""assignmentId"":""0198beaf-2390-714c-a085-42a6312f6d24"",""projectId"":""0198be8b-78cf-72d2-ba2b-1e62c78022e0""}","https://test12345.live/?num_scrambled_semantic=8&num_scrambled_causal=4&num_scrambled_schematic=4&participantId=E667F3EBE3634605B2953BFAA3A0A434&assignmentId=0198beaf-2390-714c-a085-42a6312f6d24&projectId=0198be8b-78cf-72d2-ba2b-1e62c78022e0","E667F3EBE3634605B2953BFAA3A0A434-2025-08-18-20-13-59","","null","","images/causal_sequence/the_performance_causal/the_performance_causal_9.png","null","",""
"","","","","","image-button-response","90","536972","0.0-14.0-1.0-1.0","E667F3EBE3634605B2953BFAA3A0A434","E667F3EBE3634605B2953BFAA3A0A434","0198beaf-2390-714c-a085-42a6312f6d24","0198be8b-78cf-72d2-ba2b-1e62c78022e0","{""num_scrambled_semantic"":""8"",""num_scrambled_causal"":""4"",""num_scrambled_schematic"":""4"",""participantId"":""E667F3EBE3634605B2953BFAA3A0A434"",""assignmentId"":""0198beaf-2390-714c-a085-42a6312f6d24"",""projectId"":""0198be8b-78cf-72d2-ba2b-1e62c78022e0""}","https://test12345.live/?num_scrambled_semantic=8&num_scrambled_causal=4&num_scrambled_schematic=4&participantId=E667F3EBE3634605B2953BFAA3A0A434&assignmentId=0198beaf-2390-714c-a085-42a6312f6d24&projectId=0198be8b-78cf-72d2-ba2b-1e62c78022e0","E667F3EBE3634605B2953BFAA3A0A434-2025-08-18-20-13-59","","2645","","images/causal_sequence/the_performance_causal/the_performance_causal_9.png","0","",""
"","","","","","image-button-response","91","538782","0.0-14.0-1.0-2.0","E667F3EBE3634605B2953BFAA3A0A434","E667F3EBE3634605B2953BFAA3A0A434","0198beaf-2390-714c-a085-42a6312f6d24","0198be8b-78cf-72d2-ba2b-1e62c78022e0","{""num_scrambled_semantic"":""8"",""num_scrambled_causal"":""4"",""num_scrambled_schematic"":""4"",""participantId"":""E667F3EBE3634605B2953BFAA3A0A434"",""assignmentId"":""0198beaf-2390-714c-a085-42a6312f6d24"",""projectId"":""0198be8b-78cf-72d2-ba2b-1e62c78022e0""}","https://test12345.live/?num_scrambled_semantic=8&num_scrambled_causal=4&num_scrambled_schematic=4&participantId=E667F3EBE3634605B2953BFAA3A0A434&assignmentId=0198beaf-2390-714c-a085-42a6312f6d24&projectId=0198be8b-78cf-72d2-ba2b-1e62c78022e0","E667F3EBE3634605B2953BFAA3A0A434-2025-08-18-20-13-59","","null","","[]","null","",""
"","","","","","image-button-response","92","543289","0.0-14.0-1.0-0.1","E667F3EBE3634605B2953BFAA3A0A434","E667F3EBE3634605B2953BFAA3A0A434","0198beaf-2390-714c-a085-42a6312f6d24","0198be8b-78cf-72d2-ba2b-1e62c78022e0","{""num_scrambled_semantic"":""8"",""num_scrambled_causal"":""4"",""num_scrambled_schematic"":""4"",""participantId"":""E667F3EBE3634605B2953BFAA3A0A434"",""assignmentId"":""0198beaf-2390-714c-a085-42a6312f6d24"",""projectId"":""0198be8b-78cf-72d2-ba2b-1e62c78022e0""}","https://test12345.live/?num_scrambled_semantic=8&num_scrambled_causal=4&num_scrambled_schematic=4&participantId=E667F3EBE3634605B2953BFAA3A0A434&assignmentId=0198beaf-2390-714c-a085-42a6312f6d24&projectId=0198be8b-78cf-72d2-ba2b-1e62c78022e0","E667F3EBE3634605B2953BFAA3A0A434-2025-08-18-20-13-59","","null","","images/causal_sequence/the_performance_causal/the_performance_causal_4.png","null","",""
"","","","","","image-button-response","93","545644","0.0-14.0-1.0-1.1","E667F3EBE3634605B2953BFAA3A0A434","E667F3EBE3634605B2953BFAA3A0A434","0198beaf-2390-714c-a085-42a6312f6d24","0198be8b-78cf-72d2-ba2b-1e62c78022e0","{""num_scrambled_semantic"":""8"",""num_scrambled_causal"":""4"",""num_scrambled_schematic"":""4"",""participantId"":""E667F3EBE3634605B2953BFAA3A0A434"",""assignmentId"":""0198beaf-2390-714c-a085-42a6312f6d24"",""projectId"":""0198be8b-78cf-72d2-ba2b-1e62c78022e0""}","https://test12345.live/?num_scrambled_semantic=8&num_scrambled_causal=4&num_scrambled_schematic=4&participantId=E667F3EBE3634605B2953BFAA3A0A434&assignmentId=0198beaf-2390-714c-a085-42a6312f6d24&projectId=0198be8b-78cf-72d2-ba2b-1e62c78022e0","E667F3EBE3634605B2953BFAA3A0A434-2025-08-18-20-13-59","","2350","","images/causal_sequence/the_performance_causal/the_performance_causal_4.png","0","",""
"","","","","","image-button-response","94","547459","0.0-14.0-1.0-2.1","E667F3EBE3634605B2953BFAA3A0A434","E667F3EBE3634605B2953BFAA3A0A434","0198beaf-2390-714c-a085-42a6312f6d24","0198be8b-78cf-72d2-ba2b-1e62c78022e0","{""num_scrambled_semantic"":""8"",""num_scrambled_causal"":""4"",""num_scrambled_schematic"":""4"",""participantId"":""E667F3EBE3634605B2953BFAA3A0A434"",""assignmentId"":""0198beaf-2390-714c-a085-42a6312f6d24"",""projectId"":""0198be8b-78cf-72d2-ba2b-1e62c78022e0""}","https://test12345.live/?num_scrambled_semantic=8&num_scrambled_causal=4&num_scrambled_schematic=4&participantId=E667F3EBE3634605B2953BFAA3A0A434&assignmentId=0198beaf-2390-714c-a085-42a6312f6d24&projectId=0198be8b-78cf-72d2-ba2b-1e62c78022e0","E667F3EBE3634605B2953BFAA3A0A434-2025-08-18-20-13-59","","null","","[]","null","",""
"","","","","","image-button-response","95","551974","0.0-14.0-1.0-0.2","E667F3EBE3634605B2953BFAA3A0A434","E667F3EBE3634605B2953BFAA3A0A434","0198beaf-2390-714c-a085-42a6312f6d24","0198be8b-78cf-72d2-ba2b-1e62c78022e0","{""num_scrambled_semantic"":""8"",""num_scrambled_causal"":""4"",""num_scrambled_schematic"":""4"",""participantId"":""E667F3EBE3634605B2953BFAA3A0A434"",""assignmentId"":""0198beaf-2390-714c-a085-42a6312f6d24"",""projectId"":""0198be8b-78cf-72d2-ba2b-1e62c78022e0""}","https://test12345.live/?num_scrambled_semantic=8&num_scrambled_causal=4&num_scrambled_schematic=4&participantId=E667F3EBE3634605B2953BFAA3A0A434&assignmentId=0198beaf-2390-714c-a085-42a6312f6d24&projectId=0198be8b-78cf-72d2-ba2b-1e62c78022e0","E667F3EBE3634605B2953BFAA3A0A434-2025-08-18-20-13-59","","null","","images/causal_sequence/the_performance_causal/the_performance_causal_3.png","null","",""
"","","","","","image-button-response","96","552649","0.0-14.0-1.0-1.2","E667F3EBE3634605B2953BFAA3A0A434","E667F3EBE3634605B2953BFAA3A0A434","0198beaf-2390-714c-a085-42a6312f6d24","0198be8b-78cf-72d2-ba2b-1e62c78022e0","{""num_scrambled_semantic"":""8"",""num_scrambled_causal"":""4"",""num_scrambled_schematic"":""4"",""participantId"":""E667F3EBE3634605B2953BFAA3A0A434"",""assignmentId"":""0198beaf-2390-714c-a085-42a6312f6d24"",""projectId"":""0198be8b-78cf-72d2-ba2b-1e62c78022e0""}","https://test12345.live/?num_scrambled_semantic=8&num_scrambled_causal=4&num_scrambled_schematic=4&participantId=E667F3EBE3634605B2953BFAA3A0A434&assignmentId=0198beaf-2390-714c-a085-42a6312f6d24&projectId=0198be8b-78cf-72d2-ba2b-1e62c78022e0","E667F3EBE3634605B2953BFAA3A0A434-2025-08-18-20-13-59","","671","","images/causal_sequence/the_performance_causal/the_performance_causal_3.png","0","",""
"","","","","","image-button-response","97","554465","0.0-14.0-1.0-2.2","E667F3EBE3634605B2953BFAA3A0A434","E667F3EBE3634605B2953BFAA3A0A434","0198beaf-2390-714c-a085-42a6312f6d24","0198be8b-78cf-72d2-ba2b-1e62c78022e0","{""num_scrambled_semantic"":""8"",""num_scrambled_causal"":""4"",""num_scrambled_schematic"":""4"",""participantId"":""E667F3EBE3634605B2953BFAA3A0A434"",""assignmentId"":""0198beaf-2390-714c-a085-42a6312f6d24"",""projectId"":""0198be8b-78cf-72d2-ba2b-1e62c78022e0""}","https://test12345.live/?num_scrambled_semantic=8&num_scrambled_causal=4&num_scrambled_schematic=4&participantId=E667F3EBE3634605B2953BFAA3A0A434&assignmentId=0198beaf-2390-714c-a085-42a6312f6d24&projectId=0198be8b-78cf-72d2-ba2b-1e62c78022e0","E667F3EBE3634605B2953BFAA3A0A434-2025-08-18-20-13-59","","null","","[]","null","",""
"","","","","","image-button-response","98","558982","0.0-14.0-1.0-0.3","E667F3EBE3634605B2953BFAA3A0A434","E667F3EBE3634605B2953BFAA3A0A434","0198beaf-2390-714c-a085-42a6312f6d24","0198be8b-78cf-72d2-ba2b-1e62c78022e0","{""num_scrambled_semantic"":""8"",""num_scrambled_causal"":""4"",""num_scrambled_schematic"":""4"",""participantId"":""E667F3EBE3634605B2953BFAA3A0A434"",""assignmentId"":""0198beaf-2390-714c-a085-42a6312f6d24"",""projectId"":""0198be8b-78cf-72d2-ba2b-1e62c78022e0""}","https://test12345.live/?num_scrambled_semantic=8&num_scrambled_causal=4&num_scrambled_schematic=4&participantId=E667F3EBE3634605B2953BFAA3A0A434&assignmentId=0198beaf-2390-714c-a085-42a6312f6d24&projectId=0198be8b-78cf-72d2-ba2b-1e62c78022e0","E667F3EBE3634605B2953BFAA3A0A434-2025-08-18-20-13-59","","null","","images/causal_sequence/the_performance_causal/the_performance_causal_2.png","null","",""
"","","","","","image-button-response","99","560965","0.0-14.0-1.0-1.3","E667F3EBE3634605B2953BFAA3A0A434","E667F3EBE3634605B2953BFAA3A0A434","0198beaf-2390-714c-a085-42a6312f6d24","0198be8b-78cf-72d2-ba2b-1e62c78022e0","{""num_scrambled_semantic"":""8"",""num_scrambled_causal"":""4"",""num_scrambled_schematic"":""4"",""participantId"":""E667F3EBE3634605B2953BFAA3A0A434"",""assignmentId"":""0198beaf-2390-714c-a085-42a6312f6d24"",""projectId"":""0198be8b-78cf-72d2-ba2b-1e62c78022e0""}","https://test12345.live/?num_scrambled_semantic=8&num_scrambled_causal=4&num_scrambled_schematic=4&participantId=E667F3EBE3634605B2953BFAA3A0A434&assignmentId=0198beaf-2390-714c-a085-42a6312f6d24&projectId=0198be8b-78cf-72d2-ba2b-1e62c78022e0","E667F3EBE3634605B2953BFAA3A0A434-2025-08-18-20-13-59","","1981","","images/causal_sequence/the_performance_causal/the_performance_causal_2.png","0","",""
"","","","","","image-button-response","100","562779","0.0-14.0-1.0-2.3","E667F3EBE3634605B2953BFAA3A0A434","E667F3EBE3634605B2953BFAA3A0A434","0198beaf-2390-714c-a085-42a6312f6d24","0198be8b-78cf-72d2-ba2b-1e62c78022e0","{""num_scrambled_semantic"":""8"",""num_scrambled_causal"":""4"",""num_scrambled_schematic"":""4"",""participantId"":""E667F3EBE3634605B2953BFAA3A0A434"",""assignmentId"":""0198beaf-2390-714c-a085-42a6312f6d24"",""projectId"":""0198be8b-78cf-72d2-ba2b-1e62c78022e0""}","https://test12345.live/?num_scrambled_semantic=8&num_scrambled_causal=4&num_scrambled_schematic=4&participantId=E667F3EBE3634605B2953BFAA3A0A434&assignmentId=0198beaf-2390-714c-a085-42a6312f6d24&projectId=0198be8b-78cf-72d2-ba2b-1e62c78022e0","E667F3EBE3634605B2953BFAA3A0A434-2025-08-18-20-13-59","","null","","[]","null","",""
"","","","","","image-button-response","101","567293","0.0-14.0-1.0-0.4","E667F3EBE3634605B2953BFAA3A0A434","E667F3EBE3634605B2953BFAA3A0A434","0198beaf-2390-714c-a085-42a6312f6d24","0198be8b-78cf-72d2-ba2b-1e62c78022e0","{""num_scrambled_semantic"":""8"",""num_scrambled_causal"":""4"",""num_scrambled_schematic"":""4"",""participantId"":""E667F3EBE3634605B2953BFAA3A0A434"",""assignmentId"":""0198beaf-2390-714c-a085-42a6312f6d24"",""projectId"":""0198be8b-78cf-72d2-ba2b-1e62c78022e0""}","https://test12345.live/?num_scrambled_semantic=8&num_scrambled_causal=4&num_scrambled_schematic=4&participantId=E667F3EBE3634605B2953BFAA3A0A434&assignmentId=0198beaf-2390-714c-a085-42a6312f6d24&projectId=0198be8b-78cf-72d2-ba2b-1e62c78022e0","E667F3EBE3634605B2953BFAA3A0A434-2025-08-18-20-13-59","","null","","images/causal_sequence/the_performance_causal/the_performance_causal_6.png","null","",""
"","","","","","image-button-response","102","569275","0.0-14.0-1.0-1.4","E667F3EBE3634605B2953BFAA3A0A434","E667F3EBE3634605B2953BFAA3A0A434","0198beaf-2390-714c-a085-42a6312f6d24","0198be8b-78cf-72d2-ba2b-1e62c78022e0","{""num_scrambled_semantic"":""8"",""num_scrambled_causal"":""4"",""num_scrambled_schematic"":""4"",""participantId"":""E667F3EBE3634605B2953BFAA3A0A434"",""assignmentId"":""0198beaf-2390-714c-a085-42a6312f6d24"",""projectId"":""0198be8b-78cf-72d2-ba2b-1e62c78022e0""}","https://test12345.live/?num_scrambled_semantic=8&num_scrambled_causal=4&num_scrambled_schematic=4&participantId=E667F3EBE3634605B2953BFAA3A0A434&assignmentId=0198beaf-2390-714c-a085-42a6312f6d24&projectId=0198be8b-78cf-72d2-ba2b-1e62c78022e0","E667F3EBE3634605B2953BFAA3A0A434-2025-08-18-20-13-59","","1980","","images/causal_sequence/the_performance_causal/the_performance_causal_6.png","0","",""
"","","","","","image-button-response","103","571077","0.0-14.0-1.0-2.4","E667F3EBE3634605B2953BFAA3A0A434","E667F3EBE3634605B2953BFAA3A0A434","0198beaf-2390-714c-a085-42a6312f6d24","0198be8b-78cf-72d2-ba2b-1e62c78022e0","{""num_scrambled_semantic"":""8"",""num_scrambled_causal"":""4"",""num_scrambled_schematic"":""4"",""participantId"":""E667F3EBE3634605B2953BFAA3A0A434"",""assignmentId"":""0198beaf-2390-714c-a085-42a6312f6d24"",""projectId"":""0198be8b-78cf-72d2-ba2b-1e62c78022e0""}","https://test12345.live/?num_scrambled_semantic=8&num_scrambled_causal=4&num_scrambled_schematic=4&participantId=E667F3EBE3634605B2953BFAA3A0A434&assignmentId=0198beaf-2390-714c-a085-42a6312f6d24&projectId=0198be8b-78cf-72d2-ba2b-1e62c78022e0","E667F3EBE3634605B2953BFAA3A0A434-2025-08-18-20-13-59","","null","","[]","null","",""
"","","","","","image-button-response","104","575582","0.0-14.0-1.0-0.5","E667F3EBE3634605B2953BFAA3A0A434","E667F3EBE3634605B2953BFAA3A0A434","0198beaf-2390-714c-a085-42a6312f6d24","0198be8b-78cf-72d2-ba2b-1e62c78022e0","{""num_scrambled_semantic"":""8"",""num_scrambled_causal"":""4"",""num_scrambled_schematic"":""4"",""participantId"":""E667F3EBE3634605B2953BFAA3A0A434"",""assignmentId"":""0198beaf-2390-714c-a085-42a6312f6d24"",""projectId"":""0198be8b-78cf-72d2-ba2b-1e62c78022e0""}","https://test12345.live/?num_scrambled_semantic=8&num_scrambled_causal=4&num_scrambled_schematic=4&participantId=E667F3EBE3634605B2953BFAA3A0A434&assignmentId=0198beaf-2390-714c-a085-42a6312f6d24&projectId=0198be8b-78cf-72d2-ba2b-1e62c78022e0","E667F3EBE3634605B2953BFAA3A0A434-2025-08-18-20-13-59","","null","","images/causal_sequence/the_performance_causal/the_performance_causal_7.png","null","",""
"","","","","","image-button-response","105","577429","0.0-14.0-1.0-1.5","E667F3EBE3634605B2953BFAA3A0A434","E667F3EBE3634605B2953BFAA3A0A434","0198beaf-2390-714c-a085-42a6312f6d24","0198be8b-78cf-72d2-ba2b-1e62c78022e0","{""num_scrambled_semantic"":""8"",""num_scrambled_causal"":""4"",""num_scrambled_schematic"":""4"",""participantId"":""E667F3EBE3634605B2953BFAA3A0A434"",""assignmentId"":""0198beaf-2390-714c-a085-42a6312f6d24"",""projectId"":""0198be8b-78cf-72d2-ba2b-1e62c78022e0""}","https://test12345.live/?num_scrambled_semantic=8&num_scrambled_causal=4&num_scrambled_schematic=4&participantId=E667F3EBE3634605B2953BFAA3A0A434&assignmentId=0198beaf-2390-714c-a085-42a6312f6d24&projectId=0198be8b-78cf-72d2-ba2b-1e62c78022e0","E667F3EBE3634605B2953BFAA3A0A434-2025-08-18-20-13-59","","1844","","images/causal_sequence/the_performance_causal/the_performance_causal_7.png","0","",""
"","","","","","image-button-response","106","579244","0.0-14.0-1.0-2.5","E667F3EBE3634605B2953BFAA3A0A434","E667F3EBE3634605B2953BFAA3A0A434","0198beaf-2390-714c-a085-42a6312f6d24","0198be8b-78cf-72d2-ba2b-1e62c78022e0","{""num_scrambled_semantic"":""8"",""num_scrambled_causal"":""4"",""num_scrambled_schematic"":""4"",""participantId"":""E667F3EBE3634605B2953BFAA3A0A434"",""assignmentId"":""0198beaf-2390-714c-a085-42a6312f6d24"",""projectId"":""0198be8b-78cf-72d2-ba2b-1e62c78022e0""}","https://test12345.live/?num_scrambled_semantic=8&num_scrambled_causal=4&num_scrambled_schematic=4&participantId=E667F3EBE3634605B2953BFAA3A0A434&assignmentId=0198beaf-2390-714c-a085-42a6312f6d24&projectId=0198be8b-78cf-72d2-ba2b-1e62c78022e0","E667F3EBE3634605B2953BFAA3A0A434-2025-08-18-20-13-59","","null","","[]","null","",""
"","","","","","image-button-response","107","583761","0.0-14.0-1.0-0.6","E667F3EBE3634605B2953BFAA3A0A434","E667F3EBE3634605B2953BFAA3A0A434","0198beaf-2390-714c-a085-42a6312f6d24","0198be8b-78cf-72d2-ba2b-1e62c78022e0","{""num_scrambled_semantic"":""8"",""num_scrambled_causal"":""4"",""num_scrambled_schematic"":""4"",""participantId"":""E667F3EBE3634605B2953BFAA3A0A434"",""assignmentId"":""0198beaf-2390-714c-a085-42a6312f6d24"",""projectId"":""0198be8b-78cf-72d2-ba2b-1e62c78022e0""}","https://test12345.live/?num_scrambled_semantic=8&num_scrambled_causal=4&num_scrambled_schematic=4&participantId=E667F3EBE3634605B2953BFAA3A0A434&assignmentId=0198beaf-2390-714c-a085-42a6312f6d24&projectId=0198be8b-78cf-72d2-ba2b-1e62c78022e0","E667F3EBE3634605B2953BFAA3A0A434-2025-08-18-20-13-59","","null","","images/causal_sequence/the_performance_causal/the_performance_causal_1.png","null","",""
"","","","","","image-button-response","108","587767","0.0-14.0-1.0-1.6","E667F3EBE3634605B2953BFAA3A0A434","E667F3EBE3634605B2953BFAA3A0A434","0198beaf-2390-714c-a085-42a6312f6d24","0198be8b-78cf-72d2-ba2b-1e62c78022e0","{""num_scrambled_semantic"":""8"",""num_scrambled_causal"":""4"",""num_scrambled_schematic"":""4"",""participantId"":""E667F3EBE3634605B2953BFAA3A0A434"",""assignmentId"":""0198beaf-2390-714c-a085-42a6312f6d24"",""projectId"":""0198be8b-78cf-72d2-ba2b-1e62c78022e0""}","https://test12345.live/?num_scrambled_semantic=8&num_scrambled_causal=4&num_scrambled_schematic=4&participantId=E667F3EBE3634605B2953BFAA3A0A434&assignmentId=0198beaf-2390-714c-a085-42a6312f6d24&projectId=0198be8b-78cf-72d2-ba2b-1e62c78022e0","E667F3EBE3634605B2953BFAA3A0A434-2025-08-18-20-13-59","","null","","images/causal_sequence/the_performance_causal/the_performance_causal_1.png","null","",""
"","","","","","image-button-response","109","589579","0.0-14.0-1.0-2.6","E667F3EBE3634605B2953BFAA3A0A434","E667F3EBE3634605B2953BFAA3A0A434","0198beaf-2390-714c-a085-42a6312f6d24","0198be8b-78cf-72d2-ba2b-1e62c78022e0","{""num_scrambled_semantic"":""8"",""num_scrambled_causal"":""4"",""num_scrambled_schematic"":""4"",""participantId"":""E667F3EBE3634605B2953BFAA3A0A434"",""assignmentId"":""0198beaf-2390-714c-a085-42a6312f6d24"",""projectId"":""0198be8b-78cf-72d2-ba2b-1e62c78022e0""}","https://test12345.live/?num_scrambled_semantic=8&num_scrambled_causal=4&num_scrambled_schematic=4&participantId=E667F3EBE3634605B2953BFAA3A0A434&assignmentId=0198beaf-2390-714c-a085-42a6312f6d24&projectId=0198be8b-78cf-72d2-ba2b-1e62c78022e0","E667F3EBE3634605B2953BFAA3A0A434-2025-08-18-20-13-59","","null","","[]","null","",""
"","","","","","image-button-response","110","594084","0.0-14.0-1.0-0.7","E667F3EBE3634605B2953BFAA3A0A434","E667F3EBE3634605B2953BFAA3A0A434","0198beaf-2390-714c-a085-42a6312f6d24","0198be8b-78cf-72d2-ba2b-1e62c78022e0","{""num_scrambled_semantic"":""8"",""num_scrambled_causal"":""4"",""num_scrambled_schematic"":""4"",""participantId"":""E667F3EBE3634605B2953BFAA3A0A434"",""assignmentId"":""0198beaf-2390-714c-a085-42a6312f6d24"",""projectId"":""0198be8b-78cf-72d2-ba2b-1e62c78022e0""}","https://test12345.live/?num_scrambled_semantic=8&num_scrambled_causal=4&num_scrambled_schematic=4&participantId=E667F3EBE3634605B2953BFAA3A0A434&assignmentId=0198beaf-2390-714c-a085-42a6312f6d24&projectId=0198be8b-78cf-72d2-ba2b-1e62c78022e0","E667F3EBE3634605B2953BFAA3A0A434-2025-08-18-20-13-59","","null","","images/causal_sequence/the_performance_causal/the_performance_causal_5.png","null","",""
"","","","","","image-button-response","111","595049","0.0-14.0-1.0-1.7","E667F3EBE3634605B2953BFAA3A0A434","E667F3EBE3634605B2953BFAA3A0A434","0198beaf-2390-714c-a085-42a6312f6d24","0198be8b-78cf-72d2-ba2b-1e62c78022e0","{""num_scrambled_semantic"":""8"",""num_scrambled_causal"":""4"",""num_scrambled_schematic"":""4"",""participantId"":""E667F3EBE3634605B2953BFAA3A0A434"",""assignmentId"":""0198beaf-2390-714c-a085-42a6312f6d24"",""projectId"":""0198be8b-78cf-72d2-ba2b-1e62c78022e0""}","https://test12345.live/?num_scrambled_semantic=8&num_scrambled_causal=4&num_scrambled_schematic=4&participantId=E667F3EBE3634605B2953BFAA3A0A434&assignmentId=0198beaf-2390-714c-a085-42a6312f6d24&projectId=0198be8b-78cf-72d2-ba2b-1e62c78022e0","E667F3EBE3634605B2953BFAA3A0A434-2025-08-18-20-13-59","","963","","images/causal_sequence/the_performance_causal/the_performance_causal_5.png","0","",""
"","","","","","image-button-response","112","596860","0.0-14.0-1.0-2.7","E667F3EBE3634605B2953BFAA3A0A434","E667F3EBE3634605B2953BFAA3A0A434","0198beaf-2390-714c-a085-42a6312f6d24","0198be8b-78cf-72d2-ba2b-1e62c78022e0","{""num_scrambled_semantic"":""8"",""num_scrambled_causal"":""4"",""num_scrambled_schematic"":""4"",""participantId"":""E667F3EBE3634605B2953BFAA3A0A434"",""assignmentId"":""0198beaf-2390-714c-a085-42a6312f6d24"",""projectId"":""0198be8b-78cf-72d2-ba2b-1e62c78022e0""}","https://test12345.live/?num_scrambled_semantic=8&num_scrambled_causal=4&num_scrambled_schematic=4&participantId=E667F3EBE3634605B2953BFAA3A0A434&assignmentId=0198beaf-2390-714c-a085-42a6312f6d24&projectId=0198be8b-78cf-72d2-ba2b-1e62c78022e0","E667F3EBE3634605B2953BFAA3A0A434-2025-08-18-20-13-59","","null","","[]","null","",""
"","","","","","image-button-response","113","601375","0.0-14.0-1.0-0.8","E667F3EBE3634605B2953BFAA3A0A434","E667F3EBE3634605B2953BFAA3A0A434","0198beaf-2390-714c-a085-42a6312f6d24","0198be8b-78cf-72d2-ba2b-1e62c78022e0","{""num_scrambled_semantic"":""8"",""num_scrambled_causal"":""4"",""num_scrambled_schematic"":""4"",""participantId"":""E667F3EBE3634605B2953BFAA3A0A434"",""assignmentId"":""0198beaf-2390-714c-a085-42a6312f6d24"",""projectId"":""0198be8b-78cf-72d2-ba2b-1e62c78022e0""}","https://test12345.live/?num_scrambled_semantic=8&num_scrambled_causal=4&num_scrambled_schematic=4&participantId=E667F3EBE3634605B2953BFAA3A0A434&assignmentId=0198beaf-2390-714c-a085-42a6312f6d24&projectId=0198be8b-78cf-72d2-ba2b-1e62c78022e0","E667F3EBE3634605B2953BFAA3A0A434-2025-08-18-20-13-59","","null","","images/causal_sequence/the_performance_causal/the_performance_causal_ten.png","null","",""
