"success","timeout","failed_images","failed_audio","failed_video","trial_type","trial_index","time_elapsed","internal_node_id","subject","subject_id","study_id","session_id","urlvar","current_url","audio_id","view_history","rt","device_id","stimulus","response","estimated_stimulus_onset","seq_name"
"true","false","[]","[]","[]","preload","0","2304","0.0-0.0","E79044EF69BC4B129A6CD524CE34393C","E79044EF69BC4B129A6CD524CE34393C","0198bd14-1187-7a49-95d4-73506fc169d4","0198bbb8-fd11-701d-9147-68794ad37298","{""num_scrambled_semantic"":""8"",""num_scrambled_causal"":""4"",""num_scrambled_schematic"":""4"",""participantId"":""E79044EF69BC4B129A6CD524CE34393C"",""assignmentId"":""0198bd14-1187-7a49-95d4-73506fc169d4"",""projectId"":""0198bbb8-fd11-701d-9147-68794ad37298""}","https://test12345.live/?num_scrambled_semantic=8&num_scrambled_causal=4&num_scrambled_schematic=4&participantId=E79044EF69BC4B129A6CD524CE34393C&assignmentId=0198bd14-1187-7a49-95d4-73506fc169d4&projectId=0198bbb8-fd11-701d-9147-68794ad37298","E79044EF69BC4B129A6CD524CE34393C-2025-08-18-12-41-34","","","","","","",""
"","","","","","instructions","1","111237","0.0-1.0","E79044EF69BC4B129A6CD524CE34393C","E79044EF69BC4B129A6CD524CE34393C","0198bd14-1187-7a49-95d4-73506fc169d4","0198bbb8-fd11-701d-9147-68794ad37298","{""num_scrambled_semantic"":""8"",""num_scrambled_causal"":""4"",""num_scrambled_schematic"":""4"",""participantId"":""E79044EF69BC4B129A6CD524CE34393C"",""assignmentId"":""0198bd14-1187-7a49-95d4-73506fc169d4"",""projectId"":""0198bbb8-fd11-701d-9147-68794ad37298""}","https://test12345.live/?num_scrambled_semantic=8&num_scrambled_causal=4&num_scrambled_schematic=4&participantId=E79044EF69BC4B129A6CD524CE34393C&assignmentId=0198bd14-1187-7a49-95d4-73506fc169d4&projectId=0198bbb8-fd11-701d-9147-68794ad37298","E79044EF69BC4B129A6CD524CE34393C-2025-08-18-12-41-34","[{""page_index"":0,""viewing_time"":108931}]","108932","","","","",""
"","","","","","instructions","2","133611","0.0-2.0","E79044EF69BC4B129A6CD524CE34393C","E79044EF69BC4B129A6CD524CE34393C","0198bd14-1187-7a49-95d4-73506fc169d4","0198bbb8-fd11-701d-9147-68794ad37298","{""num_scrambled_semantic"":""8"",""num_scrambled_causal"":""4"",""num_scrambled_schematic"":""4"",""participantId"":""E79044EF69BC4B129A6CD524CE34393C"",""assignmentId"":""0198bd14-1187-7a49-95d4-73506fc169d4"",""projectId"":""0198bbb8-fd11-701d-9147-68794ad37298""}","https://test12345.live/?num_scrambled_semantic=8&num_scrambled_causal=4&num_scrambled_schematic=4&participantId=E79044EF69BC4B129A6CD524CE34393C&assignmentId=0198bd14-1187-7a49-95d4-73506fc169d4&projectId=0198bbb8-fd11-701d-9147-68794ad37298","E79044EF69BC4B129A6CD524CE34393C-2025-08-18-12-41-34","[{""page_index"":0,""viewing_time"":22373}]","22374","","","","",""
"true","","","","","fullscreen","3","136297","0.0-3.0","E79044EF69BC4B129A6CD524CE34393C","E79044EF69BC4B129A6CD524CE34393C","0198bd14-1187-7a49-95d4-73506fc169d4","0198bbb8-fd11-701d-9147-68794ad37298","{""num_scrambled_semantic"":""8"",""num_scrambled_causal"":""4"",""num_scrambled_schematic"":""4"",""participantId"":""E79044EF69BC4B129A6CD524CE34393C"",""assignmentId"":""0198bd14-1187-7a49-95d4-73506fc169d4"",""projectId"":""0198bbb8-fd11-701d-9147-68794ad37298""}","https://test12345.live/?num_scrambled_semantic=8&num_scrambled_causal=4&num_scrambled_schematic=4&participantId=E79044EF69BC4B129A6CD524CE34393C&assignmentId=0198bd14-1187-7a49-95d4-73506fc169d4&projectId=0198bbb8-fd11-701d-9147-68794ad37298","E79044EF69BC4B129A6CD524CE34393C-2025-08-18-12-41-34","","1682","","","","",""
"","","","","","initialize-microphone","4","141077","0.0-4.0-0.0","E79044EF69BC4B129A6CD524CE34393C","E79044EF69BC4B129A6CD524CE34393C","0198bd14-1187-7a49-95d4-73506fc169d4","0198bbb8-fd11-701d-9147-68794ad37298","{""num_scrambled_semantic"":""8"",""num_scrambled_causal"":""4"",""num_scrambled_schematic"":""4"",""participantId"":""E79044EF69BC4B129A6CD524CE34393C"",""assignmentId"":""0198bd14-1187-7a49-95d4-73506fc169d4"",""projectId"":""0198bbb8-fd11-701d-9147-68794ad37298""}","https://test12345.live/?num_scrambled_semantic=8&num_scrambled_causal=4&num_scrambled_schematic=4&participantId=E79044EF69BC4B129A6CD524CE34393C&assignmentId=0198bd14-1187-7a49-95d4-73506fc169d4&projectId=0198bbb8-fd11-701d-9147-68794ad37298","E79044EF69BC4B129A6CD524CE34393C-2025-08-18-12-41-34","","","bb9ca82e8bbefece0511b6ab9c167e4a8bcd591c9f4f5fe2073c57f8531f3cc8","","","",""
"","","","","","html-audio-response","5","167429","0.0-4.0-1.0","E79044EF69BC4B129A6CD524CE34393C","E79044EF69BC4B129A6CD524CE34393C","0198bd14-1187-7a49-95d4-73506fc169d4","0198bbb8-fd11-701d-9147-68794ad37298","{""num_scrambled_semantic"":""8"",""num_scrambled_causal"":""4"",""num_scrambled_schematic"":""4"",""participantId"":""E79044EF69BC4B129A6CD524CE34393C"",""assignmentId"":""0198bd14-1187-7a49-95d4-73506fc169d4"",""projectId"":""0198bbb8-fd11-701d-9147-68794ad37298""}","https://test12345.live/?num_scrambled_semantic=8&num_scrambled_causal=4&num_scrambled_schematic=4&participantId=E79044EF69BC4B129A6CD524CE34393C&assignmentId=0198bd14-1187-7a49-95d4-73506fc169d4&projectId=0198bbb8-fd11-701d-9147-68794ad37298","E79044EF69BC4B129A6CD524CE34393C-2025-08-18-12-41-34","","5809","","<span style=""color: red; font-size: 24px""> NOW RECORDING</span>
        <p>Please test Microphone</p>","","2",""
"","","","","","html-button-response","6","169296","0.0-4.0-2.0","E79044EF69BC4B129A6CD524CE34393C","E79044EF69BC4B129A6CD524CE34393C","0198bd14-1187-7a49-95d4-73506fc169d4","0198bbb8-fd11-701d-9147-68794ad37298","{""num_scrambled_semantic"":""8"",""num_scrambled_causal"":""4"",""num_scrambled_schematic"":""4"",""participantId"":""E79044EF69BC4B129A6CD524CE34393C"",""assignmentId"":""0198bd14-1187-7a49-95d4-73506fc169d4"",""projectId"":""0198bbb8-fd11-701d-9147-68794ad37298""}","https://test12345.live/?num_scrambled_semantic=8&num_scrambled_causal=4&num_scrambled_schematic=4&participantId=E79044EF69BC4B129A6CD524CE34393C&assignmentId=0198bd14-1187-7a49-95d4-73506fc169d4&projectId=0198bbb8-fd11-701d-9147-68794ad37298","E79044EF69BC4B129A6CD524CE34393C-2025-08-18-12-41-34","","1864","","<p style=""font-size:48px; color:red;"">Is Microphone OK?</p>","1","",""
"","","","","","instructions","7","178804","0.0-5.0","E79044EF69BC4B129A6CD524CE34393C","E79044EF69BC4B129A6CD524CE34393C","0198bd14-1187-7a49-95d4-73506fc169d4","0198bbb8-fd11-701d-9147-68794ad37298","{""num_scrambled_semantic"":""8"",""num_scrambled_causal"":""4"",""num_scrambled_schematic"":""4"",""participantId"":""E79044EF69BC4B129A6CD524CE34393C"",""assignmentId"":""0198bd14-1187-7a49-95d4-73506fc169d4"",""projectId"":""0198bbb8-fd11-701d-9147-68794ad37298""}","https://test12345.live/?num_scrambled_semantic=8&num_scrambled_causal=4&num_scrambled_schematic=4&participantId=E79044EF69BC4B129A6CD524CE34393C&assignmentId=0198bd14-1187-7a49-95d4-73506fc169d4&projectId=0198bbb8-fd11-701d-9147-68794ad37298","E79044EF69BC4B129A6CD524CE34393C-2025-08-18-12-41-34","[{""page_index"":0,""viewing_time"":3894},{""page_index"":1,""viewing_time"":5613}]","9507","","","","",""
"","","","","","image-button-response","8","184807","0.0-6.0-0.0","E79044EF69BC4B129A6CD524CE34393C","E79044EF69BC4B129A6CD524CE34393C","0198bd14-1187-7a49-95d4-73506fc169d4","0198bbb8-fd11-701d-9147-68794ad37298","{""num_scrambled_semantic"":""8"",""num_scrambled_causal"":""4"",""num_scrambled_schematic"":""4"",""participantId"":""E79044EF69BC4B129A6CD524CE34393C"",""assignmentId"":""0198bd14-1187-7a49-95d4-73506fc169d4"",""projectId"":""0198bbb8-fd11-701d-9147-68794ad37298""}","https://test12345.live/?num_scrambled_semantic=8&num_scrambled_causal=4&num_scrambled_schematic=4&participantId=E79044EF69BC4B129A6CD524CE34393C&assignmentId=0198bd14-1187-7a49-95d4-73506fc169d4&projectId=0198bbb8-fd11-701d-9147-68794ad37298","E79044EF69BC4B129A6CD524CE34393C-2025-08-18-12-41-34","","null","","images/instructions/movie_0.png","null","",""
"","","","","","image-button-response","9","189311","0.0-6.0-1.0-0.0","E79044EF69BC4B129A6CD524CE34393C","E79044EF69BC4B129A6CD524CE34393C","0198bd14-1187-7a49-95d4-73506fc169d4","0198bbb8-fd11-701d-9147-68794ad37298","{""num_scrambled_semantic"":""8"",""num_scrambled_causal"":""4"",""num_scrambled_schematic"":""4"",""participantId"":""E79044EF69BC4B129A6CD524CE34393C"",""assignmentId"":""0198bd14-1187-7a49-95d4-73506fc169d4"",""projectId"":""0198bbb8-fd11-701d-9147-68794ad37298""}","https://test12345.live/?num_scrambled_semantic=8&num_scrambled_causal=4&num_scrambled_schematic=4&participantId=E79044EF69BC4B129A6CD524CE34393C&assignmentId=0198bd14-1187-7a49-95d4-73506fc169d4&projectId=0198bbb8-fd11-701d-9147-68794ad37298","E79044EF69BC4B129A6CD524CE34393C-2025-08-18-12-41-34","","null","","images/instructions/movie_1.png","null","",""
"","","","","","image-button-response","10","193108","0.0-6.0-1.0-1.0","E79044EF69BC4B129A6CD524CE34393C","E79044EF69BC4B129A6CD524CE34393C","0198bd14-1187-7a49-95d4-73506fc169d4","0198bbb8-fd11-701d-9147-68794ad37298","{""num_scrambled_semantic"":""8"",""num_scrambled_causal"":""4"",""num_scrambled_schematic"":""4"",""participantId"":""E79044EF69BC4B129A6CD524CE34393C"",""assignmentId"":""0198bd14-1187-7a49-95d4-73506fc169d4"",""projectId"":""0198bbb8-fd11-701d-9147-68794ad37298""}","https://test12345.live/?num_scrambled_semantic=8&num_scrambled_causal=4&num_scrambled_schematic=4&participantId=E79044EF69BC4B129A6CD524CE34393C&assignmentId=0198bd14-1187-7a49-95d4-73506fc169d4&projectId=0198bbb8-fd11-701d-9147-68794ad37298","E79044EF69BC4B129A6CD524CE34393C-2025-08-18-12-41-34","","3795","","images/instructions/movie_1.png","0","",""
"","","","","","image-button-response","11","203911","0.0-6.0-1.0-2.0","E79044EF69BC4B129A6CD524CE34393C","E79044EF69BC4B129A6CD524CE34393C","0198bd14-1187-7a49-95d4-73506fc169d4","0198bbb8-fd11-701d-9147-68794ad37298","{""num_scrambled_semantic"":""8"",""num_scrambled_causal"":""4"",""num_scrambled_schematic"":""4"",""participantId"":""E79044EF69BC4B129A6CD524CE34393C"",""assignmentId"":""0198bd14-1187-7a49-95d4-73506fc169d4"",""projectId"":""0198bbb8-fd11-701d-9147-68794ad37298""}","https://test12345.live/?num_scrambled_semantic=8&num_scrambled_causal=4&num_scrambled_schematic=4&participantId=E79044EF69BC4B129A6CD524CE34393C&assignmentId=0198bd14-1187-7a49-95d4-73506fc169d4&projectId=0198bbb8-fd11-701d-9147-68794ad37298","E79044EF69BC4B129A6CD524CE34393C-2025-08-18-12-41-34","","null","","[]","null","",""
"","","","","","image-button-response","12","208419","0.0-6.0-1.0-0.1","E79044EF69BC4B129A6CD524CE34393C","E79044EF69BC4B129A6CD524CE34393C","0198bd14-1187-7a49-95d4-73506fc169d4","0198bbb8-fd11-701d-9147-68794ad37298","{""num_scrambled_semantic"":""8"",""num_scrambled_causal"":""4"",""num_scrambled_schematic"":""4"",""participantId"":""E79044EF69BC4B129A6CD524CE34393C"",""assignmentId"":""0198bd14-1187-7a49-95d4-73506fc169d4"",""projectId"":""0198bbb8-fd11-701d-9147-68794ad37298""}","https://test12345.live/?num_scrambled_semantic=8&num_scrambled_causal=4&num_scrambled_schematic=4&participantId=E79044EF69BC4B129A6CD524CE34393C&assignmentId=0198bd14-1187-7a49-95d4-73506fc169d4&projectId=0198bbb8-fd11-701d-9147-68794ad37298","E79044EF69BC4B129A6CD524CE34393C-2025-08-18-12-41-34","","null","","images/instructions/movie_2.png","null","",""
"","","","","","image-button-response","13","210219","0.0-6.0-1.0-1.1","E79044EF69BC4B129A6CD524CE34393C","E79044EF69BC4B129A6CD524CE34393C","0198bd14-1187-7a49-95d4-73506fc169d4","0198bbb8-fd11-701d-9147-68794ad37298","{""num_scrambled_semantic"":""8"",""num_scrambled_causal"":""4"",""num_scrambled_schematic"":""4"",""participantId"":""E79044EF69BC4B129A6CD524CE34393C"",""assignmentId"":""0198bd14-1187-7a49-95d4-73506fc169d4"",""projectId"":""0198bbb8-fd11-701d-9147-68794ad37298""}","https://test12345.live/?num_scrambled_semantic=8&num_scrambled_causal=4&num_scrambled_schematic=4&participantId=E79044EF69BC4B129A6CD524CE34393C&assignmentId=0198bd14-1187-7a49-95d4-73506fc169d4&projectId=0198bbb8-fd11-701d-9147-68794ad37298","E79044EF69BC4B129A6CD524CE34393C-2025-08-18-12-41-34","","1798","","images/instructions/movie_2.png","0","",""
"","","","","","image-button-response","14","221026","0.0-6.0-1.0-2.1","E79044EF69BC4B129A6CD524CE34393C","E79044EF69BC4B129A6CD524CE34393C","0198bd14-1187-7a49-95d4-73506fc169d4","0198bbb8-fd11-701d-9147-68794ad37298","{""num_scrambled_semantic"":""8"",""num_scrambled_causal"":""4"",""num_scrambled_schematic"":""4"",""participantId"":""E79044EF69BC4B129A6CD524CE34393C"",""assignmentId"":""0198bd14-1187-7a49-95d4-73506fc169d4"",""projectId"":""0198bbb8-fd11-701d-9147-68794ad37298""}","https://test12345.live/?num_scrambled_semantic=8&num_scrambled_causal=4&num_scrambled_schematic=4&participantId=E79044EF69BC4B129A6CD524CE34393C&assignmentId=0198bd14-1187-7a49-95d4-73506fc169d4&projectId=0198bbb8-fd11-701d-9147-68794ad37298","E79044EF69BC4B129A6CD524CE34393C-2025-08-18-12-41-34","","null","","[]","null","",""
"","","","","","image-button-response","15","225529","0.0-6.0-1.0-0.2","E79044EF69BC4B129A6CD524CE34393C","E79044EF69BC4B129A6CD524CE34393C","0198bd14-1187-7a49-95d4-73506fc169d4","0198bbb8-fd11-701d-9147-68794ad37298","{""num_scrambled_semantic"":""8"",""num_scrambled_causal"":""4"",""num_scrambled_schematic"":""4"",""participantId"":""E79044EF69BC4B129A6CD524CE34393C"",""assignmentId"":""0198bd14-1187-7a49-95d4-73506fc169d4"",""projectId"":""0198bbb8-fd11-701d-9147-68794ad37298""}","https://test12345.live/?num_scrambled_semantic=8&num_scrambled_causal=4&num_scrambled_schematic=4&participantId=E79044EF69BC4B129A6CD524CE34393C&assignmentId=0198bd14-1187-7a49-95d4-73506fc169d4&projectId=0198bbb8-fd11-701d-9147-68794ad37298","E79044EF69BC4B129A6CD524CE34393C-2025-08-18-12-41-34","","null","","images/instructions/movie_3.png","null","",""
"","","","","","image-button-response","16","228428","0.0-6.0-1.0-1.2","E79044EF69BC4B129A6CD524CE34393C","E79044EF69BC4B129A6CD524CE34393C","0198bd14-1187-7a49-95d4-73506fc169d4","0198bbb8-fd11-701d-9147-68794ad37298","{""num_scrambled_semantic"":""8"",""num_scrambled_causal"":""4"",""num_scrambled_schematic"":""4"",""participantId"":""E79044EF69BC4B129A6CD524CE34393C"",""assignmentId"":""0198bd14-1187-7a49-95d4-73506fc169d4"",""projectId"":""0198bbb8-fd11-701d-9147-68794ad37298""}","https://test12345.live/?num_scrambled_semantic=8&num_scrambled_causal=4&num_scrambled_schematic=4&participantId=E79044EF69BC4B129A6CD524CE34393C&assignmentId=0198bd14-1187-7a49-95d4-73506fc169d4&projectId=0198bbb8-fd11-701d-9147-68794ad37298","E79044EF69BC4B129A6CD524CE34393C-2025-08-18-12-41-34","","2897","","images/instructions/movie_3.png","0","",""
"","","","","","image-button-response","17","239235","0.0-6.0-1.0-2.2","E79044EF69BC4B129A6CD524CE34393C","E79044EF69BC4B129A6CD524CE34393C","0198bd14-1187-7a49-95d4-73506fc169d4","0198bbb8-fd11-701d-9147-68794ad37298","{""num_scrambled_semantic"":""8"",""num_scrambled_causal"":""4"",""num_scrambled_schematic"":""4"",""participantId"":""E79044EF69BC4B129A6CD524CE34393C"",""assignmentId"":""0198bd14-1187-7a49-95d4-73506fc169d4"",""projectId"":""0198bbb8-fd11-701d-9147-68794ad37298""}","https://test12345.live/?num_scrambled_semantic=8&num_scrambled_causal=4&num_scrambled_schematic=4&participantId=E79044EF69BC4B129A6CD524CE34393C&assignmentId=0198bd14-1187-7a49-95d4-73506fc169d4&projectId=0198bbb8-fd11-701d-9147-68794ad37298","E79044EF69BC4B129A6CD524CE34393C-2025-08-18-12-41-34","","null","","[]","null","",""
"","","","","","image-button-response","18","243742","0.0-6.0-1.0-0.3","E79044EF69BC4B129A6CD524CE34393C","E79044EF69BC4B129A6CD524CE34393C","0198bd14-1187-7a49-95d4-73506fc169d4","0198bbb8-fd11-701d-9147-68794ad37298","{""num_scrambled_semantic"":""8"",""num_scrambled_causal"":""4"",""num_scrambled_schematic"":""4"",""participantId"":""E79044EF69BC4B129A6CD524CE34393C"",""assignmentId"":""0198bd14-1187-7a49-95d4-73506fc169d4"",""projectId"":""0198bbb8-fd11-701d-9147-68794ad37298""}","https://test12345.live/?num_scrambled_semantic=8&num_scrambled_causal=4&num_scrambled_schematic=4&participantId=E79044EF69BC4B129A6CD524CE34393C&assignmentId=0198bd14-1187-7a49-95d4-73506fc169d4&projectId=0198bbb8-fd11-701d-9147-68794ad37298","E79044EF69BC4B129A6CD524CE34393C-2025-08-18-12-41-34","","null","","images/instructions/movie_4.png","null","",""
"","","","","","image-button-response","19","246040","0.0-6.0-1.0-1.3","E79044EF69BC4B129A6CD524CE34393C","E79044EF69BC4B129A6CD524CE34393C","0198bd14-1187-7a49-95d4-73506fc169d4","0198bbb8-fd11-701d-9147-68794ad37298","{""num_scrambled_semantic"":""8"",""num_scrambled_causal"":""4"",""num_scrambled_schematic"":""4"",""participantId"":""E79044EF69BC4B129A6CD524CE34393C"",""assignmentId"":""0198bd14-1187-7a49-95d4-73506fc169d4"",""projectId"":""0198bbb8-fd11-701d-9147-68794ad37298""}","https://test12345.live/?num_scrambled_semantic=8&num_scrambled_causal=4&num_scrambled_schematic=4&participantId=E79044EF69BC4B129A6CD524CE34393C&assignmentId=0198bd14-1187-7a49-95d4-73506fc169d4&projectId=0198bbb8-fd11-701d-9147-68794ad37298","E79044EF69BC4B129A6CD524CE34393C-2025-08-18-12-41-34","","2297","","images/instructions/movie_4.png","0","",""
"","","","","","image-button-response","20","256847","0.0-6.0-1.0-2.3","E79044EF69BC4B129A6CD524CE34393C","E79044EF69BC4B129A6CD524CE34393C","0198bd14-1187-7a49-95d4-73506fc169d4","0198bbb8-fd11-701d-9147-68794ad37298","{""num_scrambled_semantic"":""8"",""num_scrambled_causal"":""4"",""num_scrambled_schematic"":""4"",""participantId"":""E79044EF69BC4B129A6CD524CE34393C"",""assignmentId"":""0198bd14-1187-7a49-95d4-73506fc169d4"",""projectId"":""0198bbb8-fd11-701d-9147-68794ad37298""}","https://test12345.live/?num_scrambled_semantic=8&num_scrambled_causal=4&num_scrambled_schematic=4&participantId=E79044EF69BC4B129A6CD524CE34393C&assignmentId=0198bd14-1187-7a49-95d4-73506fc169d4&projectId=0198bbb8-fd11-701d-9147-68794ad37298","E79044EF69BC4B129A6CD524CE34393C-2025-08-18-12-41-34","","null","","[]","null","",""
"","","","","","instructions","21","267766","0.0-7.0","E79044EF69BC4B129A6CD524CE34393C","E79044EF69BC4B129A6CD524CE34393C","0198bd14-1187-7a49-95d4-73506fc169d4","0198bbb8-fd11-701d-9147-68794ad37298","{""num_scrambled_semantic"":""8"",""num_scrambled_causal"":""4"",""num_scrambled_schematic"":""4"",""participantId"":""E79044EF69BC4B129A6CD524CE34393C"",""assignmentId"":""0198bd14-1187-7a49-95d4-73506fc169d4"",""projectId"":""0198bbb8-fd11-701d-9147-68794ad37298""}","https://test12345.live/?num_scrambled_semantic=8&num_scrambled_causal=4&num_scrambled_schematic=4&participantId=E79044EF69BC4B129A6CD524CE34393C&assignmentId=0198bd14-1187-7a49-95d4-73506fc169d4&projectId=0198bbb8-fd11-701d-9147-68794ad37298","E79044EF69BC4B129A6CD524CE34393C-2025-08-18-12-41-34","[{""page_index"":0,""viewing_time"":9406},{""page_index"":1,""viewing_time"":1512}]","10918","","","","",""
"","","","","","html-audio-response","22","293260","0.0-8.0","E79044EF69BC4B129A6CD524CE34393C","E79044EF69BC4B129A6CD524CE34393C","0198bd14-1187-7a49-95d4-73506fc169d4","0198bbb8-fd11-701d-9147-68794ad37298","{""num_scrambled_semantic"":""8"",""num_scrambled_causal"":""4"",""num_scrambled_schematic"":""4"",""participantId"":""E79044EF69BC4B129A6CD524CE34393C"",""assignmentId"":""0198bd14-1187-7a49-95d4-73506fc169d4"",""projectId"":""0198bbb8-fd11-701d-9147-68794ad37298""}","https://test12345.live/?num_scrambled_semantic=8&num_scrambled_causal=4&num_scrambled_schematic=4&participantId=E79044EF69BC4B129A6CD524CE34393C&assignmentId=0198bd14-1187-7a49-95d4-73506fc169d4&projectId=0198bbb8-fd11-701d-9147-68794ad37298","E79044EF69BC4B129A6CD524CE34393C-2025-08-18-12-41-34","","11772","","[""<span style=\""color: red; font-size: 24px\""> NOW RECORDING</span><p>Please say out loud all the images you saw, as many as you can remember. The images can be said in any order.</p>""]","","2",""
"","","","","","instructions","23","295023","0.0-9.0","E79044EF69BC4B129A6CD524CE34393C","E79044EF69BC4B129A6CD524CE34393C","0198bd14-1187-7a49-95d4-73506fc169d4","0198bbb8-fd11-701d-9147-68794ad37298","{""num_scrambled_semantic"":""8"",""num_scrambled_causal"":""4"",""num_scrambled_schematic"":""4"",""participantId"":""E79044EF69BC4B129A6CD524CE34393C"",""assignmentId"":""0198bd14-1187-7a49-95d4-73506fc169d4"",""projectId"":""0198bbb8-fd11-701d-9147-68794ad37298""}","https://test12345.live/?num_scrambled_semantic=8&num_scrambled_causal=4&num_scrambled_schematic=4&participantId=E79044EF69BC4B129A6CD524CE34393C&assignmentId=0198bd14-1187-7a49-95d4-73506fc169d4&projectId=0198bbb8-fd11-701d-9147-68794ad37298","E79044EF69BC4B129A6CD524CE34393C-2025-08-18-12-41-34","[{""page_index"":0,""viewing_time"":1759}]","1759","","","","",""
"","","","","","image-button-response","24","301027","0.0-10.0-0.0","E79044EF69BC4B129A6CD524CE34393C","E79044EF69BC4B129A6CD524CE34393C","0198bd14-1187-7a49-95d4-73506fc169d4","0198bbb8-fd11-701d-9147-68794ad37298","{""num_scrambled_semantic"":""8"",""num_scrambled_causal"":""4"",""num_scrambled_schematic"":""4"",""participantId"":""E79044EF69BC4B129A6CD524CE34393C"",""assignmentId"":""0198bd14-1187-7a49-95d4-73506fc169d4"",""projectId"":""0198bbb8-fd11-701d-9147-68794ad37298""}","https://test12345.live/?num_scrambled_semantic=8&num_scrambled_causal=4&num_scrambled_schematic=4&participantId=E79044EF69BC4B129A6CD524CE34393C&assignmentId=0198bd14-1187-7a49-95d4-73506fc169d4&projectId=0198bbb8-fd11-701d-9147-68794ad37298","E79044EF69BC4B129A6CD524CE34393C-2025-08-18-12-41-34","","null","","images/causal_sequence/dog_causal/dog_causal_0.png","null","",""
"","","","","","image-button-response","25","305529","0.0-10.0-1.0-0.0","E79044EF69BC4B129A6CD524CE34393C","E79044EF69BC4B129A6CD524CE34393C","0198bd14-1187-7a49-95d4-73506fc169d4","0198bbb8-fd11-701d-9147-68794ad37298","{""num_scrambled_semantic"":""8"",""num_scrambled_causal"":""4"",""num_scrambled_schematic"":""4"",""participantId"":""E79044EF69BC4B129A6CD524CE34393C"",""assignmentId"":""0198bd14-1187-7a49-95d4-73506fc169d4"",""projectId"":""0198bbb8-fd11-701d-9147-68794ad37298""}","https://test12345.live/?num_scrambled_semantic=8&num_scrambled_causal=4&num_scrambled_schematic=4&participantId=E79044EF69BC4B129A6CD524CE34393C&assignmentId=0198bd14-1187-7a49-95d4-73506fc169d4&projectId=0198bbb8-fd11-701d-9147-68794ad37298","E79044EF69BC4B129A6CD524CE34393C-2025-08-18-12-41-34","","null","","images/causal_sequence/dog_causal/dog_causal_2.png","null","",""
"","","","","","image-button-response","26","306454","0.0-10.0-1.0-1.0","E79044EF69BC4B129A6CD524CE34393C","E79044EF69BC4B129A6CD524CE34393C","0198bd14-1187-7a49-95d4-73506fc169d4","0198bbb8-fd11-701d-9147-68794ad37298","{""num_scrambled_semantic"":""8"",""num_scrambled_causal"":""4"",""num_scrambled_schematic"":""4"",""participantId"":""E79044EF69BC4B129A6CD524CE34393C"",""assignmentId"":""0198bd14-1187-7a49-95d4-73506fc169d4"",""projectId"":""0198bbb8-fd11-701d-9147-68794ad37298""}","https://test12345.live/?num_scrambled_semantic=8&num_scrambled_causal=4&num_scrambled_schematic=4&participantId=E79044EF69BC4B129A6CD524CE34393C&assignmentId=0198bd14-1187-7a49-95d4-73506fc169d4&projectId=0198bbb8-fd11-701d-9147-68794ad37298","E79044EF69BC4B129A6CD524CE34393C-2025-08-18-12-41-34","","923","","images/causal_sequence/dog_causal/dog_causal_2.png","0","",""
"","","","","","image-button-response","27","317260","0.0-10.0-1.0-2.0","E79044EF69BC4B129A6CD524CE34393C","E79044EF69BC4B129A6CD524CE34393C","0198bd14-1187-7a49-95d4-73506fc169d4","0198bbb8-fd11-701d-9147-68794ad37298","{""num_scrambled_semantic"":""8"",""num_scrambled_causal"":""4"",""num_scrambled_schematic"":""4"",""participantId"":""E79044EF69BC4B129A6CD524CE34393C"",""assignmentId"":""0198bd14-1187-7a49-95d4-73506fc169d4"",""projectId"":""0198bbb8-fd11-701d-9147-68794ad37298""}","https://test12345.live/?num_scrambled_semantic=8&num_scrambled_causal=4&num_scrambled_schematic=4&participantId=E79044EF69BC4B129A6CD524CE34393C&assignmentId=0198bd14-1187-7a49-95d4-73506fc169d4&projectId=0198bbb8-fd11-701d-9147-68794ad37298","E79044EF69BC4B129A6CD524CE34393C-2025-08-18-12-41-34","","null","","[]","null","",""
"","","","","","image-button-response","28","321764","0.0-10.0-1.0-0.1","E79044EF69BC4B129A6CD524CE34393C","E79044EF69BC4B129A6CD524CE34393C","0198bd14-1187-7a49-95d4-73506fc169d4","0198bbb8-fd11-701d-9147-68794ad37298","{""num_scrambled_semantic"":""8"",""num_scrambled_causal"":""4"",""num_scrambled_schematic"":""4"",""participantId"":""E79044EF69BC4B129A6CD524CE34393C"",""assignmentId"":""0198bd14-1187-7a49-95d4-73506fc169d4"",""projectId"":""0198bbb8-fd11-701d-9147-68794ad37298""}","https://test12345.live/?num_scrambled_semantic=8&num_scrambled_causal=4&num_scrambled_schematic=4&participantId=E79044EF69BC4B129A6CD524CE34393C&assignmentId=0198bd14-1187-7a49-95d4-73506fc169d4&projectId=0198bbb8-fd11-701d-9147-68794ad37298","E79044EF69BC4B129A6CD524CE34393C-2025-08-18-12-41-34","","null","","images/causal_sequence/dog_causal/dog_causal_6.png","null","",""
"","","","","","image-button-response","29","323403","0.0-10.0-1.0-1.1","E79044EF69BC4B129A6CD524CE34393C","E79044EF69BC4B129A6CD524CE34393C","0198bd14-1187-7a49-95d4-73506fc169d4","0198bbb8-fd11-701d-9147-68794ad37298","{""num_scrambled_semantic"":""8"",""num_scrambled_causal"":""4"",""num_scrambled_schematic"":""4"",""participantId"":""E79044EF69BC4B129A6CD524CE34393C"",""assignmentId"":""0198bd14-1187-7a49-95d4-73506fc169d4"",""projectId"":""0198bbb8-fd11-701d-9147-68794ad37298""}","https://test12345.live/?num_scrambled_semantic=8&num_scrambled_causal=4&num_scrambled_schematic=4&participantId=E79044EF69BC4B129A6CD524CE34393C&assignmentId=0198bd14-1187-7a49-95d4-73506fc169d4&projectId=0198bbb8-fd11-701d-9147-68794ad37298","E79044EF69BC4B129A6CD524CE34393C-2025-08-18-12-41-34","","1637","","images/causal_sequence/dog_causal/dog_causal_6.png","0","",""
"","","","","","image-button-response","30","334211","0.0-10.0-1.0-2.1","E79044EF69BC4B129A6CD524CE34393C","E79044EF69BC4B129A6CD524CE34393C","0198bd14-1187-7a49-95d4-73506fc169d4","0198bbb8-fd11-701d-9147-68794ad37298","{""num_scrambled_semantic"":""8"",""num_scrambled_causal"":""4"",""num_scrambled_schematic"":""4"",""participantId"":""E79044EF69BC4B129A6CD524CE34393C"",""assignmentId"":""0198bd14-1187-7a49-95d4-73506fc169d4"",""projectId"":""0198bbb8-fd11-701d-9147-68794ad37298""}","https://test12345.live/?num_scrambled_semantic=8&num_scrambled_causal=4&num_scrambled_schematic=4&participantId=E79044EF69BC4B129A6CD524CE34393C&assignmentId=0198bd14-1187-7a49-95d4-73506fc169d4&projectId=0198bbb8-fd11-701d-9147-68794ad37298","E79044EF69BC4B129A6CD524CE34393C-2025-08-18-12-41-34","","null","","[]","null","",""
"","","","","","image-button-response","31","338715","0.0-10.0-1.0-0.2","E79044EF69BC4B129A6CD524CE34393C","E79044EF69BC4B129A6CD524CE34393C","0198bd14-1187-7a49-95d4-73506fc169d4","0198bbb8-fd11-701d-9147-68794ad37298","{""num_scrambled_semantic"":""8"",""num_scrambled_causal"":""4"",""num_scrambled_schematic"":""4"",""participantId"":""E79044EF69BC4B129A6CD524CE34393C"",""assignmentId"":""0198bd14-1187-7a49-95d4-73506fc169d4"",""projectId"":""0198bbb8-fd11-701d-9147-68794ad37298""}","https://test12345.live/?num_scrambled_semantic=8&num_scrambled_causal=4&num_scrambled_schematic=4&participantId=E79044EF69BC4B129A6CD524CE34393C&assignmentId=0198bd14-1187-7a49-95d4-73506fc169d4&projectId=0198bbb8-fd11-701d-9147-68794ad37298","E79044EF69BC4B129A6CD524CE34393C-2025-08-18-12-41-34","","null","","images/causal_sequence/dog_causal/dog_causal_4.png","null","",""
"","","","","","image-button-response","32","342723","0.0-10.0-1.0-1.2","E79044EF69BC4B129A6CD524CE34393C","E79044EF69BC4B129A6CD524CE34393C","0198bd14-1187-7a49-95d4-73506fc169d4","0198bbb8-fd11-701d-9147-68794ad37298","{""num_scrambled_semantic"":""8"",""num_scrambled_causal"":""4"",""num_scrambled_schematic"":""4"",""participantId"":""E79044EF69BC4B129A6CD524CE34393C"",""assignmentId"":""0198bd14-1187-7a49-95d4-73506fc169d4"",""projectId"":""0198bbb8-fd11-701d-9147-68794ad37298""}","https://test12345.live/?num_scrambled_semantic=8&num_scrambled_causal=4&num_scrambled_schematic=4&participantId=E79044EF69BC4B129A6CD524CE34393C&assignmentId=0198bd14-1187-7a49-95d4-73506fc169d4&projectId=0198bbb8-fd11-701d-9147-68794ad37298","E79044EF69BC4B129A6CD524CE34393C-2025-08-18-12-41-34","","null","","images/causal_sequence/dog_causal/dog_causal_4.png","null","",""
"","","","","","image-button-response","33","353526","0.0-10.0-1.0-2.2","E79044EF69BC4B129A6CD524CE34393C","E79044EF69BC4B129A6CD524CE34393C","0198bd14-1187-7a49-95d4-73506fc169d4","0198bbb8-fd11-701d-9147-68794ad37298","{""num_scrambled_semantic"":""8"",""num_scrambled_causal"":""4"",""num_scrambled_schematic"":""4"",""participantId"":""E79044EF69BC4B129A6CD524CE34393C"",""assignmentId"":""0198bd14-1187-7a49-95d4-73506fc169d4"",""projectId"":""0198bbb8-fd11-701d-9147-68794ad37298""}","https://test12345.live/?num_scrambled_semantic=8&num_scrambled_causal=4&num_scrambled_schematic=4&participantId=E79044EF69BC4B129A6CD524CE34393C&assignmentId=0198bd14-1187-7a49-95d4-73506fc169d4&projectId=0198bbb8-fd11-701d-9147-68794ad37298","E79044EF69BC4B129A6CD524CE34393C-2025-08-18-12-41-34","","null","","[]","null","",""
"","","","","","image-button-response","34","358029","0.0-10.0-1.0-0.3","E79044EF69BC4B129A6CD524CE34393C","E79044EF69BC4B129A6CD524CE34393C","0198bd14-1187-7a49-95d4-73506fc169d4","0198bbb8-fd11-701d-9147-68794ad37298","{""num_scrambled_semantic"":""8"",""num_scrambled_causal"":""4"",""num_scrambled_schematic"":""4"",""participantId"":""E79044EF69BC4B129A6CD524CE34393C"",""assignmentId"":""0198bd14-1187-7a49-95d4-73506fc169d4"",""projectId"":""0198bbb8-fd11-701d-9147-68794ad37298""}","https://test12345.live/?num_scrambled_semantic=8&num_scrambled_causal=4&num_scrambled_schematic=4&participantId=E79044EF69BC4B129A6CD524CE34393C&assignmentId=0198bd14-1187-7a49-95d4-73506fc169d4&projectId=0198bbb8-fd11-701d-9147-68794ad37298","E79044EF69BC4B129A6CD524CE34393C-2025-08-18-12-41-34","","null","","images/causal_sequence/dog_causal/dog_causal_5.png","null","",""
"","","","","","image-button-response","35","359024","0.0-10.0-1.0-1.3","E79044EF69BC4B129A6CD524CE34393C","E79044EF69BC4B129A6CD524CE34393C","0198bd14-1187-7a49-95d4-73506fc169d4","0198bbb8-fd11-701d-9147-68794ad37298","{""num_scrambled_semantic"":""8"",""num_scrambled_causal"":""4"",""num_scrambled_schematic"":""4"",""participantId"":""E79044EF69BC4B129A6CD524CE34393C"",""assignmentId"":""0198bd14-1187-7a49-95d4-73506fc169d4"",""projectId"":""0198bbb8-fd11-701d-9147-68794ad37298""}","https://test12345.live/?num_scrambled_semantic=8&num_scrambled_causal=4&num_scrambled_schematic=4&participantId=E79044EF69BC4B129A6CD524CE34393C&assignmentId=0198bd14-1187-7a49-95d4-73506fc169d4&projectId=0198bbb8-fd11-701d-9147-68794ad37298","E79044EF69BC4B129A6CD524CE34393C-2025-08-18-12-41-34","","993","","images/causal_sequence/dog_causal/dog_causal_5.png","0","",""
"","","","","","image-button-response","36","369827","0.0-10.0-1.0-2.3","E79044EF69BC4B129A6CD524CE34393C","E79044EF69BC4B129A6CD524CE34393C","0198bd14-1187-7a49-95d4-73506fc169d4","0198bbb8-fd11-701d-9147-68794ad37298","{""num_scrambled_semantic"":""8"",""num_scrambled_causal"":""4"",""num_scrambled_schematic"":""4"",""participantId"":""E79044EF69BC4B129A6CD524CE34393C"",""assignmentId"":""0198bd14-1187-7a49-95d4-73506fc169d4"",""projectId"":""0198bbb8-fd11-701d-9147-68794ad37298""}","https://test12345.live/?num_scrambled_semantic=8&num_scrambled_causal=4&num_scrambled_schematic=4&participantId=E79044EF69BC4B129A6CD524CE34393C&assignmentId=0198bd14-1187-7a49-95d4-73506fc169d4&projectId=0198bbb8-fd11-701d-9147-68794ad37298","E79044EF69BC4B129A6CD524CE34393C-2025-08-18-12-41-34","","null","","[]","null","",""
"","","","","","image-button-response","37","374331","0.0-10.0-1.0-0.4","E79044EF69BC4B129A6CD524CE34393C","E79044EF69BC4B129A6CD524CE34393C","0198bd14-1187-7a49-95d4-73506fc169d4","0198bbb8-fd11-701d-9147-68794ad37298","{""num_scrambled_semantic"":""8"",""num_scrambled_causal"":""4"",""num_scrambled_schematic"":""4"",""participantId"":""E79044EF69BC4B129A6CD524CE34393C"",""assignmentId"":""0198bd14-1187-7a49-95d4-73506fc169d4"",""projectId"":""0198bbb8-fd11-701d-9147-68794ad37298""}","https://test12345.live/?num_scrambled_semantic=8&num_scrambled_causal=4&num_scrambled_schematic=4&participantId=E79044EF69BC4B129A6CD524CE34393C&assignmentId=0198bd14-1187-7a49-95d4-73506fc169d4&projectId=0198bbb8-fd11-701d-9147-68794ad37298","E79044EF69BC4B129A6CD524CE34393C-2025-08-18-12-41-34","","null","","images/causal_sequence/dog_causal/dog_causal_ten.png","null","",""
"","","","","","image-button-response","38","375278","0.0-10.0-1.0-1.4","E79044EF69BC4B129A6CD524CE34393C","E79044EF69BC4B129A6CD524CE34393C","0198bd14-1187-7a49-95d4-73506fc169d4","0198bbb8-fd11-701d-9147-68794ad37298","{""num_scrambled_semantic"":""8"",""num_scrambled_causal"":""4"",""num_scrambled_schematic"":""4"",""participantId"":""E79044EF69BC4B129A6CD524CE34393C"",""assignmentId"":""0198bd14-1187-7a49-95d4-73506fc169d4"",""projectId"":""0198bbb8-fd11-701d-9147-68794ad37298""}","https://test12345.live/?num_scrambled_semantic=8&num_scrambled_causal=4&num_scrambled_schematic=4&participantId=E79044EF69BC4B129A6CD524CE34393C&assignmentId=0198bd14-1187-7a49-95d4-73506fc169d4&projectId=0198bbb8-fd11-701d-9147-68794ad37298","E79044EF69BC4B129A6CD524CE34393C-2025-08-18-12-41-34","","945","","images/causal_sequence/dog_causal/dog_causal_ten.png","0","",""
"","","","","","image-button-response","39","386084","0.0-10.0-1.0-2.4","E79044EF69BC4B129A6CD524CE34393C","E79044EF69BC4B129A6CD524CE34393C","0198bd14-1187-7a49-95d4-73506fc169d4","0198bbb8-fd11-701d-9147-68794ad37298","{""num_scrambled_semantic"":""8"",""num_scrambled_causal"":""4"",""num_scrambled_schematic"":""4"",""participantId"":""E79044EF69BC4B129A6CD524CE34393C"",""assignmentId"":""0198bd14-1187-7a49-95d4-73506fc169d4"",""projectId"":""0198bbb8-fd11-701d-9147-68794ad37298""}","https://test12345.live/?num_scrambled_semantic=8&num_scrambled_causal=4&num_scrambled_schematic=4&participantId=E79044EF69BC4B129A6CD524CE34393C&assignmentId=0198bd14-1187-7a49-95d4-73506fc169d4&projectId=0198bbb8-fd11-701d-9147-68794ad37298","E79044EF69BC4B129A6CD524CE34393C-2025-08-18-12-41-34","","null","","[]","null","",""
"","","","","","image-button-response","40","390591","0.0-10.0-1.0-0.5","E79044EF69BC4B129A6CD524CE34393C","E79044EF69BC4B129A6CD524CE34393C","0198bd14-1187-7a49-95d4-73506fc169d4","0198bbb8-fd11-701d-9147-68794ad37298","{""num_scrambled_semantic"":""8"",""num_scrambled_causal"":""4"",""num_scrambled_schematic"":""4"",""participantId"":""E79044EF69BC4B129A6CD524CE34393C"",""assignmentId"":""0198bd14-1187-7a49-95d4-73506fc169d4"",""projectId"":""0198bbb8-fd11-701d-9147-68794ad37298""}","https://test12345.live/?num_scrambled_semantic=8&num_scrambled_causal=4&num_scrambled_schematic=4&participantId=E79044EF69BC4B129A6CD524CE34393C&assignmentId=0198bd14-1187-7a49-95d4-73506fc169d4&projectId=0198bbb8-fd11-701d-9147-68794ad37298","E79044EF69BC4B129A6CD524CE34393C-2025-08-18-12-41-34","","null","","images/causal_sequence/dog_causal/dog_causal_8.png","null","",""
"","","","","","image-button-response","41","391270","0.0-10.0-1.0-1.5","E79044EF69BC4B129A6CD524CE34393C","E79044EF69BC4B129A6CD524CE34393C","0198bd14-1187-7a49-95d4-73506fc169d4","0198bbb8-fd11-701d-9147-68794ad37298","{""num_scrambled_semantic"":""8"",""num_scrambled_causal"":""4"",""num_scrambled_schematic"":""4"",""participantId"":""E79044EF69BC4B129A6CD524CE34393C"",""assignmentId"":""0198bd14-1187-7a49-95d4-73506fc169d4"",""projectId"":""0198bbb8-fd11-701d-9147-68794ad37298""}","https://test12345.live/?num_scrambled_semantic=8&num_scrambled_causal=4&num_scrambled_schematic=4&participantId=E79044EF69BC4B129A6CD524CE34393C&assignmentId=0198bd14-1187-7a49-95d4-73506fc169d4&projectId=0198bbb8-fd11-701d-9147-68794ad37298","E79044EF69BC4B129A6CD524CE34393C-2025-08-18-12-41-34","","676","","images/causal_sequence/dog_causal/dog_causal_8.png","0","",""
"","","","","","image-button-response","42","402076","0.0-10.0-1.0-2.5","E79044EF69BC4B129A6CD524CE34393C","E79044EF69BC4B129A6CD524CE34393C","0198bd14-1187-7a49-95d4-73506fc169d4","0198bbb8-fd11-701d-9147-68794ad37298","{""num_scrambled_semantic"":""8"",""num_scrambled_causal"":""4"",""num_scrambled_schematic"":""4"",""participantId"":""E79044EF69BC4B129A6CD524CE34393C"",""assignmentId"":""0198bd14-1187-7a49-95d4-73506fc169d4"",""projectId"":""0198bbb8-fd11-701d-9147-68794ad37298""}","https://test12345.live/?num_scrambled_semantic=8&num_scrambled_causal=4&num_scrambled_schematic=4&participantId=E79044EF69BC4B129A6CD524CE34393C&assignmentId=0198bd14-1187-7a49-95d4-73506fc169d4&projectId=0198bbb8-fd11-701d-9147-68794ad37298","E79044EF69BC4B129A6CD524CE34393C-2025-08-18-12-41-34","","null","","[]","null","",""
"","","","","","image-button-response","43","406579","0.0-10.0-1.0-0.6","E79044EF69BC4B129A6CD524CE34393C","E79044EF69BC4B129A6CD524CE34393C","0198bd14-1187-7a49-95d4-73506fc169d4","0198bbb8-fd11-701d-9147-68794ad37298","{""num_scrambled_semantic"":""8"",""num_scrambled_causal"":""4"",""num_scrambled_schematic"":""4"",""participantId"":""E79044EF69BC4B129A6CD524CE34393C"",""assignmentId"":""0198bd14-1187-7a49-95d4-73506fc169d4"",""projectId"":""0198bbb8-fd11-701d-9147-68794ad37298""}","https://test12345.live/?num_scrambled_semantic=8&num_scrambled_causal=4&num_scrambled_schematic=4&participantId=E79044EF69BC4B129A6CD524CE34393C&assignmentId=0198bd14-1187-7a49-95d4-73506fc169d4&projectId=0198bbb8-fd11-701d-9147-68794ad37298","E79044EF69BC4B129A6CD524CE34393C-2025-08-18-12-41-34","","null","","images/causal_sequence/dog_causal/dog_causal_7.png","null","",""
"","","","","","image-button-response","44","407575","0.0-10.0-1.0-1.6","E79044EF69BC4B129A6CD524CE34393C","E79044EF69BC4B129A6CD524CE34393C","0198bd14-1187-7a49-95d4-73506fc169d4","0198bbb8-fd11-701d-9147-68794ad37298","{""num_scrambled_semantic"":""8"",""num_scrambled_causal"":""4"",""num_scrambled_schematic"":""4"",""participantId"":""E79044EF69BC4B129A6CD524CE34393C"",""assignmentId"":""0198bd14-1187-7a49-95d4-73506fc169d4"",""projectId"":""0198bbb8-fd11-701d-9147-68794ad37298""}","https://test12345.live/?num_scrambled_semantic=8&num_scrambled_causal=4&num_scrambled_schematic=4&participantId=E79044EF69BC4B129A6CD524CE34393C&assignmentId=0198bd14-1187-7a49-95d4-73506fc169d4&projectId=0198bbb8-fd11-701d-9147-68794ad37298","E79044EF69BC4B129A6CD524CE34393C-2025-08-18-12-41-34","","994","","images/causal_sequence/dog_causal/dog_causal_7.png","0","",""
"","","","","","image-button-response","45","418381","0.0-10.0-1.0-2.6","E79044EF69BC4B129A6CD524CE34393C","E79044EF69BC4B129A6CD524CE34393C","0198bd14-1187-7a49-95d4-73506fc169d4","0198bbb8-fd11-701d-9147-68794ad37298","{""num_scrambled_semantic"":""8"",""num_scrambled_causal"":""4"",""num_scrambled_schematic"":""4"",""participantId"":""E79044EF69BC4B129A6CD524CE34393C"",""assignmentId"":""0198bd14-1187-7a49-95d4-73506fc169d4"",""projectId"":""0198bbb8-fd11-701d-9147-68794ad37298""}","https://test12345.live/?num_scrambled_semantic=8&num_scrambled_causal=4&num_scrambled_schematic=4&participantId=E79044EF69BC4B129A6CD524CE34393C&assignmentId=0198bd14-1187-7a49-95d4-73506fc169d4&projectId=0198bbb8-fd11-701d-9147-68794ad37298","E79044EF69BC4B129A6CD524CE34393C-2025-08-18-12-41-34","","null","","[]","null","",""
"","","","","","image-button-response","46","422888","0.0-10.0-1.0-0.7","E79044EF69BC4B129A6CD524CE34393C","E79044EF69BC4B129A6CD524CE34393C","0198bd14-1187-7a49-95d4-73506fc169d4","0198bbb8-fd11-701d-9147-68794ad37298","{""num_scrambled_semantic"":""8"",""num_scrambled_causal"":""4"",""num_scrambled_schematic"":""4"",""participantId"":""E79044EF69BC4B129A6CD524CE34393C"",""assignmentId"":""0198bd14-1187-7a49-95d4-73506fc169d4"",""projectId"":""0198bbb8-fd11-701d-9147-68794ad37298""}","https://test12345.live/?num_scrambled_semantic=8&num_scrambled_causal=4&num_scrambled_schematic=4&participantId=E79044EF69BC4B129A6CD524CE34393C&assignmentId=0198bd14-1187-7a49-95d4-73506fc169d4&projectId=0198bbb8-fd11-701d-9147-68794ad37298","E79044EF69BC4B129A6CD524CE34393C-2025-08-18-12-41-34","","null","","images/causal_sequence/dog_causal/dog_causal_1.png","null","",""
"","","","","","image-button-response","47","426337","0.0-10.0-1.0-1.7","E79044EF69BC4B129A6CD524CE34393C","E79044EF69BC4B129A6CD524CE34393C","0198bd14-1187-7a49-95d4-73506fc169d4","0198bbb8-fd11-701d-9147-68794ad37298","{""num_scrambled_semantic"":""8"",""num_scrambled_causal"":""4"",""num_scrambled_schematic"":""4"",""participantId"":""E79044EF69BC4B129A6CD524CE34393C"",""assignmentId"":""0198bd14-1187-7a49-95d4-73506fc169d4"",""projectId"":""0198bbb8-fd11-701d-9147-68794ad37298""}","https://test12345.live/?num_scrambled_semantic=8&num_scrambled_causal=4&num_scrambled_schematic=4&participantId=E79044EF69BC4B129A6CD524CE34393C&assignmentId=0198bd14-1187-7a49-95d4-73506fc169d4&projectId=0198bbb8-fd11-701d-9147-68794ad37298","E79044EF69BC4B129A6CD524CE34393C-2025-08-18-12-41-34","","3447","","images/causal_sequence/dog_causal/dog_causal_1.png","0","",""
"","","","","","image-button-response","48","437141","0.0-10.0-1.0-2.7","E79044EF69BC4B129A6CD524CE34393C","E79044EF69BC4B129A6CD524CE34393C","0198bd14-1187-7a49-95d4-73506fc169d4","0198bbb8-fd11-701d-9147-68794ad37298","{""num_scrambled_semantic"":""8"",""num_scrambled_causal"":""4"",""num_scrambled_schematic"":""4"",""participantId"":""E79044EF69BC4B129A6CD524CE34393C"",""assignmentId"":""0198bd14-1187-7a49-95d4-73506fc169d4"",""projectId"":""0198bbb8-fd11-701d-9147-68794ad37298""}","https://test12345.live/?num_scrambled_semantic=8&num_scrambled_causal=4&num_scrambled_schematic=4&participantId=E79044EF69BC4B129A6CD524CE34393C&assignmentId=0198bd14-1187-7a49-95d4-73506fc169d4&projectId=0198bbb8-fd11-701d-9147-68794ad37298","E79044EF69BC4B129A6CD524CE34393C-2025-08-18-12-41-34","","null","","[]","null","",""
"","","","","","image-button-response","49","441646","0.0-10.0-1.0-0.8","E79044EF69BC4B129A6CD524CE34393C","E79044EF69BC4B129A6CD524CE34393C","0198bd14-1187-7a49-95d4-73506fc169d4","0198bbb8-fd11-701d-9147-68794ad37298","{""num_scrambled_semantic"":""8"",""num_scrambled_causal"":""4"",""num_scrambled_schematic"":""4"",""participantId"":""E79044EF69BC4B129A6CD524CE34393C"",""assignmentId"":""0198bd14-1187-7a49-95d4-73506fc169d4"",""projectId"":""0198bbb8-fd11-701d-9147-68794ad37298""}","https://test12345.live/?num_scrambled_semantic=8&num_scrambled_causal=4&num_scrambled_schematic=4&participantId=E79044EF69BC4B129A6CD524CE34393C&assignmentId=0198bd14-1187-7a49-95d4-73506fc169d4&projectId=0198bbb8-fd11-701d-9147-68794ad37298","E79044EF69BC4B129A6CD524CE34393C-2025-08-18-12-41-34","","null","","images/causal_sequence/dog_causal/dog_causal_3.png","null","",""
"","","","","","image-button-response","50","442369","0.0-10.0-1.0-1.8","E79044EF69BC4B129A6CD524CE34393C","E79044EF69BC4B129A6CD524CE34393C","0198bd14-1187-7a49-95d4-73506fc169d4","0198bbb8-fd11-701d-9147-68794ad37298","{""num_scrambled_semantic"":""8"",""num_scrambled_causal"":""4"",""num_scrambled_schematic"":""4"",""participantId"":""E79044EF69BC4B129A6CD524CE34393C"",""assignmentId"":""0198bd14-1187-7a49-95d4-73506fc169d4"",""projectId"":""0198bbb8-fd11-701d-9147-68794ad37298""}","https://test12345.live/?num_scrambled_semantic=8&num_scrambled_causal=4&num_scrambled_schematic=4&participantId=E79044EF69BC4B129A6CD524CE34393C&assignmentId=0198bd14-1187-7a49-95d4-73506fc169d4&projectId=0198bbb8-fd11-701d-9147-68794ad37298","E79044EF69BC4B129A6CD524CE34393C-2025-08-18-12-41-34","","722","","images/causal_sequence/dog_causal/dog_causal_3.png","0","",""
"","","","","","image-button-response","51","453176","0.0-10.0-1.0-2.8","E79044EF69BC4B129A6CD524CE34393C","E79044EF69BC4B129A6CD524CE34393C","0198bd14-1187-7a49-95d4-73506fc169d4","0198bbb8-fd11-701d-9147-68794ad37298","{""num_scrambled_semantic"":""8"",""num_scrambled_causal"":""4"",""num_scrambled_schematic"":""4"",""participantId"":""E79044EF69BC4B129A6CD524CE34393C"",""assignmentId"":""0198bd14-1187-7a49-95d4-73506fc169d4"",""projectId"":""0198bbb8-fd11-701d-9147-68794ad37298""}","https://test12345.live/?num_scrambled_semantic=8&num_scrambled_causal=4&num_scrambled_schematic=4&participantId=E79044EF69BC4B129A6CD524CE34393C&assignmentId=0198bd14-1187-7a49-95d4-73506fc169d4&projectId=0198bbb8-fd11-701d-9147-68794ad37298","E79044EF69BC4B129A6CD524CE34393C-2025-08-18-12-41-34","","null","","[]","null","",""
"","","","","","image-button-response","52","457683","0.0-10.0-1.0-0.9","E79044EF69BC4B129A6CD524CE34393C","E79044EF69BC4B129A6CD524CE34393C","0198bd14-1187-7a49-95d4-73506fc169d4","0198bbb8-fd11-701d-9147-68794ad37298","{""num_scrambled_semantic"":""8"",""num_scrambled_causal"":""4"",""num_scrambled_schematic"":""4"",""participantId"":""E79044EF69BC4B129A6CD524CE34393C"",""assignmentId"":""0198bd14-1187-7a49-95d4-73506fc169d4"",""projectId"":""0198bbb8-fd11-701d-9147-68794ad37298""}","https://test12345.live/?num_scrambled_semantic=8&num_scrambled_causal=4&num_scrambled_schematic=4&participantId=E79044EF69BC4B129A6CD524CE34393C&assignmentId=0198bd14-1187-7a49-95d4-73506fc169d4&projectId=0198bbb8-fd11-701d-9147-68794ad37298","E79044EF69BC4B129A6CD524CE34393C-2025-08-18-12-41-34","","null","","images/causal_sequence/dog_causal/dog_causal_9.png","null","",""
"","","","","","image-button-response","53","458482","0.0-10.0-1.0-1.9","E79044EF69BC4B129A6CD524CE34393C","E79044EF69BC4B129A6CD524CE34393C","0198bd14-1187-7a49-95d4-73506fc169d4","0198bbb8-fd11-701d-9147-68794ad37298","{""num_scrambled_semantic"":""8"",""num_scrambled_causal"":""4"",""num_scrambled_schematic"":""4"",""participantId"":""E79044EF69BC4B129A6CD524CE34393C"",""assignmentId"":""0198bd14-1187-7a49-95d4-73506fc169d4"",""projectId"":""0198bbb8-fd11-701d-9147-68794ad37298""}","https://test12345.live/?num_scrambled_semantic=8&num_scrambled_causal=4&num_scrambled_schematic=4&participantId=E79044EF69BC4B129A6CD524CE34393C&assignmentId=0198bd14-1187-7a49-95d4-73506fc169d4&projectId=0198bbb8-fd11-701d-9147-68794ad37298","E79044EF69BC4B129A6CD524CE34393C-2025-08-18-12-41-34","","797","","images/causal_sequence/dog_causal/dog_causal_9.png","0","",""
"","","","","","image-button-response","54","469289","0.0-10.0-1.0-2.9","E79044EF69BC4B129A6CD524CE34393C","E79044EF69BC4B129A6CD524CE34393C","0198bd14-1187-7a49-95d4-73506fc169d4","0198bbb8-fd11-701d-9147-68794ad37298","{""num_scrambled_semantic"":""8"",""num_scrambled_causal"":""4"",""num_scrambled_schematic"":""4"",""participantId"":""E79044EF69BC4B129A6CD524CE34393C"",""assignmentId"":""0198bd14-1187-7a49-95d4-73506fc169d4"",""projectId"":""0198bbb8-fd11-701d-9147-68794ad37298""}","https://test12345.live/?num_scrambled_semantic=8&num_scrambled_causal=4&num_scrambled_schematic=4&participantId=E79044EF69BC4B129A6CD524CE34393C&assignmentId=0198bd14-1187-7a49-95d4-73506fc169d4&projectId=0198bbb8-fd11-701d-9147-68794ad37298","E79044EF69BC4B129A6CD524CE34393C-2025-08-18-12-41-34","","null","","[]","null","",""
"","","","","","html-audio-response","55","517478","0.0-11.0","E79044EF69BC4B129A6CD524CE34393C","E79044EF69BC4B129A6CD524CE34393C","0198bd14-1187-7a49-95d4-73506fc169d4","0198bbb8-fd11-701d-9147-68794ad37298","{""num_scrambled_semantic"":""8"",""num_scrambled_causal"":""4"",""num_scrambled_schematic"":""4"",""participantId"":""E79044EF69BC4B129A6CD524CE34393C"",""assignmentId"":""0198bd14-1187-7a49-95d4-73506fc169d4"",""projectId"":""0198bbb8-fd11-701d-9147-68794ad37298""}","https://test12345.live/?num_scrambled_semantic=8&num_scrambled_causal=4&num_scrambled_schematic=4&participantId=E79044EF69BC4B129A6CD524CE34393C&assignmentId=0198bd14-1187-7a49-95d4-73506fc169d4&projectId=0198bbb8-fd11-701d-9147-68794ad37298","E79044EF69BC4B129A6CD524CE34393C-2025-08-18-12-41-34","","39445","","[""<span style=\""color: red; font-size: 24px\""> NOW RECORDING</span><p>Please say out loud all the images you saw, as many as you can remember. The images can be said in any order.</p>""]","","2","dog_causal"
"","","","","","image-button-response","56","523489","0.0-12.0-0.0","E79044EF69BC4B129A6CD524CE34393C","E79044EF69BC4B129A6CD524CE34393C","0198bd14-1187-7a49-95d4-73506fc169d4","0198bbb8-fd11-701d-9147-68794ad37298","{""num_scrambled_semantic"":""8"",""num_scrambled_causal"":""4"",""num_scrambled_schematic"":""4"",""participantId"":""E79044EF69BC4B129A6CD524CE34393C"",""assignmentId"":""0198bd14-1187-7a49-95d4-73506fc169d4"",""projectId"":""0198bbb8-fd11-701d-9147-68794ad37298""}","https://test12345.live/?num_scrambled_semantic=8&num_scrambled_causal=4&num_scrambled_schematic=4&participantId=E79044EF69BC4B129A6CD524CE34393C&assignmentId=0198bd14-1187-7a49-95d4-73506fc169d4&projectId=0198bbb8-fd11-701d-9147-68794ad37298","E79044EF69BC4B129A6CD524CE34393C-2025-08-18-12-41-34","","null","","images/semantic_sequence/creative_activities_semantic/creative_activities_semantic_0.png","null","",""
"","","","","","image-button-response","57","527994","0.0-12.0-1.0-0.0","E79044EF69BC4B129A6CD524CE34393C","E79044EF69BC4B129A6CD524CE34393C","0198bd14-1187-7a49-95d4-73506fc169d4","0198bbb8-fd11-701d-9147-68794ad37298","{""num_scrambled_semantic"":""8"",""num_scrambled_causal"":""4"",""num_scrambled_schematic"":""4"",""participantId"":""E79044EF69BC4B129A6CD524CE34393C"",""assignmentId"":""0198bd14-1187-7a49-95d4-73506fc169d4"",""projectId"":""0198bbb8-fd11-701d-9147-68794ad37298""}","https://test12345.live/?num_scrambled_semantic=8&num_scrambled_causal=4&num_scrambled_schematic=4&participantId=E79044EF69BC4B129A6CD524CE34393C&assignmentId=0198bd14-1187-7a49-95d4-73506fc169d4&projectId=0198bbb8-fd11-701d-9147-68794ad37298","E79044EF69BC4B129A6CD524CE34393C-2025-08-18-12-41-34","","null","","images/semantic_sequence/creative_activities_semantic/creative_activities_semantic_1.png","null","",""
"","","","","","image-button-response","58","531795","0.0-12.0-1.0-1.0","E79044EF69BC4B129A6CD524CE34393C","E79044EF69BC4B129A6CD524CE34393C","0198bd14-1187-7a49-95d4-73506fc169d4","0198bbb8-fd11-701d-9147-68794ad37298","{""num_scrambled_semantic"":""8"",""num_scrambled_causal"":""4"",""num_scrambled_schematic"":""4"",""participantId"":""E79044EF69BC4B129A6CD524CE34393C"",""assignmentId"":""0198bd14-1187-7a49-95d4-73506fc169d4"",""projectId"":""0198bbb8-fd11-701d-9147-68794ad37298""}","https://test12345.live/?num_scrambled_semantic=8&num_scrambled_causal=4&num_scrambled_schematic=4&participantId=E79044EF69BC4B129A6CD524CE34393C&assignmentId=0198bd14-1187-7a49-95d4-73506fc169d4&projectId=0198bbb8-fd11-701d-9147-68794ad37298","E79044EF69BC4B129A6CD524CE34393C-2025-08-18-12-41-34","","3799","","images/semantic_sequence/creative_activities_semantic/creative_activities_semantic_1.png","0","",""
"","","","","","image-button-response","59","542600","0.0-12.0-1.0-2.0","E79044EF69BC4B129A6CD524CE34393C","E79044EF69BC4B129A6CD524CE34393C","0198bd14-1187-7a49-95d4-73506fc169d4","0198bbb8-fd11-701d-9147-68794ad37298","{""num_scrambled_semantic"":""8"",""num_scrambled_causal"":""4"",""num_scrambled_schematic"":""4"",""participantId"":""E79044EF69BC4B129A6CD524CE34393C"",""assignmentId"":""0198bd14-1187-7a49-95d4-73506fc169d4"",""projectId"":""0198bbb8-fd11-701d-9147-68794ad37298""}","https://test12345.live/?num_scrambled_semantic=8&num_scrambled_causal=4&num_scrambled_schematic=4&participantId=E79044EF69BC4B129A6CD524CE34393C&assignmentId=0198bd14-1187-7a49-95d4-73506fc169d4&projectId=0198bbb8-fd11-701d-9147-68794ad37298","E79044EF69BC4B129A6CD524CE34393C-2025-08-18-12-41-34","","null","","[]","null","",""
"","","","","","image-button-response","60","547107","0.0-12.0-1.0-0.1","E79044EF69BC4B129A6CD524CE34393C","E79044EF69BC4B129A6CD524CE34393C","0198bd14-1187-7a49-95d4-73506fc169d4","0198bbb8-fd11-701d-9147-68794ad37298","{""num_scrambled_semantic"":""8"",""num_scrambled_causal"":""4"",""num_scrambled_schematic"":""4"",""participantId"":""E79044EF69BC4B129A6CD524CE34393C"",""assignmentId"":""0198bd14-1187-7a49-95d4-73506fc169d4"",""projectId"":""0198bbb8-fd11-701d-9147-68794ad37298""}","https://test12345.live/?num_scrambled_semantic=8&num_scrambled_causal=4&num_scrambled_schematic=4&participantId=E79044EF69BC4B129A6CD524CE34393C&assignmentId=0198bd14-1187-7a49-95d4-73506fc169d4&projectId=0198bbb8-fd11-701d-9147-68794ad37298","E79044EF69BC4B129A6CD524CE34393C-2025-08-18-12-41-34","","null","","images/semantic_sequence/creative_activities_semantic/creative_activities_semantic_2.png","null","",""
"","","","","","image-button-response","61","548624","0.0-12.0-1.0-1.1","E79044EF69BC4B129A6CD524CE34393C","E79044EF69BC4B129A6CD524CE34393C","0198bd14-1187-7a49-95d4-73506fc169d4","0198bbb8-fd11-701d-9147-68794ad37298","{""num_scrambled_semantic"":""8"",""num_scrambled_causal"":""4"",""num_scrambled_schematic"":""4"",""participantId"":""E79044EF69BC4B129A6CD524CE34393C"",""assignmentId"":""0198bd14-1187-7a49-95d4-73506fc169d4"",""projectId"":""0198bbb8-fd11-701d-9147-68794ad37298""}","https://test12345.live/?num_scrambled_semantic=8&num_scrambled_causal=4&num_scrambled_schematic=4&participantId=E79044EF69BC4B129A6CD524CE34393C&assignmentId=0198bd14-1187-7a49-95d4-73506fc169d4&projectId=0198bbb8-fd11-701d-9147-68794ad37298","E79044EF69BC4B129A6CD524CE34393C-2025-08-18-12-41-34","","1515","","images/semantic_sequence/creative_activities_semantic/creative_activities_semantic_2.png","0","",""
"","","","","","image-button-response","62","559432","0.0-12.0-1.0-2.1","E79044EF69BC4B129A6CD524CE34393C","E79044EF69BC4B129A6CD524CE34393C","0198bd14-1187-7a49-95d4-73506fc169d4","0198bbb8-fd11-701d-9147-68794ad37298","{""num_scrambled_semantic"":""8"",""num_scrambled_causal"":""4"",""num_scrambled_schematic"":""4"",""participantId"":""E79044EF69BC4B129A6CD524CE34393C"",""assignmentId"":""0198bd14-1187-7a49-95d4-73506fc169d4"",""projectId"":""0198bbb8-fd11-701d-9147-68794ad37298""}","https://test12345.live/?num_scrambled_semantic=8&num_scrambled_causal=4&num_scrambled_schematic=4&participantId=E79044EF69BC4B129A6CD524CE34393C&assignmentId=0198bd14-1187-7a49-95d4-73506fc169d4&projectId=0198bbb8-fd11-701d-9147-68794ad37298","E79044EF69BC4B129A6CD524CE34393C-2025-08-18-12-41-34","","null","","[]","null","",""
"","","","","","image-button-response","63","563936","0.0-12.0-1.0-0.2","E79044EF69BC4B129A6CD524CE34393C","E79044EF69BC4B129A6CD524CE34393C","0198bd14-1187-7a49-95d4-73506fc169d4","0198bbb8-fd11-701d-9147-68794ad37298","{""num_scrambled_semantic"":""8"",""num_scrambled_causal"":""4"",""num_scrambled_schematic"":""4"",""participantId"":""E79044EF69BC4B129A6CD524CE34393C"",""assignmentId"":""0198bd14-1187-7a49-95d4-73506fc169d4"",""projectId"":""0198bbb8-fd11-701d-9147-68794ad37298""}","https://test12345.live/?num_scrambled_semantic=8&num_scrambled_causal=4&num_scrambled_schematic=4&participantId=E79044EF69BC4B129A6CD524CE34393C&assignmentId=0198bd14-1187-7a49-95d4-73506fc169d4&projectId=0198bbb8-fd11-701d-9147-68794ad37298","E79044EF69BC4B129A6CD524CE34393C-2025-08-18-12-41-34","","null","","images/semantic_sequence/creative_activities_semantic/creative_activities_semantic_5.png","null","",""
"","","","","","image-button-response","64","564721","0.0-12.0-1.0-1.2","E79044EF69BC4B129A6CD524CE34393C","E79044EF69BC4B129A6CD524CE34393C","0198bd14-1187-7a49-95d4-73506fc169d4","0198bbb8-fd11-701d-9147-68794ad37298","{""num_scrambled_semantic"":""8"",""num_scrambled_causal"":""4"",""num_scrambled_schematic"":""4"",""participantId"":""E79044EF69BC4B129A6CD524CE34393C"",""assignmentId"":""0198bd14-1187-7a49-95d4-73506fc169d4"",""projectId"":""0198bbb8-fd11-701d-9147-68794ad37298""}","https://test12345.live/?num_scrambled_semantic=8&num_scrambled_causal=4&num_scrambled_schematic=4&participantId=E79044EF69BC4B129A6CD524CE34393C&assignmentId=0198bd14-1187-7a49-95d4-73506fc169d4&projectId=0198bbb8-fd11-701d-9147-68794ad37298","E79044EF69BC4B129A6CD524CE34393C-2025-08-18-12-41-34","","783","","images/semantic_sequence/creative_activities_semantic/creative_activities_semantic_5.png","0","",""
"","","","","","image-button-response","65","575527","0.0-12.0-1.0-2.2","E79044EF69BC4B129A6CD524CE34393C","E79044EF69BC4B129A6CD524CE34393C","0198bd14-1187-7a49-95d4-73506fc169d4","0198bbb8-fd11-701d-9147-68794ad37298","{""num_scrambled_semantic"":""8"",""num_scrambled_causal"":""4"",""num_scrambled_schematic"":""4"",""participantId"":""E79044EF69BC4B129A6CD524CE34393C"",""assignmentId"":""0198bd14-1187-7a49-95d4-73506fc169d4"",""projectId"":""0198bbb8-fd11-701d-9147-68794ad37298""}","https://test12345.live/?num_scrambled_semantic=8&num_scrambled_causal=4&num_scrambled_schematic=4&participantId=E79044EF69BC4B129A6CD524CE34393C&assignmentId=0198bd14-1187-7a49-95d4-73506fc169d4&projectId=0198bbb8-fd11-701d-9147-68794ad37298","E79044EF69BC4B129A6CD524CE34393C-2025-08-18-12-41-34","","null","","[]","null","",""
"","","","","","image-button-response","66","580034","0.0-12.0-1.0-0.3","E79044EF69BC4B129A6CD524CE34393C","E79044EF69BC4B129A6CD524CE34393C","0198bd14-1187-7a49-95d4-73506fc169d4","0198bbb8-fd11-701d-9147-68794ad37298","{""num_scrambled_semantic"":""8"",""num_scrambled_causal"":""4"",""num_scrambled_schematic"":""4"",""participantId"":""E79044EF69BC4B129A6CD524CE34393C"",""assignmentId"":""0198bd14-1187-7a49-95d4-73506fc169d4"",""projectId"":""0198bbb8-fd11-701d-9147-68794ad37298""}","https://test12345.live/?num_scrambled_semantic=8&num_scrambled_causal=4&num_scrambled_schematic=4&participantId=E79044EF69BC4B129A6CD524CE34393C&assignmentId=0198bd14-1187-7a49-95d4-73506fc169d4&projectId=0198bbb8-fd11-701d-9147-68794ad37298","E79044EF69BC4B129A6CD524CE34393C-2025-08-18-12-41-34","","null","","images/semantic_sequence/creative_activities_semantic/creative_activities_semantic_ten.png","null","",""
"","","","","","image-button-response","67","580837","0.0-12.0-1.0-1.3","E79044EF69BC4B129A6CD524CE34393C","E79044EF69BC4B129A6CD524CE34393C","0198bd14-1187-7a49-95d4-73506fc169d4","0198bbb8-fd11-701d-9147-68794ad37298","{""num_scrambled_semantic"":""8"",""num_scrambled_causal"":""4"",""num_scrambled_schematic"":""4"",""participantId"":""E79044EF69BC4B129A6CD524CE34393C"",""assignmentId"":""0198bd14-1187-7a49-95d4-73506fc169d4"",""projectId"":""0198bbb8-fd11-701d-9147-68794ad37298""}","https://test12345.live/?num_scrambled_semantic=8&num_scrambled_causal=4&num_scrambled_schematic=4&participantId=E79044EF69BC4B129A6CD524CE34393C&assignmentId=0198bd14-1187-7a49-95d4-73506fc169d4&projectId=0198bbb8-fd11-701d-9147-68794ad37298","E79044EF69BC4B129A6CD524CE34393C-2025-08-18-12-41-34","","800","","images/semantic_sequence/creative_activities_semantic/creative_activities_semantic_ten.png","0","",""
"","","","","","image-button-response","68","591640","0.0-12.0-1.0-2.3","E79044EF69BC4B129A6CD524CE34393C","E79044EF69BC4B129A6CD524CE34393C","0198bd14-1187-7a49-95d4-73506fc169d4","0198bbb8-fd11-701d-9147-68794ad37298","{""num_scrambled_semantic"":""8"",""num_scrambled_causal"":""4"",""num_scrambled_schematic"":""4"",""participantId"":""E79044EF69BC4B129A6CD524CE34393C"",""assignmentId"":""0198bd14-1187-7a49-95d4-73506fc169d4"",""projectId"":""0198bbb8-fd11-701d-9147-68794ad37298""}","https://test12345.live/?num_scrambled_semantic=8&num_scrambled_causal=4&num_scrambled_schematic=4&participantId=E79044EF69BC4B129A6CD524CE34393C&assignmentId=0198bd14-1187-7a49-95d4-73506fc169d4&projectId=0198bbb8-fd11-701d-9147-68794ad37298","E79044EF69BC4B129A6CD524CE34393C-2025-08-18-12-41-34","","null","","[]","null","",""
"","","","","","image-button-response","69","596146","0.0-12.0-1.0-0.4","E79044EF69BC4B129A6CD524CE34393C","E79044EF69BC4B129A6CD524CE34393C","0198bd14-1187-7a49-95d4-73506fc169d4","0198bbb8-fd11-701d-9147-68794ad37298","{""num_scrambled_semantic"":""8"",""num_scrambled_causal"":""4"",""num_scrambled_schematic"":""4"",""participantId"":""E79044EF69BC4B129A6CD524CE34393C"",""assignmentId"":""0198bd14-1187-7a49-95d4-73506fc169d4"",""projectId"":""0198bbb8-fd11-701d-9147-68794ad37298""}","https://test12345.live/?num_scrambled_semantic=8&num_scrambled_causal=4&num_scrambled_schematic=4&participantId=E79044EF69BC4B129A6CD524CE34393C&assignmentId=0198bd14-1187-7a49-95d4-73506fc169d4&projectId=0198bbb8-fd11-701d-9147-68794ad37298","E79044EF69BC4B129A6CD524CE34393C-2025-08-18-12-41-34","","null","","images/semantic_sequence/creative_activities_semantic/creative_activities_semantic_3.png","null","",""
"","","","","","image-button-response","70","597471","0.0-12.0-1.0-1.4","E79044EF69BC4B129A6CD524CE34393C","E79044EF69BC4B129A6CD524CE34393C","0198bd14-1187-7a49-95d4-73506fc169d4","0198bbb8-fd11-701d-9147-68794ad37298","{""num_scrambled_semantic"":""8"",""num_scrambled_causal"":""4"",""num_scrambled_schematic"":""4"",""participantId"":""E79044EF69BC4B129A6CD524CE34393C"",""assignmentId"":""0198bd14-1187-7a49-95d4-73506fc169d4"",""projectId"":""0198bbb8-fd11-701d-9147-68794ad37298""}","https://test12345.live/?num_scrambled_semantic=8&num_scrambled_causal=4&num_scrambled_schematic=4&participantId=E79044EF69BC4B129A6CD524CE34393C&assignmentId=0198bd14-1187-7a49-95d4-73506fc169d4&projectId=0198bbb8-fd11-701d-9147-68794ad37298","E79044EF69BC4B129A6CD524CE34393C-2025-08-18-12-41-34","","1322","","images/semantic_sequence/creative_activities_semantic/creative_activities_semantic_3.png","0","",""
"","","","","","image-button-response","71","608276","0.0-12.0-1.0-2.4","E79044EF69BC4B129A6CD524CE34393C","E79044EF69BC4B129A6CD524CE34393C","0198bd14-1187-7a49-95d4-73506fc169d4","0198bbb8-fd11-701d-9147-68794ad37298","{""num_scrambled_semantic"":""8"",""num_scrambled_causal"":""4"",""num_scrambled_schematic"":""4"",""participantId"":""E79044EF69BC4B129A6CD524CE34393C"",""assignmentId"":""0198bd14-1187-7a49-95d4-73506fc169d4"",""projectId"":""0198bbb8-fd11-701d-9147-68794ad37298""}","https://test12345.live/?num_scrambled_semantic=8&num_scrambled_causal=4&num_scrambled_schematic=4&participantId=E79044EF69BC4B129A6CD524CE34393C&assignmentId=0198bd14-1187-7a49-95d4-73506fc169d4&projectId=0198bbb8-fd11-701d-9147-68794ad37298","E79044EF69BC4B129A6CD524CE34393C-2025-08-18-12-41-34","","null","","[]","null","",""
"","","","","","image-button-response","72","612784","0.0-12.0-1.0-0.5","E79044EF69BC4B129A6CD524CE34393C","E79044EF69BC4B129A6CD524CE34393C","0198bd14-1187-7a49-95d4-73506fc169d4","0198bbb8-fd11-701d-9147-68794ad37298","{""num_scrambled_semantic"":""8"",""num_scrambled_causal"":""4"",""num_scrambled_schematic"":""4"",""participantId"":""E79044EF69BC4B129A6CD524CE34393C"",""assignmentId"":""0198bd14-1187-7a49-95d4-73506fc169d4"",""projectId"":""0198bbb8-fd11-701d-9147-68794ad37298""}","https://test12345.live/?num_scrambled_semantic=8&num_scrambled_causal=4&num_scrambled_schematic=4&participantId=E79044EF69BC4B129A6CD524CE34393C&assignmentId=0198bd14-1187-7a49-95d4-73506fc169d4&projectId=0198bbb8-fd11-701d-9147-68794ad37298","E79044EF69BC4B129A6CD524CE34393C-2025-08-18-12-41-34","","null","","images/semantic_sequence/creative_activities_semantic/creative_activities_semantic_4.png","null","",""
"","","","","","image-button-response","73","614249","0.0-12.0-1.0-1.5","E79044EF69BC4B129A6CD524CE34393C","E79044EF69BC4B129A6CD524CE34393C","0198bd14-1187-7a49-95d4-73506fc169d4","0198bbb8-fd11-701d-9147-68794ad37298","{""num_scrambled_semantic"":""8"",""num_scrambled_causal"":""4"",""num_scrambled_schematic"":""4"",""participantId"":""E79044EF69BC4B129A6CD524CE34393C"",""assignmentId"":""0198bd14-1187-7a49-95d4-73506fc169d4"",""projectId"":""0198bbb8-fd11-701d-9147-68794ad37298""}","https://test12345.live/?num_scrambled_semantic=8&num_scrambled_causal=4&num_scrambled_schematic=4&participantId=E79044EF69BC4B129A6CD524CE34393C&assignmentId=0198bd14-1187-7a49-95d4-73506fc169d4&projectId=0198bbb8-fd11-701d-9147-68794ad37298","E79044EF69BC4B129A6CD524CE34393C-2025-08-18-12-41-34","","1464","","images/semantic_sequence/creative_activities_semantic/creative_activities_semantic_4.png","0","",""
"","","","","","image-button-response","74","625056","0.0-12.0-1.0-2.5","E79044EF69BC4B129A6CD524CE34393C","E79044EF69BC4B129A6CD524CE34393C","0198bd14-1187-7a49-95d4-73506fc169d4","0198bbb8-fd11-701d-9147-68794ad37298","{""num_scrambled_semantic"":""8"",""num_scrambled_causal"":""4"",""num_scrambled_schematic"":""4"",""participantId"":""E79044EF69BC4B129A6CD524CE34393C"",""assignmentId"":""0198bd14-1187-7a49-95d4-73506fc169d4"",""projectId"":""0198bbb8-fd11-701d-9147-68794ad37298""}","https://test12345.live/?num_scrambled_semantic=8&num_scrambled_causal=4&num_scrambled_schematic=4&participantId=E79044EF69BC4B129A6CD524CE34393C&assignmentId=0198bd14-1187-7a49-95d4-73506fc169d4&projectId=0198bbb8-fd11-701d-9147-68794ad37298","E79044EF69BC4B129A6CD524CE34393C-2025-08-18-12-41-34","","null","","[]","null","",""
"","","","","","image-button-response","75","629559","0.0-12.0-1.0-0.6","E79044EF69BC4B129A6CD524CE34393C","E79044EF69BC4B129A6CD524CE34393C","0198bd14-1187-7a49-95d4-73506fc169d4","0198bbb8-fd11-701d-9147-68794ad37298","{""num_scrambled_semantic"":""8"",""num_scrambled_causal"":""4"",""num_scrambled_schematic"":""4"",""participantId"":""E79044EF69BC4B129A6CD524CE34393C"",""assignmentId"":""0198bd14-1187-7a49-95d4-73506fc169d4"",""projectId"":""0198bbb8-fd11-701d-9147-68794ad37298""}","https://test12345.live/?num_scrambled_semantic=8&num_scrambled_causal=4&num_scrambled_schematic=4&participantId=E79044EF69BC4B129A6CD524CE34393C&assignmentId=0198bd14-1187-7a49-95d4-73506fc169d4&projectId=0198bbb8-fd11-701d-9147-68794ad37298","E79044EF69BC4B129A6CD524CE34393C-2025-08-18-12-41-34","","null","","images/semantic_sequence/creative_activities_semantic/creative_activities_semantic_7.png","null","",""
"","","","","","image-button-response","76","630666","0.0-12.0-1.0-1.6","E79044EF69BC4B129A6CD524CE34393C","E79044EF69BC4B129A6CD524CE34393C","0198bd14-1187-7a49-95d4-73506fc169d4","0198bbb8-fd11-701d-9147-68794ad37298","{""num_scrambled_semantic"":""8"",""num_scrambled_causal"":""4"",""num_scrambled_schematic"":""4"",""participantId"":""E79044EF69BC4B129A6CD524CE34393C"",""assignmentId"":""0198bd14-1187-7a49-95d4-73506fc169d4"",""projectId"":""0198bbb8-fd11-701d-9147-68794ad37298""}","https://test12345.live/?num_scrambled_semantic=8&num_scrambled_causal=4&num_scrambled_schematic=4&participantId=E79044EF69BC4B129A6CD524CE34393C&assignmentId=0198bd14-1187-7a49-95d4-73506fc169d4&projectId=0198bbb8-fd11-701d-9147-68794ad37298","E79044EF69BC4B129A6CD524CE34393C-2025-08-18-12-41-34","","1106","","images/semantic_sequence/creative_activities_semantic/creative_activities_semantic_7.png","0","",""
"","","","","","image-button-response","77","641472","0.0-12.0-1.0-2.6","E79044EF69BC4B129A6CD524CE34393C","E79044EF69BC4B129A6CD524CE34393C","0198bd14-1187-7a49-95d4-73506fc169d4","0198bbb8-fd11-701d-9147-68794ad37298","{""num_scrambled_semantic"":""8"",""num_scrambled_causal"":""4"",""num_scrambled_schematic"":""4"",""participantId"":""E79044EF69BC4B129A6CD524CE34393C"",""assignmentId"":""0198bd14-1187-7a49-95d4-73506fc169d4"",""projectId"":""0198bbb8-fd11-701d-9147-68794ad37298""}","https://test12345.live/?num_scrambled_semantic=8&num_scrambled_causal=4&num_scrambled_schematic=4&participantId=E79044EF69BC4B129A6CD524CE34393C&assignmentId=0198bd14-1187-7a49-95d4-73506fc169d4&projectId=0198bbb8-fd11-701d-9147-68794ad37298","E79044EF69BC4B129A6CD524CE34393C-2025-08-18-12-41-34","","null","","[]","null","",""
"","","","","","image-button-response","78","645977","0.0-12.0-1.0-0.7","E79044EF69BC4B129A6CD524CE34393C","E79044EF69BC4B129A6CD524CE34393C","0198bd14-1187-7a49-95d4-73506fc169d4","0198bbb8-fd11-701d-9147-68794ad37298","{""num_scrambled_semantic"":""8"",""num_scrambled_causal"":""4"",""num_scrambled_schematic"":""4"",""participantId"":""E79044EF69BC4B129A6CD524CE34393C"",""assignmentId"":""0198bd14-1187-7a49-95d4-73506fc169d4"",""projectId"":""0198bbb8-fd11-701d-9147-68794ad37298""}","https://test12345.live/?num_scrambled_semantic=8&num_scrambled_causal=4&num_scrambled_schematic=4&participantId=E79044EF69BC4B129A6CD524CE34393C&assignmentId=0198bd14-1187-7a49-95d4-73506fc169d4&projectId=0198bbb8-fd11-701d-9147-68794ad37298","E79044EF69BC4B129A6CD524CE34393C-2025-08-18-12-41-34","","null","","images/semantic_sequence/creative_activities_semantic/creative_activities_semantic_6.png","null","",""
"","","","","","image-button-response","79","647241","0.0-12.0-1.0-1.7","E79044EF69BC4B129A6CD524CE34393C","E79044EF69BC4B129A6CD524CE34393C","0198bd14-1187-7a49-95d4-73506fc169d4","0198bbb8-fd11-701d-9147-68794ad37298","{""num_scrambled_semantic"":""8"",""num_scrambled_causal"":""4"",""num_scrambled_schematic"":""4"",""participantId"":""E79044EF69BC4B129A6CD524CE34393C"",""assignmentId"":""0198bd14-1187-7a49-95d4-73506fc169d4"",""projectId"":""0198bbb8-fd11-701d-9147-68794ad37298""}","https://test12345.live/?num_scrambled_semantic=8&num_scrambled_causal=4&num_scrambled_schematic=4&participantId=E79044EF69BC4B129A6CD524CE34393C&assignmentId=0198bd14-1187-7a49-95d4-73506fc169d4&projectId=0198bbb8-fd11-701d-9147-68794ad37298","E79044EF69BC4B129A6CD524CE34393C-2025-08-18-12-41-34","","1263","","images/semantic_sequence/creative_activities_semantic/creative_activities_semantic_6.png","0","",""
"","","","","","image-button-response","80","658048","0.0-12.0-1.0-2.7","E79044EF69BC4B129A6CD524CE34393C","E79044EF69BC4B129A6CD524CE34393C","0198bd14-1187-7a49-95d4-73506fc169d4","0198bbb8-fd11-701d-9147-68794ad37298","{""num_scrambled_semantic"":""8"",""num_scrambled_causal"":""4"",""num_scrambled_schematic"":""4"",""participantId"":""E79044EF69BC4B129A6CD524CE34393C"",""assignmentId"":""0198bd14-1187-7a49-95d4-73506fc169d4"",""projectId"":""0198bbb8-fd11-701d-9147-68794ad37298""}","https://test12345.live/?num_scrambled_semantic=8&num_scrambled_causal=4&num_scrambled_schematic=4&participantId=E79044EF69BC4B129A6CD524CE34393C&assignmentId=0198bd14-1187-7a49-95d4-73506fc169d4&projectId=0198bbb8-fd11-701d-9147-68794ad37298","E79044EF69BC4B129A6CD524CE34393C-2025-08-18-12-41-34","","null","","[]","null","",""
"","","","","","image-button-response","81","662556","0.0-12.0-1.0-0.8","E79044EF69BC4B129A6CD524CE34393C","E79044EF69BC4B129A6CD524CE34393C","0198bd14-1187-7a49-95d4-73506fc169d4","0198bbb8-fd11-701d-9147-68794ad37298","{""num_scrambled_semantic"":""8"",""num_scrambled_causal"":""4"",""num_scrambled_schematic"":""4"",""participantId"":""E79044EF69BC4B129A6CD524CE34393C"",""assignmentId"":""0198bd14-1187-7a49-95d4-73506fc169d4"",""projectId"":""0198bbb8-fd11-701d-9147-68794ad37298""}","https://test12345.live/?num_scrambled_semantic=8&num_scrambled_causal=4&num_scrambled_schematic=4&participantId=E79044EF69BC4B129A6CD524CE34393C&assignmentId=0198bd14-1187-7a49-95d4-73506fc169d4&projectId=0198bbb8-fd11-701d-9147-68794ad37298","E79044EF69BC4B129A6CD524CE34393C-2025-08-18-12-41-34","","null","","images/semantic_sequence/creative_activities_semantic/creative_activities_semantic_8.png","null","",""
"","","","","","image-button-response","82","664004","0.0-12.0-1.0-1.8","E79044EF69BC4B129A6CD524CE34393C","E79044EF69BC4B129A6CD524CE34393C","0198bd14-1187-7a49-95d4-73506fc169d4","0198bbb8-fd11-701d-9147-68794ad37298","{""num_scrambled_semantic"":""8"",""num_scrambled_causal"":""4"",""num_scrambled_schematic"":""4"",""participantId"":""E79044EF69BC4B129A6CD524CE34393C"",""assignmentId"":""0198bd14-1187-7a49-95d4-73506fc169d4"",""projectId"":""0198bbb8-fd11-701d-9147-68794ad37298""}","https://test12345.live/?num_scrambled_semantic=8&num_scrambled_causal=4&num_scrambled_schematic=4&participantId=E79044EF69BC4B129A6CD524CE34393C&assignmentId=0198bd14-1187-7a49-95d4-73506fc169d4&projectId=0198bbb8-fd11-701d-9147-68794ad37298","E79044EF69BC4B129A6CD524CE34393C-2025-08-18-12-41-34","","1446","","images/semantic_sequence/creative_activities_semantic/creative_activities_semantic_8.png","0","",""
"","","","","","image-button-response","83","674807","0.0-12.0-1.0-2.8","E79044EF69BC4B129A6CD524CE34393C","E79044EF69BC4B129A6CD524CE34393C","0198bd14-1187-7a49-95d4-73506fc169d4","0198bbb8-fd11-701d-9147-68794ad37298","{""num_scrambled_semantic"":""8"",""num_scrambled_causal"":""4"",""num_scrambled_schematic"":""4"",""participantId"":""E79044EF69BC4B129A6CD524CE34393C"",""assignmentId"":""0198bd14-1187-7a49-95d4-73506fc169d4"",""projectId"":""0198bbb8-fd11-701d-9147-68794ad37298""}","https://test12345.live/?num_scrambled_semantic=8&num_scrambled_causal=4&num_scrambled_schematic=4&participantId=E79044EF69BC4B129A6CD524CE34393C&assignmentId=0198bd14-1187-7a49-95d4-73506fc169d4&projectId=0198bbb8-fd11-701d-9147-68794ad37298","E79044EF69BC4B129A6CD524CE34393C-2025-08-18-12-41-34","","null","","[]","null","",""
"","","","","","image-button-response","84","679313","0.0-12.0-1.0-0.9","E79044EF69BC4B129A6CD524CE34393C","E79044EF69BC4B129A6CD524CE34393C","0198bd14-1187-7a49-95d4-73506fc169d4","0198bbb8-fd11-701d-9147-68794ad37298","{""num_scrambled_semantic"":""8"",""num_scrambled_causal"":""4"",""num_scrambled_schematic"":""4"",""participantId"":""E79044EF69BC4B129A6CD524CE34393C"",""assignmentId"":""0198bd14-1187-7a49-95d4-73506fc169d4"",""projectId"":""0198bbb8-fd11-701d-9147-68794ad37298""}","https://test12345.live/?num_scrambled_semantic=8&num_scrambled_causal=4&num_scrambled_schematic=4&participantId=E79044EF69BC4B129A6CD524CE34393C&assignmentId=0198bd14-1187-7a49-95d4-73506fc169d4&projectId=0198bbb8-fd11-701d-9147-68794ad37298","E79044EF69BC4B129A6CD524CE34393C-2025-08-18-12-41-34","","null","","images/semantic_sequence/creative_activities_semantic/creative_activities_semantic_9.png","null","",""
"","","","","","image-button-response","85","680221","0.0-12.0-1.0-1.9","E79044EF69BC4B129A6CD524CE34393C","E79044EF69BC4B129A6CD524CE34393C","0198bd14-1187-7a49-95d4-73506fc169d4","0198bbb8-fd11-701d-9147-68794ad37298","{""num_scrambled_semantic"":""8"",""num_scrambled_causal"":""4"",""num_scrambled_schematic"":""4"",""participantId"":""E79044EF69BC4B129A6CD524CE34393C"",""assignmentId"":""0198bd14-1187-7a49-95d4-73506fc169d4"",""projectId"":""0198bbb8-fd11-701d-9147-68794ad37298""}","https://test12345.live/?num_scrambled_semantic=8&num_scrambled_causal=4&num_scrambled_schematic=4&participantId=E79044EF69BC4B129A6CD524CE34393C&assignmentId=0198bd14-1187-7a49-95d4-73506fc169d4&projectId=0198bbb8-fd11-701d-9147-68794ad37298","E79044EF69BC4B129A6CD524CE34393C-2025-08-18-12-41-34","","906","","images/semantic_sequence/creative_activities_semantic/creative_activities_semantic_9.png","0","",""
"","","","","","image-button-response","86","691026","0.0-12.0-1.0-2.9","E79044EF69BC4B129A6CD524CE34393C","E79044EF69BC4B129A6CD524CE34393C","0198bd14-1187-7a49-95d4-73506fc169d4","0198bbb8-fd11-701d-9147-68794ad37298","{""num_scrambled_semantic"":""8"",""num_scrambled_causal"":""4"",""num_scrambled_schematic"":""4"",""participantId"":""E79044EF69BC4B129A6CD524CE34393C"",""assignmentId"":""0198bd14-1187-7a49-95d4-73506fc169d4"",""projectId"":""0198bbb8-fd11-701d-9147-68794ad37298""}","https://test12345.live/?num_scrambled_semantic=8&num_scrambled_causal=4&num_scrambled_schematic=4&participantId=E79044EF69BC4B129A6CD524CE34393C&assignmentId=0198bd14-1187-7a49-95d4-73506fc169d4&projectId=0198bbb8-fd11-701d-9147-68794ad37298","E79044EF69BC4B129A6CD524CE34393C-2025-08-18-12-41-34","","null","","[]","null","",""
"","","","","","html-audio-response","87","721887","0.0-13.0","E79044EF69BC4B129A6CD524CE34393C","E79044EF69BC4B129A6CD524CE34393C","0198bd14-1187-7a49-95d4-73506fc169d4","0198bbb8-fd11-701d-9147-68794ad37298","{""num_scrambled_semantic"":""8"",""num_scrambled_causal"":""4"",""num_scrambled_schematic"":""4"",""participantId"":""E79044EF69BC4B129A6CD524CE34393C"",""assignmentId"":""0198bd14-1187-7a49-95d4-73506fc169d4"",""projectId"":""0198bbb8-fd11-701d-9147-68794ad37298""}","https://test12345.live/?num_scrambled_semantic=8&num_scrambled_causal=4&num_scrambled_schematic=4&participantId=E79044EF69BC4B129A6CD524CE34393C&assignmentId=0198bd14-1187-7a49-95d4-73506fc169d4&projectId=0198bbb8-fd11-701d-9147-68794ad37298","E79044EF69BC4B129A6CD524CE34393C-2025-08-18-12-41-34","","17407","","[""<span style=\""color: red; font-size: 24px\""> NOW RECORDING</span><p>Please say out loud all the images you saw, as many as you can remember. The images can be said in any order.</p>""]","","2","creative_activities_semantic"
"","","","","","image-button-response","88","727896","0.0-14.0-0.0","E79044EF69BC4B129A6CD524CE34393C","E79044EF69BC4B129A6CD524CE34393C","0198bd14-1187-7a49-95d4-73506fc169d4","0198bbb8-fd11-701d-9147-68794ad37298","{""num_scrambled_semantic"":""8"",""num_scrambled_causal"":""4"",""num_scrambled_schematic"":""4"",""participantId"":""E79044EF69BC4B129A6CD524CE34393C"",""assignmentId"":""0198bd14-1187-7a49-95d4-73506fc169d4"",""projectId"":""0198bbb8-fd11-701d-9147-68794ad37298""}","https://test12345.live/?num_scrambled_semantic=8&num_scrambled_causal=4&num_scrambled_schematic=4&participantId=E79044EF69BC4B129A6CD524CE34393C&assignmentId=0198bd14-1187-7a49-95d4-73506fc169d4&projectId=0198bbb8-fd11-701d-9147-68794ad37298","E79044EF69BC4B129A6CD524CE34393C-2025-08-18-12-41-34","","null","","images/causal_sequence/package_causal/package_causal_0.png","null","",""
"","","","","","image-button-response","89","732404","0.0-14.0-1.0-0.0","E79044EF69BC4B129A6CD524CE34393C","E79044EF69BC4B129A6CD524CE34393C","0198bd14-1187-7a49-95d4-73506fc169d4","0198bbb8-fd11-701d-9147-68794ad37298","{""num_scrambled_semantic"":""8"",""num_scrambled_causal"":""4"",""num_scrambled_schematic"":""4"",""participantId"":""E79044EF69BC4B129A6CD524CE34393C"",""assignmentId"":""0198bd14-1187-7a49-95d4-73506fc169d4"",""projectId"":""0198bbb8-fd11-701d-9147-68794ad37298""}","https://test12345.live/?num_scrambled_semantic=8&num_scrambled_causal=4&num_scrambled_schematic=4&participantId=E79044EF69BC4B129A6CD524CE34393C&assignmentId=0198bd14-1187-7a49-95d4-73506fc169d4&projectId=0198bbb8-fd11-701d-9147-68794ad37298","E79044EF69BC4B129A6CD524CE34393C-2025-08-18-12-41-34","","null","","images/causal_sequence/package_causal/package_causal_4.png","null","",""
"","","","","","image-button-response","90","736407","0.0-14.0-1.0-1.0","E79044EF69BC4B129A6CD524CE34393C","E79044EF69BC4B129A6CD524CE34393C","0198bd14-1187-7a49-95d4-73506fc169d4","0198bbb8-fd11-701d-9147-68794ad37298","{""num_scrambled_semantic"":""8"",""num_scrambled_causal"":""4"",""num_scrambled_schematic"":""4"",""participantId"":""E79044EF69BC4B129A6CD524CE34393C"",""assignmentId"":""0198bd14-1187-7a49-95d4-73506fc169d4"",""projectId"":""0198bbb8-fd11-701d-9147-68794ad37298""}","https://test12345.live/?num_scrambled_semantic=8&num_scrambled_causal=4&num_scrambled_schematic=4&participantId=E79044EF69BC4B129A6CD524CE34393C&assignmentId=0198bd14-1187-7a49-95d4-73506fc169d4&projectId=0198bbb8-fd11-701d-9147-68794ad37298","E79044EF69BC4B129A6CD524CE34393C-2025-08-18-12-41-34","","null","","images/causal_sequence/package_causal/package_causal_4.png","null","",""
"","","","","","image-button-response","91","747214","0.0-14.0-1.0-2.0","E79044EF69BC4B129A6CD524CE34393C","E79044EF69BC4B129A6CD524CE34393C","0198bd14-1187-7a49-95d4-73506fc169d4","0198bbb8-fd11-701d-9147-68794ad37298","{""num_scrambled_semantic"":""8"",""num_scrambled_causal"":""4"",""num_scrambled_schematic"":""4"",""participantId"":""E79044EF69BC4B129A6CD524CE34393C"",""assignmentId"":""0198bd14-1187-7a49-95d4-73506fc169d4"",""projectId"":""0198bbb8-fd11-701d-9147-68794ad37298""}","https://test12345.live/?num_scrambled_semantic=8&num_scrambled_causal=4&num_scrambled_schematic=4&participantId=E79044EF69BC4B129A6CD524CE34393C&assignmentId=0198bd14-1187-7a49-95d4-73506fc169d4&projectId=0198bbb8-fd11-701d-9147-68794ad37298","E79044EF69BC4B129A6CD524CE34393C-2025-08-18-12-41-34","","null","","[]","null","",""
"","","","","","image-button-response","92","751717","0.0-14.0-1.0-0.1","E79044EF69BC4B129A6CD524CE34393C","E79044EF69BC4B129A6CD524CE34393C","0198bd14-1187-7a49-95d4-73506fc169d4","0198bbb8-fd11-701d-9147-68794ad37298","{""num_scrambled_semantic"":""8"",""num_scrambled_causal"":""4"",""num_scrambled_schematic"":""4"",""participantId"":""E79044EF69BC4B129A6CD524CE34393C"",""assignmentId"":""0198bd14-1187-7a49-95d4-73506fc169d4"",""projectId"":""0198bbb8-fd11-701d-9147-68794ad37298""}","https://test12345.live/?num_scrambled_semantic=8&num_scrambled_causal=4&num_scrambled_schematic=4&participantId=E79044EF69BC4B129A6CD524CE34393C&assignmentId=0198bd14-1187-7a49-95d4-73506fc169d4&projectId=0198bbb8-fd11-701d-9147-68794ad37298","E79044EF69BC4B129A6CD524CE34393C-2025-08-18-12-41-34","","null","","images/causal_sequence/package_causal/package_causal_1.png","null","",""
"","","","","","image-button-response","93","752871","0.0-14.0-1.0-1.1","E79044EF69BC4B129A6CD524CE34393C","E79044EF69BC4B129A6CD524CE34393C","0198bd14-1187-7a49-95d4-73506fc169d4","0198bbb8-fd11-701d-9147-68794ad37298","{""num_scrambled_semantic"":""8"",""num_scrambled_causal"":""4"",""num_scrambled_schematic"":""4"",""participantId"":""E79044EF69BC4B129A6CD524CE34393C"",""assignmentId"":""0198bd14-1187-7a49-95d4-73506fc169d4"",""projectId"":""0198bbb8-fd11-701d-9147-68794ad37298""}","https://test12345.live/?num_scrambled_semantic=8&num_scrambled_causal=4&num_scrambled_schematic=4&participantId=E79044EF69BC4B129A6CD524CE34393C&assignmentId=0198bd14-1187-7a49-95d4-73506fc169d4&projectId=0198bbb8-fd11-701d-9147-68794ad37298","E79044EF69BC4B129A6CD524CE34393C-2025-08-18-12-41-34","","1152","","images/causal_sequence/package_causal/package_causal_1.png","0","",""
"","","","","","image-button-response","94","763675","0.0-14.0-1.0-2.1","E79044EF69BC4B129A6CD524CE34393C","E79044EF69BC4B129A6CD524CE34393C","0198bd14-1187-7a49-95d4-73506fc169d4","0198bbb8-fd11-701d-9147-68794ad37298","{""num_scrambled_semantic"":""8"",""num_scrambled_causal"":""4"",""num_scrambled_schematic"":""4"",""participantId"":""E79044EF69BC4B129A6CD524CE34393C"",""assignmentId"":""0198bd14-1187-7a49-95d4-73506fc169d4"",""projectId"":""0198bbb8-fd11-701d-9147-68794ad37298""}","https://test12345.live/?num_scrambled_semantic=8&num_scrambled_causal=4&num_scrambled_schematic=4&participantId=E79044EF69BC4B129A6CD524CE34393C&assignmentId=0198bd14-1187-7a49-95d4-73506fc169d4&projectId=0198bbb8-fd11-701d-9147-68794ad37298","E79044EF69BC4B129A6CD524CE34393C-2025-08-18-12-41-34","","null","","[]","null","",""
"","","","","","image-button-response","95","768182","0.0-14.0-1.0-0.2","E79044EF69BC4B129A6CD524CE34393C","E79044EF69BC4B129A6CD524CE34393C","0198bd14-1187-7a49-95d4-73506fc169d4","0198bbb8-fd11-701d-9147-68794ad37298","{""num_scrambled_semantic"":""8"",""num_scrambled_causal"":""4"",""num_scrambled_schematic"":""4"",""participantId"":""E79044EF69BC4B129A6CD524CE34393C"",""assignmentId"":""0198bd14-1187-7a49-95d4-73506fc169d4"",""projectId"":""0198bbb8-fd11-701d-9147-68794ad37298""}","https://test12345.live/?num_scrambled_semantic=8&num_scrambled_causal=4&num_scrambled_schematic=4&participantId=E79044EF69BC4B129A6CD524CE34393C&assignmentId=0198bd14-1187-7a49-95d4-73506fc169d4&projectId=0198bbb8-fd11-701d-9147-68794ad37298","E79044EF69BC4B129A6CD524CE34393C-2025-08-18-12-41-34","","null","","images/causal_sequence/package_causal/package_causal_2.png","null","",""
"","","","","","image-button-response","96","771004","0.0-14.0-1.0-1.2","E79044EF69BC4B129A6CD524CE34393C","E79044EF69BC4B129A6CD524CE34393C","0198bd14-1187-7a49-95d4-73506fc169d4","0198bbb8-fd11-701d-9147-68794ad37298","{""num_scrambled_semantic"":""8"",""num_scrambled_causal"":""4"",""num_scrambled_schematic"":""4"",""participantId"":""E79044EF69BC4B129A6CD524CE34393C"",""assignmentId"":""0198bd14-1187-7a49-95d4-73506fc169d4"",""projectId"":""0198bbb8-fd11-701d-9147-68794ad37298""}","https://test12345.live/?num_scrambled_semantic=8&num_scrambled_causal=4&num_scrambled_schematic=4&participantId=E79044EF69BC4B129A6CD524CE34393C&assignmentId=0198bd14-1187-7a49-95d4-73506fc169d4&projectId=0198bbb8-fd11-701d-9147-68794ad37298","E79044EF69BC4B129A6CD524CE34393C-2025-08-18-12-41-34","","2820","","images/causal_sequence/package_causal/package_causal_2.png","0","",""
"","","","","","image-button-response","97","781808","0.0-14.0-1.0-2.2","E79044EF69BC4B129A6CD524CE34393C","E79044EF69BC4B129A6CD524CE34393C","0198bd14-1187-7a49-95d4-73506fc169d4","0198bbb8-fd11-701d-9147-68794ad37298","{""num_scrambled_semantic"":""8"",""num_scrambled_causal"":""4"",""num_scrambled_schematic"":""4"",""participantId"":""E79044EF69BC4B129A6CD524CE34393C"",""assignmentId"":""0198bd14-1187-7a49-95d4-73506fc169d4"",""projectId"":""0198bbb8-fd11-701d-9147-68794ad37298""}","https://test12345.live/?num_scrambled_semantic=8&num_scrambled_causal=4&num_scrambled_schematic=4&participantId=E79044EF69BC4B129A6CD524CE34393C&assignmentId=0198bd14-1187-7a49-95d4-73506fc169d4&projectId=0198bbb8-fd11-701d-9147-68794ad37298","E79044EF69BC4B129A6CD524CE34393C-2025-08-18-12-41-34","","null","","[]","null","",""
"","","","","","image-button-response","98","786313","0.0-14.0-1.0-0.3","E79044EF69BC4B129A6CD524CE34393C","E79044EF69BC4B129A6CD524CE34393C","0198bd14-1187-7a49-95d4-73506fc169d4","0198bbb8-fd11-701d-9147-68794ad37298","{""num_scrambled_semantic"":""8"",""num_scrambled_causal"":""4"",""num_scrambled_schematic"":""4"",""participantId"":""E79044EF69BC4B129A6CD524CE34393C"",""assignmentId"":""0198bd14-1187-7a49-95d4-73506fc169d4"",""projectId"":""0198bbb8-fd11-701d-9147-68794ad37298""}","https://test12345.live/?num_scrambled_semantic=8&num_scrambled_causal=4&num_scrambled_schematic=4&participantId=E79044EF69BC4B129A6CD524CE34393C&assignmentId=0198bd14-1187-7a49-95d4-73506fc169d4&projectId=0198bbb8-fd11-701d-9147-68794ad37298","E79044EF69BC4B129A6CD524CE34393C-2025-08-18-12-41-34","","null","","images/causal_sequence/package_causal/package_causal_6.png","null","",""
"","","","","","image-button-response","99","788025","0.0-14.0-1.0-1.3","E79044EF69BC4B129A6CD524CE34393C","E79044EF69BC4B129A6CD524CE34393C","0198bd14-1187-7a49-95d4-73506fc169d4","0198bbb8-fd11-701d-9147-68794ad37298","{""num_scrambled_semantic"":""8"",""num_scrambled_causal"":""4"",""num_scrambled_schematic"":""4"",""participantId"":""E79044EF69BC4B129A6CD524CE34393C"",""assignmentId"":""0198bd14-1187-7a49-95d4-73506fc169d4"",""projectId"":""0198bbb8-fd11-701d-9147-68794ad37298""}","https://test12345.live/?num_scrambled_semantic=8&num_scrambled_causal=4&num_scrambled_schematic=4&participantId=E79044EF69BC4B129A6CD524CE34393C&assignmentId=0198bd14-1187-7a49-95d4-73506fc169d4&projectId=0198bbb8-fd11-701d-9147-68794ad37298","E79044EF69BC4B129A6CD524CE34393C-2025-08-18-12-41-34","","1710","","images/causal_sequence/package_causal/package_causal_6.png","0","",""
"","","","","","image-button-response","100","798833","0.0-14.0-1.0-2.3","E79044EF69BC4B129A6CD524CE34393C","E79044EF69BC4B129A6CD524CE34393C","0198bd14-1187-7a49-95d4-73506fc169d4","0198bbb8-fd11-701d-9147-68794ad37298","{""num_scrambled_semantic"":""8"",""num_scrambled_causal"":""4"",""num_scrambled_schematic"":""4"",""participantId"":""E79044EF69BC4B129A6CD524CE34393C"",""assignmentId"":""0198bd14-1187-7a49-95d4-73506fc169d4"",""projectId"":""0198bbb8-fd11-701d-9147-68794ad37298""}","https://test12345.live/?num_scrambled_semantic=8&num_scrambled_causal=4&num_scrambled_schematic=4&participantId=E79044EF69BC4B129A6CD524CE34393C&assignmentId=0198bd14-1187-7a49-95d4-73506fc169d4&projectId=0198bbb8-fd11-701d-9147-68794ad37298","E79044EF69BC4B129A6CD524CE34393C-2025-08-18-12-41-34","","null","","[]","null","",""
"","","","","","image-button-response","101","803341","0.0-14.0-1.0-0.4","E79044EF69BC4B129A6CD524CE34393C","E79044EF69BC4B129A6CD524CE34393C","0198bd14-1187-7a49-95d4-73506fc169d4","0198bbb8-fd11-701d-9147-68794ad37298","{""num_scrambled_semantic"":""8"",""num_scrambled_causal"":""4"",""num_scrambled_schematic"":""4"",""participantId"":""E79044EF69BC4B129A6CD524CE34393C"",""assignmentId"":""0198bd14-1187-7a49-95d4-73506fc169d4"",""projectId"":""0198bbb8-fd11-701d-9147-68794ad37298""}","https://test12345.live/?num_scrambled_semantic=8&num_scrambled_causal=4&num_scrambled_schematic=4&participantId=E79044EF69BC4B129A6CD524CE34393C&assignmentId=0198bd14-1187-7a49-95d4-73506fc169d4&projectId=0198bbb8-fd11-701d-9147-68794ad37298","E79044EF69BC4B129A6CD524CE34393C-2025-08-18-12-41-34","","null","","images/causal_sequence/package_causal/package_causal_3.png","null","",""
"","","","","","image-button-response","102","807348","0.0-14.0-1.0-1.4","E79044EF69BC4B129A6CD524CE34393C","E79044EF69BC4B129A6CD524CE34393C","0198bd14-1187-7a49-95d4-73506fc169d4","0198bbb8-fd11-701d-9147-68794ad37298","{""num_scrambled_semantic"":""8"",""num_scrambled_causal"":""4"",""num_scrambled_schematic"":""4"",""participantId"":""E79044EF69BC4B129A6CD524CE34393C"",""assignmentId"":""0198bd14-1187-7a49-95d4-73506fc169d4"",""projectId"":""0198bbb8-fd11-701d-9147-68794ad37298""}","https://test12345.live/?num_scrambled_semantic=8&num_scrambled_causal=4&num_scrambled_schematic=4&participantId=E79044EF69BC4B129A6CD524CE34393C&assignmentId=0198bd14-1187-7a49-95d4-73506fc169d4&projectId=0198bbb8-fd11-701d-9147-68794ad37298","E79044EF69BC4B129A6CD524CE34393C-2025-08-18-12-41-34","","null","","images/causal_sequence/package_causal/package_causal_3.png","null","",""
"","","","","","image-button-response","103","818155","0.0-14.0-1.0-2.4","E79044EF69BC4B129A6CD524CE34393C","E79044EF69BC4B129A6CD524CE34393C","0198bd14-1187-7a49-95d4-73506fc169d4","0198bbb8-fd11-701d-9147-68794ad37298","{""num_scrambled_semantic"":""8"",""num_scrambled_causal"":""4"",""num_scrambled_schematic"":""4"",""participantId"":""E79044EF69BC4B129A6CD524CE34393C"",""assignmentId"":""0198bd14-1187-7a49-95d4-73506fc169d4"",""projectId"":""0198bbb8-fd11-701d-9147-68794ad37298""}","https://test12345.live/?num_scrambled_semantic=8&num_scrambled_causal=4&num_scrambled_schematic=4&participantId=E79044EF69BC4B129A6CD524CE34393C&assignmentId=0198bd14-1187-7a49-95d4-73506fc169d4&projectId=0198bbb8-fd11-701d-9147-68794ad37298","E79044EF69BC4B129A6CD524CE34393C-2025-08-18-12-41-34","","null","","[]","null","",""
"","","","","","image-button-response","104","822659","0.0-14.0-1.0-0.5","E79044EF69BC4B129A6CD524CE34393C","E79044EF69BC4B129A6CD524CE34393C","0198bd14-1187-7a49-95d4-73506fc169d4","0198bbb8-fd11-701d-9147-68794ad37298","{""num_scrambled_semantic"":""8"",""num_scrambled_causal"":""4"",""num_scrambled_schematic"":""4"",""participantId"":""E79044EF69BC4B129A6CD524CE34393C"",""assignmentId"":""0198bd14-1187-7a49-95d4-73506fc169d4"",""projectId"":""0198bbb8-fd11-701d-9147-68794ad37298""}","https://test12345.live/?num_scrambled_semantic=8&num_scrambled_causal=4&num_scrambled_schematic=4&participantId=E79044EF69BC4B129A6CD524CE34393C&assignmentId=0198bd14-1187-7a49-95d4-73506fc169d4&projectId=0198bbb8-fd11-701d-9147-68794ad37298","E79044EF69BC4B129A6CD524CE34393C-2025-08-18-12-41-34","","null","","images/causal_sequence/package_causal/package_causal_5.png","null","",""
"","","","","","image-button-response","105","824137","0.0-14.0-1.0-1.5","E79044EF69BC4B129A6CD524CE34393C","E79044EF69BC4B129A6CD524CE34393C","0198bd14-1187-7a49-95d4-73506fc169d4","0198bbb8-fd11-701d-9147-68794ad37298","{""num_scrambled_semantic"":""8"",""num_scrambled_causal"":""4"",""num_scrambled_schematic"":""4"",""participantId"":""E79044EF69BC4B129A6CD524CE34393C"",""assignmentId"":""0198bd14-1187-7a49-95d4-73506fc169d4"",""projectId"":""0198bbb8-fd11-701d-9147-68794ad37298""}","https://test12345.live/?num_scrambled_semantic=8&num_scrambled_causal=4&num_scrambled_schematic=4&participantId=E79044EF69BC4B129A6CD524CE34393C&assignmentId=0198bd14-1187-7a49-95d4-73506fc169d4&projectId=0198bbb8-fd11-701d-9147-68794ad37298","E79044EF69BC4B129A6CD524CE34393C-2025-08-18-12-41-34","","1476","","images/causal_sequence/package_causal/package_causal_5.png","0","",""
"","","","","","image-button-response","106","834944","0.0-14.0-1.0-2.5","E79044EF69BC4B129A6CD524CE34393C","E79044EF69BC4B129A6CD524CE34393C","0198bd14-1187-7a49-95d4-73506fc169d4","0198bbb8-fd11-701d-9147-68794ad37298","{""num_scrambled_semantic"":""8"",""num_scrambled_causal"":""4"",""num_scrambled_schematic"":""4"",""participantId"":""E79044EF69BC4B129A6CD524CE34393C"",""assignmentId"":""0198bd14-1187-7a49-95d4-73506fc169d4"",""projectId"":""0198bbb8-fd11-701d-9147-68794ad37298""}","https://test12345.live/?num_scrambled_semantic=8&num_scrambled_causal=4&num_scrambled_schematic=4&participantId=E79044EF69BC4B129A6CD524CE34393C&assignmentId=0198bd14-1187-7a49-95d4-73506fc169d4&projectId=0198bbb8-fd11-701d-9147-68794ad37298","E79044EF69BC4B129A6CD524CE34393C-2025-08-18-12-41-34","","null","","[]","null","",""
"","","","","","image-button-response","107","839450","0.0-14.0-1.0-0.6","E79044EF69BC4B129A6CD524CE34393C","E79044EF69BC4B129A6CD524CE34393C","0198bd14-1187-7a49-95d4-73506fc169d4","0198bbb8-fd11-701d-9147-68794ad37298","{""num_scrambled_semantic"":""8"",""num_scrambled_causal"":""4"",""num_scrambled_schematic"":""4"",""participantId"":""E79044EF69BC4B129A6CD524CE34393C"",""assignmentId"":""0198bd14-1187-7a49-95d4-73506fc169d4"",""projectId"":""0198bbb8-fd11-701d-9147-68794ad37298""}","https://test12345.live/?num_scrambled_semantic=8&num_scrambled_causal=4&num_scrambled_schematic=4&participantId=E79044EF69BC4B129A6CD524CE34393C&assignmentId=0198bd14-1187-7a49-95d4-73506fc169d4&projectId=0198bbb8-fd11-701d-9147-68794ad37298","E79044EF69BC4B129A6CD524CE34393C-2025-08-18-12-41-34","","null","","images/causal_sequence/package_causal/package_causal_ten.png","null","",""
"","","","","","image-button-response","108","840953","0.0-14.0-1.0-1.6","E79044EF69BC4B129A6CD524CE34393C","E79044EF69BC4B129A6CD524CE34393C","0198bd14-1187-7a49-95d4-73506fc169d4","0198bbb8-fd11-701d-9147-68794ad37298","{""num_scrambled_semantic"":""8"",""num_scrambled_causal"":""4"",""num_scrambled_schematic"":""4"",""participantId"":""E79044EF69BC4B129A6CD524CE34393C"",""assignmentId"":""0198bd14-1187-7a49-95d4-73506fc169d4"",""projectId"":""0198bbb8-fd11-701d-9147-68794ad37298""}","https://test12345.live/?num_scrambled_semantic=8&num_scrambled_causal=4&num_scrambled_schematic=4&participantId=E79044EF69BC4B129A6CD524CE34393C&assignmentId=0198bd14-1187-7a49-95d4-73506fc169d4&projectId=0198bbb8-fd11-701d-9147-68794ad37298","E79044EF69BC4B129A6CD524CE34393C-2025-08-18-12-41-34","","1501","","images/causal_sequence/package_causal/package_causal_ten.png","0","",""
"","","","","","image-button-response","109","851760","0.0-14.0-1.0-2.6","E79044EF69BC4B129A6CD524CE34393C","E79044EF69BC4B129A6CD524CE34393C","0198bd14-1187-7a49-95d4-73506fc169d4","0198bbb8-fd11-701d-9147-68794ad37298","{""num_scrambled_semantic"":""8"",""num_scrambled_causal"":""4"",""num_scrambled_schematic"":""4"",""participantId"":""E79044EF69BC4B129A6CD524CE34393C"",""assignmentId"":""0198bd14-1187-7a49-95d4-73506fc169d4"",""projectId"":""0198bbb8-fd11-701d-9147-68794ad37298""}","https://test12345.live/?num_scrambled_semantic=8&num_scrambled_causal=4&num_scrambled_schematic=4&participantId=E79044EF69BC4B129A6CD524CE34393C&assignmentId=0198bd14-1187-7a49-95d4-73506fc169d4&projectId=0198bbb8-fd11-701d-9147-68794ad37298","E79044EF69BC4B129A6CD524CE34393C-2025-08-18-12-41-34","","null","","[]","null","",""
"","","","","","image-button-response","110","856267","0.0-14.0-1.0-0.7","E79044EF69BC4B129A6CD524CE34393C","E79044EF69BC4B129A6CD524CE34393C","0198bd14-1187-7a49-95d4-73506fc169d4","0198bbb8-fd11-701d-9147-68794ad37298","{""num_scrambled_semantic"":""8"",""num_scrambled_causal"":""4"",""num_scrambled_schematic"":""4"",""participantId"":""E79044EF69BC4B129A6CD524CE34393C"",""assignmentId"":""0198bd14-1187-7a49-95d4-73506fc169d4"",""projectId"":""0198bbb8-fd11-701d-9147-68794ad37298""}","https://test12345.live/?num_scrambled_semantic=8&num_scrambled_causal=4&num_scrambled_schematic=4&participantId=E79044EF69BC4B129A6CD524CE34393C&assignmentId=0198bd14-1187-7a49-95d4-73506fc169d4&projectId=0198bbb8-fd11-701d-9147-68794ad37298","E79044EF69BC4B129A6CD524CE34393C-2025-08-18-12-41-34","","null","","images/causal_sequence/package_causal/package_causal_9.png","null","",""
"","","","","","image-button-response","111","857387","0.0-14.0-1.0-1.7","E79044EF69BC4B129A6CD524CE34393C","E79044EF69BC4B129A6CD524CE34393C","0198bd14-1187-7a49-95d4-73506fc169d4","0198bbb8-fd11-701d-9147-68794ad37298","{""num_scrambled_semantic"":""8"",""num_scrambled_causal"":""4"",""num_scrambled_schematic"":""4"",""participantId"":""E79044EF69BC4B129A6CD524CE34393C"",""assignmentId"":""0198bd14-1187-7a49-95d4-73506fc169d4"",""projectId"":""0198bbb8-fd11-701d-9147-68794ad37298""}","https://test12345.live/?num_scrambled_semantic=8&num_scrambled_causal=4&num_scrambled_schematic=4&participantId=E79044EF69BC4B129A6CD524CE34393C&assignmentId=0198bd14-1187-7a49-95d4-73506fc169d4&projectId=0198bbb8-fd11-701d-9147-68794ad37298","E79044EF69BC4B129A6CD524CE34393C-2025-08-18-12-41-34","","1118","","images/causal_sequence/package_causal/package_causal_9.png","0","",""
"","","","","","image-button-response","112","868191","0.0-14.0-1.0-2.7","E79044EF69BC4B129A6CD524CE34393C","E79044EF69BC4B129A6CD524CE34393C","0198bd14-1187-7a49-95d4-73506fc169d4","0198bbb8-fd11-701d-9147-68794ad37298","{""num_scrambled_semantic"":""8"",""num_scrambled_causal"":""4"",""num_scrambled_schematic"":""4"",""participantId"":""E79044EF69BC4B129A6CD524CE34393C"",""assignmentId"":""0198bd14-1187-7a49-95d4-73506fc169d4"",""projectId"":""0198bbb8-fd11-701d-9147-68794ad37298""}","https://test12345.live/?num_scrambled_semantic=8&num_scrambled_causal=4&num_scrambled_schematic=4&participantId=E79044EF69BC4B129A6CD524CE34393C&assignmentId=0198bd14-1187-7a49-95d4-73506fc169d4&projectId=0198bbb8-fd11-701d-9147-68794ad37298","E79044EF69BC4B129A6CD524CE34393C-2025-08-18-12-41-34","","null","","[]","null","",""
"","","","","","image-button-response","113","872698","0.0-14.0-1.0-0.8","E79044EF69BC4B129A6CD524CE34393C","E79044EF69BC4B129A6CD524CE34393C","0198bd14-1187-7a49-95d4-73506fc169d4","0198bbb8-fd11-701d-9147-68794ad37298","{""num_scrambled_semantic"":""8"",""num_scrambled_causal"":""4"",""num_scrambled_schematic"":""4"",""participantId"":""E79044EF69BC4B129A6CD524CE34393C"",""assignmentId"":""0198bd14-1187-7a49-95d4-73506fc169d4"",""projectId"":""0198bbb8-fd11-701d-9147-68794ad37298""}","https://test12345.live/?num_scrambled_semantic=8&num_scrambled_causal=4&num_scrambled_schematic=4&participantId=E79044EF69BC4B129A6CD524CE34393C&assignmentId=0198bd14-1187-7a49-95d4-73506fc169d4&projectId=0198bbb8-fd11-701d-9147-68794ad37298","E79044EF69BC4B129A6CD524CE34393C-2025-08-18-12-41-34","","null","","images/causal_sequence/package_causal/package_causal_8.png","null","",""
"","","","","","image-button-response","114","873695","0.0-14.0-1.0-1.8","E79044EF69BC4B129A6CD524CE34393C","E79044EF69BC4B129A6CD524CE34393C","0198bd14-1187-7a49-95d4-73506fc169d4","0198bbb8-fd11-701d-9147-68794ad37298","{""num_scrambled_semantic"":""8"",""num_scrambled_causal"":""4"",""num_scrambled_schematic"":""4"",""participantId"":""E79044EF69BC4B129A6CD524CE34393C"",""assignmentId"":""0198bd14-1187-7a49-95d4-73506fc169d4"",""projectId"":""0198bbb8-fd11-701d-9147-68794ad37298""}","https://test12345.live/?num_scrambled_semantic=8&num_scrambled_causal=4&num_scrambled_schematic=4&participantId=E79044EF69BC4B129A6CD524CE34393C&assignmentId=0198bd14-1187-7a49-95d4-73506fc169d4&projectId=0198bbb8-fd11-701d-9147-68794ad37298","E79044EF69BC4B129A6CD524CE34393C-2025-08-18-12-41-34","","996","","images/causal_sequence/package_causal/package_causal_8.png","0","",""
