"success","timeout","failed_images","failed_audio","failed_video","trial_type","trial_index","time_elapsed","internal_node_id","subject","subject_id","study_id","session_id","urlvar","current_url","audio_id","view_history","rt","device_id","stimulus","response","estimated_stimulus_onset","seq_name"
"true","false","[]","[]","[]","preload","0","15","0.0-0.0","EABB32E867BA40608CAFF96B0F4CDAA1","EABB32E867BA40608CAFF96B0F4CDAA1","a397b6e5-2136-435a-8e63-3ebf2b5c1d7c","cf64b1cf-d2c0-4391-b5f1-bfe9f3ca2d48","{""participantId"":""EABB32E867BA40608CAFF96B0F4CDAA1"",""assignmentId"":""a397b6e5-2136-435a-8e63-3ebf2b5c1d7c"",""projectId"":""cf64b1cf-d2c0-4391-b5f1-bfe9f3ca2d48""}","https://test12345.live/?participantId=EABB32E867BA40608CAFF96B0F4CDAA1&assignmentId=a397b6e5-2136-435a-8e63-3ebf2b5c1d7c&projectId=cf64b1cf-d2c0-4391-b5f1-bfe9f3ca2d48","EABB32E867BA40608CAFF96B0F4CDAA1-2025-05-13-02-14-14","","","","","","",""
"","","","","","instructions","1","7139","0.0-1.0","EABB32E867BA40608CAFF96B0F4CDAA1","EABB32E867BA40608CAFF96B0F4CDAA1","a397b6e5-2136-435a-8e63-3ebf2b5c1d7c","cf64b1cf-d2c0-4391-b5f1-bfe9f3ca2d48","{""participantId"":""EABB32E867BA40608CAFF96B0F4CDAA1"",""assignmentId"":""a397b6e5-2136-435a-8e63-3ebf2b5c1d7c"",""projectId"":""cf64b1cf-d2c0-4391-b5f1-bfe9f3ca2d48""}","https://test12345.live/?participantId=EABB32E867BA40608CAFF96B0F4CDAA1&assignmentId=a397b6e5-2136-435a-8e63-3ebf2b5c1d7c&projectId=cf64b1cf-d2c0-4391-b5f1-bfe9f3ca2d48","EABB32E867BA40608CAFF96B0F4CDAA1-2025-05-13-02-14-14","[{""page_index"":0,""viewing_time"":7124}]","7124","","","","",""
"","","","","","instructions","2","9194","0.0-2.0","EABB32E867BA40608CAFF96B0F4CDAA1","EABB32E867BA40608CAFF96B0F4CDAA1","a397b6e5-2136-435a-8e63-3ebf2b5c1d7c","cf64b1cf-d2c0-4391-b5f1-bfe9f3ca2d48","{""participantId"":""EABB32E867BA40608CAFF96B0F4CDAA1"",""assignmentId"":""a397b6e5-2136-435a-8e63-3ebf2b5c1d7c"",""projectId"":""cf64b1cf-d2c0-4391-b5f1-bfe9f3ca2d48""}","https://test12345.live/?participantId=EABB32E867BA40608CAFF96B0F4CDAA1&assignmentId=a397b6e5-2136-435a-8e63-3ebf2b5c1d7c&projectId=cf64b1cf-d2c0-4391-b5f1-bfe9f3ca2d48","EABB32E867BA40608CAFF96B0F4CDAA1-2025-05-13-02-14-14","[{""page_index"":0,""viewing_time"":2055}]","2055","","","","",""
"true","","","","","fullscreen","3","11506","0.0-3.0","EABB32E867BA40608CAFF96B0F4CDAA1","EABB32E867BA40608CAFF96B0F4CDAA1","a397b6e5-2136-435a-8e63-3ebf2b5c1d7c","cf64b1cf-d2c0-4391-b5f1-bfe9f3ca2d48","{""participantId"":""EABB32E867BA40608CAFF96B0F4CDAA1"",""assignmentId"":""a397b6e5-2136-435a-8e63-3ebf2b5c1d7c"",""projectId"":""cf64b1cf-d2c0-4391-b5f1-bfe9f3ca2d48""}","https://test12345.live/?participantId=EABB32E867BA40608CAFF96B0F4CDAA1&assignmentId=a397b6e5-2136-435a-8e63-3ebf2b5c1d7c&projectId=cf64b1cf-d2c0-4391-b5f1-bfe9f3ca2d48","EABB32E867BA40608CAFF96B0F4CDAA1-2025-05-13-02-14-14","","1310","","","","",""
"","","","","","initialize-microphone","4","14327","0.0-4.0-0.0","EABB32E867BA40608CAFF96B0F4CDAA1","EABB32E867BA40608CAFF96B0F4CDAA1","a397b6e5-2136-435a-8e63-3ebf2b5c1d7c","cf64b1cf-d2c0-4391-b5f1-bfe9f3ca2d48","{""participantId"":""EABB32E867BA40608CAFF96B0F4CDAA1"",""assignmentId"":""a397b6e5-2136-435a-8e63-3ebf2b5c1d7c"",""projectId"":""cf64b1cf-d2c0-4391-b5f1-bfe9f3ca2d48""}","https://test12345.live/?participantId=EABB32E867BA40608CAFF96B0F4CDAA1&assignmentId=a397b6e5-2136-435a-8e63-3ebf2b5c1d7c&projectId=cf64b1cf-d2c0-4391-b5f1-bfe9f3ca2d48","EABB32E867BA40608CAFF96B0F4CDAA1-2025-05-13-02-14-14","","","96350404f07808dd0b7081bf196a7309655fef0dac430c32f789c461c8273ea2","","","",""
"","","","","","html-audio-response","5","25951","0.0-4.0-1.0","EABB32E867BA40608CAFF96B0F4CDAA1","EABB32E867BA40608CAFF96B0F4CDAA1","a397b6e5-2136-435a-8e63-3ebf2b5c1d7c","cf64b1cf-d2c0-4391-b5f1-bfe9f3ca2d48","{""participantId"":""EABB32E867BA40608CAFF96B0F4CDAA1"",""assignmentId"":""a397b6e5-2136-435a-8e63-3ebf2b5c1d7c"",""projectId"":""cf64b1cf-d2c0-4391-b5f1-bfe9f3ca2d48""}","https://test12345.live/?participantId=EABB32E867BA40608CAFF96B0F4CDAA1&assignmentId=a397b6e5-2136-435a-8e63-3ebf2b5c1d7c&projectId=cf64b1cf-d2c0-4391-b5f1-bfe9f3ca2d48","EABB32E867BA40608CAFF96B0F4CDAA1-2025-05-13-02-14-14","","4948","","<span style=""color: red; font-size: 24px""> NOW RECORDING</span>
        <p>Please test Microphone</p>","","5",""
"","","","","","html-button-response","6","28958","0.0-4.0-2.0","EABB32E867BA40608CAFF96B0F4CDAA1","EABB32E867BA40608CAFF96B0F4CDAA1","a397b6e5-2136-435a-8e63-3ebf2b5c1d7c","cf64b1cf-d2c0-4391-b5f1-bfe9f3ca2d48","{""participantId"":""EABB32E867BA40608CAFF96B0F4CDAA1"",""assignmentId"":""a397b6e5-2136-435a-8e63-3ebf2b5c1d7c"",""projectId"":""cf64b1cf-d2c0-4391-b5f1-bfe9f3ca2d48""}","https://test12345.live/?participantId=EABB32E867BA40608CAFF96B0F4CDAA1&assignmentId=a397b6e5-2136-435a-8e63-3ebf2b5c1d7c&projectId=cf64b1cf-d2c0-4391-b5f1-bfe9f3ca2d48","EABB32E867BA40608CAFF96B0F4CDAA1-2025-05-13-02-14-14","","3006","","<p style=""font-size:48px; color:red;"">Is Microphone OK?</p>","1","",""
"","","","","","instructions","7","40297","0.0-5.0","EABB32E867BA40608CAFF96B0F4CDAA1","EABB32E867BA40608CAFF96B0F4CDAA1","a397b6e5-2136-435a-8e63-3ebf2b5c1d7c","cf64b1cf-d2c0-4391-b5f1-bfe9f3ca2d48","{""participantId"":""EABB32E867BA40608CAFF96B0F4CDAA1"",""assignmentId"":""a397b6e5-2136-435a-8e63-3ebf2b5c1d7c"",""projectId"":""cf64b1cf-d2c0-4391-b5f1-bfe9f3ca2d48""}","https://test12345.live/?participantId=EABB32E867BA40608CAFF96B0F4CDAA1&assignmentId=a397b6e5-2136-435a-8e63-3ebf2b5c1d7c&projectId=cf64b1cf-d2c0-4391-b5f1-bfe9f3ca2d48","EABB32E867BA40608CAFF96B0F4CDAA1-2025-05-13-02-14-14","[{""page_index"":0,""viewing_time"":4838},{""page_index"":1,""viewing_time"":6501}]","11339","","","","",""
"","","","","","image-button-response","8","46311","0.0-6.0-0.0","EABB32E867BA40608CAFF96B0F4CDAA1","EABB32E867BA40608CAFF96B0F4CDAA1","a397b6e5-2136-435a-8e63-3ebf2b5c1d7c","cf64b1cf-d2c0-4391-b5f1-bfe9f3ca2d48","{""participantId"":""EABB32E867BA40608CAFF96B0F4CDAA1"",""assignmentId"":""a397b6e5-2136-435a-8e63-3ebf2b5c1d7c"",""projectId"":""cf64b1cf-d2c0-4391-b5f1-bfe9f3ca2d48""}","https://test12345.live/?participantId=EABB32E867BA40608CAFF96B0F4CDAA1&assignmentId=a397b6e5-2136-435a-8e63-3ebf2b5c1d7c&projectId=cf64b1cf-d2c0-4391-b5f1-bfe9f3ca2d48","EABB32E867BA40608CAFF96B0F4CDAA1-2025-05-13-02-14-14","","null","","images/instructions/movie_0.png","null","",""
"","","","","","image-button-response","9","50827","0.0-6.0-1.0-0.0","EABB32E867BA40608CAFF96B0F4CDAA1","EABB32E867BA40608CAFF96B0F4CDAA1","a397b6e5-2136-435a-8e63-3ebf2b5c1d7c","cf64b1cf-d2c0-4391-b5f1-bfe9f3ca2d48","{""participantId"":""EABB32E867BA40608CAFF96B0F4CDAA1"",""assignmentId"":""a397b6e5-2136-435a-8e63-3ebf2b5c1d7c"",""projectId"":""cf64b1cf-d2c0-4391-b5f1-bfe9f3ca2d48""}","https://test12345.live/?participantId=EABB32E867BA40608CAFF96B0F4CDAA1&assignmentId=a397b6e5-2136-435a-8e63-3ebf2b5c1d7c&projectId=cf64b1cf-d2c0-4391-b5f1-bfe9f3ca2d48","EABB32E867BA40608CAFF96B0F4CDAA1-2025-05-13-02-14-14","","null","","images/instructions/movie_1.png","null","",""
"","","","","","image-button-response","10","53677","0.0-6.0-1.0-1.0","EABB32E867BA40608CAFF96B0F4CDAA1","EABB32E867BA40608CAFF96B0F4CDAA1","a397b6e5-2136-435a-8e63-3ebf2b5c1d7c","cf64b1cf-d2c0-4391-b5f1-bfe9f3ca2d48","{""participantId"":""EABB32E867BA40608CAFF96B0F4CDAA1"",""assignmentId"":""a397b6e5-2136-435a-8e63-3ebf2b5c1d7c"",""projectId"":""cf64b1cf-d2c0-4391-b5f1-bfe9f3ca2d48""}","https://test12345.live/?participantId=EABB32E867BA40608CAFF96B0F4CDAA1&assignmentId=a397b6e5-2136-435a-8e63-3ebf2b5c1d7c&projectId=cf64b1cf-d2c0-4391-b5f1-bfe9f3ca2d48","EABB32E867BA40608CAFF96B0F4CDAA1-2025-05-13-02-14-14","","2850","","images/instructions/movie_1.png","0","",""
"","","","","","image-button-response","11","55492","0.0-6.0-1.0-2.0","EABB32E867BA40608CAFF96B0F4CDAA1","EABB32E867BA40608CAFF96B0F4CDAA1","a397b6e5-2136-435a-8e63-3ebf2b5c1d7c","cf64b1cf-d2c0-4391-b5f1-bfe9f3ca2d48","{""participantId"":""EABB32E867BA40608CAFF96B0F4CDAA1"",""assignmentId"":""a397b6e5-2136-435a-8e63-3ebf2b5c1d7c"",""projectId"":""cf64b1cf-d2c0-4391-b5f1-bfe9f3ca2d48""}","https://test12345.live/?participantId=EABB32E867BA40608CAFF96B0F4CDAA1&assignmentId=a397b6e5-2136-435a-8e63-3ebf2b5c1d7c&projectId=cf64b1cf-d2c0-4391-b5f1-bfe9f3ca2d48","EABB32E867BA40608CAFF96B0F4CDAA1-2025-05-13-02-14-14","","null","","[]","null","",""
"","","","","","image-button-response","12","59997","0.0-6.0-1.0-0.1","EABB32E867BA40608CAFF96B0F4CDAA1","EABB32E867BA40608CAFF96B0F4CDAA1","a397b6e5-2136-435a-8e63-3ebf2b5c1d7c","cf64b1cf-d2c0-4391-b5f1-bfe9f3ca2d48","{""participantId"":""EABB32E867BA40608CAFF96B0F4CDAA1"",""assignmentId"":""a397b6e5-2136-435a-8e63-3ebf2b5c1d7c"",""projectId"":""cf64b1cf-d2c0-4391-b5f1-bfe9f3ca2d48""}","https://test12345.live/?participantId=EABB32E867BA40608CAFF96B0F4CDAA1&assignmentId=a397b6e5-2136-435a-8e63-3ebf2b5c1d7c&projectId=cf64b1cf-d2c0-4391-b5f1-bfe9f3ca2d48","EABB32E867BA40608CAFF96B0F4CDAA1-2025-05-13-02-14-14","","null","","images/instructions/movie_2.png","null","",""
"","","","","","image-button-response","13","63219","0.0-6.0-1.0-1.1","EABB32E867BA40608CAFF96B0F4CDAA1","EABB32E867BA40608CAFF96B0F4CDAA1","a397b6e5-2136-435a-8e63-3ebf2b5c1d7c","cf64b1cf-d2c0-4391-b5f1-bfe9f3ca2d48","{""participantId"":""EABB32E867BA40608CAFF96B0F4CDAA1"",""assignmentId"":""a397b6e5-2136-435a-8e63-3ebf2b5c1d7c"",""projectId"":""cf64b1cf-d2c0-4391-b5f1-bfe9f3ca2d48""}","https://test12345.live/?participantId=EABB32E867BA40608CAFF96B0F4CDAA1&assignmentId=a397b6e5-2136-435a-8e63-3ebf2b5c1d7c&projectId=cf64b1cf-d2c0-4391-b5f1-bfe9f3ca2d48","EABB32E867BA40608CAFF96B0F4CDAA1-2025-05-13-02-14-14","","3222","","images/instructions/movie_2.png","0","",""
"","","","","","image-button-response","14","65028","0.0-6.0-1.0-2.1","EABB32E867BA40608CAFF96B0F4CDAA1","EABB32E867BA40608CAFF96B0F4CDAA1","a397b6e5-2136-435a-8e63-3ebf2b5c1d7c","cf64b1cf-d2c0-4391-b5f1-bfe9f3ca2d48","{""participantId"":""EABB32E867BA40608CAFF96B0F4CDAA1"",""assignmentId"":""a397b6e5-2136-435a-8e63-3ebf2b5c1d7c"",""projectId"":""cf64b1cf-d2c0-4391-b5f1-bfe9f3ca2d48""}","https://test12345.live/?participantId=EABB32E867BA40608CAFF96B0F4CDAA1&assignmentId=a397b6e5-2136-435a-8e63-3ebf2b5c1d7c&projectId=cf64b1cf-d2c0-4391-b5f1-bfe9f3ca2d48","EABB32E867BA40608CAFF96B0F4CDAA1-2025-05-13-02-14-14","","null","","[]","null","",""
"","","","","","image-button-response","15","69529","0.0-6.0-1.0-0.2","EABB32E867BA40608CAFF96B0F4CDAA1","EABB32E867BA40608CAFF96B0F4CDAA1","a397b6e5-2136-435a-8e63-3ebf2b5c1d7c","cf64b1cf-d2c0-4391-b5f1-bfe9f3ca2d48","{""participantId"":""EABB32E867BA40608CAFF96B0F4CDAA1"",""assignmentId"":""a397b6e5-2136-435a-8e63-3ebf2b5c1d7c"",""projectId"":""cf64b1cf-d2c0-4391-b5f1-bfe9f3ca2d48""}","https://test12345.live/?participantId=EABB32E867BA40608CAFF96B0F4CDAA1&assignmentId=a397b6e5-2136-435a-8e63-3ebf2b5c1d7c&projectId=cf64b1cf-d2c0-4391-b5f1-bfe9f3ca2d48","EABB32E867BA40608CAFF96B0F4CDAA1-2025-05-13-02-14-14","","null","","images/instructions/movie_3.png","null","",""
"","","","","","image-button-response","16","70503","0.0-6.0-1.0-1.2","EABB32E867BA40608CAFF96B0F4CDAA1","EABB32E867BA40608CAFF96B0F4CDAA1","a397b6e5-2136-435a-8e63-3ebf2b5c1d7c","cf64b1cf-d2c0-4391-b5f1-bfe9f3ca2d48","{""participantId"":""EABB32E867BA40608CAFF96B0F4CDAA1"",""assignmentId"":""a397b6e5-2136-435a-8e63-3ebf2b5c1d7c"",""projectId"":""cf64b1cf-d2c0-4391-b5f1-bfe9f3ca2d48""}","https://test12345.live/?participantId=EABB32E867BA40608CAFF96B0F4CDAA1&assignmentId=a397b6e5-2136-435a-8e63-3ebf2b5c1d7c&projectId=cf64b1cf-d2c0-4391-b5f1-bfe9f3ca2d48","EABB32E867BA40608CAFF96B0F4CDAA1-2025-05-13-02-14-14","","973","","images/instructions/movie_3.png","0","",""
"","","","","","image-button-response","17","72304","0.0-6.0-1.0-2.2","EABB32E867BA40608CAFF96B0F4CDAA1","EABB32E867BA40608CAFF96B0F4CDAA1","a397b6e5-2136-435a-8e63-3ebf2b5c1d7c","cf64b1cf-d2c0-4391-b5f1-bfe9f3ca2d48","{""participantId"":""EABB32E867BA40608CAFF96B0F4CDAA1"",""assignmentId"":""a397b6e5-2136-435a-8e63-3ebf2b5c1d7c"",""projectId"":""cf64b1cf-d2c0-4391-b5f1-bfe9f3ca2d48""}","https://test12345.live/?participantId=EABB32E867BA40608CAFF96B0F4CDAA1&assignmentId=a397b6e5-2136-435a-8e63-3ebf2b5c1d7c&projectId=cf64b1cf-d2c0-4391-b5f1-bfe9f3ca2d48","EABB32E867BA40608CAFF96B0F4CDAA1-2025-05-13-02-14-14","","null","","[]","null","",""
"","","","","","image-button-response","18","76806","0.0-6.0-1.0-0.3","EABB32E867BA40608CAFF96B0F4CDAA1","EABB32E867BA40608CAFF96B0F4CDAA1","a397b6e5-2136-435a-8e63-3ebf2b5c1d7c","cf64b1cf-d2c0-4391-b5f1-bfe9f3ca2d48","{""participantId"":""EABB32E867BA40608CAFF96B0F4CDAA1"",""assignmentId"":""a397b6e5-2136-435a-8e63-3ebf2b5c1d7c"",""projectId"":""cf64b1cf-d2c0-4391-b5f1-bfe9f3ca2d48""}","https://test12345.live/?participantId=EABB32E867BA40608CAFF96B0F4CDAA1&assignmentId=a397b6e5-2136-435a-8e63-3ebf2b5c1d7c&projectId=cf64b1cf-d2c0-4391-b5f1-bfe9f3ca2d48","EABB32E867BA40608CAFF96B0F4CDAA1-2025-05-13-02-14-14","","null","","images/instructions/movie_4.png","null","",""
"","","","","","image-button-response","19","77645","0.0-6.0-1.0-1.3","EABB32E867BA40608CAFF96B0F4CDAA1","EABB32E867BA40608CAFF96B0F4CDAA1","a397b6e5-2136-435a-8e63-3ebf2b5c1d7c","cf64b1cf-d2c0-4391-b5f1-bfe9f3ca2d48","{""participantId"":""EABB32E867BA40608CAFF96B0F4CDAA1"",""assignmentId"":""a397b6e5-2136-435a-8e63-3ebf2b5c1d7c"",""projectId"":""cf64b1cf-d2c0-4391-b5f1-bfe9f3ca2d48""}","https://test12345.live/?participantId=EABB32E867BA40608CAFF96B0F4CDAA1&assignmentId=a397b6e5-2136-435a-8e63-3ebf2b5c1d7c&projectId=cf64b1cf-d2c0-4391-b5f1-bfe9f3ca2d48","EABB32E867BA40608CAFF96B0F4CDAA1-2025-05-13-02-14-14","","838","","images/instructions/movie_4.png","0","",""
"","","","","","image-button-response","20","79449","0.0-6.0-1.0-2.3","EABB32E867BA40608CAFF96B0F4CDAA1","EABB32E867BA40608CAFF96B0F4CDAA1","a397b6e5-2136-435a-8e63-3ebf2b5c1d7c","cf64b1cf-d2c0-4391-b5f1-bfe9f3ca2d48","{""participantId"":""EABB32E867BA40608CAFF96B0F4CDAA1"",""assignmentId"":""a397b6e5-2136-435a-8e63-3ebf2b5c1d7c"",""projectId"":""cf64b1cf-d2c0-4391-b5f1-bfe9f3ca2d48""}","https://test12345.live/?participantId=EABB32E867BA40608CAFF96B0F4CDAA1&assignmentId=a397b6e5-2136-435a-8e63-3ebf2b5c1d7c&projectId=cf64b1cf-d2c0-4391-b5f1-bfe9f3ca2d48","EABB32E867BA40608CAFF96B0F4CDAA1-2025-05-13-02-14-14","","null","","[]","null","",""
"","","","","","instructions","21","88219","0.0-7.0","EABB32E867BA40608CAFF96B0F4CDAA1","EABB32E867BA40608CAFF96B0F4CDAA1","a397b6e5-2136-435a-8e63-3ebf2b5c1d7c","cf64b1cf-d2c0-4391-b5f1-bfe9f3ca2d48","{""participantId"":""EABB32E867BA40608CAFF96B0F4CDAA1"",""assignmentId"":""a397b6e5-2136-435a-8e63-3ebf2b5c1d7c"",""projectId"":""cf64b1cf-d2c0-4391-b5f1-bfe9f3ca2d48""}","https://test12345.live/?participantId=EABB32E867BA40608CAFF96B0F4CDAA1&assignmentId=a397b6e5-2136-435a-8e63-3ebf2b5c1d7c&projectId=cf64b1cf-d2c0-4391-b5f1-bfe9f3ca2d48","EABB32E867BA40608CAFF96B0F4CDAA1-2025-05-13-02-14-14","[{""page_index"":0,""viewing_time"":7638},{""page_index"":1,""viewing_time"":1132}]","8770","","","","",""
"","","","","","html-audio-response","22","115467","0.0-8.0","EABB32E867BA40608CAFF96B0F4CDAA1","EABB32E867BA40608CAFF96B0F4CDAA1","a397b6e5-2136-435a-8e63-3ebf2b5c1d7c","cf64b1cf-d2c0-4391-b5f1-bfe9f3ca2d48","{""participantId"":""EABB32E867BA40608CAFF96B0F4CDAA1"",""assignmentId"":""a397b6e5-2136-435a-8e63-3ebf2b5c1d7c"",""projectId"":""cf64b1cf-d2c0-4391-b5f1-bfe9f3ca2d48""}","https://test12345.live/?participantId=EABB32E867BA40608CAFF96B0F4CDAA1&assignmentId=a397b6e5-2136-435a-8e63-3ebf2b5c1d7c&projectId=cf64b1cf-d2c0-4391-b5f1-bfe9f3ca2d48","EABB32E867BA40608CAFF96B0F4CDAA1-2025-05-13-02-14-14","","13112","","[""<span style=\""color: red; font-size: 24px\""> NOW RECORDING</span><p>Please say out loud all the images you saw, as many as you can remember. The images can be said in any order.</p>""]","","1",""
"","","","","","instructions","23","116491","0.0-9.0","EABB32E867BA40608CAFF96B0F4CDAA1","EABB32E867BA40608CAFF96B0F4CDAA1","a397b6e5-2136-435a-8e63-3ebf2b5c1d7c","cf64b1cf-d2c0-4391-b5f1-bfe9f3ca2d48","{""participantId"":""EABB32E867BA40608CAFF96B0F4CDAA1"",""assignmentId"":""a397b6e5-2136-435a-8e63-3ebf2b5c1d7c"",""projectId"":""cf64b1cf-d2c0-4391-b5f1-bfe9f3ca2d48""}","https://test12345.live/?participantId=EABB32E867BA40608CAFF96B0F4CDAA1&assignmentId=a397b6e5-2136-435a-8e63-3ebf2b5c1d7c&projectId=cf64b1cf-d2c0-4391-b5f1-bfe9f3ca2d48","EABB32E867BA40608CAFF96B0F4CDAA1-2025-05-13-02-14-14","[{""page_index"":0,""viewing_time"":1021}]","1021","","","","",""
"","","","","","image-button-response","24","122497","0.0-10.0-0.0","EABB32E867BA40608CAFF96B0F4CDAA1","EABB32E867BA40608CAFF96B0F4CDAA1","a397b6e5-2136-435a-8e63-3ebf2b5c1d7c","cf64b1cf-d2c0-4391-b5f1-bfe9f3ca2d48","{""participantId"":""EABB32E867BA40608CAFF96B0F4CDAA1"",""assignmentId"":""a397b6e5-2136-435a-8e63-3ebf2b5c1d7c"",""projectId"":""cf64b1cf-d2c0-4391-b5f1-bfe9f3ca2d48""}","https://test12345.live/?participantId=EABB32E867BA40608CAFF96B0F4CDAA1&assignmentId=a397b6e5-2136-435a-8e63-3ebf2b5c1d7c&projectId=cf64b1cf-d2c0-4391-b5f1-bfe9f3ca2d48","EABB32E867BA40608CAFF96B0F4CDAA1-2025-05-13-02-14-14","","null","","images/semantic_sequence/maintaining_a_car_semantic/maintaining_a_car_semantic_0.png","null","",""
"","","","","","image-button-response","25","127006","0.0-10.0-1.0-0.0","EABB32E867BA40608CAFF96B0F4CDAA1","EABB32E867BA40608CAFF96B0F4CDAA1","a397b6e5-2136-435a-8e63-3ebf2b5c1d7c","cf64b1cf-d2c0-4391-b5f1-bfe9f3ca2d48","{""participantId"":""EABB32E867BA40608CAFF96B0F4CDAA1"",""assignmentId"":""a397b6e5-2136-435a-8e63-3ebf2b5c1d7c"",""projectId"":""cf64b1cf-d2c0-4391-b5f1-bfe9f3ca2d48""}","https://test12345.live/?participantId=EABB32E867BA40608CAFF96B0F4CDAA1&assignmentId=a397b6e5-2136-435a-8e63-3ebf2b5c1d7c&projectId=cf64b1cf-d2c0-4391-b5f1-bfe9f3ca2d48","EABB32E867BA40608CAFF96B0F4CDAA1-2025-05-13-02-14-14","","null","","images/semantic_sequence/maintaining_a_car_semantic/maintaining_a_car_semantic_6.png","null","",""
"","","","","","image-button-response","26","130155","0.0-10.0-1.0-1.0","EABB32E867BA40608CAFF96B0F4CDAA1","EABB32E867BA40608CAFF96B0F4CDAA1","a397b6e5-2136-435a-8e63-3ebf2b5c1d7c","cf64b1cf-d2c0-4391-b5f1-bfe9f3ca2d48","{""participantId"":""EABB32E867BA40608CAFF96B0F4CDAA1"",""assignmentId"":""a397b6e5-2136-435a-8e63-3ebf2b5c1d7c"",""projectId"":""cf64b1cf-d2c0-4391-b5f1-bfe9f3ca2d48""}","https://test12345.live/?participantId=EABB32E867BA40608CAFF96B0F4CDAA1&assignmentId=a397b6e5-2136-435a-8e63-3ebf2b5c1d7c&projectId=cf64b1cf-d2c0-4391-b5f1-bfe9f3ca2d48","EABB32E867BA40608CAFF96B0F4CDAA1-2025-05-13-02-14-14","","3148","","images/semantic_sequence/maintaining_a_car_semantic/maintaining_a_car_semantic_6.png","0","",""
"","","","","","image-button-response","27","131957","0.0-10.0-1.0-2.0","EABB32E867BA40608CAFF96B0F4CDAA1","EABB32E867BA40608CAFF96B0F4CDAA1","a397b6e5-2136-435a-8e63-3ebf2b5c1d7c","cf64b1cf-d2c0-4391-b5f1-bfe9f3ca2d48","{""participantId"":""EABB32E867BA40608CAFF96B0F4CDAA1"",""assignmentId"":""a397b6e5-2136-435a-8e63-3ebf2b5c1d7c"",""projectId"":""cf64b1cf-d2c0-4391-b5f1-bfe9f3ca2d48""}","https://test12345.live/?participantId=EABB32E867BA40608CAFF96B0F4CDAA1&assignmentId=a397b6e5-2136-435a-8e63-3ebf2b5c1d7c&projectId=cf64b1cf-d2c0-4391-b5f1-bfe9f3ca2d48","EABB32E867BA40608CAFF96B0F4CDAA1-2025-05-13-02-14-14","","null","","[]","null","",""
"","","","","","image-button-response","28","136460","0.0-10.0-1.0-0.1","EABB32E867BA40608CAFF96B0F4CDAA1","EABB32E867BA40608CAFF96B0F4CDAA1","a397b6e5-2136-435a-8e63-3ebf2b5c1d7c","cf64b1cf-d2c0-4391-b5f1-bfe9f3ca2d48","{""participantId"":""EABB32E867BA40608CAFF96B0F4CDAA1"",""assignmentId"":""a397b6e5-2136-435a-8e63-3ebf2b5c1d7c"",""projectId"":""cf64b1cf-d2c0-4391-b5f1-bfe9f3ca2d48""}","https://test12345.live/?participantId=EABB32E867BA40608CAFF96B0F4CDAA1&assignmentId=a397b6e5-2136-435a-8e63-3ebf2b5c1d7c&projectId=cf64b1cf-d2c0-4391-b5f1-bfe9f3ca2d48","EABB32E867BA40608CAFF96B0F4CDAA1-2025-05-13-02-14-14","","null","","images/semantic_sequence/maintaining_a_car_semantic/maintaining_a_car_semantic_8.png","null","",""
"","","","","","image-button-response","29","137393","0.0-10.0-1.0-1.1","EABB32E867BA40608CAFF96B0F4CDAA1","EABB32E867BA40608CAFF96B0F4CDAA1","a397b6e5-2136-435a-8e63-3ebf2b5c1d7c","cf64b1cf-d2c0-4391-b5f1-bfe9f3ca2d48","{""participantId"":""EABB32E867BA40608CAFF96B0F4CDAA1"",""assignmentId"":""a397b6e5-2136-435a-8e63-3ebf2b5c1d7c"",""projectId"":""cf64b1cf-d2c0-4391-b5f1-bfe9f3ca2d48""}","https://test12345.live/?participantId=EABB32E867BA40608CAFF96B0F4CDAA1&assignmentId=a397b6e5-2136-435a-8e63-3ebf2b5c1d7c&projectId=cf64b1cf-d2c0-4391-b5f1-bfe9f3ca2d48","EABB32E867BA40608CAFF96B0F4CDAA1-2025-05-13-02-14-14","","932","","images/semantic_sequence/maintaining_a_car_semantic/maintaining_a_car_semantic_8.png","0","",""
"","","","","","image-button-response","30","139197","0.0-10.0-1.0-2.1","EABB32E867BA40608CAFF96B0F4CDAA1","EABB32E867BA40608CAFF96B0F4CDAA1","a397b6e5-2136-435a-8e63-3ebf2b5c1d7c","cf64b1cf-d2c0-4391-b5f1-bfe9f3ca2d48","{""participantId"":""EABB32E867BA40608CAFF96B0F4CDAA1"",""assignmentId"":""a397b6e5-2136-435a-8e63-3ebf2b5c1d7c"",""projectId"":""cf64b1cf-d2c0-4391-b5f1-bfe9f3ca2d48""}","https://test12345.live/?participantId=EABB32E867BA40608CAFF96B0F4CDAA1&assignmentId=a397b6e5-2136-435a-8e63-3ebf2b5c1d7c&projectId=cf64b1cf-d2c0-4391-b5f1-bfe9f3ca2d48","EABB32E867BA40608CAFF96B0F4CDAA1-2025-05-13-02-14-14","","null","","[]","null","",""
"","","","","","image-button-response","31","143707","0.0-10.0-1.0-0.2","EABB32E867BA40608CAFF96B0F4CDAA1","EABB32E867BA40608CAFF96B0F4CDAA1","a397b6e5-2136-435a-8e63-3ebf2b5c1d7c","cf64b1cf-d2c0-4391-b5f1-bfe9f3ca2d48","{""participantId"":""EABB32E867BA40608CAFF96B0F4CDAA1"",""assignmentId"":""a397b6e5-2136-435a-8e63-3ebf2b5c1d7c"",""projectId"":""cf64b1cf-d2c0-4391-b5f1-bfe9f3ca2d48""}","https://test12345.live/?participantId=EABB32E867BA40608CAFF96B0F4CDAA1&assignmentId=a397b6e5-2136-435a-8e63-3ebf2b5c1d7c&projectId=cf64b1cf-d2c0-4391-b5f1-bfe9f3ca2d48","EABB32E867BA40608CAFF96B0F4CDAA1-2025-05-13-02-14-14","","null","","images/semantic_sequence/maintaining_a_car_semantic/maintaining_a_car_semantic_ten.png","null","",""
"","","","","","image-button-response","32","144599","0.0-10.0-1.0-1.2","EABB32E867BA40608CAFF96B0F4CDAA1","EABB32E867BA40608CAFF96B0F4CDAA1","a397b6e5-2136-435a-8e63-3ebf2b5c1d7c","cf64b1cf-d2c0-4391-b5f1-bfe9f3ca2d48","{""participantId"":""EABB32E867BA40608CAFF96B0F4CDAA1"",""assignmentId"":""a397b6e5-2136-435a-8e63-3ebf2b5c1d7c"",""projectId"":""cf64b1cf-d2c0-4391-b5f1-bfe9f3ca2d48""}","https://test12345.live/?participantId=EABB32E867BA40608CAFF96B0F4CDAA1&assignmentId=a397b6e5-2136-435a-8e63-3ebf2b5c1d7c&projectId=cf64b1cf-d2c0-4391-b5f1-bfe9f3ca2d48","EABB32E867BA40608CAFF96B0F4CDAA1-2025-05-13-02-14-14","","891","","images/semantic_sequence/maintaining_a_car_semantic/maintaining_a_car_semantic_ten.png","0","",""
"","","","","","image-button-response","33","146407","0.0-10.0-1.0-2.2","EABB32E867BA40608CAFF96B0F4CDAA1","EABB32E867BA40608CAFF96B0F4CDAA1","a397b6e5-2136-435a-8e63-3ebf2b5c1d7c","cf64b1cf-d2c0-4391-b5f1-bfe9f3ca2d48","{""participantId"":""EABB32E867BA40608CAFF96B0F4CDAA1"",""assignmentId"":""a397b6e5-2136-435a-8e63-3ebf2b5c1d7c"",""projectId"":""cf64b1cf-d2c0-4391-b5f1-bfe9f3ca2d48""}","https://test12345.live/?participantId=EABB32E867BA40608CAFF96B0F4CDAA1&assignmentId=a397b6e5-2136-435a-8e63-3ebf2b5c1d7c&projectId=cf64b1cf-d2c0-4391-b5f1-bfe9f3ca2d48","EABB32E867BA40608CAFF96B0F4CDAA1-2025-05-13-02-14-14","","null","","[]","null","",""
"","","","","","image-button-response","34","150908","0.0-10.0-1.0-0.3","EABB32E867BA40608CAFF96B0F4CDAA1","EABB32E867BA40608CAFF96B0F4CDAA1","a397b6e5-2136-435a-8e63-3ebf2b5c1d7c","cf64b1cf-d2c0-4391-b5f1-bfe9f3ca2d48","{""participantId"":""EABB32E867BA40608CAFF96B0F4CDAA1"",""assignmentId"":""a397b6e5-2136-435a-8e63-3ebf2b5c1d7c"",""projectId"":""cf64b1cf-d2c0-4391-b5f1-bfe9f3ca2d48""}","https://test12345.live/?participantId=EABB32E867BA40608CAFF96B0F4CDAA1&assignmentId=a397b6e5-2136-435a-8e63-3ebf2b5c1d7c&projectId=cf64b1cf-d2c0-4391-b5f1-bfe9f3ca2d48","EABB32E867BA40608CAFF96B0F4CDAA1-2025-05-13-02-14-14","","null","","images/semantic_sequence/maintaining_a_car_semantic/maintaining_a_car_semantic_3.png","null","",""
"","","","","","image-button-response","35","151709","0.0-10.0-1.0-1.3","EABB32E867BA40608CAFF96B0F4CDAA1","EABB32E867BA40608CAFF96B0F4CDAA1","a397b6e5-2136-435a-8e63-3ebf2b5c1d7c","cf64b1cf-d2c0-4391-b5f1-bfe9f3ca2d48","{""participantId"":""EABB32E867BA40608CAFF96B0F4CDAA1"",""assignmentId"":""a397b6e5-2136-435a-8e63-3ebf2b5c1d7c"",""projectId"":""cf64b1cf-d2c0-4391-b5f1-bfe9f3ca2d48""}","https://test12345.live/?participantId=EABB32E867BA40608CAFF96B0F4CDAA1&assignmentId=a397b6e5-2136-435a-8e63-3ebf2b5c1d7c&projectId=cf64b1cf-d2c0-4391-b5f1-bfe9f3ca2d48","EABB32E867BA40608CAFF96B0F4CDAA1-2025-05-13-02-14-14","","800","","images/semantic_sequence/maintaining_a_car_semantic/maintaining_a_car_semantic_3.png","0","",""
"","","","","","image-button-response","36","153514","0.0-10.0-1.0-2.3","EABB32E867BA40608CAFF96B0F4CDAA1","EABB32E867BA40608CAFF96B0F4CDAA1","a397b6e5-2136-435a-8e63-3ebf2b5c1d7c","cf64b1cf-d2c0-4391-b5f1-bfe9f3ca2d48","{""participantId"":""EABB32E867BA40608CAFF96B0F4CDAA1"",""assignmentId"":""a397b6e5-2136-435a-8e63-3ebf2b5c1d7c"",""projectId"":""cf64b1cf-d2c0-4391-b5f1-bfe9f3ca2d48""}","https://test12345.live/?participantId=EABB32E867BA40608CAFF96B0F4CDAA1&assignmentId=a397b6e5-2136-435a-8e63-3ebf2b5c1d7c&projectId=cf64b1cf-d2c0-4391-b5f1-bfe9f3ca2d48","EABB32E867BA40608CAFF96B0F4CDAA1-2025-05-13-02-14-14","","null","","[]","null","",""
"","","","","","image-button-response","37","158020","0.0-10.0-1.0-0.4","EABB32E867BA40608CAFF96B0F4CDAA1","EABB32E867BA40608CAFF96B0F4CDAA1","a397b6e5-2136-435a-8e63-3ebf2b5c1d7c","cf64b1cf-d2c0-4391-b5f1-bfe9f3ca2d48","{""participantId"":""EABB32E867BA40608CAFF96B0F4CDAA1"",""assignmentId"":""a397b6e5-2136-435a-8e63-3ebf2b5c1d7c"",""projectId"":""cf64b1cf-d2c0-4391-b5f1-bfe9f3ca2d48""}","https://test12345.live/?participantId=EABB32E867BA40608CAFF96B0F4CDAA1&assignmentId=a397b6e5-2136-435a-8e63-3ebf2b5c1d7c&projectId=cf64b1cf-d2c0-4391-b5f1-bfe9f3ca2d48","EABB32E867BA40608CAFF96B0F4CDAA1-2025-05-13-02-14-14","","null","","images/semantic_sequence/maintaining_a_car_semantic/maintaining_a_car_semantic_9.png","null","",""
"","","","","","image-button-response","38","159301","0.0-10.0-1.0-1.4","EABB32E867BA40608CAFF96B0F4CDAA1","EABB32E867BA40608CAFF96B0F4CDAA1","a397b6e5-2136-435a-8e63-3ebf2b5c1d7c","cf64b1cf-d2c0-4391-b5f1-bfe9f3ca2d48","{""participantId"":""EABB32E867BA40608CAFF96B0F4CDAA1"",""assignmentId"":""a397b6e5-2136-435a-8e63-3ebf2b5c1d7c"",""projectId"":""cf64b1cf-d2c0-4391-b5f1-bfe9f3ca2d48""}","https://test12345.live/?participantId=EABB32E867BA40608CAFF96B0F4CDAA1&assignmentId=a397b6e5-2136-435a-8e63-3ebf2b5c1d7c&projectId=cf64b1cf-d2c0-4391-b5f1-bfe9f3ca2d48","EABB32E867BA40608CAFF96B0F4CDAA1-2025-05-13-02-14-14","","1281","","images/semantic_sequence/maintaining_a_car_semantic/maintaining_a_car_semantic_9.png","0","",""
"","","","","","image-button-response","39","161113","0.0-10.0-1.0-2.4","EABB32E867BA40608CAFF96B0F4CDAA1","EABB32E867BA40608CAFF96B0F4CDAA1","a397b6e5-2136-435a-8e63-3ebf2b5c1d7c","cf64b1cf-d2c0-4391-b5f1-bfe9f3ca2d48","{""participantId"":""EABB32E867BA40608CAFF96B0F4CDAA1"",""assignmentId"":""a397b6e5-2136-435a-8e63-3ebf2b5c1d7c"",""projectId"":""cf64b1cf-d2c0-4391-b5f1-bfe9f3ca2d48""}","https://test12345.live/?participantId=EABB32E867BA40608CAFF96B0F4CDAA1&assignmentId=a397b6e5-2136-435a-8e63-3ebf2b5c1d7c&projectId=cf64b1cf-d2c0-4391-b5f1-bfe9f3ca2d48","EABB32E867BA40608CAFF96B0F4CDAA1-2025-05-13-02-14-14","","null","","[]","null","",""
"","","","","","image-button-response","40","165623","0.0-10.0-1.0-0.5","EABB32E867BA40608CAFF96B0F4CDAA1","EABB32E867BA40608CAFF96B0F4CDAA1","a397b6e5-2136-435a-8e63-3ebf2b5c1d7c","cf64b1cf-d2c0-4391-b5f1-bfe9f3ca2d48","{""participantId"":""EABB32E867BA40608CAFF96B0F4CDAA1"",""assignmentId"":""a397b6e5-2136-435a-8e63-3ebf2b5c1d7c"",""projectId"":""cf64b1cf-d2c0-4391-b5f1-bfe9f3ca2d48""}","https://test12345.live/?participantId=EABB32E867BA40608CAFF96B0F4CDAA1&assignmentId=a397b6e5-2136-435a-8e63-3ebf2b5c1d7c&projectId=cf64b1cf-d2c0-4391-b5f1-bfe9f3ca2d48","EABB32E867BA40608CAFF96B0F4CDAA1-2025-05-13-02-14-14","","null","","images/semantic_sequence/maintaining_a_car_semantic/maintaining_a_car_semantic_4.png","null","",""
"","","","","","image-button-response","41","166693","0.0-10.0-1.0-1.5","EABB32E867BA40608CAFF96B0F4CDAA1","EABB32E867BA40608CAFF96B0F4CDAA1","a397b6e5-2136-435a-8e63-3ebf2b5c1d7c","cf64b1cf-d2c0-4391-b5f1-bfe9f3ca2d48","{""participantId"":""EABB32E867BA40608CAFF96B0F4CDAA1"",""assignmentId"":""a397b6e5-2136-435a-8e63-3ebf2b5c1d7c"",""projectId"":""cf64b1cf-d2c0-4391-b5f1-bfe9f3ca2d48""}","https://test12345.live/?participantId=EABB32E867BA40608CAFF96B0F4CDAA1&assignmentId=a397b6e5-2136-435a-8e63-3ebf2b5c1d7c&projectId=cf64b1cf-d2c0-4391-b5f1-bfe9f3ca2d48","EABB32E867BA40608CAFF96B0F4CDAA1-2025-05-13-02-14-14","","1069","","images/semantic_sequence/maintaining_a_car_semantic/maintaining_a_car_semantic_4.png","0","",""
"","","","","","image-button-response","42","168498","0.0-10.0-1.0-2.5","EABB32E867BA40608CAFF96B0F4CDAA1","EABB32E867BA40608CAFF96B0F4CDAA1","a397b6e5-2136-435a-8e63-3ebf2b5c1d7c","cf64b1cf-d2c0-4391-b5f1-bfe9f3ca2d48","{""participantId"":""EABB32E867BA40608CAFF96B0F4CDAA1"",""assignmentId"":""a397b6e5-2136-435a-8e63-3ebf2b5c1d7c"",""projectId"":""cf64b1cf-d2c0-4391-b5f1-bfe9f3ca2d48""}","https://test12345.live/?participantId=EABB32E867BA40608CAFF96B0F4CDAA1&assignmentId=a397b6e5-2136-435a-8e63-3ebf2b5c1d7c&projectId=cf64b1cf-d2c0-4391-b5f1-bfe9f3ca2d48","EABB32E867BA40608CAFF96B0F4CDAA1-2025-05-13-02-14-14","","null","","[]","null","",""
"","","","","","image-button-response","43","173014","0.0-10.0-1.0-0.6","EABB32E867BA40608CAFF96B0F4CDAA1","EABB32E867BA40608CAFF96B0F4CDAA1","a397b6e5-2136-435a-8e63-3ebf2b5c1d7c","cf64b1cf-d2c0-4391-b5f1-bfe9f3ca2d48","{""participantId"":""EABB32E867BA40608CAFF96B0F4CDAA1"",""assignmentId"":""a397b6e5-2136-435a-8e63-3ebf2b5c1d7c"",""projectId"":""cf64b1cf-d2c0-4391-b5f1-bfe9f3ca2d48""}","https://test12345.live/?participantId=EABB32E867BA40608CAFF96B0F4CDAA1&assignmentId=a397b6e5-2136-435a-8e63-3ebf2b5c1d7c&projectId=cf64b1cf-d2c0-4391-b5f1-bfe9f3ca2d48","EABB32E867BA40608CAFF96B0F4CDAA1-2025-05-13-02-14-14","","null","","images/semantic_sequence/maintaining_a_car_semantic/maintaining_a_car_semantic_1.png","null","",""
"","","","","","image-button-response","44","174617","0.0-10.0-1.0-1.6","EABB32E867BA40608CAFF96B0F4CDAA1","EABB32E867BA40608CAFF96B0F4CDAA1","a397b6e5-2136-435a-8e63-3ebf2b5c1d7c","cf64b1cf-d2c0-4391-b5f1-bfe9f3ca2d48","{""participantId"":""EABB32E867BA40608CAFF96B0F4CDAA1"",""assignmentId"":""a397b6e5-2136-435a-8e63-3ebf2b5c1d7c"",""projectId"":""cf64b1cf-d2c0-4391-b5f1-bfe9f3ca2d48""}","https://test12345.live/?participantId=EABB32E867BA40608CAFF96B0F4CDAA1&assignmentId=a397b6e5-2136-435a-8e63-3ebf2b5c1d7c&projectId=cf64b1cf-d2c0-4391-b5f1-bfe9f3ca2d48","EABB32E867BA40608CAFF96B0F4CDAA1-2025-05-13-02-14-14","","1602","","images/semantic_sequence/maintaining_a_car_semantic/maintaining_a_car_semantic_1.png","0","",""
"","","","","","image-button-response","45","176418","0.0-10.0-1.0-2.6","EABB32E867BA40608CAFF96B0F4CDAA1","EABB32E867BA40608CAFF96B0F4CDAA1","a397b6e5-2136-435a-8e63-3ebf2b5c1d7c","cf64b1cf-d2c0-4391-b5f1-bfe9f3ca2d48","{""participantId"":""EABB32E867BA40608CAFF96B0F4CDAA1"",""assignmentId"":""a397b6e5-2136-435a-8e63-3ebf2b5c1d7c"",""projectId"":""cf64b1cf-d2c0-4391-b5f1-bfe9f3ca2d48""}","https://test12345.live/?participantId=EABB32E867BA40608CAFF96B0F4CDAA1&assignmentId=a397b6e5-2136-435a-8e63-3ebf2b5c1d7c&projectId=cf64b1cf-d2c0-4391-b5f1-bfe9f3ca2d48","EABB32E867BA40608CAFF96B0F4CDAA1-2025-05-13-02-14-14","","null","","[]","null","",""
"","","","","","image-button-response","46","180924","0.0-10.0-1.0-0.7","EABB32E867BA40608CAFF96B0F4CDAA1","EABB32E867BA40608CAFF96B0F4CDAA1","a397b6e5-2136-435a-8e63-3ebf2b5c1d7c","cf64b1cf-d2c0-4391-b5f1-bfe9f3ca2d48","{""participantId"":""EABB32E867BA40608CAFF96B0F4CDAA1"",""assignmentId"":""a397b6e5-2136-435a-8e63-3ebf2b5c1d7c"",""projectId"":""cf64b1cf-d2c0-4391-b5f1-bfe9f3ca2d48""}","https://test12345.live/?participantId=EABB32E867BA40608CAFF96B0F4CDAA1&assignmentId=a397b6e5-2136-435a-8e63-3ebf2b5c1d7c&projectId=cf64b1cf-d2c0-4391-b5f1-bfe9f3ca2d48","EABB32E867BA40608CAFF96B0F4CDAA1-2025-05-13-02-14-14","","null","","images/semantic_sequence/maintaining_a_car_semantic/maintaining_a_car_semantic_5.png","null","",""
"","","","","","image-button-response","47","181493","0.0-10.0-1.0-1.7","EABB32E867BA40608CAFF96B0F4CDAA1","EABB32E867BA40608CAFF96B0F4CDAA1","a397b6e5-2136-435a-8e63-3ebf2b5c1d7c","cf64b1cf-d2c0-4391-b5f1-bfe9f3ca2d48","{""participantId"":""EABB32E867BA40608CAFF96B0F4CDAA1"",""assignmentId"":""a397b6e5-2136-435a-8e63-3ebf2b5c1d7c"",""projectId"":""cf64b1cf-d2c0-4391-b5f1-bfe9f3ca2d48""}","https://test12345.live/?participantId=EABB32E867BA40608CAFF96B0F4CDAA1&assignmentId=a397b6e5-2136-435a-8e63-3ebf2b5c1d7c&projectId=cf64b1cf-d2c0-4391-b5f1-bfe9f3ca2d48","EABB32E867BA40608CAFF96B0F4CDAA1-2025-05-13-02-14-14","","567","","images/semantic_sequence/maintaining_a_car_semantic/maintaining_a_car_semantic_5.png","0","",""
"","","","","","image-button-response","48","183304","0.0-10.0-1.0-2.7","EABB32E867BA40608CAFF96B0F4CDAA1","EABB32E867BA40608CAFF96B0F4CDAA1","a397b6e5-2136-435a-8e63-3ebf2b5c1d7c","cf64b1cf-d2c0-4391-b5f1-bfe9f3ca2d48","{""participantId"":""EABB32E867BA40608CAFF96B0F4CDAA1"",""assignmentId"":""a397b6e5-2136-435a-8e63-3ebf2b5c1d7c"",""projectId"":""cf64b1cf-d2c0-4391-b5f1-bfe9f3ca2d48""}","https://test12345.live/?participantId=EABB32E867BA40608CAFF96B0F4CDAA1&assignmentId=a397b6e5-2136-435a-8e63-3ebf2b5c1d7c&projectId=cf64b1cf-d2c0-4391-b5f1-bfe9f3ca2d48","EABB32E867BA40608CAFF96B0F4CDAA1-2025-05-13-02-14-14","","null","","[]","null","",""
"","","","","","image-button-response","49","187811","0.0-10.0-1.0-0.8","EABB32E867BA40608CAFF96B0F4CDAA1","EABB32E867BA40608CAFF96B0F4CDAA1","a397b6e5-2136-435a-8e63-3ebf2b5c1d7c","cf64b1cf-d2c0-4391-b5f1-bfe9f3ca2d48","{""participantId"":""EABB32E867BA40608CAFF96B0F4CDAA1"",""assignmentId"":""a397b6e5-2136-435a-8e63-3ebf2b5c1d7c"",""projectId"":""cf64b1cf-d2c0-4391-b5f1-bfe9f3ca2d48""}","https://test12345.live/?participantId=EABB32E867BA40608CAFF96B0F4CDAA1&assignmentId=a397b6e5-2136-435a-8e63-3ebf2b5c1d7c&projectId=cf64b1cf-d2c0-4391-b5f1-bfe9f3ca2d48","EABB32E867BA40608CAFF96B0F4CDAA1-2025-05-13-02-14-14","","null","","images/semantic_sequence/maintaining_a_car_semantic/maintaining_a_car_semantic_7.png","null","",""
"","","","","","image-button-response","50","188559","0.0-10.0-1.0-1.8","EABB32E867BA40608CAFF96B0F4CDAA1","EABB32E867BA40608CAFF96B0F4CDAA1","a397b6e5-2136-435a-8e63-3ebf2b5c1d7c","cf64b1cf-d2c0-4391-b5f1-bfe9f3ca2d48","{""participantId"":""EABB32E867BA40608CAFF96B0F4CDAA1"",""assignmentId"":""a397b6e5-2136-435a-8e63-3ebf2b5c1d7c"",""projectId"":""cf64b1cf-d2c0-4391-b5f1-bfe9f3ca2d48""}","https://test12345.live/?participantId=EABB32E867BA40608CAFF96B0F4CDAA1&assignmentId=a397b6e5-2136-435a-8e63-3ebf2b5c1d7c&projectId=cf64b1cf-d2c0-4391-b5f1-bfe9f3ca2d48","EABB32E867BA40608CAFF96B0F4CDAA1-2025-05-13-02-14-14","","744","","images/semantic_sequence/maintaining_a_car_semantic/maintaining_a_car_semantic_7.png","0","",""
"","","","","","image-button-response","51","190360","0.0-10.0-1.0-2.8","EABB32E867BA40608CAFF96B0F4CDAA1","EABB32E867BA40608CAFF96B0F4CDAA1","a397b6e5-2136-435a-8e63-3ebf2b5c1d7c","cf64b1cf-d2c0-4391-b5f1-bfe9f3ca2d48","{""participantId"":""EABB32E867BA40608CAFF96B0F4CDAA1"",""assignmentId"":""a397b6e5-2136-435a-8e63-3ebf2b5c1d7c"",""projectId"":""cf64b1cf-d2c0-4391-b5f1-bfe9f3ca2d48""}","https://test12345.live/?participantId=EABB32E867BA40608CAFF96B0F4CDAA1&assignmentId=a397b6e5-2136-435a-8e63-3ebf2b5c1d7c&projectId=cf64b1cf-d2c0-4391-b5f1-bfe9f3ca2d48","EABB32E867BA40608CAFF96B0F4CDAA1-2025-05-13-02-14-14","","null","","[]","null","",""
"","","","","","image-button-response","52","194862","0.0-10.0-1.0-0.9","EABB32E867BA40608CAFF96B0F4CDAA1","EABB32E867BA40608CAFF96B0F4CDAA1","a397b6e5-2136-435a-8e63-3ebf2b5c1d7c","cf64b1cf-d2c0-4391-b5f1-bfe9f3ca2d48","{""participantId"":""EABB32E867BA40608CAFF96B0F4CDAA1"",""assignmentId"":""a397b6e5-2136-435a-8e63-3ebf2b5c1d7c"",""projectId"":""cf64b1cf-d2c0-4391-b5f1-bfe9f3ca2d48""}","https://test12345.live/?participantId=EABB32E867BA40608CAFF96B0F4CDAA1&assignmentId=a397b6e5-2136-435a-8e63-3ebf2b5c1d7c&projectId=cf64b1cf-d2c0-4391-b5f1-bfe9f3ca2d48","EABB32E867BA40608CAFF96B0F4CDAA1-2025-05-13-02-14-14","","null","","images/semantic_sequence/maintaining_a_car_semantic/maintaining_a_car_semantic_2.png","null","",""
"","","","","","image-button-response","53","195831","0.0-10.0-1.0-1.9","EABB32E867BA40608CAFF96B0F4CDAA1","EABB32E867BA40608CAFF96B0F4CDAA1","a397b6e5-2136-435a-8e63-3ebf2b5c1d7c","cf64b1cf-d2c0-4391-b5f1-bfe9f3ca2d48","{""participantId"":""EABB32E867BA40608CAFF96B0F4CDAA1"",""assignmentId"":""a397b6e5-2136-435a-8e63-3ebf2b5c1d7c"",""projectId"":""cf64b1cf-d2c0-4391-b5f1-bfe9f3ca2d48""}","https://test12345.live/?participantId=EABB32E867BA40608CAFF96B0F4CDAA1&assignmentId=a397b6e5-2136-435a-8e63-3ebf2b5c1d7c&projectId=cf64b1cf-d2c0-4391-b5f1-bfe9f3ca2d48","EABB32E867BA40608CAFF96B0F4CDAA1-2025-05-13-02-14-14","","968","","images/semantic_sequence/maintaining_a_car_semantic/maintaining_a_car_semantic_2.png","0","",""
"","","","","","image-button-response","54","197636","0.0-10.0-1.0-2.9","EABB32E867BA40608CAFF96B0F4CDAA1","EABB32E867BA40608CAFF96B0F4CDAA1","a397b6e5-2136-435a-8e63-3ebf2b5c1d7c","cf64b1cf-d2c0-4391-b5f1-bfe9f3ca2d48","{""participantId"":""EABB32E867BA40608CAFF96B0F4CDAA1"",""assignmentId"":""a397b6e5-2136-435a-8e63-3ebf2b5c1d7c"",""projectId"":""cf64b1cf-d2c0-4391-b5f1-bfe9f3ca2d48""}","https://test12345.live/?participantId=EABB32E867BA40608CAFF96B0F4CDAA1&assignmentId=a397b6e5-2136-435a-8e63-3ebf2b5c1d7c&projectId=cf64b1cf-d2c0-4391-b5f1-bfe9f3ca2d48","EABB32E867BA40608CAFF96B0F4CDAA1-2025-05-13-02-14-14","","null","","[]","null","",""
"","","","","","html-audio-response","55","230349","0.0-11.0","EABB32E867BA40608CAFF96B0F4CDAA1","EABB32E867BA40608CAFF96B0F4CDAA1","a397b6e5-2136-435a-8e63-3ebf2b5c1d7c","cf64b1cf-d2c0-4391-b5f1-bfe9f3ca2d48","{""participantId"":""EABB32E867BA40608CAFF96B0F4CDAA1"",""assignmentId"":""a397b6e5-2136-435a-8e63-3ebf2b5c1d7c"",""projectId"":""cf64b1cf-d2c0-4391-b5f1-bfe9f3ca2d48""}","https://test12345.live/?participantId=EABB32E867BA40608CAFF96B0F4CDAA1&assignmentId=a397b6e5-2136-435a-8e63-3ebf2b5c1d7c&projectId=cf64b1cf-d2c0-4391-b5f1-bfe9f3ca2d48","EABB32E867BA40608CAFF96B0F4CDAA1-2025-05-13-02-14-14","","24556","","[""<span style=\""color: red; font-size: 24px\""> NOW RECORDING</span><p>Please say out loud all the images you saw, as many as you can remember. The images can be said in any order.</p>""]","","1","maintaining_a_car_semantic"
"","","","","","image-button-response","56","236354","0.0-12.0-0.0","EABB32E867BA40608CAFF96B0F4CDAA1","EABB32E867BA40608CAFF96B0F4CDAA1","a397b6e5-2136-435a-8e63-3ebf2b5c1d7c","cf64b1cf-d2c0-4391-b5f1-bfe9f3ca2d48","{""participantId"":""EABB32E867BA40608CAFF96B0F4CDAA1"",""assignmentId"":""a397b6e5-2136-435a-8e63-3ebf2b5c1d7c"",""projectId"":""cf64b1cf-d2c0-4391-b5f1-bfe9f3ca2d48""}","https://test12345.live/?participantId=EABB32E867BA40608CAFF96B0F4CDAA1&assignmentId=a397b6e5-2136-435a-8e63-3ebf2b5c1d7c&projectId=cf64b1cf-d2c0-4391-b5f1-bfe9f3ca2d48","EABB32E867BA40608CAFF96B0F4CDAA1-2025-05-13-02-14-14","","null","","images/semantic_sequence/kitchen_operations_semantic/kitchen_operations_semantic_0.png","null","",""
"","","","","","image-button-response","57","240868","0.0-12.0-1.0-0.0","EABB32E867BA40608CAFF96B0F4CDAA1","EABB32E867BA40608CAFF96B0F4CDAA1","a397b6e5-2136-435a-8e63-3ebf2b5c1d7c","cf64b1cf-d2c0-4391-b5f1-bfe9f3ca2d48","{""participantId"":""EABB32E867BA40608CAFF96B0F4CDAA1"",""assignmentId"":""a397b6e5-2136-435a-8e63-3ebf2b5c1d7c"",""projectId"":""cf64b1cf-d2c0-4391-b5f1-bfe9f3ca2d48""}","https://test12345.live/?participantId=EABB32E867BA40608CAFF96B0F4CDAA1&assignmentId=a397b6e5-2136-435a-8e63-3ebf2b5c1d7c&projectId=cf64b1cf-d2c0-4391-b5f1-bfe9f3ca2d48","EABB32E867BA40608CAFF96B0F4CDAA1-2025-05-13-02-14-14","","null","","images/semantic_sequence/kitchen_operations_semantic/kitchen_operations_semantic_5.png","null","",""
"","","","","","image-button-response","58","243125","0.0-12.0-1.0-1.0","EABB32E867BA40608CAFF96B0F4CDAA1","EABB32E867BA40608CAFF96B0F4CDAA1","a397b6e5-2136-435a-8e63-3ebf2b5c1d7c","cf64b1cf-d2c0-4391-b5f1-bfe9f3ca2d48","{""participantId"":""EABB32E867BA40608CAFF96B0F4CDAA1"",""assignmentId"":""a397b6e5-2136-435a-8e63-3ebf2b5c1d7c"",""projectId"":""cf64b1cf-d2c0-4391-b5f1-bfe9f3ca2d48""}","https://test12345.live/?participantId=EABB32E867BA40608CAFF96B0F4CDAA1&assignmentId=a397b6e5-2136-435a-8e63-3ebf2b5c1d7c&projectId=cf64b1cf-d2c0-4391-b5f1-bfe9f3ca2d48","EABB32E867BA40608CAFF96B0F4CDAA1-2025-05-13-02-14-14","","2256","","images/semantic_sequence/kitchen_operations_semantic/kitchen_operations_semantic_5.png","0","",""
"","","","","","image-button-response","59","244940","0.0-12.0-1.0-2.0","EABB32E867BA40608CAFF96B0F4CDAA1","EABB32E867BA40608CAFF96B0F4CDAA1","a397b6e5-2136-435a-8e63-3ebf2b5c1d7c","cf64b1cf-d2c0-4391-b5f1-bfe9f3ca2d48","{""participantId"":""EABB32E867BA40608CAFF96B0F4CDAA1"",""assignmentId"":""a397b6e5-2136-435a-8e63-3ebf2b5c1d7c"",""projectId"":""cf64b1cf-d2c0-4391-b5f1-bfe9f3ca2d48""}","https://test12345.live/?participantId=EABB32E867BA40608CAFF96B0F4CDAA1&assignmentId=a397b6e5-2136-435a-8e63-3ebf2b5c1d7c&projectId=cf64b1cf-d2c0-4391-b5f1-bfe9f3ca2d48","EABB32E867BA40608CAFF96B0F4CDAA1-2025-05-13-02-14-14","","null","","[]","null","",""
"","","","","","image-button-response","60","249448","0.0-12.0-1.0-0.1","EABB32E867BA40608CAFF96B0F4CDAA1","EABB32E867BA40608CAFF96B0F4CDAA1","a397b6e5-2136-435a-8e63-3ebf2b5c1d7c","cf64b1cf-d2c0-4391-b5f1-bfe9f3ca2d48","{""participantId"":""EABB32E867BA40608CAFF96B0F4CDAA1"",""assignmentId"":""a397b6e5-2136-435a-8e63-3ebf2b5c1d7c"",""projectId"":""cf64b1cf-d2c0-4391-b5f1-bfe9f3ca2d48""}","https://test12345.live/?participantId=EABB32E867BA40608CAFF96B0F4CDAA1&assignmentId=a397b6e5-2136-435a-8e63-3ebf2b5c1d7c&projectId=cf64b1cf-d2c0-4391-b5f1-bfe9f3ca2d48","EABB32E867BA40608CAFF96B0F4CDAA1-2025-05-13-02-14-14","","null","","images/semantic_sequence/kitchen_operations_semantic/kitchen_operations_semantic_9.png","null","",""
"","","","","","image-button-response","61","250119","0.0-12.0-1.0-1.1","EABB32E867BA40608CAFF96B0F4CDAA1","EABB32E867BA40608CAFF96B0F4CDAA1","a397b6e5-2136-435a-8e63-3ebf2b5c1d7c","cf64b1cf-d2c0-4391-b5f1-bfe9f3ca2d48","{""participantId"":""EABB32E867BA40608CAFF96B0F4CDAA1"",""assignmentId"":""a397b6e5-2136-435a-8e63-3ebf2b5c1d7c"",""projectId"":""cf64b1cf-d2c0-4391-b5f1-bfe9f3ca2d48""}","https://test12345.live/?participantId=EABB32E867BA40608CAFF96B0F4CDAA1&assignmentId=a397b6e5-2136-435a-8e63-3ebf2b5c1d7c&projectId=cf64b1cf-d2c0-4391-b5f1-bfe9f3ca2d48","EABB32E867BA40608CAFF96B0F4CDAA1-2025-05-13-02-14-14","","670","","images/semantic_sequence/kitchen_operations_semantic/kitchen_operations_semantic_9.png","0","",""
"","","","","","image-button-response","62","251924","0.0-12.0-1.0-2.1","EABB32E867BA40608CAFF96B0F4CDAA1","EABB32E867BA40608CAFF96B0F4CDAA1","a397b6e5-2136-435a-8e63-3ebf2b5c1d7c","cf64b1cf-d2c0-4391-b5f1-bfe9f3ca2d48","{""participantId"":""EABB32E867BA40608CAFF96B0F4CDAA1"",""assignmentId"":""a397b6e5-2136-435a-8e63-3ebf2b5c1d7c"",""projectId"":""cf64b1cf-d2c0-4391-b5f1-bfe9f3ca2d48""}","https://test12345.live/?participantId=EABB32E867BA40608CAFF96B0F4CDAA1&assignmentId=a397b6e5-2136-435a-8e63-3ebf2b5c1d7c&projectId=cf64b1cf-d2c0-4391-b5f1-bfe9f3ca2d48","EABB32E867BA40608CAFF96B0F4CDAA1-2025-05-13-02-14-14","","null","","[]","null","",""
"","","","","","image-button-response","63","256428","0.0-12.0-1.0-0.2","EABB32E867BA40608CAFF96B0F4CDAA1","EABB32E867BA40608CAFF96B0F4CDAA1","a397b6e5-2136-435a-8e63-3ebf2b5c1d7c","cf64b1cf-d2c0-4391-b5f1-bfe9f3ca2d48","{""participantId"":""EABB32E867BA40608CAFF96B0F4CDAA1"",""assignmentId"":""a397b6e5-2136-435a-8e63-3ebf2b5c1d7c"",""projectId"":""cf64b1cf-d2c0-4391-b5f1-bfe9f3ca2d48""}","https://test12345.live/?participantId=EABB32E867BA40608CAFF96B0F4CDAA1&assignmentId=a397b6e5-2136-435a-8e63-3ebf2b5c1d7c&projectId=cf64b1cf-d2c0-4391-b5f1-bfe9f3ca2d48","EABB32E867BA40608CAFF96B0F4CDAA1-2025-05-13-02-14-14","","null","","images/semantic_sequence/kitchen_operations_semantic/kitchen_operations_semantic_1.png","null","",""
"","","","","","image-button-response","64","257013","0.0-12.0-1.0-1.2","EABB32E867BA40608CAFF96B0F4CDAA1","EABB32E867BA40608CAFF96B0F4CDAA1","a397b6e5-2136-435a-8e63-3ebf2b5c1d7c","cf64b1cf-d2c0-4391-b5f1-bfe9f3ca2d48","{""participantId"":""EABB32E867BA40608CAFF96B0F4CDAA1"",""assignmentId"":""a397b6e5-2136-435a-8e63-3ebf2b5c1d7c"",""projectId"":""cf64b1cf-d2c0-4391-b5f1-bfe9f3ca2d48""}","https://test12345.live/?participantId=EABB32E867BA40608CAFF96B0F4CDAA1&assignmentId=a397b6e5-2136-435a-8e63-3ebf2b5c1d7c&projectId=cf64b1cf-d2c0-4391-b5f1-bfe9f3ca2d48","EABB32E867BA40608CAFF96B0F4CDAA1-2025-05-13-02-14-14","","583","","images/semantic_sequence/kitchen_operations_semantic/kitchen_operations_semantic_1.png","0","",""
"","","","","","image-button-response","65","258823","0.0-12.0-1.0-2.2","EABB32E867BA40608CAFF96B0F4CDAA1","EABB32E867BA40608CAFF96B0F4CDAA1","a397b6e5-2136-435a-8e63-3ebf2b5c1d7c","cf64b1cf-d2c0-4391-b5f1-bfe9f3ca2d48","{""participantId"":""EABB32E867BA40608CAFF96B0F4CDAA1"",""assignmentId"":""a397b6e5-2136-435a-8e63-3ebf2b5c1d7c"",""projectId"":""cf64b1cf-d2c0-4391-b5f1-bfe9f3ca2d48""}","https://test12345.live/?participantId=EABB32E867BA40608CAFF96B0F4CDAA1&assignmentId=a397b6e5-2136-435a-8e63-3ebf2b5c1d7c&projectId=cf64b1cf-d2c0-4391-b5f1-bfe9f3ca2d48","EABB32E867BA40608CAFF96B0F4CDAA1-2025-05-13-02-14-14","","null","","[]","null","",""
"","","","","","image-button-response","66","263333","0.0-12.0-1.0-0.3","EABB32E867BA40608CAFF96B0F4CDAA1","EABB32E867BA40608CAFF96B0F4CDAA1","a397b6e5-2136-435a-8e63-3ebf2b5c1d7c","cf64b1cf-d2c0-4391-b5f1-bfe9f3ca2d48","{""participantId"":""EABB32E867BA40608CAFF96B0F4CDAA1"",""assignmentId"":""a397b6e5-2136-435a-8e63-3ebf2b5c1d7c"",""projectId"":""cf64b1cf-d2c0-4391-b5f1-bfe9f3ca2d48""}","https://test12345.live/?participantId=EABB32E867BA40608CAFF96B0F4CDAA1&assignmentId=a397b6e5-2136-435a-8e63-3ebf2b5c1d7c&projectId=cf64b1cf-d2c0-4391-b5f1-bfe9f3ca2d48","EABB32E867BA40608CAFF96B0F4CDAA1-2025-05-13-02-14-14","","null","","images/semantic_sequence/kitchen_operations_semantic/kitchen_operations_semantic_3.png","null","",""
"","","","","","image-button-response","67","266127","0.0-12.0-1.0-1.3","EABB32E867BA40608CAFF96B0F4CDAA1","EABB32E867BA40608CAFF96B0F4CDAA1","a397b6e5-2136-435a-8e63-3ebf2b5c1d7c","cf64b1cf-d2c0-4391-b5f1-bfe9f3ca2d48","{""participantId"":""EABB32E867BA40608CAFF96B0F4CDAA1"",""assignmentId"":""a397b6e5-2136-435a-8e63-3ebf2b5c1d7c"",""projectId"":""cf64b1cf-d2c0-4391-b5f1-bfe9f3ca2d48""}","https://test12345.live/?participantId=EABB32E867BA40608CAFF96B0F4CDAA1&assignmentId=a397b6e5-2136-435a-8e63-3ebf2b5c1d7c&projectId=cf64b1cf-d2c0-4391-b5f1-bfe9f3ca2d48","EABB32E867BA40608CAFF96B0F4CDAA1-2025-05-13-02-14-14","","2793","","images/semantic_sequence/kitchen_operations_semantic/kitchen_operations_semantic_3.png","0","",""
"","","","","","image-button-response","68","267931","0.0-12.0-1.0-2.3","EABB32E867BA40608CAFF96B0F4CDAA1","EABB32E867BA40608CAFF96B0F4CDAA1","a397b6e5-2136-435a-8e63-3ebf2b5c1d7c","cf64b1cf-d2c0-4391-b5f1-bfe9f3ca2d48","{""participantId"":""EABB32E867BA40608CAFF96B0F4CDAA1"",""assignmentId"":""a397b6e5-2136-435a-8e63-3ebf2b5c1d7c"",""projectId"":""cf64b1cf-d2c0-4391-b5f1-bfe9f3ca2d48""}","https://test12345.live/?participantId=EABB32E867BA40608CAFF96B0F4CDAA1&assignmentId=a397b6e5-2136-435a-8e63-3ebf2b5c1d7c&projectId=cf64b1cf-d2c0-4391-b5f1-bfe9f3ca2d48","EABB32E867BA40608CAFF96B0F4CDAA1-2025-05-13-02-14-14","","null","","[]","null","",""
"","","","","","image-button-response","69","272442","0.0-12.0-1.0-0.4","EABB32E867BA40608CAFF96B0F4CDAA1","EABB32E867BA40608CAFF96B0F4CDAA1","a397b6e5-2136-435a-8e63-3ebf2b5c1d7c","cf64b1cf-d2c0-4391-b5f1-bfe9f3ca2d48","{""participantId"":""EABB32E867BA40608CAFF96B0F4CDAA1"",""assignmentId"":""a397b6e5-2136-435a-8e63-3ebf2b5c1d7c"",""projectId"":""cf64b1cf-d2c0-4391-b5f1-bfe9f3ca2d48""}","https://test12345.live/?participantId=EABB32E867BA40608CAFF96B0F4CDAA1&assignmentId=a397b6e5-2136-435a-8e63-3ebf2b5c1d7c&projectId=cf64b1cf-d2c0-4391-b5f1-bfe9f3ca2d48","EABB32E867BA40608CAFF96B0F4CDAA1-2025-05-13-02-14-14","","null","","images/semantic_sequence/kitchen_operations_semantic/kitchen_operations_semantic_7.png","null","",""
"","","","","","image-button-response","70","273575","0.0-12.0-1.0-1.4","EABB32E867BA40608CAFF96B0F4CDAA1","EABB32E867BA40608CAFF96B0F4CDAA1","a397b6e5-2136-435a-8e63-3ebf2b5c1d7c","cf64b1cf-d2c0-4391-b5f1-bfe9f3ca2d48","{""participantId"":""EABB32E867BA40608CAFF96B0F4CDAA1"",""assignmentId"":""a397b6e5-2136-435a-8e63-3ebf2b5c1d7c"",""projectId"":""cf64b1cf-d2c0-4391-b5f1-bfe9f3ca2d48""}","https://test12345.live/?participantId=EABB32E867BA40608CAFF96B0F4CDAA1&assignmentId=a397b6e5-2136-435a-8e63-3ebf2b5c1d7c&projectId=cf64b1cf-d2c0-4391-b5f1-bfe9f3ca2d48","EABB32E867BA40608CAFF96B0F4CDAA1-2025-05-13-02-14-14","","1132","","images/semantic_sequence/kitchen_operations_semantic/kitchen_operations_semantic_7.png","0","",""
"","","","","","image-button-response","71","275385","0.0-12.0-1.0-2.4","EABB32E867BA40608CAFF96B0F4CDAA1","EABB32E867BA40608CAFF96B0F4CDAA1","a397b6e5-2136-435a-8e63-3ebf2b5c1d7c","cf64b1cf-d2c0-4391-b5f1-bfe9f3ca2d48","{""participantId"":""EABB32E867BA40608CAFF96B0F4CDAA1"",""assignmentId"":""a397b6e5-2136-435a-8e63-3ebf2b5c1d7c"",""projectId"":""cf64b1cf-d2c0-4391-b5f1-bfe9f3ca2d48""}","https://test12345.live/?participantId=EABB32E867BA40608CAFF96B0F4CDAA1&assignmentId=a397b6e5-2136-435a-8e63-3ebf2b5c1d7c&projectId=cf64b1cf-d2c0-4391-b5f1-bfe9f3ca2d48","EABB32E867BA40608CAFF96B0F4CDAA1-2025-05-13-02-14-14","","null","","[]","null","",""
"","","","","","image-button-response","72","279893","0.0-12.0-1.0-0.5","EABB32E867BA40608CAFF96B0F4CDAA1","EABB32E867BA40608CAFF96B0F4CDAA1","a397b6e5-2136-435a-8e63-3ebf2b5c1d7c","cf64b1cf-d2c0-4391-b5f1-bfe9f3ca2d48","{""participantId"":""EABB32E867BA40608CAFF96B0F4CDAA1"",""assignmentId"":""a397b6e5-2136-435a-8e63-3ebf2b5c1d7c"",""projectId"":""cf64b1cf-d2c0-4391-b5f1-bfe9f3ca2d48""}","https://test12345.live/?participantId=EABB32E867BA40608CAFF96B0F4CDAA1&assignmentId=a397b6e5-2136-435a-8e63-3ebf2b5c1d7c&projectId=cf64b1cf-d2c0-4391-b5f1-bfe9f3ca2d48","EABB32E867BA40608CAFF96B0F4CDAA1-2025-05-13-02-14-14","","null","","images/semantic_sequence/kitchen_operations_semantic/kitchen_operations_semantic_ten.png","null","",""
"","","","","","image-button-response","73","280365","0.0-12.0-1.0-1.5","EABB32E867BA40608CAFF96B0F4CDAA1","EABB32E867BA40608CAFF96B0F4CDAA1","a397b6e5-2136-435a-8e63-3ebf2b5c1d7c","cf64b1cf-d2c0-4391-b5f1-bfe9f3ca2d48","{""participantId"":""EABB32E867BA40608CAFF96B0F4CDAA1"",""assignmentId"":""a397b6e5-2136-435a-8e63-3ebf2b5c1d7c"",""projectId"":""cf64b1cf-d2c0-4391-b5f1-bfe9f3ca2d48""}","https://test12345.live/?participantId=EABB32E867BA40608CAFF96B0F4CDAA1&assignmentId=a397b6e5-2136-435a-8e63-3ebf2b5c1d7c&projectId=cf64b1cf-d2c0-4391-b5f1-bfe9f3ca2d48","EABB32E867BA40608CAFF96B0F4CDAA1-2025-05-13-02-14-14","","471","","images/semantic_sequence/kitchen_operations_semantic/kitchen_operations_semantic_ten.png","0","",""
"","","","","","image-button-response","74","282176","0.0-12.0-1.0-2.5","EABB32E867BA40608CAFF96B0F4CDAA1","EABB32E867BA40608CAFF96B0F4CDAA1","a397b6e5-2136-435a-8e63-3ebf2b5c1d7c","cf64b1cf-d2c0-4391-b5f1-bfe9f3ca2d48","{""participantId"":""EABB32E867BA40608CAFF96B0F4CDAA1"",""assignmentId"":""a397b6e5-2136-435a-8e63-3ebf2b5c1d7c"",""projectId"":""cf64b1cf-d2c0-4391-b5f1-bfe9f3ca2d48""}","https://test12345.live/?participantId=EABB32E867BA40608CAFF96B0F4CDAA1&assignmentId=a397b6e5-2136-435a-8e63-3ebf2b5c1d7c&projectId=cf64b1cf-d2c0-4391-b5f1-bfe9f3ca2d48","EABB32E867BA40608CAFF96B0F4CDAA1-2025-05-13-02-14-14","","null","","[]","null","",""
"","","","","","image-button-response","75","286688","0.0-12.0-1.0-0.6","EABB32E867BA40608CAFF96B0F4CDAA1","EABB32E867BA40608CAFF96B0F4CDAA1","a397b6e5-2136-435a-8e63-3ebf2b5c1d7c","cf64b1cf-d2c0-4391-b5f1-bfe9f3ca2d48","{""participantId"":""EABB32E867BA40608CAFF96B0F4CDAA1"",""assignmentId"":""a397b6e5-2136-435a-8e63-3ebf2b5c1d7c"",""projectId"":""cf64b1cf-d2c0-4391-b5f1-bfe9f3ca2d48""}","https://test12345.live/?participantId=EABB32E867BA40608CAFF96B0F4CDAA1&assignmentId=a397b6e5-2136-435a-8e63-3ebf2b5c1d7c&projectId=cf64b1cf-d2c0-4391-b5f1-bfe9f3ca2d48","EABB32E867BA40608CAFF96B0F4CDAA1-2025-05-13-02-14-14","","null","","images/semantic_sequence/kitchen_operations_semantic/kitchen_operations_semantic_2.png","null","",""
"","","","","","image-button-response","76","287281","0.0-12.0-1.0-1.6","EABB32E867BA40608CAFF96B0F4CDAA1","EABB32E867BA40608CAFF96B0F4CDAA1","a397b6e5-2136-435a-8e63-3ebf2b5c1d7c","cf64b1cf-d2c0-4391-b5f1-bfe9f3ca2d48","{""participantId"":""EABB32E867BA40608CAFF96B0F4CDAA1"",""assignmentId"":""a397b6e5-2136-435a-8e63-3ebf2b5c1d7c"",""projectId"":""cf64b1cf-d2c0-4391-b5f1-bfe9f3ca2d48""}","https://test12345.live/?participantId=EABB32E867BA40608CAFF96B0F4CDAA1&assignmentId=a397b6e5-2136-435a-8e63-3ebf2b5c1d7c&projectId=cf64b1cf-d2c0-4391-b5f1-bfe9f3ca2d48","EABB32E867BA40608CAFF96B0F4CDAA1-2025-05-13-02-14-14","","591","","images/semantic_sequence/kitchen_operations_semantic/kitchen_operations_semantic_2.png","0","",""
"","","","","","image-button-response","77","289092","0.0-12.0-1.0-2.6","EABB32E867BA40608CAFF96B0F4CDAA1","EABB32E867BA40608CAFF96B0F4CDAA1","a397b6e5-2136-435a-8e63-3ebf2b5c1d7c","cf64b1cf-d2c0-4391-b5f1-bfe9f3ca2d48","{""participantId"":""EABB32E867BA40608CAFF96B0F4CDAA1"",""assignmentId"":""a397b6e5-2136-435a-8e63-3ebf2b5c1d7c"",""projectId"":""cf64b1cf-d2c0-4391-b5f1-bfe9f3ca2d48""}","https://test12345.live/?participantId=EABB32E867BA40608CAFF96B0F4CDAA1&assignmentId=a397b6e5-2136-435a-8e63-3ebf2b5c1d7c&projectId=cf64b1cf-d2c0-4391-b5f1-bfe9f3ca2d48","EABB32E867BA40608CAFF96B0F4CDAA1-2025-05-13-02-14-14","","null","","[]","null","",""
"","","","","","image-button-response","78","293600","0.0-12.0-1.0-0.7","EABB32E867BA40608CAFF96B0F4CDAA1","EABB32E867BA40608CAFF96B0F4CDAA1","a397b6e5-2136-435a-8e63-3ebf2b5c1d7c","cf64b1cf-d2c0-4391-b5f1-bfe9f3ca2d48","{""participantId"":""EABB32E867BA40608CAFF96B0F4CDAA1"",""assignmentId"":""a397b6e5-2136-435a-8e63-3ebf2b5c1d7c"",""projectId"":""cf64b1cf-d2c0-4391-b5f1-bfe9f3ca2d48""}","https://test12345.live/?participantId=EABB32E867BA40608CAFF96B0F4CDAA1&assignmentId=a397b6e5-2136-435a-8e63-3ebf2b5c1d7c&projectId=cf64b1cf-d2c0-4391-b5f1-bfe9f3ca2d48","EABB32E867BA40608CAFF96B0F4CDAA1-2025-05-13-02-14-14","","null","","images/semantic_sequence/kitchen_operations_semantic/kitchen_operations_semantic_6.png","null","",""
"","","","","","image-button-response","79","294487","0.0-12.0-1.0-1.7","EABB32E867BA40608CAFF96B0F4CDAA1","EABB32E867BA40608CAFF96B0F4CDAA1","a397b6e5-2136-435a-8e63-3ebf2b5c1d7c","cf64b1cf-d2c0-4391-b5f1-bfe9f3ca2d48","{""participantId"":""EABB32E867BA40608CAFF96B0F4CDAA1"",""assignmentId"":""a397b6e5-2136-435a-8e63-3ebf2b5c1d7c"",""projectId"":""cf64b1cf-d2c0-4391-b5f1-bfe9f3ca2d48""}","https://test12345.live/?participantId=EABB32E867BA40608CAFF96B0F4CDAA1&assignmentId=a397b6e5-2136-435a-8e63-3ebf2b5c1d7c&projectId=cf64b1cf-d2c0-4391-b5f1-bfe9f3ca2d48","EABB32E867BA40608CAFF96B0F4CDAA1-2025-05-13-02-14-14","","886","","images/semantic_sequence/kitchen_operations_semantic/kitchen_operations_semantic_6.png","0","",""
"","","","","","image-button-response","80","296292","0.0-12.0-1.0-2.7","EABB32E867BA40608CAFF96B0F4CDAA1","EABB32E867BA40608CAFF96B0F4CDAA1","a397b6e5-2136-435a-8e63-3ebf2b5c1d7c","cf64b1cf-d2c0-4391-b5f1-bfe9f3ca2d48","{""participantId"":""EABB32E867BA40608CAFF96B0F4CDAA1"",""assignmentId"":""a397b6e5-2136-435a-8e63-3ebf2b5c1d7c"",""projectId"":""cf64b1cf-d2c0-4391-b5f1-bfe9f3ca2d48""}","https://test12345.live/?participantId=EABB32E867BA40608CAFF96B0F4CDAA1&assignmentId=a397b6e5-2136-435a-8e63-3ebf2b5c1d7c&projectId=cf64b1cf-d2c0-4391-b5f1-bfe9f3ca2d48","EABB32E867BA40608CAFF96B0F4CDAA1-2025-05-13-02-14-14","","null","","[]","null","",""
"","","","","","image-button-response","81","300793","0.0-12.0-1.0-0.8","EABB32E867BA40608CAFF96B0F4CDAA1","EABB32E867BA40608CAFF96B0F4CDAA1","a397b6e5-2136-435a-8e63-3ebf2b5c1d7c","cf64b1cf-d2c0-4391-b5f1-bfe9f3ca2d48","{""participantId"":""EABB32E867BA40608CAFF96B0F4CDAA1"",""assignmentId"":""a397b6e5-2136-435a-8e63-3ebf2b5c1d7c"",""projectId"":""cf64b1cf-d2c0-4391-b5f1-bfe9f3ca2d48""}","https://test12345.live/?participantId=EABB32E867BA40608CAFF96B0F4CDAA1&assignmentId=a397b6e5-2136-435a-8e63-3ebf2b5c1d7c&projectId=cf64b1cf-d2c0-4391-b5f1-bfe9f3ca2d48","EABB32E867BA40608CAFF96B0F4CDAA1-2025-05-13-02-14-14","","null","","images/semantic_sequence/kitchen_operations_semantic/kitchen_operations_semantic_8.png","null","",""
"","","","","","image-button-response","82","302903","0.0-12.0-1.0-1.8","EABB32E867BA40608CAFF96B0F4CDAA1","EABB32E867BA40608CAFF96B0F4CDAA1","a397b6e5-2136-435a-8e63-3ebf2b5c1d7c","cf64b1cf-d2c0-4391-b5f1-bfe9f3ca2d48","{""participantId"":""EABB32E867BA40608CAFF96B0F4CDAA1"",""assignmentId"":""a397b6e5-2136-435a-8e63-3ebf2b5c1d7c"",""projectId"":""cf64b1cf-d2c0-4391-b5f1-bfe9f3ca2d48""}","https://test12345.live/?participantId=EABB32E867BA40608CAFF96B0F4CDAA1&assignmentId=a397b6e5-2136-435a-8e63-3ebf2b5c1d7c&projectId=cf64b1cf-d2c0-4391-b5f1-bfe9f3ca2d48","EABB32E867BA40608CAFF96B0F4CDAA1-2025-05-13-02-14-14","","2109","","images/semantic_sequence/kitchen_operations_semantic/kitchen_operations_semantic_8.png","0","",""
"","","","","","image-button-response","83","304704","0.0-12.0-1.0-2.8","EABB32E867BA40608CAFF96B0F4CDAA1","EABB32E867BA40608CAFF96B0F4CDAA1","a397b6e5-2136-435a-8e63-3ebf2b5c1d7c","cf64b1cf-d2c0-4391-b5f1-bfe9f3ca2d48","{""participantId"":""EABB32E867BA40608CAFF96B0F4CDAA1"",""assignmentId"":""a397b6e5-2136-435a-8e63-3ebf2b5c1d7c"",""projectId"":""cf64b1cf-d2c0-4391-b5f1-bfe9f3ca2d48""}","https://test12345.live/?participantId=EABB32E867BA40608CAFF96B0F4CDAA1&assignmentId=a397b6e5-2136-435a-8e63-3ebf2b5c1d7c&projectId=cf64b1cf-d2c0-4391-b5f1-bfe9f3ca2d48","EABB32E867BA40608CAFF96B0F4CDAA1-2025-05-13-02-14-14","","null","","[]","null","",""
"","","","","","image-button-response","84","309215","0.0-12.0-1.0-0.9","EABB32E867BA40608CAFF96B0F4CDAA1","EABB32E867BA40608CAFF96B0F4CDAA1","a397b6e5-2136-435a-8e63-3ebf2b5c1d7c","cf64b1cf-d2c0-4391-b5f1-bfe9f3ca2d48","{""participantId"":""EABB32E867BA40608CAFF96B0F4CDAA1"",""assignmentId"":""a397b6e5-2136-435a-8e63-3ebf2b5c1d7c"",""projectId"":""cf64b1cf-d2c0-4391-b5f1-bfe9f3ca2d48""}","https://test12345.live/?participantId=EABB32E867BA40608CAFF96B0F4CDAA1&assignmentId=a397b6e5-2136-435a-8e63-3ebf2b5c1d7c&projectId=cf64b1cf-d2c0-4391-b5f1-bfe9f3ca2d48","EABB32E867BA40608CAFF96B0F4CDAA1-2025-05-13-02-14-14","","null","","images/semantic_sequence/kitchen_operations_semantic/kitchen_operations_semantic_4.png","null","",""
"","","","","","image-button-response","85","311383","0.0-12.0-1.0-1.9","EABB32E867BA40608CAFF96B0F4CDAA1","EABB32E867BA40608CAFF96B0F4CDAA1","a397b6e5-2136-435a-8e63-3ebf2b5c1d7c","cf64b1cf-d2c0-4391-b5f1-bfe9f3ca2d48","{""participantId"":""EABB32E867BA40608CAFF96B0F4CDAA1"",""assignmentId"":""a397b6e5-2136-435a-8e63-3ebf2b5c1d7c"",""projectId"":""cf64b1cf-d2c0-4391-b5f1-bfe9f3ca2d48""}","https://test12345.live/?participantId=EABB32E867BA40608CAFF96B0F4CDAA1&assignmentId=a397b6e5-2136-435a-8e63-3ebf2b5c1d7c&projectId=cf64b1cf-d2c0-4391-b5f1-bfe9f3ca2d48","EABB32E867BA40608CAFF96B0F4CDAA1-2025-05-13-02-14-14","","2166","","images/semantic_sequence/kitchen_operations_semantic/kitchen_operations_semantic_4.png","0","",""
"","","","","","image-button-response","86","313192","0.0-12.0-1.0-2.9","EABB32E867BA40608CAFF96B0F4CDAA1","EABB32E867BA40608CAFF96B0F4CDAA1","a397b6e5-2136-435a-8e63-3ebf2b5c1d7c","cf64b1cf-d2c0-4391-b5f1-bfe9f3ca2d48","{""participantId"":""EABB32E867BA40608CAFF96B0F4CDAA1"",""assignmentId"":""a397b6e5-2136-435a-8e63-3ebf2b5c1d7c"",""projectId"":""cf64b1cf-d2c0-4391-b5f1-bfe9f3ca2d48""}","https://test12345.live/?participantId=EABB32E867BA40608CAFF96B0F4CDAA1&assignmentId=a397b6e5-2136-435a-8e63-3ebf2b5c1d7c&projectId=cf64b1cf-d2c0-4391-b5f1-bfe9f3ca2d48","EABB32E867BA40608CAFF96B0F4CDAA1-2025-05-13-02-14-14","","null","","[]","null","",""
"","","","","","html-audio-response","87","344115","0.0-13.0","EABB32E867BA40608CAFF96B0F4CDAA1","EABB32E867BA40608CAFF96B0F4CDAA1","a397b6e5-2136-435a-8e63-3ebf2b5c1d7c","cf64b1cf-d2c0-4391-b5f1-bfe9f3ca2d48","{""participantId"":""EABB32E867BA40608CAFF96B0F4CDAA1"",""assignmentId"":""a397b6e5-2136-435a-8e63-3ebf2b5c1d7c"",""projectId"":""cf64b1cf-d2c0-4391-b5f1-bfe9f3ca2d48""}","https://test12345.live/?participantId=EABB32E867BA40608CAFF96B0F4CDAA1&assignmentId=a397b6e5-2136-435a-8e63-3ebf2b5c1d7c&projectId=cf64b1cf-d2c0-4391-b5f1-bfe9f3ca2d48","EABB32E867BA40608CAFF96B0F4CDAA1-2025-05-13-02-14-14","","28667","","[""<span style=\""color: red; font-size: 24px\""> NOW RECORDING</span><p>Please say out loud all the images you saw, as many as you can remember. The images can be said in any order.</p>""]","","2","kitchen_operations_semantic"
"","","","","","image-button-response","88","350123","0.0-14.0-0.0","EABB32E867BA40608CAFF96B0F4CDAA1","EABB32E867BA40608CAFF96B0F4CDAA1","a397b6e5-2136-435a-8e63-3ebf2b5c1d7c","cf64b1cf-d2c0-4391-b5f1-bfe9f3ca2d48","{""participantId"":""EABB32E867BA40608CAFF96B0F4CDAA1"",""assignmentId"":""a397b6e5-2136-435a-8e63-3ebf2b5c1d7c"",""projectId"":""cf64b1cf-d2c0-4391-b5f1-bfe9f3ca2d48""}","https://test12345.live/?participantId=EABB32E867BA40608CAFF96B0F4CDAA1&assignmentId=a397b6e5-2136-435a-8e63-3ebf2b5c1d7c&projectId=cf64b1cf-d2c0-4391-b5f1-bfe9f3ca2d48","EABB32E867BA40608CAFF96B0F4CDAA1-2025-05-13-02-14-14","","null","","images/causal_sequence/package_causal/package_causal_0.png","null","",""
"","","","","","image-button-response","89","354635","0.0-14.0-1.0-0.0","EABB32E867BA40608CAFF96B0F4CDAA1","EABB32E867BA40608CAFF96B0F4CDAA1","a397b6e5-2136-435a-8e63-3ebf2b5c1d7c","cf64b1cf-d2c0-4391-b5f1-bfe9f3ca2d48","{""participantId"":""EABB32E867BA40608CAFF96B0F4CDAA1"",""assignmentId"":""a397b6e5-2136-435a-8e63-3ebf2b5c1d7c"",""projectId"":""cf64b1cf-d2c0-4391-b5f1-bfe9f3ca2d48""}","https://test12345.live/?participantId=EABB32E867BA40608CAFF96B0F4CDAA1&assignmentId=a397b6e5-2136-435a-8e63-3ebf2b5c1d7c&projectId=cf64b1cf-d2c0-4391-b5f1-bfe9f3ca2d48","EABB32E867BA40608CAFF96B0F4CDAA1-2025-05-13-02-14-14","","null","","images/causal_sequence/package_causal/package_causal_1.png","null","",""
"","","","","","image-button-response","90","355765","0.0-14.0-1.0-1.0","EABB32E867BA40608CAFF96B0F4CDAA1","EABB32E867BA40608CAFF96B0F4CDAA1","a397b6e5-2136-435a-8e63-3ebf2b5c1d7c","cf64b1cf-d2c0-4391-b5f1-bfe9f3ca2d48","{""participantId"":""EABB32E867BA40608CAFF96B0F4CDAA1"",""assignmentId"":""a397b6e5-2136-435a-8e63-3ebf2b5c1d7c"",""projectId"":""cf64b1cf-d2c0-4391-b5f1-bfe9f3ca2d48""}","https://test12345.live/?participantId=EABB32E867BA40608CAFF96B0F4CDAA1&assignmentId=a397b6e5-2136-435a-8e63-3ebf2b5c1d7c&projectId=cf64b1cf-d2c0-4391-b5f1-bfe9f3ca2d48","EABB32E867BA40608CAFF96B0F4CDAA1-2025-05-13-02-14-14","","1129","","images/causal_sequence/package_causal/package_causal_1.png","0","",""
"","","","","","image-button-response","91","357577","0.0-14.0-1.0-2.0","EABB32E867BA40608CAFF96B0F4CDAA1","EABB32E867BA40608CAFF96B0F4CDAA1","a397b6e5-2136-435a-8e63-3ebf2b5c1d7c","cf64b1cf-d2c0-4391-b5f1-bfe9f3ca2d48","{""participantId"":""EABB32E867BA40608CAFF96B0F4CDAA1"",""assignmentId"":""a397b6e5-2136-435a-8e63-3ebf2b5c1d7c"",""projectId"":""cf64b1cf-d2c0-4391-b5f1-bfe9f3ca2d48""}","https://test12345.live/?participantId=EABB32E867BA40608CAFF96B0F4CDAA1&assignmentId=a397b6e5-2136-435a-8e63-3ebf2b5c1d7c&projectId=cf64b1cf-d2c0-4391-b5f1-bfe9f3ca2d48","EABB32E867BA40608CAFF96B0F4CDAA1-2025-05-13-02-14-14","","null","","[]","null","",""
"","","","","","image-button-response","92","362093","0.0-14.0-1.0-0.1","EABB32E867BA40608CAFF96B0F4CDAA1","EABB32E867BA40608CAFF96B0F4CDAA1","a397b6e5-2136-435a-8e63-3ebf2b5c1d7c","cf64b1cf-d2c0-4391-b5f1-bfe9f3ca2d48","{""participantId"":""EABB32E867BA40608CAFF96B0F4CDAA1"",""assignmentId"":""a397b6e5-2136-435a-8e63-3ebf2b5c1d7c"",""projectId"":""cf64b1cf-d2c0-4391-b5f1-bfe9f3ca2d48""}","https://test12345.live/?participantId=EABB32E867BA40608CAFF96B0F4CDAA1&assignmentId=a397b6e5-2136-435a-8e63-3ebf2b5c1d7c&projectId=cf64b1cf-d2c0-4391-b5f1-bfe9f3ca2d48","EABB32E867BA40608CAFF96B0F4CDAA1-2025-05-13-02-14-14","","null","","images/causal_sequence/package_causal/package_causal_2.png","null","",""
"","","","","","image-button-response","93","363219","0.0-14.0-1.0-1.1","EABB32E867BA40608CAFF96B0F4CDAA1","EABB32E867BA40608CAFF96B0F4CDAA1","a397b6e5-2136-435a-8e63-3ebf2b5c1d7c","cf64b1cf-d2c0-4391-b5f1-bfe9f3ca2d48","{""participantId"":""EABB32E867BA40608CAFF96B0F4CDAA1"",""assignmentId"":""a397b6e5-2136-435a-8e63-3ebf2b5c1d7c"",""projectId"":""cf64b1cf-d2c0-4391-b5f1-bfe9f3ca2d48""}","https://test12345.live/?participantId=EABB32E867BA40608CAFF96B0F4CDAA1&assignmentId=a397b6e5-2136-435a-8e63-3ebf2b5c1d7c&projectId=cf64b1cf-d2c0-4391-b5f1-bfe9f3ca2d48","EABB32E867BA40608CAFF96B0F4CDAA1-2025-05-13-02-14-14","","1124","","images/causal_sequence/package_causal/package_causal_2.png","0","",""
"","","","","","image-button-response","94","365031","0.0-14.0-1.0-2.1","EABB32E867BA40608CAFF96B0F4CDAA1","EABB32E867BA40608CAFF96B0F4CDAA1","a397b6e5-2136-435a-8e63-3ebf2b5c1d7c","cf64b1cf-d2c0-4391-b5f1-bfe9f3ca2d48","{""participantId"":""EABB32E867BA40608CAFF96B0F4CDAA1"",""assignmentId"":""a397b6e5-2136-435a-8e63-3ebf2b5c1d7c"",""projectId"":""cf64b1cf-d2c0-4391-b5f1-bfe9f3ca2d48""}","https://test12345.live/?participantId=EABB32E867BA40608CAFF96B0F4CDAA1&assignmentId=a397b6e5-2136-435a-8e63-3ebf2b5c1d7c&projectId=cf64b1cf-d2c0-4391-b5f1-bfe9f3ca2d48","EABB32E867BA40608CAFF96B0F4CDAA1-2025-05-13-02-14-14","","null","","[]","null","",""
"","","","","","image-button-response","95","369535","0.0-14.0-1.0-0.2","EABB32E867BA40608CAFF96B0F4CDAA1","EABB32E867BA40608CAFF96B0F4CDAA1","a397b6e5-2136-435a-8e63-3ebf2b5c1d7c","cf64b1cf-d2c0-4391-b5f1-bfe9f3ca2d48","{""participantId"":""EABB32E867BA40608CAFF96B0F4CDAA1"",""assignmentId"":""a397b6e5-2136-435a-8e63-3ebf2b5c1d7c"",""projectId"":""cf64b1cf-d2c0-4391-b5f1-bfe9f3ca2d48""}","https://test12345.live/?participantId=EABB32E867BA40608CAFF96B0F4CDAA1&assignmentId=a397b6e5-2136-435a-8e63-3ebf2b5c1d7c&projectId=cf64b1cf-d2c0-4391-b5f1-bfe9f3ca2d48","EABB32E867BA40608CAFF96B0F4CDAA1-2025-05-13-02-14-14","","null","","images/causal_sequence/package_causal/package_causal_3.png","null","",""
"","","","","","image-button-response","96","370117","0.0-14.0-1.0-1.2","EABB32E867BA40608CAFF96B0F4CDAA1","EABB32E867BA40608CAFF96B0F4CDAA1","a397b6e5-2136-435a-8e63-3ebf2b5c1d7c","cf64b1cf-d2c0-4391-b5f1-bfe9f3ca2d48","{""participantId"":""EABB32E867BA40608CAFF96B0F4CDAA1"",""assignmentId"":""a397b6e5-2136-435a-8e63-3ebf2b5c1d7c"",""projectId"":""cf64b1cf-d2c0-4391-b5f1-bfe9f3ca2d48""}","https://test12345.live/?participantId=EABB32E867BA40608CAFF96B0F4CDAA1&assignmentId=a397b6e5-2136-435a-8e63-3ebf2b5c1d7c&projectId=cf64b1cf-d2c0-4391-b5f1-bfe9f3ca2d48","EABB32E867BA40608CAFF96B0F4CDAA1-2025-05-13-02-14-14","","580","","images/causal_sequence/package_causal/package_causal_3.png","0","",""
"","","","","","image-button-response","97","371918","0.0-14.0-1.0-2.2","EABB32E867BA40608CAFF96B0F4CDAA1","EABB32E867BA40608CAFF96B0F4CDAA1","a397b6e5-2136-435a-8e63-3ebf2b5c1d7c","cf64b1cf-d2c0-4391-b5f1-bfe9f3ca2d48","{""participantId"":""EABB32E867BA40608CAFF96B0F4CDAA1"",""assignmentId"":""a397b6e5-2136-435a-8e63-3ebf2b5c1d7c"",""projectId"":""cf64b1cf-d2c0-4391-b5f1-bfe9f3ca2d48""}","https://test12345.live/?participantId=EABB32E867BA40608CAFF96B0F4CDAA1&assignmentId=a397b6e5-2136-435a-8e63-3ebf2b5c1d7c&projectId=cf64b1cf-d2c0-4391-b5f1-bfe9f3ca2d48","EABB32E867BA40608CAFF96B0F4CDAA1-2025-05-13-02-14-14","","null","","[]","null","",""
"","","","","","image-button-response","98","376433","0.0-14.0-1.0-0.3","EABB32E867BA40608CAFF96B0F4CDAA1","EABB32E867BA40608CAFF96B0F4CDAA1","a397b6e5-2136-435a-8e63-3ebf2b5c1d7c","cf64b1cf-d2c0-4391-b5f1-bfe9f3ca2d48","{""participantId"":""EABB32E867BA40608CAFF96B0F4CDAA1"",""assignmentId"":""a397b6e5-2136-435a-8e63-3ebf2b5c1d7c"",""projectId"":""cf64b1cf-d2c0-4391-b5f1-bfe9f3ca2d48""}","https://test12345.live/?participantId=EABB32E867BA40608CAFF96B0F4CDAA1&assignmentId=a397b6e5-2136-435a-8e63-3ebf2b5c1d7c&projectId=cf64b1cf-d2c0-4391-b5f1-bfe9f3ca2d48","EABB32E867BA40608CAFF96B0F4CDAA1-2025-05-13-02-14-14","","null","","images/causal_sequence/package_causal/package_causal_4.png","null","",""
"","","","","","image-button-response","99","377839","0.0-14.0-1.0-1.3","EABB32E867BA40608CAFF96B0F4CDAA1","EABB32E867BA40608CAFF96B0F4CDAA1","a397b6e5-2136-435a-8e63-3ebf2b5c1d7c","cf64b1cf-d2c0-4391-b5f1-bfe9f3ca2d48","{""participantId"":""EABB32E867BA40608CAFF96B0F4CDAA1"",""assignmentId"":""a397b6e5-2136-435a-8e63-3ebf2b5c1d7c"",""projectId"":""cf64b1cf-d2c0-4391-b5f1-bfe9f3ca2d48""}","https://test12345.live/?participantId=EABB32E867BA40608CAFF96B0F4CDAA1&assignmentId=a397b6e5-2136-435a-8e63-3ebf2b5c1d7c&projectId=cf64b1cf-d2c0-4391-b5f1-bfe9f3ca2d48","EABB32E867BA40608CAFF96B0F4CDAA1-2025-05-13-02-14-14","","1405","","images/causal_sequence/package_causal/package_causal_4.png","1","",""
"","","","","","image-button-response","100","379654","0.0-14.0-1.0-2.3","EABB32E867BA40608CAFF96B0F4CDAA1","EABB32E867BA40608CAFF96B0F4CDAA1","a397b6e5-2136-435a-8e63-3ebf2b5c1d7c","cf64b1cf-d2c0-4391-b5f1-bfe9f3ca2d48","{""participantId"":""EABB32E867BA40608CAFF96B0F4CDAA1"",""assignmentId"":""a397b6e5-2136-435a-8e63-3ebf2b5c1d7c"",""projectId"":""cf64b1cf-d2c0-4391-b5f1-bfe9f3ca2d48""}","https://test12345.live/?participantId=EABB32E867BA40608CAFF96B0F4CDAA1&assignmentId=a397b6e5-2136-435a-8e63-3ebf2b5c1d7c&projectId=cf64b1cf-d2c0-4391-b5f1-bfe9f3ca2d48","EABB32E867BA40608CAFF96B0F4CDAA1-2025-05-13-02-14-14","","null","","[]","null","",""
"","","","","","image-button-response","101","384157","0.0-14.0-1.0-0.4","EABB32E867BA40608CAFF96B0F4CDAA1","EABB32E867BA40608CAFF96B0F4CDAA1","a397b6e5-2136-435a-8e63-3ebf2b5c1d7c","cf64b1cf-d2c0-4391-b5f1-bfe9f3ca2d48","{""participantId"":""EABB32E867BA40608CAFF96B0F4CDAA1"",""assignmentId"":""a397b6e5-2136-435a-8e63-3ebf2b5c1d7c"",""projectId"":""cf64b1cf-d2c0-4391-b5f1-bfe9f3ca2d48""}","https://test12345.live/?participantId=EABB32E867BA40608CAFF96B0F4CDAA1&assignmentId=a397b6e5-2136-435a-8e63-3ebf2b5c1d7c&projectId=cf64b1cf-d2c0-4391-b5f1-bfe9f3ca2d48","EABB32E867BA40608CAFF96B0F4CDAA1-2025-05-13-02-14-14","","null","","images/causal_sequence/package_causal/package_causal_5.png","null","",""
"","","","","","image-button-response","102","385043","0.0-14.0-1.0-1.4","EABB32E867BA40608CAFF96B0F4CDAA1","EABB32E867BA40608CAFF96B0F4CDAA1","a397b6e5-2136-435a-8e63-3ebf2b5c1d7c","cf64b1cf-d2c0-4391-b5f1-bfe9f3ca2d48","{""participantId"":""EABB32E867BA40608CAFF96B0F4CDAA1"",""assignmentId"":""a397b6e5-2136-435a-8e63-3ebf2b5c1d7c"",""projectId"":""cf64b1cf-d2c0-4391-b5f1-bfe9f3ca2d48""}","https://test12345.live/?participantId=EABB32E867BA40608CAFF96B0F4CDAA1&assignmentId=a397b6e5-2136-435a-8e63-3ebf2b5c1d7c&projectId=cf64b1cf-d2c0-4391-b5f1-bfe9f3ca2d48","EABB32E867BA40608CAFF96B0F4CDAA1-2025-05-13-02-14-14","","884","","images/causal_sequence/package_causal/package_causal_5.png","0","",""
"","","","","","image-button-response","103","386859","0.0-14.0-1.0-2.4","EABB32E867BA40608CAFF96B0F4CDAA1","EABB32E867BA40608CAFF96B0F4CDAA1","a397b6e5-2136-435a-8e63-3ebf2b5c1d7c","cf64b1cf-d2c0-4391-b5f1-bfe9f3ca2d48","{""participantId"":""EABB32E867BA40608CAFF96B0F4CDAA1"",""assignmentId"":""a397b6e5-2136-435a-8e63-3ebf2b5c1d7c"",""projectId"":""cf64b1cf-d2c0-4391-b5f1-bfe9f3ca2d48""}","https://test12345.live/?participantId=EABB32E867BA40608CAFF96B0F4CDAA1&assignmentId=a397b6e5-2136-435a-8e63-3ebf2b5c1d7c&projectId=cf64b1cf-d2c0-4391-b5f1-bfe9f3ca2d48","EABB32E867BA40608CAFF96B0F4CDAA1-2025-05-13-02-14-14","","null","","[]","null","",""
"","","","","","image-button-response","104","391368","0.0-14.0-1.0-0.5","EABB32E867BA40608CAFF96B0F4CDAA1","EABB32E867BA40608CAFF96B0F4CDAA1","a397b6e5-2136-435a-8e63-3ebf2b5c1d7c","cf64b1cf-d2c0-4391-b5f1-bfe9f3ca2d48","{""participantId"":""EABB32E867BA40608CAFF96B0F4CDAA1"",""assignmentId"":""a397b6e5-2136-435a-8e63-3ebf2b5c1d7c"",""projectId"":""cf64b1cf-d2c0-4391-b5f1-bfe9f3ca2d48""}","https://test12345.live/?participantId=EABB32E867BA40608CAFF96B0F4CDAA1&assignmentId=a397b6e5-2136-435a-8e63-3ebf2b5c1d7c&projectId=cf64b1cf-d2c0-4391-b5f1-bfe9f3ca2d48","EABB32E867BA40608CAFF96B0F4CDAA1-2025-05-13-02-14-14","","null","","images/causal_sequence/package_causal/package_causal_6.png","null","",""
"","","","","","image-button-response","105","392169","0.0-14.0-1.0-1.5","EABB32E867BA40608CAFF96B0F4CDAA1","EABB32E867BA40608CAFF96B0F4CDAA1","a397b6e5-2136-435a-8e63-3ebf2b5c1d7c","cf64b1cf-d2c0-4391-b5f1-bfe9f3ca2d48","{""participantId"":""EABB32E867BA40608CAFF96B0F4CDAA1"",""assignmentId"":""a397b6e5-2136-435a-8e63-3ebf2b5c1d7c"",""projectId"":""cf64b1cf-d2c0-4391-b5f1-bfe9f3ca2d48""}","https://test12345.live/?participantId=EABB32E867BA40608CAFF96B0F4CDAA1&assignmentId=a397b6e5-2136-435a-8e63-3ebf2b5c1d7c&projectId=cf64b1cf-d2c0-4391-b5f1-bfe9f3ca2d48","EABB32E867BA40608CAFF96B0F4CDAA1-2025-05-13-02-14-14","","799","","images/causal_sequence/package_causal/package_causal_6.png","0","",""
"","","","","","image-button-response","106","393970","0.0-14.0-1.0-2.5","EABB32E867BA40608CAFF96B0F4CDAA1","EABB32E867BA40608CAFF96B0F4CDAA1","a397b6e5-2136-435a-8e63-3ebf2b5c1d7c","cf64b1cf-d2c0-4391-b5f1-bfe9f3ca2d48","{""participantId"":""EABB32E867BA40608CAFF96B0F4CDAA1"",""assignmentId"":""a397b6e5-2136-435a-8e63-3ebf2b5c1d7c"",""projectId"":""cf64b1cf-d2c0-4391-b5f1-bfe9f3ca2d48""}","https://test12345.live/?participantId=EABB32E867BA40608CAFF96B0F4CDAA1&assignmentId=a397b6e5-2136-435a-8e63-3ebf2b5c1d7c&projectId=cf64b1cf-d2c0-4391-b5f1-bfe9f3ca2d48","EABB32E867BA40608CAFF96B0F4CDAA1-2025-05-13-02-14-14","","null","","[]","null","",""
"","","","","","image-button-response","107","398472","0.0-14.0-1.0-0.6","EABB32E867BA40608CAFF96B0F4CDAA1","EABB32E867BA40608CAFF96B0F4CDAA1","a397b6e5-2136-435a-8e63-3ebf2b5c1d7c","cf64b1cf-d2c0-4391-b5f1-bfe9f3ca2d48","{""participantId"":""EABB32E867BA40608CAFF96B0F4CDAA1"",""assignmentId"":""a397b6e5-2136-435a-8e63-3ebf2b5c1d7c"",""projectId"":""cf64b1cf-d2c0-4391-b5f1-bfe9f3ca2d48""}","https://test12345.live/?participantId=EABB32E867BA40608CAFF96B0F4CDAA1&assignmentId=a397b6e5-2136-435a-8e63-3ebf2b5c1d7c&projectId=cf64b1cf-d2c0-4391-b5f1-bfe9f3ca2d48","EABB32E867BA40608CAFF96B0F4CDAA1-2025-05-13-02-14-14","","null","","images/causal_sequence/package_causal/package_causal_7.png","null","",""
"","","","","","image-button-response","108","399569","0.0-14.0-1.0-1.6","EABB32E867BA40608CAFF96B0F4CDAA1","EABB32E867BA40608CAFF96B0F4CDAA1","a397b6e5-2136-435a-8e63-3ebf2b5c1d7c","cf64b1cf-d2c0-4391-b5f1-bfe9f3ca2d48","{""participantId"":""EABB32E867BA40608CAFF96B0F4CDAA1"",""assignmentId"":""a397b6e5-2136-435a-8e63-3ebf2b5c1d7c"",""projectId"":""cf64b1cf-d2c0-4391-b5f1-bfe9f3ca2d48""}","https://test12345.live/?participantId=EABB32E867BA40608CAFF96B0F4CDAA1&assignmentId=a397b6e5-2136-435a-8e63-3ebf2b5c1d7c&projectId=cf64b1cf-d2c0-4391-b5f1-bfe9f3ca2d48","EABB32E867BA40608CAFF96B0F4CDAA1-2025-05-13-02-14-14","","1097","","images/causal_sequence/package_causal/package_causal_7.png","0","",""
"","","","","","image-button-response","109","401370","0.0-14.0-1.0-2.6","EABB32E867BA40608CAFF96B0F4CDAA1","EABB32E867BA40608CAFF96B0F4CDAA1","a397b6e5-2136-435a-8e63-3ebf2b5c1d7c","cf64b1cf-d2c0-4391-b5f1-bfe9f3ca2d48","{""participantId"":""EABB32E867BA40608CAFF96B0F4CDAA1"",""assignmentId"":""a397b6e5-2136-435a-8e63-3ebf2b5c1d7c"",""projectId"":""cf64b1cf-d2c0-4391-b5f1-bfe9f3ca2d48""}","https://test12345.live/?participantId=EABB32E867BA40608CAFF96B0F4CDAA1&assignmentId=a397b6e5-2136-435a-8e63-3ebf2b5c1d7c&projectId=cf64b1cf-d2c0-4391-b5f1-bfe9f3ca2d48","EABB32E867BA40608CAFF96B0F4CDAA1-2025-05-13-02-14-14","","null","","[]","null","",""
"","","","","","image-button-response","110","405884","0.0-14.0-1.0-0.7","EABB32E867BA40608CAFF96B0F4CDAA1","EABB32E867BA40608CAFF96B0F4CDAA1","a397b6e5-2136-435a-8e63-3ebf2b5c1d7c","cf64b1cf-d2c0-4391-b5f1-bfe9f3ca2d48","{""participantId"":""EABB32E867BA40608CAFF96B0F4CDAA1"",""assignmentId"":""a397b6e5-2136-435a-8e63-3ebf2b5c1d7c"",""projectId"":""cf64b1cf-d2c0-4391-b5f1-bfe9f3ca2d48""}","https://test12345.live/?participantId=EABB32E867BA40608CAFF96B0F4CDAA1&assignmentId=a397b6e5-2136-435a-8e63-3ebf2b5c1d7c&projectId=cf64b1cf-d2c0-4391-b5f1-bfe9f3ca2d48","EABB32E867BA40608CAFF96B0F4CDAA1-2025-05-13-02-14-14","","null","","images/causal_sequence/package_causal/package_causal_8.png","null","",""
"","","","","","image-button-response","111","406353","0.0-14.0-1.0-1.7","EABB32E867BA40608CAFF96B0F4CDAA1","EABB32E867BA40608CAFF96B0F4CDAA1","a397b6e5-2136-435a-8e63-3ebf2b5c1d7c","cf64b1cf-d2c0-4391-b5f1-bfe9f3ca2d48","{""participantId"":""EABB32E867BA40608CAFF96B0F4CDAA1"",""assignmentId"":""a397b6e5-2136-435a-8e63-3ebf2b5c1d7c"",""projectId"":""cf64b1cf-d2c0-4391-b5f1-bfe9f3ca2d48""}","https://test12345.live/?participantId=EABB32E867BA40608CAFF96B0F4CDAA1&assignmentId=a397b6e5-2136-435a-8e63-3ebf2b5c1d7c&projectId=cf64b1cf-d2c0-4391-b5f1-bfe9f3ca2d48","EABB32E867BA40608CAFF96B0F4CDAA1-2025-05-13-02-14-14","","468","","images/causal_sequence/package_causal/package_causal_8.png","0","",""
"","","","","","image-button-response","112","408155","0.0-14.0-1.0-2.7","EABB32E867BA40608CAFF96B0F4CDAA1","EABB32E867BA40608CAFF96B0F4CDAA1","a397b6e5-2136-435a-8e63-3ebf2b5c1d7c","cf64b1cf-d2c0-4391-b5f1-bfe9f3ca2d48","{""participantId"":""EABB32E867BA40608CAFF96B0F4CDAA1"",""assignmentId"":""a397b6e5-2136-435a-8e63-3ebf2b5c1d7c"",""projectId"":""cf64b1cf-d2c0-4391-b5f1-bfe9f3ca2d48""}","https://test12345.live/?participantId=EABB32E867BA40608CAFF96B0F4CDAA1&assignmentId=a397b6e5-2136-435a-8e63-3ebf2b5c1d7c&projectId=cf64b1cf-d2c0-4391-b5f1-bfe9f3ca2d48","EABB32E867BA40608CAFF96B0F4CDAA1-2025-05-13-02-14-14","","null","","[]","null","",""
"","","","","","image-button-response","113","412667","0.0-14.0-1.0-0.8","EABB32E867BA40608CAFF96B0F4CDAA1","EABB32E867BA40608CAFF96B0F4CDAA1","a397b6e5-2136-435a-8e63-3ebf2b5c1d7c","cf64b1cf-d2c0-4391-b5f1-bfe9f3ca2d48","{""participantId"":""EABB32E867BA40608CAFF96B0F4CDAA1"",""assignmentId"":""a397b6e5-2136-435a-8e63-3ebf2b5c1d7c"",""projectId"":""cf64b1cf-d2c0-4391-b5f1-bfe9f3ca2d48""}","https://test12345.live/?participantId=EABB32E867BA40608CAFF96B0F4CDAA1&assignmentId=a397b6e5-2136-435a-8e63-3ebf2b5c1d7c&projectId=cf64b1cf-d2c0-4391-b5f1-bfe9f3ca2d48","EABB32E867BA40608CAFF96B0F4CDAA1-2025-05-13-02-14-14","","null","","images/causal_sequence/package_causal/package_causal_9.png","null","",""
"","","","","","image-button-response","114","413193","0.0-14.0-1.0-1.8","EABB32E867BA40608CAFF96B0F4CDAA1","EABB32E867BA40608CAFF96B0F4CDAA1","a397b6e5-2136-435a-8e63-3ebf2b5c1d7c","cf64b1cf-d2c0-4391-b5f1-bfe9f3ca2d48","{""participantId"":""EABB32E867BA40608CAFF96B0F4CDAA1"",""assignmentId"":""a397b6e5-2136-435a-8e63-3ebf2b5c1d7c"",""projectId"":""cf64b1cf-d2c0-4391-b5f1-bfe9f3ca2d48""}","https://test12345.live/?participantId=EABB32E867BA40608CAFF96B0F4CDAA1&assignmentId=a397b6e5-2136-435a-8e63-3ebf2b5c1d7c&projectId=cf64b1cf-d2c0-4391-b5f1-bfe9f3ca2d48","EABB32E867BA40608CAFF96B0F4CDAA1-2025-05-13-02-14-14","","524","","images/causal_sequence/package_causal/package_causal_9.png","0","",""
"","","","","","image-button-response","115","415008","0.0-14.0-1.0-2.8","EABB32E867BA40608CAFF96B0F4CDAA1","EABB32E867BA40608CAFF96B0F4CDAA1","a397b6e5-2136-435a-8e63-3ebf2b5c1d7c","cf64b1cf-d2c0-4391-b5f1-bfe9f3ca2d48","{""participantId"":""EABB32E867BA40608CAFF96B0F4CDAA1"",""assignmentId"":""a397b6e5-2136-435a-8e63-3ebf2b5c1d7c"",""projectId"":""cf64b1cf-d2c0-4391-b5f1-bfe9f3ca2d48""}","https://test12345.live/?participantId=EABB32E867BA40608CAFF96B0F4CDAA1&assignmentId=a397b6e5-2136-435a-8e63-3ebf2b5c1d7c&projectId=cf64b1cf-d2c0-4391-b5f1-bfe9f3ca2d48","EABB32E867BA40608CAFF96B0F4CDAA1-2025-05-13-02-14-14","","null","","[]","null","",""
"","","","","","image-button-response","116","419524","0.0-14.0-1.0-0.9","EABB32E867BA40608CAFF96B0F4CDAA1","EABB32E867BA40608CAFF96B0F4CDAA1","a397b6e5-2136-435a-8e63-3ebf2b5c1d7c","cf64b1cf-d2c0-4391-b5f1-bfe9f3ca2d48","{""participantId"":""EABB32E867BA40608CAFF96B0F4CDAA1"",""assignmentId"":""a397b6e5-2136-435a-8e63-3ebf2b5c1d7c"",""projectId"":""cf64b1cf-d2c0-4391-b5f1-bfe9f3ca2d48""}","https://test12345.live/?participantId=EABB32E867BA40608CAFF96B0F4CDAA1&assignmentId=a397b6e5-2136-435a-8e63-3ebf2b5c1d7c&projectId=cf64b1cf-d2c0-4391-b5f1-bfe9f3ca2d48","EABB32E867BA40608CAFF96B0F4CDAA1-2025-05-13-02-14-14","","null","","images/causal_sequence/package_causal/package_causal_ten.png","null","",""
"","","","","","image-button-response","117","420273","0.0-14.0-1.0-1.9","EABB32E867BA40608CAFF96B0F4CDAA1","EABB32E867BA40608CAFF96B0F4CDAA1","a397b6e5-2136-435a-8e63-3ebf2b5c1d7c","cf64b1cf-d2c0-4391-b5f1-bfe9f3ca2d48","{""participantId"":""EABB32E867BA40608CAFF96B0F4CDAA1"",""assignmentId"":""a397b6e5-2136-435a-8e63-3ebf2b5c1d7c"",""projectId"":""cf64b1cf-d2c0-4391-b5f1-bfe9f3ca2d48""}","https://test12345.live/?participantId=EABB32E867BA40608CAFF96B0F4CDAA1&assignmentId=a397b6e5-2136-435a-8e63-3ebf2b5c1d7c&projectId=cf64b1cf-d2c0-4391-b5f1-bfe9f3ca2d48","EABB32E867BA40608CAFF96B0F4CDAA1-2025-05-13-02-14-14","","747","","images/causal_sequence/package_causal/package_causal_ten.png","0","",""
"","","","","","image-button-response","118","422074","0.0-14.0-1.0-2.9","EABB32E867BA40608CAFF96B0F4CDAA1","EABB32E867BA40608CAFF96B0F4CDAA1","a397b6e5-2136-435a-8e63-3ebf2b5c1d7c","cf64b1cf-d2c0-4391-b5f1-bfe9f3ca2d48","{""participantId"":""EABB32E867BA40608CAFF96B0F4CDAA1"",""assignmentId"":""a397b6e5-2136-435a-8e63-3ebf2b5c1d7c"",""projectId"":""cf64b1cf-d2c0-4391-b5f1-bfe9f3ca2d48""}","https://test12345.live/?participantId=EABB32E867BA40608CAFF96B0F4CDAA1&assignmentId=a397b6e5-2136-435a-8e63-3ebf2b5c1d7c&projectId=cf64b1cf-d2c0-4391-b5f1-bfe9f3ca2d48","EABB32E867BA40608CAFF96B0F4CDAA1-2025-05-13-02-14-14","","null","","[]","null","",""
"","","","","","html-audio-response","119","460693","0.0-15.0","EABB32E867BA40608CAFF96B0F4CDAA1","EABB32E867BA40608CAFF96B0F4CDAA1","a397b6e5-2136-435a-8e63-3ebf2b5c1d7c","cf64b1cf-d2c0-4391-b5f1-bfe9f3ca2d48","{""participantId"":""EABB32E867BA40608CAFF96B0F4CDAA1"",""assignmentId"":""a397b6e5-2136-435a-8e63-3ebf2b5c1d7c"",""projectId"":""cf64b1cf-d2c0-4391-b5f1-bfe9f3ca2d48""}","https://test12345.live/?participantId=EABB32E867BA40608CAFF96B0F4CDAA1&assignmentId=a397b6e5-2136-435a-8e63-3ebf2b5c1d7c&projectId=cf64b1cf-d2c0-4391-b5f1-bfe9f3ca2d48","EABB32E867BA40608CAFF96B0F4CDAA1-2025-05-13-02-14-14","","37537","","[""<span style=\""color: red; font-size: 24px\""> NOW RECORDING</span><p>Please say out loud all the images you saw, as many as you can remember. The images can be said in any order.</p>""]","","2","package_causal"
"","","","","","image-button-response","120","466705","0.0-16.0-0.0","EABB32E867BA40608CAFF96B0F4CDAA1","EABB32E867BA40608CAFF96B0F4CDAA1","a397b6e5-2136-435a-8e63-3ebf2b5c1d7c","cf64b1cf-d2c0-4391-b5f1-bfe9f3ca2d48","{""participantId"":""EABB32E867BA40608CAFF96B0F4CDAA1"",""assignmentId"":""a397b6e5-2136-435a-8e63-3ebf2b5c1d7c"",""projectId"":""cf64b1cf-d2c0-4391-b5f1-bfe9f3ca2d48""}","https://test12345.live/?participantId=EABB32E867BA40608CAFF96B0F4CDAA1&assignmentId=a397b6e5-2136-435a-8e63-3ebf2b5c1d7c&projectId=cf64b1cf-d2c0-4391-b5f1-bfe9f3ca2d48","EABB32E867BA40608CAFF96B0F4CDAA1-2025-05-13-02-14-14","","null","","images/semantic_sequence/creative_activities_semantic/creative_activities_semantic_0.png","null","",""
"","","","","","image-button-response","121","471207","0.0-16.0-1.0-0.0","EABB32E867BA40608CAFF96B0F4CDAA1","EABB32E867BA40608CAFF96B0F4CDAA1","a397b6e5-2136-435a-8e63-3ebf2b5c1d7c","cf64b1cf-d2c0-4391-b5f1-bfe9f3ca2d48","{""participantId"":""EABB32E867BA40608CAFF96B0F4CDAA1"",""assignmentId"":""a397b6e5-2136-435a-8e63-3ebf2b5c1d7c"",""projectId"":""cf64b1cf-d2c0-4391-b5f1-bfe9f3ca2d48""}","https://test12345.live/?participantId=EABB32E867BA40608CAFF96B0F4CDAA1&assignmentId=a397b6e5-2136-435a-8e63-3ebf2b5c1d7c&projectId=cf64b1cf-d2c0-4391-b5f1-bfe9f3ca2d48","EABB32E867BA40608CAFF96B0F4CDAA1-2025-05-13-02-14-14","","null","","images/semantic_sequence/creative_activities_semantic/creative_activities_semantic_3.png","null","",""
"","","","","","image-button-response","122","473109","0.0-16.0-1.0-1.0","EABB32E867BA40608CAFF96B0F4CDAA1","EABB32E867BA40608CAFF96B0F4CDAA1","a397b6e5-2136-435a-8e63-3ebf2b5c1d7c","cf64b1cf-d2c0-4391-b5f1-bfe9f3ca2d48","{""participantId"":""EABB32E867BA40608CAFF96B0F4CDAA1"",""assignmentId"":""a397b6e5-2136-435a-8e63-3ebf2b5c1d7c"",""projectId"":""cf64b1cf-d2c0-4391-b5f1-bfe9f3ca2d48""}","https://test12345.live/?participantId=EABB32E867BA40608CAFF96B0F4CDAA1&assignmentId=a397b6e5-2136-435a-8e63-3ebf2b5c1d7c&projectId=cf64b1cf-d2c0-4391-b5f1-bfe9f3ca2d48","EABB32E867BA40608CAFF96B0F4CDAA1-2025-05-13-02-14-14","","1900","","images/semantic_sequence/creative_activities_semantic/creative_activities_semantic_3.png","0","",""
"","","","","","image-button-response","123","474922","0.0-16.0-1.0-2.0","EABB32E867BA40608CAFF96B0F4CDAA1","EABB32E867BA40608CAFF96B0F4CDAA1","a397b6e5-2136-435a-8e63-3ebf2b5c1d7c","cf64b1cf-d2c0-4391-b5f1-bfe9f3ca2d48","{""participantId"":""EABB32E867BA40608CAFF96B0F4CDAA1"",""assignmentId"":""a397b6e5-2136-435a-8e63-3ebf2b5c1d7c"",""projectId"":""cf64b1cf-d2c0-4391-b5f1-bfe9f3ca2d48""}","https://test12345.live/?participantId=EABB32E867BA40608CAFF96B0F4CDAA1&assignmentId=a397b6e5-2136-435a-8e63-3ebf2b5c1d7c&projectId=cf64b1cf-d2c0-4391-b5f1-bfe9f3ca2d48","EABB32E867BA40608CAFF96B0F4CDAA1-2025-05-13-02-14-14","","null","","[]","null","",""
"","","","","","image-button-response","124","479432","0.0-16.0-1.0-0.1","EABB32E867BA40608CAFF96B0F4CDAA1","EABB32E867BA40608CAFF96B0F4CDAA1","a397b6e5-2136-435a-8e63-3ebf2b5c1d7c","cf64b1cf-d2c0-4391-b5f1-bfe9f3ca2d48","{""participantId"":""EABB32E867BA40608CAFF96B0F4CDAA1"",""assignmentId"":""a397b6e5-2136-435a-8e63-3ebf2b5c1d7c"",""projectId"":""cf64b1cf-d2c0-4391-b5f1-bfe9f3ca2d48""}","https://test12345.live/?participantId=EABB32E867BA40608CAFF96B0F4CDAA1&assignmentId=a397b6e5-2136-435a-8e63-3ebf2b5c1d7c&projectId=cf64b1cf-d2c0-4391-b5f1-bfe9f3ca2d48","EABB32E867BA40608CAFF96B0F4CDAA1-2025-05-13-02-14-14","","null","","images/semantic_sequence/creative_activities_semantic/creative_activities_semantic_2.png","null","",""
"","","","","","image-button-response","125","480831","0.0-16.0-1.0-1.1","EABB32E867BA40608CAFF96B0F4CDAA1","EABB32E867BA40608CAFF96B0F4CDAA1","a397b6e5-2136-435a-8e63-3ebf2b5c1d7c","cf64b1cf-d2c0-4391-b5f1-bfe9f3ca2d48","{""participantId"":""EABB32E867BA40608CAFF96B0F4CDAA1"",""assignmentId"":""a397b6e5-2136-435a-8e63-3ebf2b5c1d7c"",""projectId"":""cf64b1cf-d2c0-4391-b5f1-bfe9f3ca2d48""}","https://test12345.live/?participantId=EABB32E867BA40608CAFF96B0F4CDAA1&assignmentId=a397b6e5-2136-435a-8e63-3ebf2b5c1d7c&projectId=cf64b1cf-d2c0-4391-b5f1-bfe9f3ca2d48","EABB32E867BA40608CAFF96B0F4CDAA1-2025-05-13-02-14-14","","1397","","images/semantic_sequence/creative_activities_semantic/creative_activities_semantic_2.png","0","",""
"","","","","","image-button-response","126","482632","0.0-16.0-1.0-2.1","EABB32E867BA40608CAFF96B0F4CDAA1","EABB32E867BA40608CAFF96B0F4CDAA1","a397b6e5-2136-435a-8e63-3ebf2b5c1d7c","cf64b1cf-d2c0-4391-b5f1-bfe9f3ca2d48","{""participantId"":""EABB32E867BA40608CAFF96B0F4CDAA1"",""assignmentId"":""a397b6e5-2136-435a-8e63-3ebf2b5c1d7c"",""projectId"":""cf64b1cf-d2c0-4391-b5f1-bfe9f3ca2d48""}","https://test12345.live/?participantId=EABB32E867BA40608CAFF96B0F4CDAA1&assignmentId=a397b6e5-2136-435a-8e63-3ebf2b5c1d7c&projectId=cf64b1cf-d2c0-4391-b5f1-bfe9f3ca2d48","EABB32E867BA40608CAFF96B0F4CDAA1-2025-05-13-02-14-14","","null","","[]","null","",""
"","","","","","image-button-response","127","487145","0.0-16.0-1.0-0.2","EABB32E867BA40608CAFF96B0F4CDAA1","EABB32E867BA40608CAFF96B0F4CDAA1","a397b6e5-2136-435a-8e63-3ebf2b5c1d7c","cf64b1cf-d2c0-4391-b5f1-bfe9f3ca2d48","{""participantId"":""EABB32E867BA40608CAFF96B0F4CDAA1"",""assignmentId"":""a397b6e5-2136-435a-8e63-3ebf2b5c1d7c"",""projectId"":""cf64b1cf-d2c0-4391-b5f1-bfe9f3ca2d48""}","https://test12345.live/?participantId=EABB32E867BA40608CAFF96B0F4CDAA1&assignmentId=a397b6e5-2136-435a-8e63-3ebf2b5c1d7c&projectId=cf64b1cf-d2c0-4391-b5f1-bfe9f3ca2d48","EABB32E867BA40608CAFF96B0F4CDAA1-2025-05-13-02-14-14","","null","","images/semantic_sequence/creative_activities_semantic/creative_activities_semantic_1.png","null","",""
"","","","","","image-button-response","128","488639","0.0-16.0-1.0-1.2","EABB32E867BA40608CAFF96B0F4CDAA1","EABB32E867BA40608CAFF96B0F4CDAA1","a397b6e5-2136-435a-8e63-3ebf2b5c1d7c","cf64b1cf-d2c0-4391-b5f1-bfe9f3ca2d48","{""participantId"":""EABB32E867BA40608CAFF96B0F4CDAA1"",""assignmentId"":""a397b6e5-2136-435a-8e63-3ebf2b5c1d7c"",""projectId"":""cf64b1cf-d2c0-4391-b5f1-bfe9f3ca2d48""}","https://test12345.live/?participantId=EABB32E867BA40608CAFF96B0F4CDAA1&assignmentId=a397b6e5-2136-435a-8e63-3ebf2b5c1d7c&projectId=cf64b1cf-d2c0-4391-b5f1-bfe9f3ca2d48","EABB32E867BA40608CAFF96B0F4CDAA1-2025-05-13-02-14-14","","1492","","images/semantic_sequence/creative_activities_semantic/creative_activities_semantic_1.png","0","",""
"","","","","","image-button-response","129","490441","0.0-16.0-1.0-2.2","EABB32E867BA40608CAFF96B0F4CDAA1","EABB32E867BA40608CAFF96B0F4CDAA1","a397b6e5-2136-435a-8e63-3ebf2b5c1d7c","cf64b1cf-d2c0-4391-b5f1-bfe9f3ca2d48","{""participantId"":""EABB32E867BA40608CAFF96B0F4CDAA1"",""assignmentId"":""a397b6e5-2136-435a-8e63-3ebf2b5c1d7c"",""projectId"":""cf64b1cf-d2c0-4391-b5f1-bfe9f3ca2d48""}","https://test12345.live/?participantId=EABB32E867BA40608CAFF96B0F4CDAA1&assignmentId=a397b6e5-2136-435a-8e63-3ebf2b5c1d7c&projectId=cf64b1cf-d2c0-4391-b5f1-bfe9f3ca2d48","EABB32E867BA40608CAFF96B0F4CDAA1-2025-05-13-02-14-14","","null","","[]","null","",""
"","","","","","image-button-response","130","494944","0.0-16.0-1.0-0.3","EABB32E867BA40608CAFF96B0F4CDAA1","EABB32E867BA40608CAFF96B0F4CDAA1","a397b6e5-2136-435a-8e63-3ebf2b5c1d7c","cf64b1cf-d2c0-4391-b5f1-bfe9f3ca2d48","{""participantId"":""EABB32E867BA40608CAFF96B0F4CDAA1"",""assignmentId"":""a397b6e5-2136-435a-8e63-3ebf2b5c1d7c"",""projectId"":""cf64b1cf-d2c0-4391-b5f1-bfe9f3ca2d48""}","https://test12345.live/?participantId=EABB32E867BA40608CAFF96B0F4CDAA1&assignmentId=a397b6e5-2136-435a-8e63-3ebf2b5c1d7c&projectId=cf64b1cf-d2c0-4391-b5f1-bfe9f3ca2d48","EABB32E867BA40608CAFF96B0F4CDAA1-2025-05-13-02-14-14","","null","","images/semantic_sequence/creative_activities_semantic/creative_activities_semantic_5.png","null","",""
"","","","","","image-button-response","131","495673","0.0-16.0-1.0-1.3","EABB32E867BA40608CAFF96B0F4CDAA1","EABB32E867BA40608CAFF96B0F4CDAA1","a397b6e5-2136-435a-8e63-3ebf2b5c1d7c","cf64b1cf-d2c0-4391-b5f1-bfe9f3ca2d48","{""participantId"":""EABB32E867BA40608CAFF96B0F4CDAA1"",""assignmentId"":""a397b6e5-2136-435a-8e63-3ebf2b5c1d7c"",""projectId"":""cf64b1cf-d2c0-4391-b5f1-bfe9f3ca2d48""}","https://test12345.live/?participantId=EABB32E867BA40608CAFF96B0F4CDAA1&assignmentId=a397b6e5-2136-435a-8e63-3ebf2b5c1d7c&projectId=cf64b1cf-d2c0-4391-b5f1-bfe9f3ca2d48","EABB32E867BA40608CAFF96B0F4CDAA1-2025-05-13-02-14-14","","727","","images/semantic_sequence/creative_activities_semantic/creative_activities_semantic_5.png","0","",""
"","","","","","image-button-response","132","497488","0.0-16.0-1.0-2.3","EABB32E867BA40608CAFF96B0F4CDAA1","EABB32E867BA40608CAFF96B0F4CDAA1","a397b6e5-2136-435a-8e63-3ebf2b5c1d7c","cf64b1cf-d2c0-4391-b5f1-bfe9f3ca2d48","{""participantId"":""EABB32E867BA40608CAFF96B0F4CDAA1"",""assignmentId"":""a397b6e5-2136-435a-8e63-3ebf2b5c1d7c"",""projectId"":""cf64b1cf-d2c0-4391-b5f1-bfe9f3ca2d48""}","https://test12345.live/?participantId=EABB32E867BA40608CAFF96B0F4CDAA1&assignmentId=a397b6e5-2136-435a-8e63-3ebf2b5c1d7c&projectId=cf64b1cf-d2c0-4391-b5f1-bfe9f3ca2d48","EABB32E867BA40608CAFF96B0F4CDAA1-2025-05-13-02-14-14","","null","","[]","null","",""
"","","","","","image-button-response","133","502000","0.0-16.0-1.0-0.4","EABB32E867BA40608CAFF96B0F4CDAA1","EABB32E867BA40608CAFF96B0F4CDAA1","a397b6e5-2136-435a-8e63-3ebf2b5c1d7c","cf64b1cf-d2c0-4391-b5f1-bfe9f3ca2d48","{""participantId"":""EABB32E867BA40608CAFF96B0F4CDAA1"",""assignmentId"":""a397b6e5-2136-435a-8e63-3ebf2b5c1d7c"",""projectId"":""cf64b1cf-d2c0-4391-b5f1-bfe9f3ca2d48""}","https://test12345.live/?participantId=EABB32E867BA40608CAFF96B0F4CDAA1&assignmentId=a397b6e5-2136-435a-8e63-3ebf2b5c1d7c&projectId=cf64b1cf-d2c0-4391-b5f1-bfe9f3ca2d48","EABB32E867BA40608CAFF96B0F4CDAA1-2025-05-13-02-14-14","","null","","images/semantic_sequence/creative_activities_semantic/creative_activities_semantic_9.png","null","",""
"","","","","","image-button-response","134","502635","0.0-16.0-1.0-1.4","EABB32E867BA40608CAFF96B0F4CDAA1","EABB32E867BA40608CAFF96B0F4CDAA1","a397b6e5-2136-435a-8e63-3ebf2b5c1d7c","cf64b1cf-d2c0-4391-b5f1-bfe9f3ca2d48","{""participantId"":""EABB32E867BA40608CAFF96B0F4CDAA1"",""assignmentId"":""a397b6e5-2136-435a-8e63-3ebf2b5c1d7c"",""projectId"":""cf64b1cf-d2c0-4391-b5f1-bfe9f3ca2d48""}","https://test12345.live/?participantId=EABB32E867BA40608CAFF96B0F4CDAA1&assignmentId=a397b6e5-2136-435a-8e63-3ebf2b5c1d7c&projectId=cf64b1cf-d2c0-4391-b5f1-bfe9f3ca2d48","EABB32E867BA40608CAFF96B0F4CDAA1-2025-05-13-02-14-14","","633","","images/semantic_sequence/creative_activities_semantic/creative_activities_semantic_9.png","0","",""
"","","","","","image-button-response","135","504439","0.0-16.0-1.0-2.4","EABB32E867BA40608CAFF96B0F4CDAA1","EABB32E867BA40608CAFF96B0F4CDAA1","a397b6e5-2136-435a-8e63-3ebf2b5c1d7c","cf64b1cf-d2c0-4391-b5f1-bfe9f3ca2d48","{""participantId"":""EABB32E867BA40608CAFF96B0F4CDAA1"",""assignmentId"":""a397b6e5-2136-435a-8e63-3ebf2b5c1d7c"",""projectId"":""cf64b1cf-d2c0-4391-b5f1-bfe9f3ca2d48""}","https://test12345.live/?participantId=EABB32E867BA40608CAFF96B0F4CDAA1&assignmentId=a397b6e5-2136-435a-8e63-3ebf2b5c1d7c&projectId=cf64b1cf-d2c0-4391-b5f1-bfe9f3ca2d48","EABB32E867BA40608CAFF96B0F4CDAA1-2025-05-13-02-14-14","","null","","[]","null","",""
"","","","","","image-button-response","136","508942","0.0-16.0-1.0-0.5","EABB32E867BA40608CAFF96B0F4CDAA1","EABB32E867BA40608CAFF96B0F4CDAA1","a397b6e5-2136-435a-8e63-3ebf2b5c1d7c","cf64b1cf-d2c0-4391-b5f1-bfe9f3ca2d48","{""participantId"":""EABB32E867BA40608CAFF96B0F4CDAA1"",""assignmentId"":""a397b6e5-2136-435a-8e63-3ebf2b5c1d7c"",""projectId"":""cf64b1cf-d2c0-4391-b5f1-bfe9f3ca2d48""}","https://test12345.live/?participantId=EABB32E867BA40608CAFF96B0F4CDAA1&assignmentId=a397b6e5-2136-435a-8e63-3ebf2b5c1d7c&projectId=cf64b1cf-d2c0-4391-b5f1-bfe9f3ca2d48","EABB32E867BA40608CAFF96B0F4CDAA1-2025-05-13-02-14-14","","null","","images/semantic_sequence/creative_activities_semantic/creative_activities_semantic_8.png","null","",""
"","","","","","image-button-response","137","510139","0.0-16.0-1.0-1.5","EABB32E867BA40608CAFF96B0F4CDAA1","EABB32E867BA40608CAFF96B0F4CDAA1","a397b6e5-2136-435a-8e63-3ebf2b5c1d7c","cf64b1cf-d2c0-4391-b5f1-bfe9f3ca2d48","{""participantId"":""EABB32E867BA40608CAFF96B0F4CDAA1"",""assignmentId"":""a397b6e5-2136-435a-8e63-3ebf2b5c1d7c"",""projectId"":""cf64b1cf-d2c0-4391-b5f1-bfe9f3ca2d48""}","https://test12345.live/?participantId=EABB32E867BA40608CAFF96B0F4CDAA1&assignmentId=a397b6e5-2136-435a-8e63-3ebf2b5c1d7c&projectId=cf64b1cf-d2c0-4391-b5f1-bfe9f3ca2d48","EABB32E867BA40608CAFF96B0F4CDAA1-2025-05-13-02-14-14","","1194","","images/semantic_sequence/creative_activities_semantic/creative_activities_semantic_8.png","0","",""
"","","","","","image-button-response","138","511939","0.0-16.0-1.0-2.5","EABB32E867BA40608CAFF96B0F4CDAA1","EABB32E867BA40608CAFF96B0F4CDAA1","a397b6e5-2136-435a-8e63-3ebf2b5c1d7c","cf64b1cf-d2c0-4391-b5f1-bfe9f3ca2d48","{""participantId"":""EABB32E867BA40608CAFF96B0F4CDAA1"",""assignmentId"":""a397b6e5-2136-435a-8e63-3ebf2b5c1d7c"",""projectId"":""cf64b1cf-d2c0-4391-b5f1-bfe9f3ca2d48""}","https://test12345.live/?participantId=EABB32E867BA40608CAFF96B0F4CDAA1&assignmentId=a397b6e5-2136-435a-8e63-3ebf2b5c1d7c&projectId=cf64b1cf-d2c0-4391-b5f1-bfe9f3ca2d48","EABB32E867BA40608CAFF96B0F4CDAA1-2025-05-13-02-14-14","","null","","[]","null","",""
"","","","","","image-button-response","139","516446","0.0-16.0-1.0-0.6","EABB32E867BA40608CAFF96B0F4CDAA1","EABB32E867BA40608CAFF96B0F4CDAA1","a397b6e5-2136-435a-8e63-3ebf2b5c1d7c","cf64b1cf-d2c0-4391-b5f1-bfe9f3ca2d48","{""participantId"":""EABB32E867BA40608CAFF96B0F4CDAA1"",""assignmentId"":""a397b6e5-2136-435a-8e63-3ebf2b5c1d7c"",""projectId"":""cf64b1cf-d2c0-4391-b5f1-bfe9f3ca2d48""}","https://test12345.live/?participantId=EABB32E867BA40608CAFF96B0F4CDAA1&assignmentId=a397b6e5-2136-435a-8e63-3ebf2b5c1d7c&projectId=cf64b1cf-d2c0-4391-b5f1-bfe9f3ca2d48","EABB32E867BA40608CAFF96B0F4CDAA1-2025-05-13-02-14-14","","null","","images/semantic_sequence/creative_activities_semantic/creative_activities_semantic_7.png","null","",""
"","","","","","image-button-response","140","517057","0.0-16.0-1.0-1.6","EABB32E867BA40608CAFF96B0F4CDAA1","EABB32E867BA40608CAFF96B0F4CDAA1","a397b6e5-2136-435a-8e63-3ebf2b5c1d7c","cf64b1cf-d2c0-4391-b5f1-bfe9f3ca2d48","{""participantId"":""EABB32E867BA40608CAFF96B0F4CDAA1"",""assignmentId"":""a397b6e5-2136-435a-8e63-3ebf2b5c1d7c"",""projectId"":""cf64b1cf-d2c0-4391-b5f1-bfe9f3ca2d48""}","https://test12345.live/?participantId=EABB32E867BA40608CAFF96B0F4CDAA1&assignmentId=a397b6e5-2136-435a-8e63-3ebf2b5c1d7c&projectId=cf64b1cf-d2c0-4391-b5f1-bfe9f3ca2d48","EABB32E867BA40608CAFF96B0F4CDAA1-2025-05-13-02-14-14","","610","","images/semantic_sequence/creative_activities_semantic/creative_activities_semantic_7.png","0","",""
"","","","","","image-button-response","141","518860","0.0-16.0-1.0-2.6","EABB32E867BA40608CAFF96B0F4CDAA1","EABB32E867BA40608CAFF96B0F4CDAA1","a397b6e5-2136-435a-8e63-3ebf2b5c1d7c","cf64b1cf-d2c0-4391-b5f1-bfe9f3ca2d48","{""participantId"":""EABB32E867BA40608CAFF96B0F4CDAA1"",""assignmentId"":""a397b6e5-2136-435a-8e63-3ebf2b5c1d7c"",""projectId"":""cf64b1cf-d2c0-4391-b5f1-bfe9f3ca2d48""}","https://test12345.live/?participantId=EABB32E867BA40608CAFF96B0F4CDAA1&assignmentId=a397b6e5-2136-435a-8e63-3ebf2b5c1d7c&projectId=cf64b1cf-d2c0-4391-b5f1-bfe9f3ca2d48","EABB32E867BA40608CAFF96B0F4CDAA1-2025-05-13-02-14-14","","null","","[]","null","",""
