"success","timeout","failed_images","failed_audio","failed_video","trial_type","trial_index","time_elapsed","internal_node_id","subject","subject_id","study_id","session_id","urlvar","current_url","audio_id","view_history","rt","device_id","stimulus","response","estimated_stimulus_onset","seq_name"
"true","false","[]","[]","[]","preload","0","8757","0.0-0.0","EAEDBD6CC4E342278970CC7CF90FEBA0","EAEDBD6CC4E342278970CC7CF90FEBA0","0198ba22-7d58-7195-b852-43ccf01230c0","0198b9d0-29d4-7df3-8625-4b4515841beb","{""num_scrambled_semantic"":""8"",""num_scrambled_causal"":""4"",""num_scrambled_schematic"":""4"",""participantId"":""EAEDBD6CC4E342278970CC7CF90FEBA0"",""assignmentId"":""0198ba22-7d58-7195-b852-43ccf01230c0"",""projectId"":""0198b9d0-29d4-7df3-8625-4b4515841beb""}","https://test12345.live/?num_scrambled_semantic=8&num_scrambled_causal=4&num_scrambled_schematic=4&participantId=EAEDBD6CC4E342278970CC7CF90FEBA0&assignmentId=0198ba22-7d58-7195-b852-43ccf01230c0&projectId=0198b9d0-29d4-7df3-8625-4b4515841beb","EAEDBD6CC4E342278970CC7CF90FEBA0-2025-08-17-23-02-27","","","","","","",""
"","","","","","instructions","1","58958","0.0-1.0","EAEDBD6CC4E342278970CC7CF90FEBA0","EAEDBD6CC4E342278970CC7CF90FEBA0","0198ba22-7d58-7195-b852-43ccf01230c0","0198b9d0-29d4-7df3-8625-4b4515841beb","{""num_scrambled_semantic"":""8"",""num_scrambled_causal"":""4"",""num_scrambled_schematic"":""4"",""participantId"":""EAEDBD6CC4E342278970CC7CF90FEBA0"",""assignmentId"":""0198ba22-7d58-7195-b852-43ccf01230c0"",""projectId"":""0198b9d0-29d4-7df3-8625-4b4515841beb""}","https://test12345.live/?num_scrambled_semantic=8&num_scrambled_causal=4&num_scrambled_schematic=4&participantId=EAEDBD6CC4E342278970CC7CF90FEBA0&assignmentId=0198ba22-7d58-7195-b852-43ccf01230c0&projectId=0198b9d0-29d4-7df3-8625-4b4515841beb","EAEDBD6CC4E342278970CC7CF90FEBA0-2025-08-17-23-02-27","[{""page_index"":0,""viewing_time"":48441}]","48441","","","","",""
"","","","","","instructions","2","72115","0.0-2.0","EAEDBD6CC4E342278970CC7CF90FEBA0","EAEDBD6CC4E342278970CC7CF90FEBA0","0198ba22-7d58-7195-b852-43ccf01230c0","0198b9d0-29d4-7df3-8625-4b4515841beb","{""num_scrambled_semantic"":""8"",""num_scrambled_causal"":""4"",""num_scrambled_schematic"":""4"",""participantId"":""EAEDBD6CC4E342278970CC7CF90FEBA0"",""assignmentId"":""0198ba22-7d58-7195-b852-43ccf01230c0"",""projectId"":""0198b9d0-29d4-7df3-8625-4b4515841beb""}","https://test12345.live/?num_scrambled_semantic=8&num_scrambled_causal=4&num_scrambled_schematic=4&participantId=EAEDBD6CC4E342278970CC7CF90FEBA0&assignmentId=0198ba22-7d58-7195-b852-43ccf01230c0&projectId=0198b9d0-29d4-7df3-8625-4b4515841beb","EAEDBD6CC4E342278970CC7CF90FEBA0-2025-08-17-23-02-27","[{""page_index"":0,""viewing_time"":13157}]","13157","","","","",""
"true","","","","","fullscreen","3","75848","0.0-3.0","EAEDBD6CC4E342278970CC7CF90FEBA0","EAEDBD6CC4E342278970CC7CF90FEBA0","0198ba22-7d58-7195-b852-43ccf01230c0","0198b9d0-29d4-7df3-8625-4b4515841beb","{""num_scrambled_semantic"":""8"",""num_scrambled_causal"":""4"",""num_scrambled_schematic"":""4"",""participantId"":""EAEDBD6CC4E342278970CC7CF90FEBA0"",""assignmentId"":""0198ba22-7d58-7195-b852-43ccf01230c0"",""projectId"":""0198b9d0-29d4-7df3-8625-4b4515841beb""}","https://test12345.live/?num_scrambled_semantic=8&num_scrambled_causal=4&num_scrambled_schematic=4&participantId=EAEDBD6CC4E342278970CC7CF90FEBA0&assignmentId=0198ba22-7d58-7195-b852-43ccf01230c0&projectId=0198b9d0-29d4-7df3-8625-4b4515841beb","EAEDBD6CC4E342278970CC7CF90FEBA0-2025-08-17-23-02-27","","2720","","","","",""
"","","","","","initialize-microphone","4","85939","0.0-4.0-0.0","EAEDBD6CC4E342278970CC7CF90FEBA0","EAEDBD6CC4E342278970CC7CF90FEBA0","0198ba22-7d58-7195-b852-43ccf01230c0","0198b9d0-29d4-7df3-8625-4b4515841beb","{""num_scrambled_semantic"":""8"",""num_scrambled_causal"":""4"",""num_scrambled_schematic"":""4"",""participantId"":""EAEDBD6CC4E342278970CC7CF90FEBA0"",""assignmentId"":""0198ba22-7d58-7195-b852-43ccf01230c0"",""projectId"":""0198b9d0-29d4-7df3-8625-4b4515841beb""}","https://test12345.live/?num_scrambled_semantic=8&num_scrambled_causal=4&num_scrambled_schematic=4&participantId=EAEDBD6CC4E342278970CC7CF90FEBA0&assignmentId=0198ba22-7d58-7195-b852-43ccf01230c0&projectId=0198b9d0-29d4-7df3-8625-4b4515841beb","EAEDBD6CC4E342278970CC7CF90FEBA0-2025-08-17-23-02-27","","","40b83c3367a0fdbad7d83d4b4c6cb7889ddaa20880db50cd03b497db1c046aa6","","","",""
"","","","","","html-audio-response","5","116606","0.0-4.0-1.0","EAEDBD6CC4E342278970CC7CF90FEBA0","EAEDBD6CC4E342278970CC7CF90FEBA0","0198ba22-7d58-7195-b852-43ccf01230c0","0198b9d0-29d4-7df3-8625-4b4515841beb","{""num_scrambled_semantic"":""8"",""num_scrambled_causal"":""4"",""num_scrambled_schematic"":""4"",""participantId"":""EAEDBD6CC4E342278970CC7CF90FEBA0"",""assignmentId"":""0198ba22-7d58-7195-b852-43ccf01230c0"",""projectId"":""0198b9d0-29d4-7df3-8625-4b4515841beb""}","https://test12345.live/?num_scrambled_semantic=8&num_scrambled_causal=4&num_scrambled_schematic=4&participantId=EAEDBD6CC4E342278970CC7CF90FEBA0&assignmentId=0198ba22-7d58-7195-b852-43ccf01230c0&projectId=0198b9d0-29d4-7df3-8625-4b4515841beb","EAEDBD6CC4E342278970CC7CF90FEBA0-2025-08-17-23-02-27","","6797","","<span style=""color: red; font-size: 24px""> NOW RECORDING</span>
        <p>Please test Microphone</p>","","13",""
"","","","","","html-button-response","6","118211","0.0-4.0-2.0","EAEDBD6CC4E342278970CC7CF90FEBA0","EAEDBD6CC4E342278970CC7CF90FEBA0","0198ba22-7d58-7195-b852-43ccf01230c0","0198b9d0-29d4-7df3-8625-4b4515841beb","{""num_scrambled_semantic"":""8"",""num_scrambled_causal"":""4"",""num_scrambled_schematic"":""4"",""participantId"":""EAEDBD6CC4E342278970CC7CF90FEBA0"",""assignmentId"":""0198ba22-7d58-7195-b852-43ccf01230c0"",""projectId"":""0198b9d0-29d4-7df3-8625-4b4515841beb""}","https://test12345.live/?num_scrambled_semantic=8&num_scrambled_causal=4&num_scrambled_schematic=4&participantId=EAEDBD6CC4E342278970CC7CF90FEBA0&assignmentId=0198ba22-7d58-7195-b852-43ccf01230c0&projectId=0198b9d0-29d4-7df3-8625-4b4515841beb","EAEDBD6CC4E342278970CC7CF90FEBA0-2025-08-17-23-02-27","","1604","","<p style=""font-size:48px; color:red;"">Is Microphone OK?</p>","1","",""
"","","","","","instructions","7","133646","0.0-5.0","EAEDBD6CC4E342278970CC7CF90FEBA0","EAEDBD6CC4E342278970CC7CF90FEBA0","0198ba22-7d58-7195-b852-43ccf01230c0","0198b9d0-29d4-7df3-8625-4b4515841beb","{""num_scrambled_semantic"":""8"",""num_scrambled_causal"":""4"",""num_scrambled_schematic"":""4"",""participantId"":""EAEDBD6CC4E342278970CC7CF90FEBA0"",""assignmentId"":""0198ba22-7d58-7195-b852-43ccf01230c0"",""projectId"":""0198b9d0-29d4-7df3-8625-4b4515841beb""}","https://test12345.live/?num_scrambled_semantic=8&num_scrambled_causal=4&num_scrambled_schematic=4&participantId=EAEDBD6CC4E342278970CC7CF90FEBA0&assignmentId=0198ba22-7d58-7195-b852-43ccf01230c0&projectId=0198b9d0-29d4-7df3-8625-4b4515841beb","EAEDBD6CC4E342278970CC7CF90FEBA0-2025-08-17-23-02-27","[{""page_index"":0,""viewing_time"":8586},{""page_index"":1,""viewing_time"":6847}]","15434","","","","",""
"","","","","","image-button-response","8","139657","0.0-6.0-0.0","EAEDBD6CC4E342278970CC7CF90FEBA0","EAEDBD6CC4E342278970CC7CF90FEBA0","0198ba22-7d58-7195-b852-43ccf01230c0","0198b9d0-29d4-7df3-8625-4b4515841beb","{""num_scrambled_semantic"":""8"",""num_scrambled_causal"":""4"",""num_scrambled_schematic"":""4"",""participantId"":""EAEDBD6CC4E342278970CC7CF90FEBA0"",""assignmentId"":""0198ba22-7d58-7195-b852-43ccf01230c0"",""projectId"":""0198b9d0-29d4-7df3-8625-4b4515841beb""}","https://test12345.live/?num_scrambled_semantic=8&num_scrambled_causal=4&num_scrambled_schematic=4&participantId=EAEDBD6CC4E342278970CC7CF90FEBA0&assignmentId=0198ba22-7d58-7195-b852-43ccf01230c0&projectId=0198b9d0-29d4-7df3-8625-4b4515841beb","EAEDBD6CC4E342278970CC7CF90FEBA0-2025-08-17-23-02-27","","null","","images/instructions/movie_0.png","null","",""
"","","","","","image-button-response","9","144172","0.0-6.0-1.0-0.0","EAEDBD6CC4E342278970CC7CF90FEBA0","EAEDBD6CC4E342278970CC7CF90FEBA0","0198ba22-7d58-7195-b852-43ccf01230c0","0198b9d0-29d4-7df3-8625-4b4515841beb","{""num_scrambled_semantic"":""8"",""num_scrambled_causal"":""4"",""num_scrambled_schematic"":""4"",""participantId"":""EAEDBD6CC4E342278970CC7CF90FEBA0"",""assignmentId"":""0198ba22-7d58-7195-b852-43ccf01230c0"",""projectId"":""0198b9d0-29d4-7df3-8625-4b4515841beb""}","https://test12345.live/?num_scrambled_semantic=8&num_scrambled_causal=4&num_scrambled_schematic=4&participantId=EAEDBD6CC4E342278970CC7CF90FEBA0&assignmentId=0198ba22-7d58-7195-b852-43ccf01230c0&projectId=0198b9d0-29d4-7df3-8625-4b4515841beb","EAEDBD6CC4E342278970CC7CF90FEBA0-2025-08-17-23-02-27","","null","","images/instructions/movie_1.png","null","",""
"","","","","","image-button-response","10","147625","0.0-6.0-1.0-1.0","EAEDBD6CC4E342278970CC7CF90FEBA0","EAEDBD6CC4E342278970CC7CF90FEBA0","0198ba22-7d58-7195-b852-43ccf01230c0","0198b9d0-29d4-7df3-8625-4b4515841beb","{""num_scrambled_semantic"":""8"",""num_scrambled_causal"":""4"",""num_scrambled_schematic"":""4"",""participantId"":""EAEDBD6CC4E342278970CC7CF90FEBA0"",""assignmentId"":""0198ba22-7d58-7195-b852-43ccf01230c0"",""projectId"":""0198b9d0-29d4-7df3-8625-4b4515841beb""}","https://test12345.live/?num_scrambled_semantic=8&num_scrambled_causal=4&num_scrambled_schematic=4&participantId=EAEDBD6CC4E342278970CC7CF90FEBA0&assignmentId=0198ba22-7d58-7195-b852-43ccf01230c0&projectId=0198b9d0-29d4-7df3-8625-4b4515841beb","EAEDBD6CC4E342278970CC7CF90FEBA0-2025-08-17-23-02-27","","3451","","images/instructions/movie_1.png","0","",""
"","","","","","image-button-response","11","153036","0.0-6.0-1.0-2.0","EAEDBD6CC4E342278970CC7CF90FEBA0","EAEDBD6CC4E342278970CC7CF90FEBA0","0198ba22-7d58-7195-b852-43ccf01230c0","0198b9d0-29d4-7df3-8625-4b4515841beb","{""num_scrambled_semantic"":""8"",""num_scrambled_causal"":""4"",""num_scrambled_schematic"":""4"",""participantId"":""EAEDBD6CC4E342278970CC7CF90FEBA0"",""assignmentId"":""0198ba22-7d58-7195-b852-43ccf01230c0"",""projectId"":""0198b9d0-29d4-7df3-8625-4b4515841beb""}","https://test12345.live/?num_scrambled_semantic=8&num_scrambled_causal=4&num_scrambled_schematic=4&participantId=EAEDBD6CC4E342278970CC7CF90FEBA0&assignmentId=0198ba22-7d58-7195-b852-43ccf01230c0&projectId=0198b9d0-29d4-7df3-8625-4b4515841beb","EAEDBD6CC4E342278970CC7CF90FEBA0-2025-08-17-23-02-27","","null","","[]","null","",""
"","","","","","image-button-response","12","157541","0.0-6.0-1.0-0.1","EAEDBD6CC4E342278970CC7CF90FEBA0","EAEDBD6CC4E342278970CC7CF90FEBA0","0198ba22-7d58-7195-b852-43ccf01230c0","0198b9d0-29d4-7df3-8625-4b4515841beb","{""num_scrambled_semantic"":""8"",""num_scrambled_causal"":""4"",""num_scrambled_schematic"":""4"",""participantId"":""EAEDBD6CC4E342278970CC7CF90FEBA0"",""assignmentId"":""0198ba22-7d58-7195-b852-43ccf01230c0"",""projectId"":""0198b9d0-29d4-7df3-8625-4b4515841beb""}","https://test12345.live/?num_scrambled_semantic=8&num_scrambled_causal=4&num_scrambled_schematic=4&participantId=EAEDBD6CC4E342278970CC7CF90FEBA0&assignmentId=0198ba22-7d58-7195-b852-43ccf01230c0&projectId=0198b9d0-29d4-7df3-8625-4b4515841beb","EAEDBD6CC4E342278970CC7CF90FEBA0-2025-08-17-23-02-27","","null","","images/instructions/movie_2.png","null","",""
"","","","","","image-button-response","13","159721","0.0-6.0-1.0-1.1","EAEDBD6CC4E342278970CC7CF90FEBA0","EAEDBD6CC4E342278970CC7CF90FEBA0","0198ba22-7d58-7195-b852-43ccf01230c0","0198b9d0-29d4-7df3-8625-4b4515841beb","{""num_scrambled_semantic"":""8"",""num_scrambled_causal"":""4"",""num_scrambled_schematic"":""4"",""participantId"":""EAEDBD6CC4E342278970CC7CF90FEBA0"",""assignmentId"":""0198ba22-7d58-7195-b852-43ccf01230c0"",""projectId"":""0198b9d0-29d4-7df3-8625-4b4515841beb""}","https://test12345.live/?num_scrambled_semantic=8&num_scrambled_causal=4&num_scrambled_schematic=4&participantId=EAEDBD6CC4E342278970CC7CF90FEBA0&assignmentId=0198ba22-7d58-7195-b852-43ccf01230c0&projectId=0198b9d0-29d4-7df3-8625-4b4515841beb","EAEDBD6CC4E342278970CC7CF90FEBA0-2025-08-17-23-02-27","","2179","","images/instructions/movie_2.png","0","",""
"","","","","","image-button-response","14","165134","0.0-6.0-1.0-2.1","EAEDBD6CC4E342278970CC7CF90FEBA0","EAEDBD6CC4E342278970CC7CF90FEBA0","0198ba22-7d58-7195-b852-43ccf01230c0","0198b9d0-29d4-7df3-8625-4b4515841beb","{""num_scrambled_semantic"":""8"",""num_scrambled_causal"":""4"",""num_scrambled_schematic"":""4"",""participantId"":""EAEDBD6CC4E342278970CC7CF90FEBA0"",""assignmentId"":""0198ba22-7d58-7195-b852-43ccf01230c0"",""projectId"":""0198b9d0-29d4-7df3-8625-4b4515841beb""}","https://test12345.live/?num_scrambled_semantic=8&num_scrambled_causal=4&num_scrambled_schematic=4&participantId=EAEDBD6CC4E342278970CC7CF90FEBA0&assignmentId=0198ba22-7d58-7195-b852-43ccf01230c0&projectId=0198b9d0-29d4-7df3-8625-4b4515841beb","EAEDBD6CC4E342278970CC7CF90FEBA0-2025-08-17-23-02-27","","null","","[]","null","",""
"","","","","","image-button-response","15","169648","0.0-6.0-1.0-0.2","EAEDBD6CC4E342278970CC7CF90FEBA0","EAEDBD6CC4E342278970CC7CF90FEBA0","0198ba22-7d58-7195-b852-43ccf01230c0","0198b9d0-29d4-7df3-8625-4b4515841beb","{""num_scrambled_semantic"":""8"",""num_scrambled_causal"":""4"",""num_scrambled_schematic"":""4"",""participantId"":""EAEDBD6CC4E342278970CC7CF90FEBA0"",""assignmentId"":""0198ba22-7d58-7195-b852-43ccf01230c0"",""projectId"":""0198b9d0-29d4-7df3-8625-4b4515841beb""}","https://test12345.live/?num_scrambled_semantic=8&num_scrambled_causal=4&num_scrambled_schematic=4&participantId=EAEDBD6CC4E342278970CC7CF90FEBA0&assignmentId=0198ba22-7d58-7195-b852-43ccf01230c0&projectId=0198b9d0-29d4-7df3-8625-4b4515841beb","EAEDBD6CC4E342278970CC7CF90FEBA0-2025-08-17-23-02-27","","null","","images/instructions/movie_3.png","null","",""
"","","","","","image-button-response","16","171966","0.0-6.0-1.0-1.2","EAEDBD6CC4E342278970CC7CF90FEBA0","EAEDBD6CC4E342278970CC7CF90FEBA0","0198ba22-7d58-7195-b852-43ccf01230c0","0198b9d0-29d4-7df3-8625-4b4515841beb","{""num_scrambled_semantic"":""8"",""num_scrambled_causal"":""4"",""num_scrambled_schematic"":""4"",""participantId"":""EAEDBD6CC4E342278970CC7CF90FEBA0"",""assignmentId"":""0198ba22-7d58-7195-b852-43ccf01230c0"",""projectId"":""0198b9d0-29d4-7df3-8625-4b4515841beb""}","https://test12345.live/?num_scrambled_semantic=8&num_scrambled_causal=4&num_scrambled_schematic=4&participantId=EAEDBD6CC4E342278970CC7CF90FEBA0&assignmentId=0198ba22-7d58-7195-b852-43ccf01230c0&projectId=0198b9d0-29d4-7df3-8625-4b4515841beb","EAEDBD6CC4E342278970CC7CF90FEBA0-2025-08-17-23-02-27","","2317","","images/instructions/movie_3.png","0","",""
"","","","","","image-button-response","17","177367","0.0-6.0-1.0-2.2","EAEDBD6CC4E342278970CC7CF90FEBA0","EAEDBD6CC4E342278970CC7CF90FEBA0","0198ba22-7d58-7195-b852-43ccf01230c0","0198b9d0-29d4-7df3-8625-4b4515841beb","{""num_scrambled_semantic"":""8"",""num_scrambled_causal"":""4"",""num_scrambled_schematic"":""4"",""participantId"":""EAEDBD6CC4E342278970CC7CF90FEBA0"",""assignmentId"":""0198ba22-7d58-7195-b852-43ccf01230c0"",""projectId"":""0198b9d0-29d4-7df3-8625-4b4515841beb""}","https://test12345.live/?num_scrambled_semantic=8&num_scrambled_causal=4&num_scrambled_schematic=4&participantId=EAEDBD6CC4E342278970CC7CF90FEBA0&assignmentId=0198ba22-7d58-7195-b852-43ccf01230c0&projectId=0198b9d0-29d4-7df3-8625-4b4515841beb","EAEDBD6CC4E342278970CC7CF90FEBA0-2025-08-17-23-02-27","","null","","[]","null","",""
"","","","","","image-button-response","18","181882","0.0-6.0-1.0-0.3","EAEDBD6CC4E342278970CC7CF90FEBA0","EAEDBD6CC4E342278970CC7CF90FEBA0","0198ba22-7d58-7195-b852-43ccf01230c0","0198b9d0-29d4-7df3-8625-4b4515841beb","{""num_scrambled_semantic"":""8"",""num_scrambled_causal"":""4"",""num_scrambled_schematic"":""4"",""participantId"":""EAEDBD6CC4E342278970CC7CF90FEBA0"",""assignmentId"":""0198ba22-7d58-7195-b852-43ccf01230c0"",""projectId"":""0198b9d0-29d4-7df3-8625-4b4515841beb""}","https://test12345.live/?num_scrambled_semantic=8&num_scrambled_causal=4&num_scrambled_schematic=4&participantId=EAEDBD6CC4E342278970CC7CF90FEBA0&assignmentId=0198ba22-7d58-7195-b852-43ccf01230c0&projectId=0198b9d0-29d4-7df3-8625-4b4515841beb","EAEDBD6CC4E342278970CC7CF90FEBA0-2025-08-17-23-02-27","","null","","images/instructions/movie_4.png","null","",""
"","","","","","image-button-response","19","183827","0.0-6.0-1.0-1.3","EAEDBD6CC4E342278970CC7CF90FEBA0","EAEDBD6CC4E342278970CC7CF90FEBA0","0198ba22-7d58-7195-b852-43ccf01230c0","0198b9d0-29d4-7df3-8625-4b4515841beb","{""num_scrambled_semantic"":""8"",""num_scrambled_causal"":""4"",""num_scrambled_schematic"":""4"",""participantId"":""EAEDBD6CC4E342278970CC7CF90FEBA0"",""assignmentId"":""0198ba22-7d58-7195-b852-43ccf01230c0"",""projectId"":""0198b9d0-29d4-7df3-8625-4b4515841beb""}","https://test12345.live/?num_scrambled_semantic=8&num_scrambled_causal=4&num_scrambled_schematic=4&participantId=EAEDBD6CC4E342278970CC7CF90FEBA0&assignmentId=0198ba22-7d58-7195-b852-43ccf01230c0&projectId=0198b9d0-29d4-7df3-8625-4b4515841beb","EAEDBD6CC4E342278970CC7CF90FEBA0-2025-08-17-23-02-27","","1943","","images/instructions/movie_4.png","0","",""
"","","","","","image-button-response","20","189238","0.0-6.0-1.0-2.3","EAEDBD6CC4E342278970CC7CF90FEBA0","EAEDBD6CC4E342278970CC7CF90FEBA0","0198ba22-7d58-7195-b852-43ccf01230c0","0198b9d0-29d4-7df3-8625-4b4515841beb","{""num_scrambled_semantic"":""8"",""num_scrambled_causal"":""4"",""num_scrambled_schematic"":""4"",""participantId"":""EAEDBD6CC4E342278970CC7CF90FEBA0"",""assignmentId"":""0198ba22-7d58-7195-b852-43ccf01230c0"",""projectId"":""0198b9d0-29d4-7df3-8625-4b4515841beb""}","https://test12345.live/?num_scrambled_semantic=8&num_scrambled_causal=4&num_scrambled_schematic=4&participantId=EAEDBD6CC4E342278970CC7CF90FEBA0&assignmentId=0198ba22-7d58-7195-b852-43ccf01230c0&projectId=0198b9d0-29d4-7df3-8625-4b4515841beb","EAEDBD6CC4E342278970CC7CF90FEBA0-2025-08-17-23-02-27","","null","","[]","null","",""
"","","","","","instructions","21","199132","0.0-7.0","EAEDBD6CC4E342278970CC7CF90FEBA0","EAEDBD6CC4E342278970CC7CF90FEBA0","0198ba22-7d58-7195-b852-43ccf01230c0","0198b9d0-29d4-7df3-8625-4b4515841beb","{""num_scrambled_semantic"":""8"",""num_scrambled_causal"":""4"",""num_scrambled_schematic"":""4"",""participantId"":""EAEDBD6CC4E342278970CC7CF90FEBA0"",""assignmentId"":""0198ba22-7d58-7195-b852-43ccf01230c0"",""projectId"":""0198b9d0-29d4-7df3-8625-4b4515841beb""}","https://test12345.live/?num_scrambled_semantic=8&num_scrambled_causal=4&num_scrambled_schematic=4&participantId=EAEDBD6CC4E342278970CC7CF90FEBA0&assignmentId=0198ba22-7d58-7195-b852-43ccf01230c0&projectId=0198b9d0-29d4-7df3-8625-4b4515841beb","EAEDBD6CC4E342278970CC7CF90FEBA0-2025-08-17-23-02-27","[{""page_index"":0,""viewing_time"":8321},{""page_index"":1,""viewing_time"":1571}]","9893","","","","",""
"","","","","","html-audio-response","22","235729","0.0-8.0","EAEDBD6CC4E342278970CC7CF90FEBA0","EAEDBD6CC4E342278970CC7CF90FEBA0","0198ba22-7d58-7195-b852-43ccf01230c0","0198b9d0-29d4-7df3-8625-4b4515841beb","{""num_scrambled_semantic"":""8"",""num_scrambled_causal"":""4"",""num_scrambled_schematic"":""4"",""participantId"":""EAEDBD6CC4E342278970CC7CF90FEBA0"",""assignmentId"":""0198ba22-7d58-7195-b852-43ccf01230c0"",""projectId"":""0198b9d0-29d4-7df3-8625-4b4515841beb""}","https://test12345.live/?num_scrambled_semantic=8&num_scrambled_causal=4&num_scrambled_schematic=4&participantId=EAEDBD6CC4E342278970CC7CF90FEBA0&assignmentId=0198ba22-7d58-7195-b852-43ccf01230c0&projectId=0198b9d0-29d4-7df3-8625-4b4515841beb","EAEDBD6CC4E342278970CC7CF90FEBA0-2025-08-17-23-02-27","","16314","","[""<span style=\""color: red; font-size: 24px\""> NOW RECORDING</span><p>Please say out loud all the images you saw, as many as you can remember. The images can be said in any order.</p>""]","","2",""
"","","","","","instructions","23","237724","0.0-9.0","EAEDBD6CC4E342278970CC7CF90FEBA0","EAEDBD6CC4E342278970CC7CF90FEBA0","0198ba22-7d58-7195-b852-43ccf01230c0","0198b9d0-29d4-7df3-8625-4b4515841beb","{""num_scrambled_semantic"":""8"",""num_scrambled_causal"":""4"",""num_scrambled_schematic"":""4"",""participantId"":""EAEDBD6CC4E342278970CC7CF90FEBA0"",""assignmentId"":""0198ba22-7d58-7195-b852-43ccf01230c0"",""projectId"":""0198b9d0-29d4-7df3-8625-4b4515841beb""}","https://test12345.live/?num_scrambled_semantic=8&num_scrambled_causal=4&num_scrambled_schematic=4&participantId=EAEDBD6CC4E342278970CC7CF90FEBA0&assignmentId=0198ba22-7d58-7195-b852-43ccf01230c0&projectId=0198b9d0-29d4-7df3-8625-4b4515841beb","EAEDBD6CC4E342278970CC7CF90FEBA0-2025-08-17-23-02-27","[{""page_index"":0,""viewing_time"":1989}]","1990","","","","",""
"","","","","","image-button-response","24","243738","0.0-10.0-0.0","EAEDBD6CC4E342278970CC7CF90FEBA0","EAEDBD6CC4E342278970CC7CF90FEBA0","0198ba22-7d58-7195-b852-43ccf01230c0","0198b9d0-29d4-7df3-8625-4b4515841beb","{""num_scrambled_semantic"":""8"",""num_scrambled_causal"":""4"",""num_scrambled_schematic"":""4"",""participantId"":""EAEDBD6CC4E342278970CC7CF90FEBA0"",""assignmentId"":""0198ba22-7d58-7195-b852-43ccf01230c0"",""projectId"":""0198b9d0-29d4-7df3-8625-4b4515841beb""}","https://test12345.live/?num_scrambled_semantic=8&num_scrambled_causal=4&num_scrambled_schematic=4&participantId=EAEDBD6CC4E342278970CC7CF90FEBA0&assignmentId=0198ba22-7d58-7195-b852-43ccf01230c0&projectId=0198b9d0-29d4-7df3-8625-4b4515841beb","EAEDBD6CC4E342278970CC7CF90FEBA0-2025-08-17-23-02-27","","null","","images/semantic_sequence/physical_activity_semantic/physical_activity_semantic_0.png","null","",""
"","","","","","image-button-response","25","248252","0.0-10.0-1.0-0.0","EAEDBD6CC4E342278970CC7CF90FEBA0","EAEDBD6CC4E342278970CC7CF90FEBA0","0198ba22-7d58-7195-b852-43ccf01230c0","0198b9d0-29d4-7df3-8625-4b4515841beb","{""num_scrambled_semantic"":""8"",""num_scrambled_causal"":""4"",""num_scrambled_schematic"":""4"",""participantId"":""EAEDBD6CC4E342278970CC7CF90FEBA0"",""assignmentId"":""0198ba22-7d58-7195-b852-43ccf01230c0"",""projectId"":""0198b9d0-29d4-7df3-8625-4b4515841beb""}","https://test12345.live/?num_scrambled_semantic=8&num_scrambled_causal=4&num_scrambled_schematic=4&participantId=EAEDBD6CC4E342278970CC7CF90FEBA0&assignmentId=0198ba22-7d58-7195-b852-43ccf01230c0&projectId=0198b9d0-29d4-7df3-8625-4b4515841beb","EAEDBD6CC4E342278970CC7CF90FEBA0-2025-08-17-23-02-27","","null","","images/semantic_sequence/physical_activity_semantic/physical_activity_semantic_7.png","null","",""
"","","","","","image-button-response","26","250330","0.0-10.0-1.0-1.0","EAEDBD6CC4E342278970CC7CF90FEBA0","EAEDBD6CC4E342278970CC7CF90FEBA0","0198ba22-7d58-7195-b852-43ccf01230c0","0198b9d0-29d4-7df3-8625-4b4515841beb","{""num_scrambled_semantic"":""8"",""num_scrambled_causal"":""4"",""num_scrambled_schematic"":""4"",""participantId"":""EAEDBD6CC4E342278970CC7CF90FEBA0"",""assignmentId"":""0198ba22-7d58-7195-b852-43ccf01230c0"",""projectId"":""0198b9d0-29d4-7df3-8625-4b4515841beb""}","https://test12345.live/?num_scrambled_semantic=8&num_scrambled_causal=4&num_scrambled_schematic=4&participantId=EAEDBD6CC4E342278970CC7CF90FEBA0&assignmentId=0198ba22-7d58-7195-b852-43ccf01230c0&projectId=0198b9d0-29d4-7df3-8625-4b4515841beb","EAEDBD6CC4E342278970CC7CF90FEBA0-2025-08-17-23-02-27","","2076","","images/semantic_sequence/physical_activity_semantic/physical_activity_semantic_7.png","0","",""
"","","","","","image-button-response","27","255738","0.0-10.0-1.0-2.0","EAEDBD6CC4E342278970CC7CF90FEBA0","EAEDBD6CC4E342278970CC7CF90FEBA0","0198ba22-7d58-7195-b852-43ccf01230c0","0198b9d0-29d4-7df3-8625-4b4515841beb","{""num_scrambled_semantic"":""8"",""num_scrambled_causal"":""4"",""num_scrambled_schematic"":""4"",""participantId"":""EAEDBD6CC4E342278970CC7CF90FEBA0"",""assignmentId"":""0198ba22-7d58-7195-b852-43ccf01230c0"",""projectId"":""0198b9d0-29d4-7df3-8625-4b4515841beb""}","https://test12345.live/?num_scrambled_semantic=8&num_scrambled_causal=4&num_scrambled_schematic=4&participantId=EAEDBD6CC4E342278970CC7CF90FEBA0&assignmentId=0198ba22-7d58-7195-b852-43ccf01230c0&projectId=0198b9d0-29d4-7df3-8625-4b4515841beb","EAEDBD6CC4E342278970CC7CF90FEBA0-2025-08-17-23-02-27","","null","","[]","null","",""
"","","","","","image-button-response","28","260252","0.0-10.0-1.0-0.1","EAEDBD6CC4E342278970CC7CF90FEBA0","EAEDBD6CC4E342278970CC7CF90FEBA0","0198ba22-7d58-7195-b852-43ccf01230c0","0198b9d0-29d4-7df3-8625-4b4515841beb","{""num_scrambled_semantic"":""8"",""num_scrambled_causal"":""4"",""num_scrambled_schematic"":""4"",""participantId"":""EAEDBD6CC4E342278970CC7CF90FEBA0"",""assignmentId"":""0198ba22-7d58-7195-b852-43ccf01230c0"",""projectId"":""0198b9d0-29d4-7df3-8625-4b4515841beb""}","https://test12345.live/?num_scrambled_semantic=8&num_scrambled_causal=4&num_scrambled_schematic=4&participantId=EAEDBD6CC4E342278970CC7CF90FEBA0&assignmentId=0198ba22-7d58-7195-b852-43ccf01230c0&projectId=0198b9d0-29d4-7df3-8625-4b4515841beb","EAEDBD6CC4E342278970CC7CF90FEBA0-2025-08-17-23-02-27","","null","","images/semantic_sequence/physical_activity_semantic/physical_activity_semantic_5.png","null","",""
"","","","","","image-button-response","29","262005","0.0-10.0-1.0-1.1","EAEDBD6CC4E342278970CC7CF90FEBA0","EAEDBD6CC4E342278970CC7CF90FEBA0","0198ba22-7d58-7195-b852-43ccf01230c0","0198b9d0-29d4-7df3-8625-4b4515841beb","{""num_scrambled_semantic"":""8"",""num_scrambled_causal"":""4"",""num_scrambled_schematic"":""4"",""participantId"":""EAEDBD6CC4E342278970CC7CF90FEBA0"",""assignmentId"":""0198ba22-7d58-7195-b852-43ccf01230c0"",""projectId"":""0198b9d0-29d4-7df3-8625-4b4515841beb""}","https://test12345.live/?num_scrambled_semantic=8&num_scrambled_causal=4&num_scrambled_schematic=4&participantId=EAEDBD6CC4E342278970CC7CF90FEBA0&assignmentId=0198ba22-7d58-7195-b852-43ccf01230c0&projectId=0198b9d0-29d4-7df3-8625-4b4515841beb","EAEDBD6CC4E342278970CC7CF90FEBA0-2025-08-17-23-02-27","","1751","","images/semantic_sequence/physical_activity_semantic/physical_activity_semantic_5.png","0","",""
"","","","","","image-button-response","30","267420","0.0-10.0-1.0-2.1","EAEDBD6CC4E342278970CC7CF90FEBA0","EAEDBD6CC4E342278970CC7CF90FEBA0","0198ba22-7d58-7195-b852-43ccf01230c0","0198b9d0-29d4-7df3-8625-4b4515841beb","{""num_scrambled_semantic"":""8"",""num_scrambled_causal"":""4"",""num_scrambled_schematic"":""4"",""participantId"":""EAEDBD6CC4E342278970CC7CF90FEBA0"",""assignmentId"":""0198ba22-7d58-7195-b852-43ccf01230c0"",""projectId"":""0198b9d0-29d4-7df3-8625-4b4515841beb""}","https://test12345.live/?num_scrambled_semantic=8&num_scrambled_causal=4&num_scrambled_schematic=4&participantId=EAEDBD6CC4E342278970CC7CF90FEBA0&assignmentId=0198ba22-7d58-7195-b852-43ccf01230c0&projectId=0198b9d0-29d4-7df3-8625-4b4515841beb","EAEDBD6CC4E342278970CC7CF90FEBA0-2025-08-17-23-02-27","","null","","[]","null","",""
"","","","","","image-button-response","31","271932","0.0-10.0-1.0-0.2","EAEDBD6CC4E342278970CC7CF90FEBA0","EAEDBD6CC4E342278970CC7CF90FEBA0","0198ba22-7d58-7195-b852-43ccf01230c0","0198b9d0-29d4-7df3-8625-4b4515841beb","{""num_scrambled_semantic"":""8"",""num_scrambled_causal"":""4"",""num_scrambled_schematic"":""4"",""participantId"":""EAEDBD6CC4E342278970CC7CF90FEBA0"",""assignmentId"":""0198ba22-7d58-7195-b852-43ccf01230c0"",""projectId"":""0198b9d0-29d4-7df3-8625-4b4515841beb""}","https://test12345.live/?num_scrambled_semantic=8&num_scrambled_causal=4&num_scrambled_schematic=4&participantId=EAEDBD6CC4E342278970CC7CF90FEBA0&assignmentId=0198ba22-7d58-7195-b852-43ccf01230c0&projectId=0198b9d0-29d4-7df3-8625-4b4515841beb","EAEDBD6CC4E342278970CC7CF90FEBA0-2025-08-17-23-02-27","","null","","images/semantic_sequence/physical_activity_semantic/physical_activity_semantic_1.png","null","",""
"","","","","","image-button-response","32","273816","0.0-10.0-1.0-1.2","EAEDBD6CC4E342278970CC7CF90FEBA0","EAEDBD6CC4E342278970CC7CF90FEBA0","0198ba22-7d58-7195-b852-43ccf01230c0","0198b9d0-29d4-7df3-8625-4b4515841beb","{""num_scrambled_semantic"":""8"",""num_scrambled_causal"":""4"",""num_scrambled_schematic"":""4"",""participantId"":""EAEDBD6CC4E342278970CC7CF90FEBA0"",""assignmentId"":""0198ba22-7d58-7195-b852-43ccf01230c0"",""projectId"":""0198b9d0-29d4-7df3-8625-4b4515841beb""}","https://test12345.live/?num_scrambled_semantic=8&num_scrambled_causal=4&num_scrambled_schematic=4&participantId=EAEDBD6CC4E342278970CC7CF90FEBA0&assignmentId=0198ba22-7d58-7195-b852-43ccf01230c0&projectId=0198b9d0-29d4-7df3-8625-4b4515841beb","EAEDBD6CC4E342278970CC7CF90FEBA0-2025-08-17-23-02-27","","1882","","images/semantic_sequence/physical_activity_semantic/physical_activity_semantic_1.png","0","",""
"","","","","","image-button-response","33","279225","0.0-10.0-1.0-2.2","EAEDBD6CC4E342278970CC7CF90FEBA0","EAEDBD6CC4E342278970CC7CF90FEBA0","0198ba22-7d58-7195-b852-43ccf01230c0","0198b9d0-29d4-7df3-8625-4b4515841beb","{""num_scrambled_semantic"":""8"",""num_scrambled_causal"":""4"",""num_scrambled_schematic"":""4"",""participantId"":""EAEDBD6CC4E342278970CC7CF90FEBA0"",""assignmentId"":""0198ba22-7d58-7195-b852-43ccf01230c0"",""projectId"":""0198b9d0-29d4-7df3-8625-4b4515841beb""}","https://test12345.live/?num_scrambled_semantic=8&num_scrambled_causal=4&num_scrambled_schematic=4&participantId=EAEDBD6CC4E342278970CC7CF90FEBA0&assignmentId=0198ba22-7d58-7195-b852-43ccf01230c0&projectId=0198b9d0-29d4-7df3-8625-4b4515841beb","EAEDBD6CC4E342278970CC7CF90FEBA0-2025-08-17-23-02-27","","null","","[]","null","",""
"","","","","","image-button-response","34","283733","0.0-10.0-1.0-0.3","EAEDBD6CC4E342278970CC7CF90FEBA0","EAEDBD6CC4E342278970CC7CF90FEBA0","0198ba22-7d58-7195-b852-43ccf01230c0","0198b9d0-29d4-7df3-8625-4b4515841beb","{""num_scrambled_semantic"":""8"",""num_scrambled_causal"":""4"",""num_scrambled_schematic"":""4"",""participantId"":""EAEDBD6CC4E342278970CC7CF90FEBA0"",""assignmentId"":""0198ba22-7d58-7195-b852-43ccf01230c0"",""projectId"":""0198b9d0-29d4-7df3-8625-4b4515841beb""}","https://test12345.live/?num_scrambled_semantic=8&num_scrambled_causal=4&num_scrambled_schematic=4&participantId=EAEDBD6CC4E342278970CC7CF90FEBA0&assignmentId=0198ba22-7d58-7195-b852-43ccf01230c0&projectId=0198b9d0-29d4-7df3-8625-4b4515841beb","EAEDBD6CC4E342278970CC7CF90FEBA0-2025-08-17-23-02-27","","null","","images/semantic_sequence/physical_activity_semantic/physical_activity_semantic_9.png","null","",""
"","","","","","image-button-response","35","285924","0.0-10.0-1.0-1.3","EAEDBD6CC4E342278970CC7CF90FEBA0","EAEDBD6CC4E342278970CC7CF90FEBA0","0198ba22-7d58-7195-b852-43ccf01230c0","0198b9d0-29d4-7df3-8625-4b4515841beb","{""num_scrambled_semantic"":""8"",""num_scrambled_causal"":""4"",""num_scrambled_schematic"":""4"",""participantId"":""EAEDBD6CC4E342278970CC7CF90FEBA0"",""assignmentId"":""0198ba22-7d58-7195-b852-43ccf01230c0"",""projectId"":""0198b9d0-29d4-7df3-8625-4b4515841beb""}","https://test12345.live/?num_scrambled_semantic=8&num_scrambled_causal=4&num_scrambled_schematic=4&participantId=EAEDBD6CC4E342278970CC7CF90FEBA0&assignmentId=0198ba22-7d58-7195-b852-43ccf01230c0&projectId=0198b9d0-29d4-7df3-8625-4b4515841beb","EAEDBD6CC4E342278970CC7CF90FEBA0-2025-08-17-23-02-27","","2190","","images/semantic_sequence/physical_activity_semantic/physical_activity_semantic_9.png","0","",""
"","","","","","image-button-response","36","291333","0.0-10.0-1.0-2.3","EAEDBD6CC4E342278970CC7CF90FEBA0","EAEDBD6CC4E342278970CC7CF90FEBA0","0198ba22-7d58-7195-b852-43ccf01230c0","0198b9d0-29d4-7df3-8625-4b4515841beb","{""num_scrambled_semantic"":""8"",""num_scrambled_causal"":""4"",""num_scrambled_schematic"":""4"",""participantId"":""EAEDBD6CC4E342278970CC7CF90FEBA0"",""assignmentId"":""0198ba22-7d58-7195-b852-43ccf01230c0"",""projectId"":""0198b9d0-29d4-7df3-8625-4b4515841beb""}","https://test12345.live/?num_scrambled_semantic=8&num_scrambled_causal=4&num_scrambled_schematic=4&participantId=EAEDBD6CC4E342278970CC7CF90FEBA0&assignmentId=0198ba22-7d58-7195-b852-43ccf01230c0&projectId=0198b9d0-29d4-7df3-8625-4b4515841beb","EAEDBD6CC4E342278970CC7CF90FEBA0-2025-08-17-23-02-27","","null","","[]","null","",""
"","","","","","image-button-response","37","295835","0.0-10.0-1.0-0.4","EAEDBD6CC4E342278970CC7CF90FEBA0","EAEDBD6CC4E342278970CC7CF90FEBA0","0198ba22-7d58-7195-b852-43ccf01230c0","0198b9d0-29d4-7df3-8625-4b4515841beb","{""num_scrambled_semantic"":""8"",""num_scrambled_causal"":""4"",""num_scrambled_schematic"":""4"",""participantId"":""EAEDBD6CC4E342278970CC7CF90FEBA0"",""assignmentId"":""0198ba22-7d58-7195-b852-43ccf01230c0"",""projectId"":""0198b9d0-29d4-7df3-8625-4b4515841beb""}","https://test12345.live/?num_scrambled_semantic=8&num_scrambled_causal=4&num_scrambled_schematic=4&participantId=EAEDBD6CC4E342278970CC7CF90FEBA0&assignmentId=0198ba22-7d58-7195-b852-43ccf01230c0&projectId=0198b9d0-29d4-7df3-8625-4b4515841beb","EAEDBD6CC4E342278970CC7CF90FEBA0-2025-08-17-23-02-27","","null","","images/semantic_sequence/physical_activity_semantic/physical_activity_semantic_3.png","null","",""
"","","","","","image-button-response","38","297016","0.0-10.0-1.0-1.4","EAEDBD6CC4E342278970CC7CF90FEBA0","EAEDBD6CC4E342278970CC7CF90FEBA0","0198ba22-7d58-7195-b852-43ccf01230c0","0198b9d0-29d4-7df3-8625-4b4515841beb","{""num_scrambled_semantic"":""8"",""num_scrambled_causal"":""4"",""num_scrambled_schematic"":""4"",""participantId"":""EAEDBD6CC4E342278970CC7CF90FEBA0"",""assignmentId"":""0198ba22-7d58-7195-b852-43ccf01230c0"",""projectId"":""0198b9d0-29d4-7df3-8625-4b4515841beb""}","https://test12345.live/?num_scrambled_semantic=8&num_scrambled_causal=4&num_scrambled_schematic=4&participantId=EAEDBD6CC4E342278970CC7CF90FEBA0&assignmentId=0198ba22-7d58-7195-b852-43ccf01230c0&projectId=0198b9d0-29d4-7df3-8625-4b4515841beb","EAEDBD6CC4E342278970CC7CF90FEBA0-2025-08-17-23-02-27","","1180","","images/semantic_sequence/physical_activity_semantic/physical_activity_semantic_3.png","0","",""
"","","","","","image-button-response","39","302425","0.0-10.0-1.0-2.4","EAEDBD6CC4E342278970CC7CF90FEBA0","EAEDBD6CC4E342278970CC7CF90FEBA0","0198ba22-7d58-7195-b852-43ccf01230c0","0198b9d0-29d4-7df3-8625-4b4515841beb","{""num_scrambled_semantic"":""8"",""num_scrambled_causal"":""4"",""num_scrambled_schematic"":""4"",""participantId"":""EAEDBD6CC4E342278970CC7CF90FEBA0"",""assignmentId"":""0198ba22-7d58-7195-b852-43ccf01230c0"",""projectId"":""0198b9d0-29d4-7df3-8625-4b4515841beb""}","https://test12345.live/?num_scrambled_semantic=8&num_scrambled_causal=4&num_scrambled_schematic=4&participantId=EAEDBD6CC4E342278970CC7CF90FEBA0&assignmentId=0198ba22-7d58-7195-b852-43ccf01230c0&projectId=0198b9d0-29d4-7df3-8625-4b4515841beb","EAEDBD6CC4E342278970CC7CF90FEBA0-2025-08-17-23-02-27","","null","","[]","null","",""
"","","","","","image-button-response","40","306928","0.0-10.0-1.0-0.5","EAEDBD6CC4E342278970CC7CF90FEBA0","EAEDBD6CC4E342278970CC7CF90FEBA0","0198ba22-7d58-7195-b852-43ccf01230c0","0198b9d0-29d4-7df3-8625-4b4515841beb","{""num_scrambled_semantic"":""8"",""num_scrambled_causal"":""4"",""num_scrambled_schematic"":""4"",""participantId"":""EAEDBD6CC4E342278970CC7CF90FEBA0"",""assignmentId"":""0198ba22-7d58-7195-b852-43ccf01230c0"",""projectId"":""0198b9d0-29d4-7df3-8625-4b4515841beb""}","https://test12345.live/?num_scrambled_semantic=8&num_scrambled_causal=4&num_scrambled_schematic=4&participantId=EAEDBD6CC4E342278970CC7CF90FEBA0&assignmentId=0198ba22-7d58-7195-b852-43ccf01230c0&projectId=0198b9d0-29d4-7df3-8625-4b4515841beb","EAEDBD6CC4E342278970CC7CF90FEBA0-2025-08-17-23-02-27","","null","","images/semantic_sequence/physical_activity_semantic/physical_activity_semantic_2.png","null","",""
"","","","","","image-button-response","41","308970","0.0-10.0-1.0-1.5","EAEDBD6CC4E342278970CC7CF90FEBA0","EAEDBD6CC4E342278970CC7CF90FEBA0","0198ba22-7d58-7195-b852-43ccf01230c0","0198b9d0-29d4-7df3-8625-4b4515841beb","{""num_scrambled_semantic"":""8"",""num_scrambled_causal"":""4"",""num_scrambled_schematic"":""4"",""participantId"":""EAEDBD6CC4E342278970CC7CF90FEBA0"",""assignmentId"":""0198ba22-7d58-7195-b852-43ccf01230c0"",""projectId"":""0198b9d0-29d4-7df3-8625-4b4515841beb""}","https://test12345.live/?num_scrambled_semantic=8&num_scrambled_causal=4&num_scrambled_schematic=4&participantId=EAEDBD6CC4E342278970CC7CF90FEBA0&assignmentId=0198ba22-7d58-7195-b852-43ccf01230c0&projectId=0198b9d0-29d4-7df3-8625-4b4515841beb","EAEDBD6CC4E342278970CC7CF90FEBA0-2025-08-17-23-02-27","","2039","","images/semantic_sequence/physical_activity_semantic/physical_activity_semantic_2.png","0","",""
"","","","","","image-button-response","42","314383","0.0-10.0-1.0-2.5","EAEDBD6CC4E342278970CC7CF90FEBA0","EAEDBD6CC4E342278970CC7CF90FEBA0","0198ba22-7d58-7195-b852-43ccf01230c0","0198b9d0-29d4-7df3-8625-4b4515841beb","{""num_scrambled_semantic"":""8"",""num_scrambled_causal"":""4"",""num_scrambled_schematic"":""4"",""participantId"":""EAEDBD6CC4E342278970CC7CF90FEBA0"",""assignmentId"":""0198ba22-7d58-7195-b852-43ccf01230c0"",""projectId"":""0198b9d0-29d4-7df3-8625-4b4515841beb""}","https://test12345.live/?num_scrambled_semantic=8&num_scrambled_causal=4&num_scrambled_schematic=4&participantId=EAEDBD6CC4E342278970CC7CF90FEBA0&assignmentId=0198ba22-7d58-7195-b852-43ccf01230c0&projectId=0198b9d0-29d4-7df3-8625-4b4515841beb","EAEDBD6CC4E342278970CC7CF90FEBA0-2025-08-17-23-02-27","","null","","[]","null","",""
"","","","","","image-button-response","43","318893","0.0-10.0-1.0-0.6","EAEDBD6CC4E342278970CC7CF90FEBA0","EAEDBD6CC4E342278970CC7CF90FEBA0","0198ba22-7d58-7195-b852-43ccf01230c0","0198b9d0-29d4-7df3-8625-4b4515841beb","{""num_scrambled_semantic"":""8"",""num_scrambled_causal"":""4"",""num_scrambled_schematic"":""4"",""participantId"":""EAEDBD6CC4E342278970CC7CF90FEBA0"",""assignmentId"":""0198ba22-7d58-7195-b852-43ccf01230c0"",""projectId"":""0198b9d0-29d4-7df3-8625-4b4515841beb""}","https://test12345.live/?num_scrambled_semantic=8&num_scrambled_causal=4&num_scrambled_schematic=4&participantId=EAEDBD6CC4E342278970CC7CF90FEBA0&assignmentId=0198ba22-7d58-7195-b852-43ccf01230c0&projectId=0198b9d0-29d4-7df3-8625-4b4515841beb","EAEDBD6CC4E342278970CC7CF90FEBA0-2025-08-17-23-02-27","","null","","images/semantic_sequence/physical_activity_semantic/physical_activity_semantic_4.png","null","",""
"","","","","","image-button-response","44","322902","0.0-10.0-1.0-1.6","EAEDBD6CC4E342278970CC7CF90FEBA0","EAEDBD6CC4E342278970CC7CF90FEBA0","0198ba22-7d58-7195-b852-43ccf01230c0","0198b9d0-29d4-7df3-8625-4b4515841beb","{""num_scrambled_semantic"":""8"",""num_scrambled_causal"":""4"",""num_scrambled_schematic"":""4"",""participantId"":""EAEDBD6CC4E342278970CC7CF90FEBA0"",""assignmentId"":""0198ba22-7d58-7195-b852-43ccf01230c0"",""projectId"":""0198b9d0-29d4-7df3-8625-4b4515841beb""}","https://test12345.live/?num_scrambled_semantic=8&num_scrambled_causal=4&num_scrambled_schematic=4&participantId=EAEDBD6CC4E342278970CC7CF90FEBA0&assignmentId=0198ba22-7d58-7195-b852-43ccf01230c0&projectId=0198b9d0-29d4-7df3-8625-4b4515841beb","EAEDBD6CC4E342278970CC7CF90FEBA0-2025-08-17-23-02-27","","null","","images/semantic_sequence/physical_activity_semantic/physical_activity_semantic_4.png","null","",""
"","","","","","image-button-response","45","328308","0.0-10.0-1.0-2.6","EAEDBD6CC4E342278970CC7CF90FEBA0","EAEDBD6CC4E342278970CC7CF90FEBA0","0198ba22-7d58-7195-b852-43ccf01230c0","0198b9d0-29d4-7df3-8625-4b4515841beb","{""num_scrambled_semantic"":""8"",""num_scrambled_causal"":""4"",""num_scrambled_schematic"":""4"",""participantId"":""EAEDBD6CC4E342278970CC7CF90FEBA0"",""assignmentId"":""0198ba22-7d58-7195-b852-43ccf01230c0"",""projectId"":""0198b9d0-29d4-7df3-8625-4b4515841beb""}","https://test12345.live/?num_scrambled_semantic=8&num_scrambled_causal=4&num_scrambled_schematic=4&participantId=EAEDBD6CC4E342278970CC7CF90FEBA0&assignmentId=0198ba22-7d58-7195-b852-43ccf01230c0&projectId=0198b9d0-29d4-7df3-8625-4b4515841beb","EAEDBD6CC4E342278970CC7CF90FEBA0-2025-08-17-23-02-27","","null","","[]","null","",""
"","","","","","image-button-response","46","332810","0.0-10.0-1.0-0.7","EAEDBD6CC4E342278970CC7CF90FEBA0","EAEDBD6CC4E342278970CC7CF90FEBA0","0198ba22-7d58-7195-b852-43ccf01230c0","0198b9d0-29d4-7df3-8625-4b4515841beb","{""num_scrambled_semantic"":""8"",""num_scrambled_causal"":""4"",""num_scrambled_schematic"":""4"",""participantId"":""EAEDBD6CC4E342278970CC7CF90FEBA0"",""assignmentId"":""0198ba22-7d58-7195-b852-43ccf01230c0"",""projectId"":""0198b9d0-29d4-7df3-8625-4b4515841beb""}","https://test12345.live/?num_scrambled_semantic=8&num_scrambled_causal=4&num_scrambled_schematic=4&participantId=EAEDBD6CC4E342278970CC7CF90FEBA0&assignmentId=0198ba22-7d58-7195-b852-43ccf01230c0&projectId=0198b9d0-29d4-7df3-8625-4b4515841beb","EAEDBD6CC4E342278970CC7CF90FEBA0-2025-08-17-23-02-27","","null","","images/semantic_sequence/physical_activity_semantic/physical_activity_semantic_ten.png","null","",""
"","","","","","image-button-response","47","334198","0.0-10.0-1.0-1.7","EAEDBD6CC4E342278970CC7CF90FEBA0","EAEDBD6CC4E342278970CC7CF90FEBA0","0198ba22-7d58-7195-b852-43ccf01230c0","0198b9d0-29d4-7df3-8625-4b4515841beb","{""num_scrambled_semantic"":""8"",""num_scrambled_causal"":""4"",""num_scrambled_schematic"":""4"",""participantId"":""EAEDBD6CC4E342278970CC7CF90FEBA0"",""assignmentId"":""0198ba22-7d58-7195-b852-43ccf01230c0"",""projectId"":""0198b9d0-29d4-7df3-8625-4b4515841beb""}","https://test12345.live/?num_scrambled_semantic=8&num_scrambled_causal=4&num_scrambled_schematic=4&participantId=EAEDBD6CC4E342278970CC7CF90FEBA0&assignmentId=0198ba22-7d58-7195-b852-43ccf01230c0&projectId=0198b9d0-29d4-7df3-8625-4b4515841beb","EAEDBD6CC4E342278970CC7CF90FEBA0-2025-08-17-23-02-27","","1386","","images/semantic_sequence/physical_activity_semantic/physical_activity_semantic_ten.png","0","",""
"","","","","","image-button-response","48","339601","0.0-10.0-1.0-2.7","EAEDBD6CC4E342278970CC7CF90FEBA0","EAEDBD6CC4E342278970CC7CF90FEBA0","0198ba22-7d58-7195-b852-43ccf01230c0","0198b9d0-29d4-7df3-8625-4b4515841beb","{""num_scrambled_semantic"":""8"",""num_scrambled_causal"":""4"",""num_scrambled_schematic"":""4"",""participantId"":""EAEDBD6CC4E342278970CC7CF90FEBA0"",""assignmentId"":""0198ba22-7d58-7195-b852-43ccf01230c0"",""projectId"":""0198b9d0-29d4-7df3-8625-4b4515841beb""}","https://test12345.live/?num_scrambled_semantic=8&num_scrambled_causal=4&num_scrambled_schematic=4&participantId=EAEDBD6CC4E342278970CC7CF90FEBA0&assignmentId=0198ba22-7d58-7195-b852-43ccf01230c0&projectId=0198b9d0-29d4-7df3-8625-4b4515841beb","EAEDBD6CC4E342278970CC7CF90FEBA0-2025-08-17-23-02-27","","null","","[]","null","",""
"","","","","","image-button-response","49","344112","0.0-10.0-1.0-0.8","EAEDBD6CC4E342278970CC7CF90FEBA0","EAEDBD6CC4E342278970CC7CF90FEBA0","0198ba22-7d58-7195-b852-43ccf01230c0","0198b9d0-29d4-7df3-8625-4b4515841beb","{""num_scrambled_semantic"":""8"",""num_scrambled_causal"":""4"",""num_scrambled_schematic"":""4"",""participantId"":""EAEDBD6CC4E342278970CC7CF90FEBA0"",""assignmentId"":""0198ba22-7d58-7195-b852-43ccf01230c0"",""projectId"":""0198b9d0-29d4-7df3-8625-4b4515841beb""}","https://test12345.live/?num_scrambled_semantic=8&num_scrambled_causal=4&num_scrambled_schematic=4&participantId=EAEDBD6CC4E342278970CC7CF90FEBA0&assignmentId=0198ba22-7d58-7195-b852-43ccf01230c0&projectId=0198b9d0-29d4-7df3-8625-4b4515841beb","EAEDBD6CC4E342278970CC7CF90FEBA0-2025-08-17-23-02-27","","null","","images/semantic_sequence/physical_activity_semantic/physical_activity_semantic_6.png","null","",""
"","","","","","image-button-response","50","345812","0.0-10.0-1.0-1.8","EAEDBD6CC4E342278970CC7CF90FEBA0","EAEDBD6CC4E342278970CC7CF90FEBA0","0198ba22-7d58-7195-b852-43ccf01230c0","0198b9d0-29d4-7df3-8625-4b4515841beb","{""num_scrambled_semantic"":""8"",""num_scrambled_causal"":""4"",""num_scrambled_schematic"":""4"",""participantId"":""EAEDBD6CC4E342278970CC7CF90FEBA0"",""assignmentId"":""0198ba22-7d58-7195-b852-43ccf01230c0"",""projectId"":""0198b9d0-29d4-7df3-8625-4b4515841beb""}","https://test12345.live/?num_scrambled_semantic=8&num_scrambled_causal=4&num_scrambled_schematic=4&participantId=EAEDBD6CC4E342278970CC7CF90FEBA0&assignmentId=0198ba22-7d58-7195-b852-43ccf01230c0&projectId=0198b9d0-29d4-7df3-8625-4b4515841beb","EAEDBD6CC4E342278970CC7CF90FEBA0-2025-08-17-23-02-27","","1698","","images/semantic_sequence/physical_activity_semantic/physical_activity_semantic_6.png","0","",""
"","","","","","image-button-response","51","351215","0.0-10.0-1.0-2.8","EAEDBD6CC4E342278970CC7CF90FEBA0","EAEDBD6CC4E342278970CC7CF90FEBA0","0198ba22-7d58-7195-b852-43ccf01230c0","0198b9d0-29d4-7df3-8625-4b4515841beb","{""num_scrambled_semantic"":""8"",""num_scrambled_causal"":""4"",""num_scrambled_schematic"":""4"",""participantId"":""EAEDBD6CC4E342278970CC7CF90FEBA0"",""assignmentId"":""0198ba22-7d58-7195-b852-43ccf01230c0"",""projectId"":""0198b9d0-29d4-7df3-8625-4b4515841beb""}","https://test12345.live/?num_scrambled_semantic=8&num_scrambled_causal=4&num_scrambled_schematic=4&participantId=EAEDBD6CC4E342278970CC7CF90FEBA0&assignmentId=0198ba22-7d58-7195-b852-43ccf01230c0&projectId=0198b9d0-29d4-7df3-8625-4b4515841beb","EAEDBD6CC4E342278970CC7CF90FEBA0-2025-08-17-23-02-27","","null","","[]","null","",""
"","","","","","image-button-response","52","355722","0.0-10.0-1.0-0.9","EAEDBD6CC4E342278970CC7CF90FEBA0","EAEDBD6CC4E342278970CC7CF90FEBA0","0198ba22-7d58-7195-b852-43ccf01230c0","0198b9d0-29d4-7df3-8625-4b4515841beb","{""num_scrambled_semantic"":""8"",""num_scrambled_causal"":""4"",""num_scrambled_schematic"":""4"",""participantId"":""EAEDBD6CC4E342278970CC7CF90FEBA0"",""assignmentId"":""0198ba22-7d58-7195-b852-43ccf01230c0"",""projectId"":""0198b9d0-29d4-7df3-8625-4b4515841beb""}","https://test12345.live/?num_scrambled_semantic=8&num_scrambled_causal=4&num_scrambled_schematic=4&participantId=EAEDBD6CC4E342278970CC7CF90FEBA0&assignmentId=0198ba22-7d58-7195-b852-43ccf01230c0&projectId=0198b9d0-29d4-7df3-8625-4b4515841beb","EAEDBD6CC4E342278970CC7CF90FEBA0-2025-08-17-23-02-27","","null","","images/semantic_sequence/physical_activity_semantic/physical_activity_semantic_8.png","null","",""
"","","","","","image-button-response","53","357035","0.0-10.0-1.0-1.9","EAEDBD6CC4E342278970CC7CF90FEBA0","EAEDBD6CC4E342278970CC7CF90FEBA0","0198ba22-7d58-7195-b852-43ccf01230c0","0198b9d0-29d4-7df3-8625-4b4515841beb","{""num_scrambled_semantic"":""8"",""num_scrambled_causal"":""4"",""num_scrambled_schematic"":""4"",""participantId"":""EAEDBD6CC4E342278970CC7CF90FEBA0"",""assignmentId"":""0198ba22-7d58-7195-b852-43ccf01230c0"",""projectId"":""0198b9d0-29d4-7df3-8625-4b4515841beb""}","https://test12345.live/?num_scrambled_semantic=8&num_scrambled_causal=4&num_scrambled_schematic=4&participantId=EAEDBD6CC4E342278970CC7CF90FEBA0&assignmentId=0198ba22-7d58-7195-b852-43ccf01230c0&projectId=0198b9d0-29d4-7df3-8625-4b4515841beb","EAEDBD6CC4E342278970CC7CF90FEBA0-2025-08-17-23-02-27","","1312","","images/semantic_sequence/physical_activity_semantic/physical_activity_semantic_8.png","0","",""
"","","","","","image-button-response","54","362448","0.0-10.0-1.0-2.9","EAEDBD6CC4E342278970CC7CF90FEBA0","EAEDBD6CC4E342278970CC7CF90FEBA0","0198ba22-7d58-7195-b852-43ccf01230c0","0198b9d0-29d4-7df3-8625-4b4515841beb","{""num_scrambled_semantic"":""8"",""num_scrambled_causal"":""4"",""num_scrambled_schematic"":""4"",""participantId"":""EAEDBD6CC4E342278970CC7CF90FEBA0"",""assignmentId"":""0198ba22-7d58-7195-b852-43ccf01230c0"",""projectId"":""0198b9d0-29d4-7df3-8625-4b4515841beb""}","https://test12345.live/?num_scrambled_semantic=8&num_scrambled_causal=4&num_scrambled_schematic=4&participantId=EAEDBD6CC4E342278970CC7CF90FEBA0&assignmentId=0198ba22-7d58-7195-b852-43ccf01230c0&projectId=0198b9d0-29d4-7df3-8625-4b4515841beb","EAEDBD6CC4E342278970CC7CF90FEBA0-2025-08-17-23-02-27","","null","","[]","null","",""
"","","","","","html-audio-response","55","415399","0.0-11.0","EAEDBD6CC4E342278970CC7CF90FEBA0","EAEDBD6CC4E342278970CC7CF90FEBA0","0198ba22-7d58-7195-b852-43ccf01230c0","0198b9d0-29d4-7df3-8625-4b4515841beb","{""num_scrambled_semantic"":""8"",""num_scrambled_causal"":""4"",""num_scrambled_schematic"":""4"",""participantId"":""EAEDBD6CC4E342278970CC7CF90FEBA0"",""assignmentId"":""0198ba22-7d58-7195-b852-43ccf01230c0"",""projectId"":""0198b9d0-29d4-7df3-8625-4b4515841beb""}","https://test12345.live/?num_scrambled_semantic=8&num_scrambled_causal=4&num_scrambled_schematic=4&participantId=EAEDBD6CC4E342278970CC7CF90FEBA0&assignmentId=0198ba22-7d58-7195-b852-43ccf01230c0&projectId=0198b9d0-29d4-7df3-8625-4b4515841beb","EAEDBD6CC4E342278970CC7CF90FEBA0-2025-08-17-23-02-27","","27995","","[""<span style=\""color: red; font-size: 24px\""> NOW RECORDING</span><p>Please say out loud all the images you saw, as many as you can remember. The images can be said in any order.</p>""]","","2","physical_activity_semantic"
"","","","","","image-button-response","56","421413","0.0-12.0-0.0","EAEDBD6CC4E342278970CC7CF90FEBA0","EAEDBD6CC4E342278970CC7CF90FEBA0","0198ba22-7d58-7195-b852-43ccf01230c0","0198b9d0-29d4-7df3-8625-4b4515841beb","{""num_scrambled_semantic"":""8"",""num_scrambled_causal"":""4"",""num_scrambled_schematic"":""4"",""participantId"":""EAEDBD6CC4E342278970CC7CF90FEBA0"",""assignmentId"":""0198ba22-7d58-7195-b852-43ccf01230c0"",""projectId"":""0198b9d0-29d4-7df3-8625-4b4515841beb""}","https://test12345.live/?num_scrambled_semantic=8&num_scrambled_causal=4&num_scrambled_schematic=4&participantId=EAEDBD6CC4E342278970CC7CF90FEBA0&assignmentId=0198ba22-7d58-7195-b852-43ccf01230c0&projectId=0198b9d0-29d4-7df3-8625-4b4515841beb","EAEDBD6CC4E342278970CC7CF90FEBA0-2025-08-17-23-02-27","","null","","images/causal_sequence/dog_causal/dog_causal_0.png","null","",""
"","","","","","image-button-response","57","425923","0.0-12.0-1.0-0.0","EAEDBD6CC4E342278970CC7CF90FEBA0","EAEDBD6CC4E342278970CC7CF90FEBA0","0198ba22-7d58-7195-b852-43ccf01230c0","0198b9d0-29d4-7df3-8625-4b4515841beb","{""num_scrambled_semantic"":""8"",""num_scrambled_causal"":""4"",""num_scrambled_schematic"":""4"",""participantId"":""EAEDBD6CC4E342278970CC7CF90FEBA0"",""assignmentId"":""0198ba22-7d58-7195-b852-43ccf01230c0"",""projectId"":""0198b9d0-29d4-7df3-8625-4b4515841beb""}","https://test12345.live/?num_scrambled_semantic=8&num_scrambled_causal=4&num_scrambled_schematic=4&participantId=EAEDBD6CC4E342278970CC7CF90FEBA0&assignmentId=0198ba22-7d58-7195-b852-43ccf01230c0&projectId=0198b9d0-29d4-7df3-8625-4b4515841beb","EAEDBD6CC4E342278970CC7CF90FEBA0-2025-08-17-23-02-27","","null","","images/causal_sequence/dog_causal/dog_causal_3.png","null","",""
"","","","","","image-button-response","58","427390","0.0-12.0-1.0-1.0","EAEDBD6CC4E342278970CC7CF90FEBA0","EAEDBD6CC4E342278970CC7CF90FEBA0","0198ba22-7d58-7195-b852-43ccf01230c0","0198b9d0-29d4-7df3-8625-4b4515841beb","{""num_scrambled_semantic"":""8"",""num_scrambled_causal"":""4"",""num_scrambled_schematic"":""4"",""participantId"":""EAEDBD6CC4E342278970CC7CF90FEBA0"",""assignmentId"":""0198ba22-7d58-7195-b852-43ccf01230c0"",""projectId"":""0198b9d0-29d4-7df3-8625-4b4515841beb""}","https://test12345.live/?num_scrambled_semantic=8&num_scrambled_causal=4&num_scrambled_schematic=4&participantId=EAEDBD6CC4E342278970CC7CF90FEBA0&assignmentId=0198ba22-7d58-7195-b852-43ccf01230c0&projectId=0198b9d0-29d4-7df3-8625-4b4515841beb","EAEDBD6CC4E342278970CC7CF90FEBA0-2025-08-17-23-02-27","","1465","","images/causal_sequence/dog_causal/dog_causal_3.png","0","",""
"","","","","","image-button-response","59","432807","0.0-12.0-1.0-2.0","EAEDBD6CC4E342278970CC7CF90FEBA0","EAEDBD6CC4E342278970CC7CF90FEBA0","0198ba22-7d58-7195-b852-43ccf01230c0","0198b9d0-29d4-7df3-8625-4b4515841beb","{""num_scrambled_semantic"":""8"",""num_scrambled_causal"":""4"",""num_scrambled_schematic"":""4"",""participantId"":""EAEDBD6CC4E342278970CC7CF90FEBA0"",""assignmentId"":""0198ba22-7d58-7195-b852-43ccf01230c0"",""projectId"":""0198b9d0-29d4-7df3-8625-4b4515841beb""}","https://test12345.live/?num_scrambled_semantic=8&num_scrambled_causal=4&num_scrambled_schematic=4&participantId=EAEDBD6CC4E342278970CC7CF90FEBA0&assignmentId=0198ba22-7d58-7195-b852-43ccf01230c0&projectId=0198b9d0-29d4-7df3-8625-4b4515841beb","EAEDBD6CC4E342278970CC7CF90FEBA0-2025-08-17-23-02-27","","null","","[]","null","",""
"","","","","","image-button-response","60","437325","0.0-12.0-1.0-0.1","EAEDBD6CC4E342278970CC7CF90FEBA0","EAEDBD6CC4E342278970CC7CF90FEBA0","0198ba22-7d58-7195-b852-43ccf01230c0","0198b9d0-29d4-7df3-8625-4b4515841beb","{""num_scrambled_semantic"":""8"",""num_scrambled_causal"":""4"",""num_scrambled_schematic"":""4"",""participantId"":""EAEDBD6CC4E342278970CC7CF90FEBA0"",""assignmentId"":""0198ba22-7d58-7195-b852-43ccf01230c0"",""projectId"":""0198b9d0-29d4-7df3-8625-4b4515841beb""}","https://test12345.live/?num_scrambled_semantic=8&num_scrambled_causal=4&num_scrambled_schematic=4&participantId=EAEDBD6CC4E342278970CC7CF90FEBA0&assignmentId=0198ba22-7d58-7195-b852-43ccf01230c0&projectId=0198b9d0-29d4-7df3-8625-4b4515841beb","EAEDBD6CC4E342278970CC7CF90FEBA0-2025-08-17-23-02-27","","null","","images/causal_sequence/dog_causal/dog_causal_9.png","null","",""
"","","","","","image-button-response","61","438369","0.0-12.0-1.0-1.1","EAEDBD6CC4E342278970CC7CF90FEBA0","EAEDBD6CC4E342278970CC7CF90FEBA0","0198ba22-7d58-7195-b852-43ccf01230c0","0198b9d0-29d4-7df3-8625-4b4515841beb","{""num_scrambled_semantic"":""8"",""num_scrambled_causal"":""4"",""num_scrambled_schematic"":""4"",""participantId"":""EAEDBD6CC4E342278970CC7CF90FEBA0"",""assignmentId"":""0198ba22-7d58-7195-b852-43ccf01230c0"",""projectId"":""0198b9d0-29d4-7df3-8625-4b4515841beb""}","https://test12345.live/?num_scrambled_semantic=8&num_scrambled_causal=4&num_scrambled_schematic=4&participantId=EAEDBD6CC4E342278970CC7CF90FEBA0&assignmentId=0198ba22-7d58-7195-b852-43ccf01230c0&projectId=0198b9d0-29d4-7df3-8625-4b4515841beb","EAEDBD6CC4E342278970CC7CF90FEBA0-2025-08-17-23-02-27","","1042","","images/causal_sequence/dog_causal/dog_causal_9.png","0","",""
"","","","","","image-button-response","62","443776","0.0-12.0-1.0-2.1","EAEDBD6CC4E342278970CC7CF90FEBA0","EAEDBD6CC4E342278970CC7CF90FEBA0","0198ba22-7d58-7195-b852-43ccf01230c0","0198b9d0-29d4-7df3-8625-4b4515841beb","{""num_scrambled_semantic"":""8"",""num_scrambled_causal"":""4"",""num_scrambled_schematic"":""4"",""participantId"":""EAEDBD6CC4E342278970CC7CF90FEBA0"",""assignmentId"":""0198ba22-7d58-7195-b852-43ccf01230c0"",""projectId"":""0198b9d0-29d4-7df3-8625-4b4515841beb""}","https://test12345.live/?num_scrambled_semantic=8&num_scrambled_causal=4&num_scrambled_schematic=4&participantId=EAEDBD6CC4E342278970CC7CF90FEBA0&assignmentId=0198ba22-7d58-7195-b852-43ccf01230c0&projectId=0198b9d0-29d4-7df3-8625-4b4515841beb","EAEDBD6CC4E342278970CC7CF90FEBA0-2025-08-17-23-02-27","","null","","[]","null","",""
"","","","","","image-button-response","63","448291","0.0-12.0-1.0-0.2","EAEDBD6CC4E342278970CC7CF90FEBA0","EAEDBD6CC4E342278970CC7CF90FEBA0","0198ba22-7d58-7195-b852-43ccf01230c0","0198b9d0-29d4-7df3-8625-4b4515841beb","{""num_scrambled_semantic"":""8"",""num_scrambled_causal"":""4"",""num_scrambled_schematic"":""4"",""participantId"":""EAEDBD6CC4E342278970CC7CF90FEBA0"",""assignmentId"":""0198ba22-7d58-7195-b852-43ccf01230c0"",""projectId"":""0198b9d0-29d4-7df3-8625-4b4515841beb""}","https://test12345.live/?num_scrambled_semantic=8&num_scrambled_causal=4&num_scrambled_schematic=4&participantId=EAEDBD6CC4E342278970CC7CF90FEBA0&assignmentId=0198ba22-7d58-7195-b852-43ccf01230c0&projectId=0198b9d0-29d4-7df3-8625-4b4515841beb","EAEDBD6CC4E342278970CC7CF90FEBA0-2025-08-17-23-02-27","","null","","images/causal_sequence/dog_causal/dog_causal_2.png","null","",""
"","","","","","image-button-response","64","450353","0.0-12.0-1.0-1.2","EAEDBD6CC4E342278970CC7CF90FEBA0","EAEDBD6CC4E342278970CC7CF90FEBA0","0198ba22-7d58-7195-b852-43ccf01230c0","0198b9d0-29d4-7df3-8625-4b4515841beb","{""num_scrambled_semantic"":""8"",""num_scrambled_causal"":""4"",""num_scrambled_schematic"":""4"",""participantId"":""EAEDBD6CC4E342278970CC7CF90FEBA0"",""assignmentId"":""0198ba22-7d58-7195-b852-43ccf01230c0"",""projectId"":""0198b9d0-29d4-7df3-8625-4b4515841beb""}","https://test12345.live/?num_scrambled_semantic=8&num_scrambled_causal=4&num_scrambled_schematic=4&participantId=EAEDBD6CC4E342278970CC7CF90FEBA0&assignmentId=0198ba22-7d58-7195-b852-43ccf01230c0&projectId=0198b9d0-29d4-7df3-8625-4b4515841beb","EAEDBD6CC4E342278970CC7CF90FEBA0-2025-08-17-23-02-27","","2061","","images/causal_sequence/dog_causal/dog_causal_2.png","0","",""
"","","","","","image-button-response","65","455766","0.0-12.0-1.0-2.2","EAEDBD6CC4E342278970CC7CF90FEBA0","EAEDBD6CC4E342278970CC7CF90FEBA0","0198ba22-7d58-7195-b852-43ccf01230c0","0198b9d0-29d4-7df3-8625-4b4515841beb","{""num_scrambled_semantic"":""8"",""num_scrambled_causal"":""4"",""num_scrambled_schematic"":""4"",""participantId"":""EAEDBD6CC4E342278970CC7CF90FEBA0"",""assignmentId"":""0198ba22-7d58-7195-b852-43ccf01230c0"",""projectId"":""0198b9d0-29d4-7df3-8625-4b4515841beb""}","https://test12345.live/?num_scrambled_semantic=8&num_scrambled_causal=4&num_scrambled_schematic=4&participantId=EAEDBD6CC4E342278970CC7CF90FEBA0&assignmentId=0198ba22-7d58-7195-b852-43ccf01230c0&projectId=0198b9d0-29d4-7df3-8625-4b4515841beb","EAEDBD6CC4E342278970CC7CF90FEBA0-2025-08-17-23-02-27","","null","","[]","null","",""
"","","","","","image-button-response","66","460269","0.0-12.0-1.0-0.3","EAEDBD6CC4E342278970CC7CF90FEBA0","EAEDBD6CC4E342278970CC7CF90FEBA0","0198ba22-7d58-7195-b852-43ccf01230c0","0198b9d0-29d4-7df3-8625-4b4515841beb","{""num_scrambled_semantic"":""8"",""num_scrambled_causal"":""4"",""num_scrambled_schematic"":""4"",""participantId"":""EAEDBD6CC4E342278970CC7CF90FEBA0"",""assignmentId"":""0198ba22-7d58-7195-b852-43ccf01230c0"",""projectId"":""0198b9d0-29d4-7df3-8625-4b4515841beb""}","https://test12345.live/?num_scrambled_semantic=8&num_scrambled_causal=4&num_scrambled_schematic=4&participantId=EAEDBD6CC4E342278970CC7CF90FEBA0&assignmentId=0198ba22-7d58-7195-b852-43ccf01230c0&projectId=0198b9d0-29d4-7df3-8625-4b4515841beb","EAEDBD6CC4E342278970CC7CF90FEBA0-2025-08-17-23-02-27","","null","","images/causal_sequence/dog_causal/dog_causal_4.png","null","",""
"","","","","","image-button-response","67","461539","0.0-12.0-1.0-1.3","EAEDBD6CC4E342278970CC7CF90FEBA0","EAEDBD6CC4E342278970CC7CF90FEBA0","0198ba22-7d58-7195-b852-43ccf01230c0","0198b9d0-29d4-7df3-8625-4b4515841beb","{""num_scrambled_semantic"":""8"",""num_scrambled_causal"":""4"",""num_scrambled_schematic"":""4"",""participantId"":""EAEDBD6CC4E342278970CC7CF90FEBA0"",""assignmentId"":""0198ba22-7d58-7195-b852-43ccf01230c0"",""projectId"":""0198b9d0-29d4-7df3-8625-4b4515841beb""}","https://test12345.live/?num_scrambled_semantic=8&num_scrambled_causal=4&num_scrambled_schematic=4&participantId=EAEDBD6CC4E342278970CC7CF90FEBA0&assignmentId=0198ba22-7d58-7195-b852-43ccf01230c0&projectId=0198b9d0-29d4-7df3-8625-4b4515841beb","EAEDBD6CC4E342278970CC7CF90FEBA0-2025-08-17-23-02-27","","1269","","images/causal_sequence/dog_causal/dog_causal_4.png","0","",""
"","","","","","image-button-response","68","466941","0.0-12.0-1.0-2.3","EAEDBD6CC4E342278970CC7CF90FEBA0","EAEDBD6CC4E342278970CC7CF90FEBA0","0198ba22-7d58-7195-b852-43ccf01230c0","0198b9d0-29d4-7df3-8625-4b4515841beb","{""num_scrambled_semantic"":""8"",""num_scrambled_causal"":""4"",""num_scrambled_schematic"":""4"",""participantId"":""EAEDBD6CC4E342278970CC7CF90FEBA0"",""assignmentId"":""0198ba22-7d58-7195-b852-43ccf01230c0"",""projectId"":""0198b9d0-29d4-7df3-8625-4b4515841beb""}","https://test12345.live/?num_scrambled_semantic=8&num_scrambled_causal=4&num_scrambled_schematic=4&participantId=EAEDBD6CC4E342278970CC7CF90FEBA0&assignmentId=0198ba22-7d58-7195-b852-43ccf01230c0&projectId=0198b9d0-29d4-7df3-8625-4b4515841beb","EAEDBD6CC4E342278970CC7CF90FEBA0-2025-08-17-23-02-27","","null","","[]","null","",""
"","","","","","image-button-response","69","471452","0.0-12.0-1.0-0.4","EAEDBD6CC4E342278970CC7CF90FEBA0","EAEDBD6CC4E342278970CC7CF90FEBA0","0198ba22-7d58-7195-b852-43ccf01230c0","0198b9d0-29d4-7df3-8625-4b4515841beb","{""num_scrambled_semantic"":""8"",""num_scrambled_causal"":""4"",""num_scrambled_schematic"":""4"",""participantId"":""EAEDBD6CC4E342278970CC7CF90FEBA0"",""assignmentId"":""0198ba22-7d58-7195-b852-43ccf01230c0"",""projectId"":""0198b9d0-29d4-7df3-8625-4b4515841beb""}","https://test12345.live/?num_scrambled_semantic=8&num_scrambled_causal=4&num_scrambled_schematic=4&participantId=EAEDBD6CC4E342278970CC7CF90FEBA0&assignmentId=0198ba22-7d58-7195-b852-43ccf01230c0&projectId=0198b9d0-29d4-7df3-8625-4b4515841beb","EAEDBD6CC4E342278970CC7CF90FEBA0-2025-08-17-23-02-27","","null","","images/causal_sequence/dog_causal/dog_causal_7.png","null","",""
"","","","","","image-button-response","70","472297","0.0-12.0-1.0-1.4","EAEDBD6CC4E342278970CC7CF90FEBA0","EAEDBD6CC4E342278970CC7CF90FEBA0","0198ba22-7d58-7195-b852-43ccf01230c0","0198b9d0-29d4-7df3-8625-4b4515841beb","{""num_scrambled_semantic"":""8"",""num_scrambled_causal"":""4"",""num_scrambled_schematic"":""4"",""participantId"":""EAEDBD6CC4E342278970CC7CF90FEBA0"",""assignmentId"":""0198ba22-7d58-7195-b852-43ccf01230c0"",""projectId"":""0198b9d0-29d4-7df3-8625-4b4515841beb""}","https://test12345.live/?num_scrambled_semantic=8&num_scrambled_causal=4&num_scrambled_schematic=4&participantId=EAEDBD6CC4E342278970CC7CF90FEBA0&assignmentId=0198ba22-7d58-7195-b852-43ccf01230c0&projectId=0198b9d0-29d4-7df3-8625-4b4515841beb","EAEDBD6CC4E342278970CC7CF90FEBA0-2025-08-17-23-02-27","","842","","images/causal_sequence/dog_causal/dog_causal_7.png","0","",""
"","","","","","image-button-response","71","477710","0.0-12.0-1.0-2.4","EAEDBD6CC4E342278970CC7CF90FEBA0","EAEDBD6CC4E342278970CC7CF90FEBA0","0198ba22-7d58-7195-b852-43ccf01230c0","0198b9d0-29d4-7df3-8625-4b4515841beb","{""num_scrambled_semantic"":""8"",""num_scrambled_causal"":""4"",""num_scrambled_schematic"":""4"",""participantId"":""EAEDBD6CC4E342278970CC7CF90FEBA0"",""assignmentId"":""0198ba22-7d58-7195-b852-43ccf01230c0"",""projectId"":""0198b9d0-29d4-7df3-8625-4b4515841beb""}","https://test12345.live/?num_scrambled_semantic=8&num_scrambled_causal=4&num_scrambled_schematic=4&participantId=EAEDBD6CC4E342278970CC7CF90FEBA0&assignmentId=0198ba22-7d58-7195-b852-43ccf01230c0&projectId=0198b9d0-29d4-7df3-8625-4b4515841beb","EAEDBD6CC4E342278970CC7CF90FEBA0-2025-08-17-23-02-27","","null","","[]","null","",""
"","","","","","image-button-response","72","482221","0.0-12.0-1.0-0.5","EAEDBD6CC4E342278970CC7CF90FEBA0","EAEDBD6CC4E342278970CC7CF90FEBA0","0198ba22-7d58-7195-b852-43ccf01230c0","0198b9d0-29d4-7df3-8625-4b4515841beb","{""num_scrambled_semantic"":""8"",""num_scrambled_causal"":""4"",""num_scrambled_schematic"":""4"",""participantId"":""EAEDBD6CC4E342278970CC7CF90FEBA0"",""assignmentId"":""0198ba22-7d58-7195-b852-43ccf01230c0"",""projectId"":""0198b9d0-29d4-7df3-8625-4b4515841beb""}","https://test12345.live/?num_scrambled_semantic=8&num_scrambled_causal=4&num_scrambled_schematic=4&participantId=EAEDBD6CC4E342278970CC7CF90FEBA0&assignmentId=0198ba22-7d58-7195-b852-43ccf01230c0&projectId=0198b9d0-29d4-7df3-8625-4b4515841beb","EAEDBD6CC4E342278970CC7CF90FEBA0-2025-08-17-23-02-27","","null","","images/causal_sequence/dog_causal/dog_causal_8.png","null","",""
"","","","","","image-button-response","73","483860","0.0-12.0-1.0-1.5","EAEDBD6CC4E342278970CC7CF90FEBA0","EAEDBD6CC4E342278970CC7CF90FEBA0","0198ba22-7d58-7195-b852-43ccf01230c0","0198b9d0-29d4-7df3-8625-4b4515841beb","{""num_scrambled_semantic"":""8"",""num_scrambled_causal"":""4"",""num_scrambled_schematic"":""4"",""participantId"":""EAEDBD6CC4E342278970CC7CF90FEBA0"",""assignmentId"":""0198ba22-7d58-7195-b852-43ccf01230c0"",""projectId"":""0198b9d0-29d4-7df3-8625-4b4515841beb""}","https://test12345.live/?num_scrambled_semantic=8&num_scrambled_causal=4&num_scrambled_schematic=4&participantId=EAEDBD6CC4E342278970CC7CF90FEBA0&assignmentId=0198ba22-7d58-7195-b852-43ccf01230c0&projectId=0198b9d0-29d4-7df3-8625-4b4515841beb","EAEDBD6CC4E342278970CC7CF90FEBA0-2025-08-17-23-02-27","","1637","","images/causal_sequence/dog_causal/dog_causal_8.png","0","",""
"","","","","","image-button-response","74","489269","0.0-12.0-1.0-2.5","EAEDBD6CC4E342278970CC7CF90FEBA0","EAEDBD6CC4E342278970CC7CF90FEBA0","0198ba22-7d58-7195-b852-43ccf01230c0","0198b9d0-29d4-7df3-8625-4b4515841beb","{""num_scrambled_semantic"":""8"",""num_scrambled_causal"":""4"",""num_scrambled_schematic"":""4"",""participantId"":""EAEDBD6CC4E342278970CC7CF90FEBA0"",""assignmentId"":""0198ba22-7d58-7195-b852-43ccf01230c0"",""projectId"":""0198b9d0-29d4-7df3-8625-4b4515841beb""}","https://test12345.live/?num_scrambled_semantic=8&num_scrambled_causal=4&num_scrambled_schematic=4&participantId=EAEDBD6CC4E342278970CC7CF90FEBA0&assignmentId=0198ba22-7d58-7195-b852-43ccf01230c0&projectId=0198b9d0-29d4-7df3-8625-4b4515841beb","EAEDBD6CC4E342278970CC7CF90FEBA0-2025-08-17-23-02-27","","null","","[]","null","",""
"","","","","","image-button-response","75","493779","0.0-12.0-1.0-0.6","EAEDBD6CC4E342278970CC7CF90FEBA0","EAEDBD6CC4E342278970CC7CF90FEBA0","0198ba22-7d58-7195-b852-43ccf01230c0","0198b9d0-29d4-7df3-8625-4b4515841beb","{""num_scrambled_semantic"":""8"",""num_scrambled_causal"":""4"",""num_scrambled_schematic"":""4"",""participantId"":""EAEDBD6CC4E342278970CC7CF90FEBA0"",""assignmentId"":""0198ba22-7d58-7195-b852-43ccf01230c0"",""projectId"":""0198b9d0-29d4-7df3-8625-4b4515841beb""}","https://test12345.live/?num_scrambled_semantic=8&num_scrambled_causal=4&num_scrambled_schematic=4&participantId=EAEDBD6CC4E342278970CC7CF90FEBA0&assignmentId=0198ba22-7d58-7195-b852-43ccf01230c0&projectId=0198b9d0-29d4-7df3-8625-4b4515841beb","EAEDBD6CC4E342278970CC7CF90FEBA0-2025-08-17-23-02-27","","null","","images/causal_sequence/dog_causal/dog_causal_6.png","null","",""
"","","","","","image-button-response","76","496055","0.0-12.0-1.0-1.6","EAEDBD6CC4E342278970CC7CF90FEBA0","EAEDBD6CC4E342278970CC7CF90FEBA0","0198ba22-7d58-7195-b852-43ccf01230c0","0198b9d0-29d4-7df3-8625-4b4515841beb","{""num_scrambled_semantic"":""8"",""num_scrambled_causal"":""4"",""num_scrambled_schematic"":""4"",""participantId"":""EAEDBD6CC4E342278970CC7CF90FEBA0"",""assignmentId"":""0198ba22-7d58-7195-b852-43ccf01230c0"",""projectId"":""0198b9d0-29d4-7df3-8625-4b4515841beb""}","https://test12345.live/?num_scrambled_semantic=8&num_scrambled_causal=4&num_scrambled_schematic=4&participantId=EAEDBD6CC4E342278970CC7CF90FEBA0&assignmentId=0198ba22-7d58-7195-b852-43ccf01230c0&projectId=0198b9d0-29d4-7df3-8625-4b4515841beb","EAEDBD6CC4E342278970CC7CF90FEBA0-2025-08-17-23-02-27","","2275","","images/causal_sequence/dog_causal/dog_causal_6.png","0","",""
"","","","","","image-button-response","77","501472","0.0-12.0-1.0-2.6","EAEDBD6CC4E342278970CC7CF90FEBA0","EAEDBD6CC4E342278970CC7CF90FEBA0","0198ba22-7d58-7195-b852-43ccf01230c0","0198b9d0-29d4-7df3-8625-4b4515841beb","{""num_scrambled_semantic"":""8"",""num_scrambled_causal"":""4"",""num_scrambled_schematic"":""4"",""participantId"":""EAEDBD6CC4E342278970CC7CF90FEBA0"",""assignmentId"":""0198ba22-7d58-7195-b852-43ccf01230c0"",""projectId"":""0198b9d0-29d4-7df3-8625-4b4515841beb""}","https://test12345.live/?num_scrambled_semantic=8&num_scrambled_causal=4&num_scrambled_schematic=4&participantId=EAEDBD6CC4E342278970CC7CF90FEBA0&assignmentId=0198ba22-7d58-7195-b852-43ccf01230c0&projectId=0198b9d0-29d4-7df3-8625-4b4515841beb","EAEDBD6CC4E342278970CC7CF90FEBA0-2025-08-17-23-02-27","","null","","[]","null","",""
"","","","","","image-button-response","78","505988","0.0-12.0-1.0-0.7","EAEDBD6CC4E342278970CC7CF90FEBA0","EAEDBD6CC4E342278970CC7CF90FEBA0","0198ba22-7d58-7195-b852-43ccf01230c0","0198b9d0-29d4-7df3-8625-4b4515841beb","{""num_scrambled_semantic"":""8"",""num_scrambled_causal"":""4"",""num_scrambled_schematic"":""4"",""participantId"":""EAEDBD6CC4E342278970CC7CF90FEBA0"",""assignmentId"":""0198ba22-7d58-7195-b852-43ccf01230c0"",""projectId"":""0198b9d0-29d4-7df3-8625-4b4515841beb""}","https://test12345.live/?num_scrambled_semantic=8&num_scrambled_causal=4&num_scrambled_schematic=4&participantId=EAEDBD6CC4E342278970CC7CF90FEBA0&assignmentId=0198ba22-7d58-7195-b852-43ccf01230c0&projectId=0198b9d0-29d4-7df3-8625-4b4515841beb","EAEDBD6CC4E342278970CC7CF90FEBA0-2025-08-17-23-02-27","","null","","images/causal_sequence/dog_causal/dog_causal_ten.png","null","",""
"","","","","","image-button-response","79","507736","0.0-12.0-1.0-1.7","EAEDBD6CC4E342278970CC7CF90FEBA0","EAEDBD6CC4E342278970CC7CF90FEBA0","0198ba22-7d58-7195-b852-43ccf01230c0","0198b9d0-29d4-7df3-8625-4b4515841beb","{""num_scrambled_semantic"":""8"",""num_scrambled_causal"":""4"",""num_scrambled_schematic"":""4"",""participantId"":""EAEDBD6CC4E342278970CC7CF90FEBA0"",""assignmentId"":""0198ba22-7d58-7195-b852-43ccf01230c0"",""projectId"":""0198b9d0-29d4-7df3-8625-4b4515841beb""}","https://test12345.live/?num_scrambled_semantic=8&num_scrambled_causal=4&num_scrambled_schematic=4&participantId=EAEDBD6CC4E342278970CC7CF90FEBA0&assignmentId=0198ba22-7d58-7195-b852-43ccf01230c0&projectId=0198b9d0-29d4-7df3-8625-4b4515841beb","EAEDBD6CC4E342278970CC7CF90FEBA0-2025-08-17-23-02-27","","1746","","images/causal_sequence/dog_causal/dog_causal_ten.png","0","",""
"","","","","","image-button-response","80","513137","0.0-12.0-1.0-2.7","EAEDBD6CC4E342278970CC7CF90FEBA0","EAEDBD6CC4E342278970CC7CF90FEBA0","0198ba22-7d58-7195-b852-43ccf01230c0","0198b9d0-29d4-7df3-8625-4b4515841beb","{""num_scrambled_semantic"":""8"",""num_scrambled_causal"":""4"",""num_scrambled_schematic"":""4"",""participantId"":""EAEDBD6CC4E342278970CC7CF90FEBA0"",""assignmentId"":""0198ba22-7d58-7195-b852-43ccf01230c0"",""projectId"":""0198b9d0-29d4-7df3-8625-4b4515841beb""}","https://test12345.live/?num_scrambled_semantic=8&num_scrambled_causal=4&num_scrambled_schematic=4&participantId=EAEDBD6CC4E342278970CC7CF90FEBA0&assignmentId=0198ba22-7d58-7195-b852-43ccf01230c0&projectId=0198b9d0-29d4-7df3-8625-4b4515841beb","EAEDBD6CC4E342278970CC7CF90FEBA0-2025-08-17-23-02-27","","null","","[]","null","",""
"","","","","","image-button-response","81","517641","0.0-12.0-1.0-0.8","EAEDBD6CC4E342278970CC7CF90FEBA0","EAEDBD6CC4E342278970CC7CF90FEBA0","0198ba22-7d58-7195-b852-43ccf01230c0","0198b9d0-29d4-7df3-8625-4b4515841beb","{""num_scrambled_semantic"":""8"",""num_scrambled_causal"":""4"",""num_scrambled_schematic"":""4"",""participantId"":""EAEDBD6CC4E342278970CC7CF90FEBA0"",""assignmentId"":""0198ba22-7d58-7195-b852-43ccf01230c0"",""projectId"":""0198b9d0-29d4-7df3-8625-4b4515841beb""}","https://test12345.live/?num_scrambled_semantic=8&num_scrambled_causal=4&num_scrambled_schematic=4&participantId=EAEDBD6CC4E342278970CC7CF90FEBA0&assignmentId=0198ba22-7d58-7195-b852-43ccf01230c0&projectId=0198b9d0-29d4-7df3-8625-4b4515841beb","EAEDBD6CC4E342278970CC7CF90FEBA0-2025-08-17-23-02-27","","null","","images/causal_sequence/dog_causal/dog_causal_1.png","null","",""
"","","","","","image-button-response","82","519399","0.0-12.0-1.0-1.8","EAEDBD6CC4E342278970CC7CF90FEBA0","EAEDBD6CC4E342278970CC7CF90FEBA0","0198ba22-7d58-7195-b852-43ccf01230c0","0198b9d0-29d4-7df3-8625-4b4515841beb","{""num_scrambled_semantic"":""8"",""num_scrambled_causal"":""4"",""num_scrambled_schematic"":""4"",""participantId"":""EAEDBD6CC4E342278970CC7CF90FEBA0"",""assignmentId"":""0198ba22-7d58-7195-b852-43ccf01230c0"",""projectId"":""0198b9d0-29d4-7df3-8625-4b4515841beb""}","https://test12345.live/?num_scrambled_semantic=8&num_scrambled_causal=4&num_scrambled_schematic=4&participantId=EAEDBD6CC4E342278970CC7CF90FEBA0&assignmentId=0198ba22-7d58-7195-b852-43ccf01230c0&projectId=0198b9d0-29d4-7df3-8625-4b4515841beb","EAEDBD6CC4E342278970CC7CF90FEBA0-2025-08-17-23-02-27","","1757","","images/causal_sequence/dog_causal/dog_causal_1.png","0","",""
"","","","","","image-button-response","83","524813","0.0-12.0-1.0-2.8","EAEDBD6CC4E342278970CC7CF90FEBA0","EAEDBD6CC4E342278970CC7CF90FEBA0","0198ba22-7d58-7195-b852-43ccf01230c0","0198b9d0-29d4-7df3-8625-4b4515841beb","{""num_scrambled_semantic"":""8"",""num_scrambled_causal"":""4"",""num_scrambled_schematic"":""4"",""participantId"":""EAEDBD6CC4E342278970CC7CF90FEBA0"",""assignmentId"":""0198ba22-7d58-7195-b852-43ccf01230c0"",""projectId"":""0198b9d0-29d4-7df3-8625-4b4515841beb""}","https://test12345.live/?num_scrambled_semantic=8&num_scrambled_causal=4&num_scrambled_schematic=4&participantId=EAEDBD6CC4E342278970CC7CF90FEBA0&assignmentId=0198ba22-7d58-7195-b852-43ccf01230c0&projectId=0198b9d0-29d4-7df3-8625-4b4515841beb","EAEDBD6CC4E342278970CC7CF90FEBA0-2025-08-17-23-02-27","","null","","[]","null","",""
"","","","","","image-button-response","84","529327","0.0-12.0-1.0-0.9","EAEDBD6CC4E342278970CC7CF90FEBA0","EAEDBD6CC4E342278970CC7CF90FEBA0","0198ba22-7d58-7195-b852-43ccf01230c0","0198b9d0-29d4-7df3-8625-4b4515841beb","{""num_scrambled_semantic"":""8"",""num_scrambled_causal"":""4"",""num_scrambled_schematic"":""4"",""participantId"":""EAEDBD6CC4E342278970CC7CF90FEBA0"",""assignmentId"":""0198ba22-7d58-7195-b852-43ccf01230c0"",""projectId"":""0198b9d0-29d4-7df3-8625-4b4515841beb""}","https://test12345.live/?num_scrambled_semantic=8&num_scrambled_causal=4&num_scrambled_schematic=4&participantId=EAEDBD6CC4E342278970CC7CF90FEBA0&assignmentId=0198ba22-7d58-7195-b852-43ccf01230c0&projectId=0198b9d0-29d4-7df3-8625-4b4515841beb","EAEDBD6CC4E342278970CC7CF90FEBA0-2025-08-17-23-02-27","","null","","images/causal_sequence/dog_causal/dog_causal_5.png","null","",""
"","","","","","image-button-response","85","531168","0.0-12.0-1.0-1.9","EAEDBD6CC4E342278970CC7CF90FEBA0","EAEDBD6CC4E342278970CC7CF90FEBA0","0198ba22-7d58-7195-b852-43ccf01230c0","0198b9d0-29d4-7df3-8625-4b4515841beb","{""num_scrambled_semantic"":""8"",""num_scrambled_causal"":""4"",""num_scrambled_schematic"":""4"",""participantId"":""EAEDBD6CC4E342278970CC7CF90FEBA0"",""assignmentId"":""0198ba22-7d58-7195-b852-43ccf01230c0"",""projectId"":""0198b9d0-29d4-7df3-8625-4b4515841beb""}","https://test12345.live/?num_scrambled_semantic=8&num_scrambled_causal=4&num_scrambled_schematic=4&participantId=EAEDBD6CC4E342278970CC7CF90FEBA0&assignmentId=0198ba22-7d58-7195-b852-43ccf01230c0&projectId=0198b9d0-29d4-7df3-8625-4b4515841beb","EAEDBD6CC4E342278970CC7CF90FEBA0-2025-08-17-23-02-27","","1840","","images/causal_sequence/dog_causal/dog_causal_5.png","0","",""
"","","","","","image-button-response","86","536575","0.0-12.0-1.0-2.9","EAEDBD6CC4E342278970CC7CF90FEBA0","EAEDBD6CC4E342278970CC7CF90FEBA0","0198ba22-7d58-7195-b852-43ccf01230c0","0198b9d0-29d4-7df3-8625-4b4515841beb","{""num_scrambled_semantic"":""8"",""num_scrambled_causal"":""4"",""num_scrambled_schematic"":""4"",""participantId"":""EAEDBD6CC4E342278970CC7CF90FEBA0"",""assignmentId"":""0198ba22-7d58-7195-b852-43ccf01230c0"",""projectId"":""0198b9d0-29d4-7df3-8625-4b4515841beb""}","https://test12345.live/?num_scrambled_semantic=8&num_scrambled_causal=4&num_scrambled_schematic=4&participantId=EAEDBD6CC4E342278970CC7CF90FEBA0&assignmentId=0198ba22-7d58-7195-b852-43ccf01230c0&projectId=0198b9d0-29d4-7df3-8625-4b4515841beb","EAEDBD6CC4E342278970CC7CF90FEBA0-2025-08-17-23-02-27","","null","","[]","null","",""
"","","","","","html-audio-response","87","578470","0.0-13.0","EAEDBD6CC4E342278970CC7CF90FEBA0","EAEDBD6CC4E342278970CC7CF90FEBA0","0198ba22-7d58-7195-b852-43ccf01230c0","0198b9d0-29d4-7df3-8625-4b4515841beb","{""num_scrambled_semantic"":""8"",""num_scrambled_causal"":""4"",""num_scrambled_schematic"":""4"",""participantId"":""EAEDBD6CC4E342278970CC7CF90FEBA0"",""assignmentId"":""0198ba22-7d58-7195-b852-43ccf01230c0"",""projectId"":""0198b9d0-29d4-7df3-8625-4b4515841beb""}","https://test12345.live/?num_scrambled_semantic=8&num_scrambled_causal=4&num_scrambled_schematic=4&participantId=EAEDBD6CC4E342278970CC7CF90FEBA0&assignmentId=0198ba22-7d58-7195-b852-43ccf01230c0&projectId=0198b9d0-29d4-7df3-8625-4b4515841beb","EAEDBD6CC4E342278970CC7CF90FEBA0-2025-08-17-23-02-27","","33182","","[""<span style=\""color: red; font-size: 24px\""> NOW RECORDING</span><p>Please say out loud all the images you saw, as many as you can remember. The images can be said in any order.</p>""]","","2","dog_causal"
"","","","","","image-button-response","88","584491","0.0-14.0-0.0","EAEDBD6CC4E342278970CC7CF90FEBA0","EAEDBD6CC4E342278970CC7CF90FEBA0","0198ba22-7d58-7195-b852-43ccf01230c0","0198b9d0-29d4-7df3-8625-4b4515841beb","{""num_scrambled_semantic"":""8"",""num_scrambled_causal"":""4"",""num_scrambled_schematic"":""4"",""participantId"":""EAEDBD6CC4E342278970CC7CF90FEBA0"",""assignmentId"":""0198ba22-7d58-7195-b852-43ccf01230c0"",""projectId"":""0198b9d0-29d4-7df3-8625-4b4515841beb""}","https://test12345.live/?num_scrambled_semantic=8&num_scrambled_causal=4&num_scrambled_schematic=4&participantId=EAEDBD6CC4E342278970CC7CF90FEBA0&assignmentId=0198ba22-7d58-7195-b852-43ccf01230c0&projectId=0198b9d0-29d4-7df3-8625-4b4515841beb","EAEDBD6CC4E342278970CC7CF90FEBA0-2025-08-17-23-02-27","","null","","images/causal_sequence/package_causal/package_causal_0.png","null","",""
"","","","","","image-button-response","89","588998","0.0-14.0-1.0-0.0","EAEDBD6CC4E342278970CC7CF90FEBA0","EAEDBD6CC4E342278970CC7CF90FEBA0","0198ba22-7d58-7195-b852-43ccf01230c0","0198b9d0-29d4-7df3-8625-4b4515841beb","{""num_scrambled_semantic"":""8"",""num_scrambled_causal"":""4"",""num_scrambled_schematic"":""4"",""participantId"":""EAEDBD6CC4E342278970CC7CF90FEBA0"",""assignmentId"":""0198ba22-7d58-7195-b852-43ccf01230c0"",""projectId"":""0198b9d0-29d4-7df3-8625-4b4515841beb""}","https://test12345.live/?num_scrambled_semantic=8&num_scrambled_causal=4&num_scrambled_schematic=4&participantId=EAEDBD6CC4E342278970CC7CF90FEBA0&assignmentId=0198ba22-7d58-7195-b852-43ccf01230c0&projectId=0198b9d0-29d4-7df3-8625-4b4515841beb","EAEDBD6CC4E342278970CC7CF90FEBA0-2025-08-17-23-02-27","","null","","images/causal_sequence/package_causal/package_causal_8.png","null","",""
"","","","","","image-button-response","90","591180","0.0-14.0-1.0-1.0","EAEDBD6CC4E342278970CC7CF90FEBA0","EAEDBD6CC4E342278970CC7CF90FEBA0","0198ba22-7d58-7195-b852-43ccf01230c0","0198b9d0-29d4-7df3-8625-4b4515841beb","{""num_scrambled_semantic"":""8"",""num_scrambled_causal"":""4"",""num_scrambled_schematic"":""4"",""participantId"":""EAEDBD6CC4E342278970CC7CF90FEBA0"",""assignmentId"":""0198ba22-7d58-7195-b852-43ccf01230c0"",""projectId"":""0198b9d0-29d4-7df3-8625-4b4515841beb""}","https://test12345.live/?num_scrambled_semantic=8&num_scrambled_causal=4&num_scrambled_schematic=4&participantId=EAEDBD6CC4E342278970CC7CF90FEBA0&assignmentId=0198ba22-7d58-7195-b852-43ccf01230c0&projectId=0198b9d0-29d4-7df3-8625-4b4515841beb","EAEDBD6CC4E342278970CC7CF90FEBA0-2025-08-17-23-02-27","","2181","","images/causal_sequence/package_causal/package_causal_8.png","0","",""
"","","","","","image-button-response","91","596591","0.0-14.0-1.0-2.0","EAEDBD6CC4E342278970CC7CF90FEBA0","EAEDBD6CC4E342278970CC7CF90FEBA0","0198ba22-7d58-7195-b852-43ccf01230c0","0198b9d0-29d4-7df3-8625-4b4515841beb","{""num_scrambled_semantic"":""8"",""num_scrambled_causal"":""4"",""num_scrambled_schematic"":""4"",""participantId"":""EAEDBD6CC4E342278970CC7CF90FEBA0"",""assignmentId"":""0198ba22-7d58-7195-b852-43ccf01230c0"",""projectId"":""0198b9d0-29d4-7df3-8625-4b4515841beb""}","https://test12345.live/?num_scrambled_semantic=8&num_scrambled_causal=4&num_scrambled_schematic=4&participantId=EAEDBD6CC4E342278970CC7CF90FEBA0&assignmentId=0198ba22-7d58-7195-b852-43ccf01230c0&projectId=0198b9d0-29d4-7df3-8625-4b4515841beb","EAEDBD6CC4E342278970CC7CF90FEBA0-2025-08-17-23-02-27","","null","","[]","null","",""
"","","","","","image-button-response","92","601093","0.0-14.0-1.0-0.1","EAEDBD6CC4E342278970CC7CF90FEBA0","EAEDBD6CC4E342278970CC7CF90FEBA0","0198ba22-7d58-7195-b852-43ccf01230c0","0198b9d0-29d4-7df3-8625-4b4515841beb","{""num_scrambled_semantic"":""8"",""num_scrambled_causal"":""4"",""num_scrambled_schematic"":""4"",""participantId"":""EAEDBD6CC4E342278970CC7CF90FEBA0"",""assignmentId"":""0198ba22-7d58-7195-b852-43ccf01230c0"",""projectId"":""0198b9d0-29d4-7df3-8625-4b4515841beb""}","https://test12345.live/?num_scrambled_semantic=8&num_scrambled_causal=4&num_scrambled_schematic=4&participantId=EAEDBD6CC4E342278970CC7CF90FEBA0&assignmentId=0198ba22-7d58-7195-b852-43ccf01230c0&projectId=0198b9d0-29d4-7df3-8625-4b4515841beb","EAEDBD6CC4E342278970CC7CF90FEBA0-2025-08-17-23-02-27","","null","","images/causal_sequence/package_causal/package_causal_1.png","null","",""
"","","","","","image-button-response","93","602834","0.0-14.0-1.0-1.1","EAEDBD6CC4E342278970CC7CF90FEBA0","EAEDBD6CC4E342278970CC7CF90FEBA0","0198ba22-7d58-7195-b852-43ccf01230c0","0198b9d0-29d4-7df3-8625-4b4515841beb","{""num_scrambled_semantic"":""8"",""num_scrambled_causal"":""4"",""num_scrambled_schematic"":""4"",""participantId"":""EAEDBD6CC4E342278970CC7CF90FEBA0"",""assignmentId"":""0198ba22-7d58-7195-b852-43ccf01230c0"",""projectId"":""0198b9d0-29d4-7df3-8625-4b4515841beb""}","https://test12345.live/?num_scrambled_semantic=8&num_scrambled_causal=4&num_scrambled_schematic=4&participantId=EAEDBD6CC4E342278970CC7CF90FEBA0&assignmentId=0198ba22-7d58-7195-b852-43ccf01230c0&projectId=0198b9d0-29d4-7df3-8625-4b4515841beb","EAEDBD6CC4E342278970CC7CF90FEBA0-2025-08-17-23-02-27","","1740","","images/causal_sequence/package_causal/package_causal_1.png","0","",""
"","","","","","image-button-response","94","608239","0.0-14.0-1.0-2.1","EAEDBD6CC4E342278970CC7CF90FEBA0","EAEDBD6CC4E342278970CC7CF90FEBA0","0198ba22-7d58-7195-b852-43ccf01230c0","0198b9d0-29d4-7df3-8625-4b4515841beb","{""num_scrambled_semantic"":""8"",""num_scrambled_causal"":""4"",""num_scrambled_schematic"":""4"",""participantId"":""EAEDBD6CC4E342278970CC7CF90FEBA0"",""assignmentId"":""0198ba22-7d58-7195-b852-43ccf01230c0"",""projectId"":""0198b9d0-29d4-7df3-8625-4b4515841beb""}","https://test12345.live/?num_scrambled_semantic=8&num_scrambled_causal=4&num_scrambled_schematic=4&participantId=EAEDBD6CC4E342278970CC7CF90FEBA0&assignmentId=0198ba22-7d58-7195-b852-43ccf01230c0&projectId=0198b9d0-29d4-7df3-8625-4b4515841beb","EAEDBD6CC4E342278970CC7CF90FEBA0-2025-08-17-23-02-27","","null","","[]","null","",""
"","","","","","image-button-response","95","612745","0.0-14.0-1.0-0.2","EAEDBD6CC4E342278970CC7CF90FEBA0","EAEDBD6CC4E342278970CC7CF90FEBA0","0198ba22-7d58-7195-b852-43ccf01230c0","0198b9d0-29d4-7df3-8625-4b4515841beb","{""num_scrambled_semantic"":""8"",""num_scrambled_causal"":""4"",""num_scrambled_schematic"":""4"",""participantId"":""EAEDBD6CC4E342278970CC7CF90FEBA0"",""assignmentId"":""0198ba22-7d58-7195-b852-43ccf01230c0"",""projectId"":""0198b9d0-29d4-7df3-8625-4b4515841beb""}","https://test12345.live/?num_scrambled_semantic=8&num_scrambled_causal=4&num_scrambled_schematic=4&participantId=EAEDBD6CC4E342278970CC7CF90FEBA0&assignmentId=0198ba22-7d58-7195-b852-43ccf01230c0&projectId=0198b9d0-29d4-7df3-8625-4b4515841beb","EAEDBD6CC4E342278970CC7CF90FEBA0-2025-08-17-23-02-27","","null","","images/causal_sequence/package_causal/package_causal_9.png","null","",""
"","","","","","image-button-response","96","614628","0.0-14.0-1.0-1.2","EAEDBD6CC4E342278970CC7CF90FEBA0","EAEDBD6CC4E342278970CC7CF90FEBA0","0198ba22-7d58-7195-b852-43ccf01230c0","0198b9d0-29d4-7df3-8625-4b4515841beb","{""num_scrambled_semantic"":""8"",""num_scrambled_causal"":""4"",""num_scrambled_schematic"":""4"",""participantId"":""EAEDBD6CC4E342278970CC7CF90FEBA0"",""assignmentId"":""0198ba22-7d58-7195-b852-43ccf01230c0"",""projectId"":""0198b9d0-29d4-7df3-8625-4b4515841beb""}","https://test12345.live/?num_scrambled_semantic=8&num_scrambled_causal=4&num_scrambled_schematic=4&participantId=EAEDBD6CC4E342278970CC7CF90FEBA0&assignmentId=0198ba22-7d58-7195-b852-43ccf01230c0&projectId=0198b9d0-29d4-7df3-8625-4b4515841beb","EAEDBD6CC4E342278970CC7CF90FEBA0-2025-08-17-23-02-27","","1882","","images/causal_sequence/package_causal/package_causal_9.png","0","",""
"","","","","","image-button-response","97","620030","0.0-14.0-1.0-2.2","EAEDBD6CC4E342278970CC7CF90FEBA0","EAEDBD6CC4E342278970CC7CF90FEBA0","0198ba22-7d58-7195-b852-43ccf01230c0","0198b9d0-29d4-7df3-8625-4b4515841beb","{""num_scrambled_semantic"":""8"",""num_scrambled_causal"":""4"",""num_scrambled_schematic"":""4"",""participantId"":""EAEDBD6CC4E342278970CC7CF90FEBA0"",""assignmentId"":""0198ba22-7d58-7195-b852-43ccf01230c0"",""projectId"":""0198b9d0-29d4-7df3-8625-4b4515841beb""}","https://test12345.live/?num_scrambled_semantic=8&num_scrambled_causal=4&num_scrambled_schematic=4&participantId=EAEDBD6CC4E342278970CC7CF90FEBA0&assignmentId=0198ba22-7d58-7195-b852-43ccf01230c0&projectId=0198b9d0-29d4-7df3-8625-4b4515841beb","EAEDBD6CC4E342278970CC7CF90FEBA0-2025-08-17-23-02-27","","null","","[]","null","",""
"","","","","","image-button-response","98","624542","0.0-14.0-1.0-0.3","EAEDBD6CC4E342278970CC7CF90FEBA0","EAEDBD6CC4E342278970CC7CF90FEBA0","0198ba22-7d58-7195-b852-43ccf01230c0","0198b9d0-29d4-7df3-8625-4b4515841beb","{""num_scrambled_semantic"":""8"",""num_scrambled_causal"":""4"",""num_scrambled_schematic"":""4"",""participantId"":""EAEDBD6CC4E342278970CC7CF90FEBA0"",""assignmentId"":""0198ba22-7d58-7195-b852-43ccf01230c0"",""projectId"":""0198b9d0-29d4-7df3-8625-4b4515841beb""}","https://test12345.live/?num_scrambled_semantic=8&num_scrambled_causal=4&num_scrambled_schematic=4&participantId=EAEDBD6CC4E342278970CC7CF90FEBA0&assignmentId=0198ba22-7d58-7195-b852-43ccf01230c0&projectId=0198b9d0-29d4-7df3-8625-4b4515841beb","EAEDBD6CC4E342278970CC7CF90FEBA0-2025-08-17-23-02-27","","null","","images/causal_sequence/package_causal/package_causal_7.png","null","",""
"","","","","","image-button-response","99","626145","0.0-14.0-1.0-1.3","EAEDBD6CC4E342278970CC7CF90FEBA0","EAEDBD6CC4E342278970CC7CF90FEBA0","0198ba22-7d58-7195-b852-43ccf01230c0","0198b9d0-29d4-7df3-8625-4b4515841beb","{""num_scrambled_semantic"":""8"",""num_scrambled_causal"":""4"",""num_scrambled_schematic"":""4"",""participantId"":""EAEDBD6CC4E342278970CC7CF90FEBA0"",""assignmentId"":""0198ba22-7d58-7195-b852-43ccf01230c0"",""projectId"":""0198b9d0-29d4-7df3-8625-4b4515841beb""}","https://test12345.live/?num_scrambled_semantic=8&num_scrambled_causal=4&num_scrambled_schematic=4&participantId=EAEDBD6CC4E342278970CC7CF90FEBA0&assignmentId=0198ba22-7d58-7195-b852-43ccf01230c0&projectId=0198b9d0-29d4-7df3-8625-4b4515841beb","EAEDBD6CC4E342278970CC7CF90FEBA0-2025-08-17-23-02-27","","1601","","images/causal_sequence/package_causal/package_causal_7.png","0","",""
"","","","","","image-button-response","100","631553","0.0-14.0-1.0-2.3","EAEDBD6CC4E342278970CC7CF90FEBA0","EAEDBD6CC4E342278970CC7CF90FEBA0","0198ba22-7d58-7195-b852-43ccf01230c0","0198b9d0-29d4-7df3-8625-4b4515841beb","{""num_scrambled_semantic"":""8"",""num_scrambled_causal"":""4"",""num_scrambled_schematic"":""4"",""participantId"":""EAEDBD6CC4E342278970CC7CF90FEBA0"",""assignmentId"":""0198ba22-7d58-7195-b852-43ccf01230c0"",""projectId"":""0198b9d0-29d4-7df3-8625-4b4515841beb""}","https://test12345.live/?num_scrambled_semantic=8&num_scrambled_causal=4&num_scrambled_schematic=4&participantId=EAEDBD6CC4E342278970CC7CF90FEBA0&assignmentId=0198ba22-7d58-7195-b852-43ccf01230c0&projectId=0198b9d0-29d4-7df3-8625-4b4515841beb","EAEDBD6CC4E342278970CC7CF90FEBA0-2025-08-17-23-02-27","","null","","[]","null","",""
"","","","","","image-button-response","101","636057","0.0-14.0-1.0-0.4","EAEDBD6CC4E342278970CC7CF90FEBA0","EAEDBD6CC4E342278970CC7CF90FEBA0","0198ba22-7d58-7195-b852-43ccf01230c0","0198b9d0-29d4-7df3-8625-4b4515841beb","{""num_scrambled_semantic"":""8"",""num_scrambled_causal"":""4"",""num_scrambled_schematic"":""4"",""participantId"":""EAEDBD6CC4E342278970CC7CF90FEBA0"",""assignmentId"":""0198ba22-7d58-7195-b852-43ccf01230c0"",""projectId"":""0198b9d0-29d4-7df3-8625-4b4515841beb""}","https://test12345.live/?num_scrambled_semantic=8&num_scrambled_causal=4&num_scrambled_schematic=4&participantId=EAEDBD6CC4E342278970CC7CF90FEBA0&assignmentId=0198ba22-7d58-7195-b852-43ccf01230c0&projectId=0198b9d0-29d4-7df3-8625-4b4515841beb","EAEDBD6CC4E342278970CC7CF90FEBA0-2025-08-17-23-02-27","","null","","images/causal_sequence/package_causal/package_causal_ten.png","null","",""
"","","","","","image-button-response","102","637633","0.0-14.0-1.0-1.4","EAEDBD6CC4E342278970CC7CF90FEBA0","EAEDBD6CC4E342278970CC7CF90FEBA0","0198ba22-7d58-7195-b852-43ccf01230c0","0198b9d0-29d4-7df3-8625-4b4515841beb","{""num_scrambled_semantic"":""8"",""num_scrambled_causal"":""4"",""num_scrambled_schematic"":""4"",""participantId"":""EAEDBD6CC4E342278970CC7CF90FEBA0"",""assignmentId"":""0198ba22-7d58-7195-b852-43ccf01230c0"",""projectId"":""0198b9d0-29d4-7df3-8625-4b4515841beb""}","https://test12345.live/?num_scrambled_semantic=8&num_scrambled_causal=4&num_scrambled_schematic=4&participantId=EAEDBD6CC4E342278970CC7CF90FEBA0&assignmentId=0198ba22-7d58-7195-b852-43ccf01230c0&projectId=0198b9d0-29d4-7df3-8625-4b4515841beb","EAEDBD6CC4E342278970CC7CF90FEBA0-2025-08-17-23-02-27","","1574","","images/causal_sequence/package_causal/package_causal_ten.png","0","",""
"","","","","","image-button-response","103","643049","0.0-14.0-1.0-2.4","EAEDBD6CC4E342278970CC7CF90FEBA0","EAEDBD6CC4E342278970CC7CF90FEBA0","0198ba22-7d58-7195-b852-43ccf01230c0","0198b9d0-29d4-7df3-8625-4b4515841beb","{""num_scrambled_semantic"":""8"",""num_scrambled_causal"":""4"",""num_scrambled_schematic"":""4"",""participantId"":""EAEDBD6CC4E342278970CC7CF90FEBA0"",""assignmentId"":""0198ba22-7d58-7195-b852-43ccf01230c0"",""projectId"":""0198b9d0-29d4-7df3-8625-4b4515841beb""}","https://test12345.live/?num_scrambled_semantic=8&num_scrambled_causal=4&num_scrambled_schematic=4&participantId=EAEDBD6CC4E342278970CC7CF90FEBA0&assignmentId=0198ba22-7d58-7195-b852-43ccf01230c0&projectId=0198b9d0-29d4-7df3-8625-4b4515841beb","EAEDBD6CC4E342278970CC7CF90FEBA0-2025-08-17-23-02-27","","null","","[]","null","",""
"","","","","","image-button-response","104","647555","0.0-14.0-1.0-0.5","EAEDBD6CC4E342278970CC7CF90FEBA0","EAEDBD6CC4E342278970CC7CF90FEBA0","0198ba22-7d58-7195-b852-43ccf01230c0","0198b9d0-29d4-7df3-8625-4b4515841beb","{""num_scrambled_semantic"":""8"",""num_scrambled_causal"":""4"",""num_scrambled_schematic"":""4"",""participantId"":""EAEDBD6CC4E342278970CC7CF90FEBA0"",""assignmentId"":""0198ba22-7d58-7195-b852-43ccf01230c0"",""projectId"":""0198b9d0-29d4-7df3-8625-4b4515841beb""}","https://test12345.live/?num_scrambled_semantic=8&num_scrambled_causal=4&num_scrambled_schematic=4&participantId=EAEDBD6CC4E342278970CC7CF90FEBA0&assignmentId=0198ba22-7d58-7195-b852-43ccf01230c0&projectId=0198b9d0-29d4-7df3-8625-4b4515841beb","EAEDBD6CC4E342278970CC7CF90FEBA0-2025-08-17-23-02-27","","null","","images/causal_sequence/package_causal/package_causal_2.png","null","",""
"","","","","","image-button-response","105","648988","0.0-14.0-1.0-1.5","EAEDBD6CC4E342278970CC7CF90FEBA0","EAEDBD6CC4E342278970CC7CF90FEBA0","0198ba22-7d58-7195-b852-43ccf01230c0","0198b9d0-29d4-7df3-8625-4b4515841beb","{""num_scrambled_semantic"":""8"",""num_scrambled_causal"":""4"",""num_scrambled_schematic"":""4"",""participantId"":""EAEDBD6CC4E342278970CC7CF90FEBA0"",""assignmentId"":""0198ba22-7d58-7195-b852-43ccf01230c0"",""projectId"":""0198b9d0-29d4-7df3-8625-4b4515841beb""}","https://test12345.live/?num_scrambled_semantic=8&num_scrambled_causal=4&num_scrambled_schematic=4&participantId=EAEDBD6CC4E342278970CC7CF90FEBA0&assignmentId=0198ba22-7d58-7195-b852-43ccf01230c0&projectId=0198b9d0-29d4-7df3-8625-4b4515841beb","EAEDBD6CC4E342278970CC7CF90FEBA0-2025-08-17-23-02-27","","1431","","images/causal_sequence/package_causal/package_causal_2.png","0","",""
"","","","","","image-button-response","106","654401","0.0-14.0-1.0-2.5","EAEDBD6CC4E342278970CC7CF90FEBA0","EAEDBD6CC4E342278970CC7CF90FEBA0","0198ba22-7d58-7195-b852-43ccf01230c0","0198b9d0-29d4-7df3-8625-4b4515841beb","{""num_scrambled_semantic"":""8"",""num_scrambled_causal"":""4"",""num_scrambled_schematic"":""4"",""participantId"":""EAEDBD6CC4E342278970CC7CF90FEBA0"",""assignmentId"":""0198ba22-7d58-7195-b852-43ccf01230c0"",""projectId"":""0198b9d0-29d4-7df3-8625-4b4515841beb""}","https://test12345.live/?num_scrambled_semantic=8&num_scrambled_causal=4&num_scrambled_schematic=4&participantId=EAEDBD6CC4E342278970CC7CF90FEBA0&assignmentId=0198ba22-7d58-7195-b852-43ccf01230c0&projectId=0198b9d0-29d4-7df3-8625-4b4515841beb","EAEDBD6CC4E342278970CC7CF90FEBA0-2025-08-17-23-02-27","","null","","[]","null","",""
"","","","","","image-button-response","107","658915","0.0-14.0-1.0-0.6","EAEDBD6CC4E342278970CC7CF90FEBA0","EAEDBD6CC4E342278970CC7CF90FEBA0","0198ba22-7d58-7195-b852-43ccf01230c0","0198b9d0-29d4-7df3-8625-4b4515841beb","{""num_scrambled_semantic"":""8"",""num_scrambled_causal"":""4"",""num_scrambled_schematic"":""4"",""participantId"":""EAEDBD6CC4E342278970CC7CF90FEBA0"",""assignmentId"":""0198ba22-7d58-7195-b852-43ccf01230c0"",""projectId"":""0198b9d0-29d4-7df3-8625-4b4515841beb""}","https://test12345.live/?num_scrambled_semantic=8&num_scrambled_causal=4&num_scrambled_schematic=4&participantId=EAEDBD6CC4E342278970CC7CF90FEBA0&assignmentId=0198ba22-7d58-7195-b852-43ccf01230c0&projectId=0198b9d0-29d4-7df3-8625-4b4515841beb","EAEDBD6CC4E342278970CC7CF90FEBA0-2025-08-17-23-02-27","","null","","images/causal_sequence/package_causal/package_causal_5.png","null","",""
"","","","","","image-button-response","108","661624","0.0-14.0-1.0-1.6","EAEDBD6CC4E342278970CC7CF90FEBA0","EAEDBD6CC4E342278970CC7CF90FEBA0","0198ba22-7d58-7195-b852-43ccf01230c0","0198b9d0-29d4-7df3-8625-4b4515841beb","{""num_scrambled_semantic"":""8"",""num_scrambled_causal"":""4"",""num_scrambled_schematic"":""4"",""participantId"":""EAEDBD6CC4E342278970CC7CF90FEBA0"",""assignmentId"":""0198ba22-7d58-7195-b852-43ccf01230c0"",""projectId"":""0198b9d0-29d4-7df3-8625-4b4515841beb""}","https://test12345.live/?num_scrambled_semantic=8&num_scrambled_causal=4&num_scrambled_schematic=4&participantId=EAEDBD6CC4E342278970CC7CF90FEBA0&assignmentId=0198ba22-7d58-7195-b852-43ccf01230c0&projectId=0198b9d0-29d4-7df3-8625-4b4515841beb","EAEDBD6CC4E342278970CC7CF90FEBA0-2025-08-17-23-02-27","","2707","","images/causal_sequence/package_causal/package_causal_5.png","0","",""
"","","","","","image-button-response","109","667037","0.0-14.0-1.0-2.6","EAEDBD6CC4E342278970CC7CF90FEBA0","EAEDBD6CC4E342278970CC7CF90FEBA0","0198ba22-7d58-7195-b852-43ccf01230c0","0198b9d0-29d4-7df3-8625-4b4515841beb","{""num_scrambled_semantic"":""8"",""num_scrambled_causal"":""4"",""num_scrambled_schematic"":""4"",""participantId"":""EAEDBD6CC4E342278970CC7CF90FEBA0"",""assignmentId"":""0198ba22-7d58-7195-b852-43ccf01230c0"",""projectId"":""0198b9d0-29d4-7df3-8625-4b4515841beb""}","https://test12345.live/?num_scrambled_semantic=8&num_scrambled_causal=4&num_scrambled_schematic=4&participantId=EAEDBD6CC4E342278970CC7CF90FEBA0&assignmentId=0198ba22-7d58-7195-b852-43ccf01230c0&projectId=0198b9d0-29d4-7df3-8625-4b4515841beb","EAEDBD6CC4E342278970CC7CF90FEBA0-2025-08-17-23-02-27","","null","","[]","null","",""
"","","","","","image-button-response","110","671545","0.0-14.0-1.0-0.7","EAEDBD6CC4E342278970CC7CF90FEBA0","EAEDBD6CC4E342278970CC7CF90FEBA0","0198ba22-7d58-7195-b852-43ccf01230c0","0198b9d0-29d4-7df3-8625-4b4515841beb","{""num_scrambled_semantic"":""8"",""num_scrambled_causal"":""4"",""num_scrambled_schematic"":""4"",""participantId"":""EAEDBD6CC4E342278970CC7CF90FEBA0"",""assignmentId"":""0198ba22-7d58-7195-b852-43ccf01230c0"",""projectId"":""0198b9d0-29d4-7df3-8625-4b4515841beb""}","https://test12345.live/?num_scrambled_semantic=8&num_scrambled_causal=4&num_scrambled_schematic=4&participantId=EAEDBD6CC4E342278970CC7CF90FEBA0&assignmentId=0198ba22-7d58-7195-b852-43ccf01230c0&projectId=0198b9d0-29d4-7df3-8625-4b4515841beb","EAEDBD6CC4E342278970CC7CF90FEBA0-2025-08-17-23-02-27","","null","","images/causal_sequence/package_causal/package_causal_6.png","null","",""
"","","","","","image-button-response","111","672844","0.0-14.0-1.0-1.7","EAEDBD6CC4E342278970CC7CF90FEBA0","EAEDBD6CC4E342278970CC7CF90FEBA0","0198ba22-7d58-7195-b852-43ccf01230c0","0198b9d0-29d4-7df3-8625-4b4515841beb","{""num_scrambled_semantic"":""8"",""num_scrambled_causal"":""4"",""num_scrambled_schematic"":""4"",""participantId"":""EAEDBD6CC4E342278970CC7CF90FEBA0"",""assignmentId"":""0198ba22-7d58-7195-b852-43ccf01230c0"",""projectId"":""0198b9d0-29d4-7df3-8625-4b4515841beb""}","https://test12345.live/?num_scrambled_semantic=8&num_scrambled_causal=4&num_scrambled_schematic=4&participantId=EAEDBD6CC4E342278970CC7CF90FEBA0&assignmentId=0198ba22-7d58-7195-b852-43ccf01230c0&projectId=0198b9d0-29d4-7df3-8625-4b4515841beb","EAEDBD6CC4E342278970CC7CF90FEBA0-2025-08-17-23-02-27","","1298","","images/causal_sequence/package_causal/package_causal_6.png","0","",""
"","","","","","image-button-response","112","678258","0.0-14.0-1.0-2.7","EAEDBD6CC4E342278970CC7CF90FEBA0","EAEDBD6CC4E342278970CC7CF90FEBA0","0198ba22-7d58-7195-b852-43ccf01230c0","0198b9d0-29d4-7df3-8625-4b4515841beb","{""num_scrambled_semantic"":""8"",""num_scrambled_causal"":""4"",""num_scrambled_schematic"":""4"",""participantId"":""EAEDBD6CC4E342278970CC7CF90FEBA0"",""assignmentId"":""0198ba22-7d58-7195-b852-43ccf01230c0"",""projectId"":""0198b9d0-29d4-7df3-8625-4b4515841beb""}","https://test12345.live/?num_scrambled_semantic=8&num_scrambled_causal=4&num_scrambled_schematic=4&participantId=EAEDBD6CC4E342278970CC7CF90FEBA0&assignmentId=0198ba22-7d58-7195-b852-43ccf01230c0&projectId=0198b9d0-29d4-7df3-8625-4b4515841beb","EAEDBD6CC4E342278970CC7CF90FEBA0-2025-08-17-23-02-27","","null","","[]","null","",""
"","","","","","image-button-response","113","682762","0.0-14.0-1.0-0.8","EAEDBD6CC4E342278970CC7CF90FEBA0","EAEDBD6CC4E342278970CC7CF90FEBA0","0198ba22-7d58-7195-b852-43ccf01230c0","0198b9d0-29d4-7df3-8625-4b4515841beb","{""num_scrambled_semantic"":""8"",""num_scrambled_causal"":""4"",""num_scrambled_schematic"":""4"",""participantId"":""EAEDBD6CC4E342278970CC7CF90FEBA0"",""assignmentId"":""0198ba22-7d58-7195-b852-43ccf01230c0"",""projectId"":""0198b9d0-29d4-7df3-8625-4b4515841beb""}","https://test12345.live/?num_scrambled_semantic=8&num_scrambled_causal=4&num_scrambled_schematic=4&participantId=EAEDBD6CC4E342278970CC7CF90FEBA0&assignmentId=0198ba22-7d58-7195-b852-43ccf01230c0&projectId=0198b9d0-29d4-7df3-8625-4b4515841beb","EAEDBD6CC4E342278970CC7CF90FEBA0-2025-08-17-23-02-27","","null","","images/causal_sequence/package_causal/package_causal_4.png","null","",""
"","","","","","image-button-response","114","684939","0.0-14.0-1.0-1.8","EAEDBD6CC4E342278970CC7CF90FEBA0","EAEDBD6CC4E342278970CC7CF90FEBA0","0198ba22-7d58-7195-b852-43ccf01230c0","0198b9d0-29d4-7df3-8625-4b4515841beb","{""num_scrambled_semantic"":""8"",""num_scrambled_causal"":""4"",""num_scrambled_schematic"":""4"",""participantId"":""EAEDBD6CC4E342278970CC7CF90FEBA0"",""assignmentId"":""0198ba22-7d58-7195-b852-43ccf01230c0"",""projectId"":""0198b9d0-29d4-7df3-8625-4b4515841beb""}","https://test12345.live/?num_scrambled_semantic=8&num_scrambled_causal=4&num_scrambled_schematic=4&participantId=EAEDBD6CC4E342278970CC7CF90FEBA0&assignmentId=0198ba22-7d58-7195-b852-43ccf01230c0&projectId=0198b9d0-29d4-7df3-8625-4b4515841beb","EAEDBD6CC4E342278970CC7CF90FEBA0-2025-08-17-23-02-27","","2175","","images/causal_sequence/package_causal/package_causal_4.png","0","",""
