"success","timeout","failed_images","failed_audio","failed_video","trial_type","trial_index","time_elapsed","internal_node_id","subject","subject_id","study_id","session_id","urlvar","current_url","audio_id","view_history","rt","device_id","stimulus","response","estimated_stimulus_onset","seq_name"
"true","false","[]","[]","[]","preload","0","31618","0.0-0.0","EBF31F4BA5204F098DF439462C0CF83E","EBF31F4BA5204F098DF439462C0CF83E","8cead3a7-8724-4c33-a9ea-503a73c591a0","6d972c12-ef4f-4967-baa7-815328c4c025","{""num_scrambled_semantic"":""8"",""num_scrambled_causal"":""4"",""num_scrambled_schematic"":""4"",""participantId"":""EBF31F4BA5204F098DF439462C0CF83E"",""assignmentId"":""8cead3a7-8724-4c33-a9ea-503a73c591a0"",""projectId"":""6d972c12-ef4f-4967-baa7-815328c4c025""}","https://test12345.live/?num_scrambled_semantic=8&num_scrambled_causal=4&num_scrambled_schematic=4&participantId=EBF31F4BA5204F098DF439462C0CF83E&assignmentId=8cead3a7-8724-4c33-a9ea-503a73c591a0&projectId=6d972c12-ef4f-4967-baa7-815328c4c025","EBF31F4BA5204F098DF439462C0CF83E-2025-08-07-17-53-24","","","","","","",""
"","","","","","instructions","1","113149","0.0-1.0","EBF31F4BA5204F098DF439462C0CF83E","EBF31F4BA5204F098DF439462C0CF83E","8cead3a7-8724-4c33-a9ea-503a73c591a0","6d972c12-ef4f-4967-baa7-815328c4c025","{""num_scrambled_semantic"":""8"",""num_scrambled_causal"":""4"",""num_scrambled_schematic"":""4"",""participantId"":""EBF31F4BA5204F098DF439462C0CF83E"",""assignmentId"":""8cead3a7-8724-4c33-a9ea-503a73c591a0"",""projectId"":""6d972c12-ef4f-4967-baa7-815328c4c025""}","https://test12345.live/?num_scrambled_semantic=8&num_scrambled_causal=4&num_scrambled_schematic=4&participantId=EBF31F4BA5204F098DF439462C0CF83E&assignmentId=8cead3a7-8724-4c33-a9ea-503a73c591a0&projectId=6d972c12-ef4f-4967-baa7-815328c4c025","EBF31F4BA5204F098DF439462C0CF83E-2025-08-07-17-53-24","[{""page_index"":0,""viewing_time"":81531}]","81531","","","","",""
"","","","","","instructions","2","168141","0.0-2.0","EBF31F4BA5204F098DF439462C0CF83E","EBF31F4BA5204F098DF439462C0CF83E","8cead3a7-8724-4c33-a9ea-503a73c591a0","6d972c12-ef4f-4967-baa7-815328c4c025","{""num_scrambled_semantic"":""8"",""num_scrambled_causal"":""4"",""num_scrambled_schematic"":""4"",""participantId"":""EBF31F4BA5204F098DF439462C0CF83E"",""assignmentId"":""8cead3a7-8724-4c33-a9ea-503a73c591a0"",""projectId"":""6d972c12-ef4f-4967-baa7-815328c4c025""}","https://test12345.live/?num_scrambled_semantic=8&num_scrambled_causal=4&num_scrambled_schematic=4&participantId=EBF31F4BA5204F098DF439462C0CF83E&assignmentId=8cead3a7-8724-4c33-a9ea-503a73c591a0&projectId=6d972c12-ef4f-4967-baa7-815328c4c025","EBF31F4BA5204F098DF439462C0CF83E-2025-08-07-17-53-24","[{""page_index"":0,""viewing_time"":54991}]","54991","","","","",""
"true","","","","","fullscreen","3","171537","0.0-3.0","EBF31F4BA5204F098DF439462C0CF83E","EBF31F4BA5204F098DF439462C0CF83E","8cead3a7-8724-4c33-a9ea-503a73c591a0","6d972c12-ef4f-4967-baa7-815328c4c025","{""num_scrambled_semantic"":""8"",""num_scrambled_causal"":""4"",""num_scrambled_schematic"":""4"",""participantId"":""EBF31F4BA5204F098DF439462C0CF83E"",""assignmentId"":""8cead3a7-8724-4c33-a9ea-503a73c591a0"",""projectId"":""6d972c12-ef4f-4967-baa7-815328c4c025""}","https://test12345.live/?num_scrambled_semantic=8&num_scrambled_causal=4&num_scrambled_schematic=4&participantId=EBF31F4BA5204F098DF439462C0CF83E&assignmentId=8cead3a7-8724-4c33-a9ea-503a73c591a0&projectId=6d972c12-ef4f-4967-baa7-815328c4c025","EBF31F4BA5204F098DF439462C0CF83E-2025-08-07-17-53-24","","2391","","","","",""
"","","","","","initialize-microphone","4","177448","0.0-4.0-0.0","EBF31F4BA5204F098DF439462C0CF83E","EBF31F4BA5204F098DF439462C0CF83E","8cead3a7-8724-4c33-a9ea-503a73c591a0","6d972c12-ef4f-4967-baa7-815328c4c025","{""num_scrambled_semantic"":""8"",""num_scrambled_causal"":""4"",""num_scrambled_schematic"":""4"",""participantId"":""EBF31F4BA5204F098DF439462C0CF83E"",""assignmentId"":""8cead3a7-8724-4c33-a9ea-503a73c591a0"",""projectId"":""6d972c12-ef4f-4967-baa7-815328c4c025""}","https://test12345.live/?num_scrambled_semantic=8&num_scrambled_causal=4&num_scrambled_schematic=4&participantId=EBF31F4BA5204F098DF439462C0CF83E&assignmentId=8cead3a7-8724-4c33-a9ea-503a73c591a0&projectId=6d972c12-ef4f-4967-baa7-815328c4c025","EBF31F4BA5204F098DF439462C0CF83E-2025-08-07-17-53-24","","","8cbc322237cf6048666ef12214c6f4c8ad9025bcd06967d2a54f40cb7e11d295","","","",""
"","","","","","html-audio-response","5","189221","0.0-4.0-1.0","EBF31F4BA5204F098DF439462C0CF83E","EBF31F4BA5204F098DF439462C0CF83E","8cead3a7-8724-4c33-a9ea-503a73c591a0","6d972c12-ef4f-4967-baa7-815328c4c025","{""num_scrambled_semantic"":""8"",""num_scrambled_causal"":""4"",""num_scrambled_schematic"":""4"",""participantId"":""EBF31F4BA5204F098DF439462C0CF83E"",""assignmentId"":""8cead3a7-8724-4c33-a9ea-503a73c591a0"",""projectId"":""6d972c12-ef4f-4967-baa7-815328c4c025""}","https://test12345.live/?num_scrambled_semantic=8&num_scrambled_causal=4&num_scrambled_schematic=4&participantId=EBF31F4BA5204F098DF439462C0CF83E&assignmentId=8cead3a7-8724-4c33-a9ea-503a73c591a0&projectId=6d972c12-ef4f-4967-baa7-815328c4c025","EBF31F4BA5204F098DF439462C0CF83E-2025-08-07-17-53-24","","3827","","<span style=""color: red; font-size: 24px""> NOW RECORDING</span>
        <p>Please test Microphone</p>","","16",""
"","","","","","html-button-response","6","191069","0.0-4.0-2.0","EBF31F4BA5204F098DF439462C0CF83E","EBF31F4BA5204F098DF439462C0CF83E","8cead3a7-8724-4c33-a9ea-503a73c591a0","6d972c12-ef4f-4967-baa7-815328c4c025","{""num_scrambled_semantic"":""8"",""num_scrambled_causal"":""4"",""num_scrambled_schematic"":""4"",""participantId"":""EBF31F4BA5204F098DF439462C0CF83E"",""assignmentId"":""8cead3a7-8724-4c33-a9ea-503a73c591a0"",""projectId"":""6d972c12-ef4f-4967-baa7-815328c4c025""}","https://test12345.live/?num_scrambled_semantic=8&num_scrambled_causal=4&num_scrambled_schematic=4&participantId=EBF31F4BA5204F098DF439462C0CF83E&assignmentId=8cead3a7-8724-4c33-a9ea-503a73c591a0&projectId=6d972c12-ef4f-4967-baa7-815328c4c025","EBF31F4BA5204F098DF439462C0CF83E-2025-08-07-17-53-24","","1847","","<p style=""font-size:48px; color:red;"">Is Microphone OK?</p>","1","",""
"","","","","","instructions","7","205093","0.0-5.0","EBF31F4BA5204F098DF439462C0CF83E","EBF31F4BA5204F098DF439462C0CF83E","8cead3a7-8724-4c33-a9ea-503a73c591a0","6d972c12-ef4f-4967-baa7-815328c4c025","{""num_scrambled_semantic"":""8"",""num_scrambled_causal"":""4"",""num_scrambled_schematic"":""4"",""participantId"":""EBF31F4BA5204F098DF439462C0CF83E"",""assignmentId"":""8cead3a7-8724-4c33-a9ea-503a73c591a0"",""projectId"":""6d972c12-ef4f-4967-baa7-815328c4c025""}","https://test12345.live/?num_scrambled_semantic=8&num_scrambled_causal=4&num_scrambled_schematic=4&participantId=EBF31F4BA5204F098DF439462C0CF83E&assignmentId=8cead3a7-8724-4c33-a9ea-503a73c591a0&projectId=6d972c12-ef4f-4967-baa7-815328c4c025","EBF31F4BA5204F098DF439462C0CF83E-2025-08-07-17-53-24","[{""page_index"":0,""viewing_time"":5799},{""page_index"":1,""viewing_time"":8224}]","14023","","","","",""
"","","","","","image-button-response","8","211112","0.0-6.0-0.0","EBF31F4BA5204F098DF439462C0CF83E","EBF31F4BA5204F098DF439462C0CF83E","8cead3a7-8724-4c33-a9ea-503a73c591a0","6d972c12-ef4f-4967-baa7-815328c4c025","{""num_scrambled_semantic"":""8"",""num_scrambled_causal"":""4"",""num_scrambled_schematic"":""4"",""participantId"":""EBF31F4BA5204F098DF439462C0CF83E"",""assignmentId"":""8cead3a7-8724-4c33-a9ea-503a73c591a0"",""projectId"":""6d972c12-ef4f-4967-baa7-815328c4c025""}","https://test12345.live/?num_scrambled_semantic=8&num_scrambled_causal=4&num_scrambled_schematic=4&participantId=EBF31F4BA5204F098DF439462C0CF83E&assignmentId=8cead3a7-8724-4c33-a9ea-503a73c591a0&projectId=6d972c12-ef4f-4967-baa7-815328c4c025","EBF31F4BA5204F098DF439462C0CF83E-2025-08-07-17-53-24","","null","","images/instructions/movie_0.png","null","",""
"","","","","","image-button-response","9","215621","0.0-6.0-1.0-0.0","EBF31F4BA5204F098DF439462C0CF83E","EBF31F4BA5204F098DF439462C0CF83E","8cead3a7-8724-4c33-a9ea-503a73c591a0","6d972c12-ef4f-4967-baa7-815328c4c025","{""num_scrambled_semantic"":""8"",""num_scrambled_causal"":""4"",""num_scrambled_schematic"":""4"",""participantId"":""EBF31F4BA5204F098DF439462C0CF83E"",""assignmentId"":""8cead3a7-8724-4c33-a9ea-503a73c591a0"",""projectId"":""6d972c12-ef4f-4967-baa7-815328c4c025""}","https://test12345.live/?num_scrambled_semantic=8&num_scrambled_causal=4&num_scrambled_schematic=4&participantId=EBF31F4BA5204F098DF439462C0CF83E&assignmentId=8cead3a7-8724-4c33-a9ea-503a73c591a0&projectId=6d972c12-ef4f-4967-baa7-815328c4c025","EBF31F4BA5204F098DF439462C0CF83E-2025-08-07-17-53-24","","null","","images/instructions/movie_1.png","null","",""
"","","","","","image-button-response","10","218301","0.0-6.0-1.0-1.0","EBF31F4BA5204F098DF439462C0CF83E","EBF31F4BA5204F098DF439462C0CF83E","8cead3a7-8724-4c33-a9ea-503a73c591a0","6d972c12-ef4f-4967-baa7-815328c4c025","{""num_scrambled_semantic"":""8"",""num_scrambled_causal"":""4"",""num_scrambled_schematic"":""4"",""participantId"":""EBF31F4BA5204F098DF439462C0CF83E"",""assignmentId"":""8cead3a7-8724-4c33-a9ea-503a73c591a0"",""projectId"":""6d972c12-ef4f-4967-baa7-815328c4c025""}","https://test12345.live/?num_scrambled_semantic=8&num_scrambled_causal=4&num_scrambled_schematic=4&participantId=EBF31F4BA5204F098DF439462C0CF83E&assignmentId=8cead3a7-8724-4c33-a9ea-503a73c591a0&projectId=6d972c12-ef4f-4967-baa7-815328c4c025","EBF31F4BA5204F098DF439462C0CF83E-2025-08-07-17-53-24","","2679","","images/instructions/movie_1.png","0","",""
"","","","","","image-button-response","11","220112","0.0-6.0-1.0-2.0","EBF31F4BA5204F098DF439462C0CF83E","EBF31F4BA5204F098DF439462C0CF83E","8cead3a7-8724-4c33-a9ea-503a73c591a0","6d972c12-ef4f-4967-baa7-815328c4c025","{""num_scrambled_semantic"":""8"",""num_scrambled_causal"":""4"",""num_scrambled_schematic"":""4"",""participantId"":""EBF31F4BA5204F098DF439462C0CF83E"",""assignmentId"":""8cead3a7-8724-4c33-a9ea-503a73c591a0"",""projectId"":""6d972c12-ef4f-4967-baa7-815328c4c025""}","https://test12345.live/?num_scrambled_semantic=8&num_scrambled_causal=4&num_scrambled_schematic=4&participantId=EBF31F4BA5204F098DF439462C0CF83E&assignmentId=8cead3a7-8724-4c33-a9ea-503a73c591a0&projectId=6d972c12-ef4f-4967-baa7-815328c4c025","EBF31F4BA5204F098DF439462C0CF83E-2025-08-07-17-53-24","","null","","[]","null","",""
"","","","","","image-button-response","12","224632","0.0-6.0-1.0-0.1","EBF31F4BA5204F098DF439462C0CF83E","EBF31F4BA5204F098DF439462C0CF83E","8cead3a7-8724-4c33-a9ea-503a73c591a0","6d972c12-ef4f-4967-baa7-815328c4c025","{""num_scrambled_semantic"":""8"",""num_scrambled_causal"":""4"",""num_scrambled_schematic"":""4"",""participantId"":""EBF31F4BA5204F098DF439462C0CF83E"",""assignmentId"":""8cead3a7-8724-4c33-a9ea-503a73c591a0"",""projectId"":""6d972c12-ef4f-4967-baa7-815328c4c025""}","https://test12345.live/?num_scrambled_semantic=8&num_scrambled_causal=4&num_scrambled_schematic=4&participantId=EBF31F4BA5204F098DF439462C0CF83E&assignmentId=8cead3a7-8724-4c33-a9ea-503a73c591a0&projectId=6d972c12-ef4f-4967-baa7-815328c4c025","EBF31F4BA5204F098DF439462C0CF83E-2025-08-07-17-53-24","","null","","images/instructions/movie_2.png","null","",""
"","","","","","image-button-response","13","226845","0.0-6.0-1.0-1.1","EBF31F4BA5204F098DF439462C0CF83E","EBF31F4BA5204F098DF439462C0CF83E","8cead3a7-8724-4c33-a9ea-503a73c591a0","6d972c12-ef4f-4967-baa7-815328c4c025","{""num_scrambled_semantic"":""8"",""num_scrambled_causal"":""4"",""num_scrambled_schematic"":""4"",""participantId"":""EBF31F4BA5204F098DF439462C0CF83E"",""assignmentId"":""8cead3a7-8724-4c33-a9ea-503a73c591a0"",""projectId"":""6d972c12-ef4f-4967-baa7-815328c4c025""}","https://test12345.live/?num_scrambled_semantic=8&num_scrambled_causal=4&num_scrambled_schematic=4&participantId=EBF31F4BA5204F098DF439462C0CF83E&assignmentId=8cead3a7-8724-4c33-a9ea-503a73c591a0&projectId=6d972c12-ef4f-4967-baa7-815328c4c025","EBF31F4BA5204F098DF439462C0CF83E-2025-08-07-17-53-24","","2211","","images/instructions/movie_2.png","0","",""
"","","","","","image-button-response","14","228652","0.0-6.0-1.0-2.1","EBF31F4BA5204F098DF439462C0CF83E","EBF31F4BA5204F098DF439462C0CF83E","8cead3a7-8724-4c33-a9ea-503a73c591a0","6d972c12-ef4f-4967-baa7-815328c4c025","{""num_scrambled_semantic"":""8"",""num_scrambled_causal"":""4"",""num_scrambled_schematic"":""4"",""participantId"":""EBF31F4BA5204F098DF439462C0CF83E"",""assignmentId"":""8cead3a7-8724-4c33-a9ea-503a73c591a0"",""projectId"":""6d972c12-ef4f-4967-baa7-815328c4c025""}","https://test12345.live/?num_scrambled_semantic=8&num_scrambled_causal=4&num_scrambled_schematic=4&participantId=EBF31F4BA5204F098DF439462C0CF83E&assignmentId=8cead3a7-8724-4c33-a9ea-503a73c591a0&projectId=6d972c12-ef4f-4967-baa7-815328c4c025","EBF31F4BA5204F098DF439462C0CF83E-2025-08-07-17-53-24","","null","","[]","null","",""
"","","","","","image-button-response","15","233162","0.0-6.0-1.0-0.2","EBF31F4BA5204F098DF439462C0CF83E","EBF31F4BA5204F098DF439462C0CF83E","8cead3a7-8724-4c33-a9ea-503a73c591a0","6d972c12-ef4f-4967-baa7-815328c4c025","{""num_scrambled_semantic"":""8"",""num_scrambled_causal"":""4"",""num_scrambled_schematic"":""4"",""participantId"":""EBF31F4BA5204F098DF439462C0CF83E"",""assignmentId"":""8cead3a7-8724-4c33-a9ea-503a73c591a0"",""projectId"":""6d972c12-ef4f-4967-baa7-815328c4c025""}","https://test12345.live/?num_scrambled_semantic=8&num_scrambled_causal=4&num_scrambled_schematic=4&participantId=EBF31F4BA5204F098DF439462C0CF83E&assignmentId=8cead3a7-8724-4c33-a9ea-503a73c591a0&projectId=6d972c12-ef4f-4967-baa7-815328c4c025","EBF31F4BA5204F098DF439462C0CF83E-2025-08-07-17-53-24","","null","","images/instructions/movie_3.png","null","",""
"","","","","","image-button-response","16","234981","0.0-6.0-1.0-1.2","EBF31F4BA5204F098DF439462C0CF83E","EBF31F4BA5204F098DF439462C0CF83E","8cead3a7-8724-4c33-a9ea-503a73c591a0","6d972c12-ef4f-4967-baa7-815328c4c025","{""num_scrambled_semantic"":""8"",""num_scrambled_causal"":""4"",""num_scrambled_schematic"":""4"",""participantId"":""EBF31F4BA5204F098DF439462C0CF83E"",""assignmentId"":""8cead3a7-8724-4c33-a9ea-503a73c591a0"",""projectId"":""6d972c12-ef4f-4967-baa7-815328c4c025""}","https://test12345.live/?num_scrambled_semantic=8&num_scrambled_causal=4&num_scrambled_schematic=4&participantId=EBF31F4BA5204F098DF439462C0CF83E&assignmentId=8cead3a7-8724-4c33-a9ea-503a73c591a0&projectId=6d972c12-ef4f-4967-baa7-815328c4c025","EBF31F4BA5204F098DF439462C0CF83E-2025-08-07-17-53-24","","1816","","images/instructions/movie_3.png","0","",""
"","","","","","image-button-response","17","236792","0.0-6.0-1.0-2.2","EBF31F4BA5204F098DF439462C0CF83E","EBF31F4BA5204F098DF439462C0CF83E","8cead3a7-8724-4c33-a9ea-503a73c591a0","6d972c12-ef4f-4967-baa7-815328c4c025","{""num_scrambled_semantic"":""8"",""num_scrambled_causal"":""4"",""num_scrambled_schematic"":""4"",""participantId"":""EBF31F4BA5204F098DF439462C0CF83E"",""assignmentId"":""8cead3a7-8724-4c33-a9ea-503a73c591a0"",""projectId"":""6d972c12-ef4f-4967-baa7-815328c4c025""}","https://test12345.live/?num_scrambled_semantic=8&num_scrambled_causal=4&num_scrambled_schematic=4&participantId=EBF31F4BA5204F098DF439462C0CF83E&assignmentId=8cead3a7-8724-4c33-a9ea-503a73c591a0&projectId=6d972c12-ef4f-4967-baa7-815328c4c025","EBF31F4BA5204F098DF439462C0CF83E-2025-08-07-17-53-24","","null","","[]","null","",""
"","","","","","image-button-response","18","241302","0.0-6.0-1.0-0.3","EBF31F4BA5204F098DF439462C0CF83E","EBF31F4BA5204F098DF439462C0CF83E","8cead3a7-8724-4c33-a9ea-503a73c591a0","6d972c12-ef4f-4967-baa7-815328c4c025","{""num_scrambled_semantic"":""8"",""num_scrambled_causal"":""4"",""num_scrambled_schematic"":""4"",""participantId"":""EBF31F4BA5204F098DF439462C0CF83E"",""assignmentId"":""8cead3a7-8724-4c33-a9ea-503a73c591a0"",""projectId"":""6d972c12-ef4f-4967-baa7-815328c4c025""}","https://test12345.live/?num_scrambled_semantic=8&num_scrambled_causal=4&num_scrambled_schematic=4&participantId=EBF31F4BA5204F098DF439462C0CF83E&assignmentId=8cead3a7-8724-4c33-a9ea-503a73c591a0&projectId=6d972c12-ef4f-4967-baa7-815328c4c025","EBF31F4BA5204F098DF439462C0CF83E-2025-08-07-17-53-24","","null","","images/instructions/movie_4.png","null","",""
"","","","","","image-button-response","19","243405","0.0-6.0-1.0-1.3","EBF31F4BA5204F098DF439462C0CF83E","EBF31F4BA5204F098DF439462C0CF83E","8cead3a7-8724-4c33-a9ea-503a73c591a0","6d972c12-ef4f-4967-baa7-815328c4c025","{""num_scrambled_semantic"":""8"",""num_scrambled_causal"":""4"",""num_scrambled_schematic"":""4"",""participantId"":""EBF31F4BA5204F098DF439462C0CF83E"",""assignmentId"":""8cead3a7-8724-4c33-a9ea-503a73c591a0"",""projectId"":""6d972c12-ef4f-4967-baa7-815328c4c025""}","https://test12345.live/?num_scrambled_semantic=8&num_scrambled_causal=4&num_scrambled_schematic=4&participantId=EBF31F4BA5204F098DF439462C0CF83E&assignmentId=8cead3a7-8724-4c33-a9ea-503a73c591a0&projectId=6d972c12-ef4f-4967-baa7-815328c4c025","EBF31F4BA5204F098DF439462C0CF83E-2025-08-07-17-53-24","","2101","","images/instructions/movie_4.png","0","",""
"","","","","","image-button-response","20","245222","0.0-6.0-1.0-2.3","EBF31F4BA5204F098DF439462C0CF83E","EBF31F4BA5204F098DF439462C0CF83E","8cead3a7-8724-4c33-a9ea-503a73c591a0","6d972c12-ef4f-4967-baa7-815328c4c025","{""num_scrambled_semantic"":""8"",""num_scrambled_causal"":""4"",""num_scrambled_schematic"":""4"",""participantId"":""EBF31F4BA5204F098DF439462C0CF83E"",""assignmentId"":""8cead3a7-8724-4c33-a9ea-503a73c591a0"",""projectId"":""6d972c12-ef4f-4967-baa7-815328c4c025""}","https://test12345.live/?num_scrambled_semantic=8&num_scrambled_causal=4&num_scrambled_schematic=4&participantId=EBF31F4BA5204F098DF439462C0CF83E&assignmentId=8cead3a7-8724-4c33-a9ea-503a73c591a0&projectId=6d972c12-ef4f-4967-baa7-815328c4c025","EBF31F4BA5204F098DF439462C0CF83E-2025-08-07-17-53-24","","null","","[]","null","",""
"","","","","","instructions","21","257549","0.0-7.0","EBF31F4BA5204F098DF439462C0CF83E","EBF31F4BA5204F098DF439462C0CF83E","8cead3a7-8724-4c33-a9ea-503a73c591a0","6d972c12-ef4f-4967-baa7-815328c4c025","{""num_scrambled_semantic"":""8"",""num_scrambled_causal"":""4"",""num_scrambled_schematic"":""4"",""participantId"":""EBF31F4BA5204F098DF439462C0CF83E"",""assignmentId"":""8cead3a7-8724-4c33-a9ea-503a73c591a0"",""projectId"":""6d972c12-ef4f-4967-baa7-815328c4c025""}","https://test12345.live/?num_scrambled_semantic=8&num_scrambled_causal=4&num_scrambled_schematic=4&participantId=EBF31F4BA5204F098DF439462C0CF83E&assignmentId=8cead3a7-8724-4c33-a9ea-503a73c591a0&projectId=6d972c12-ef4f-4967-baa7-815328c4c025","EBF31F4BA5204F098DF439462C0CF83E-2025-08-07-17-53-24","[{""page_index"":0,""viewing_time"":10902},{""page_index"":1,""viewing_time"":1424}]","12327","","","","",""
"","","","","","html-audio-response","22","304565","0.0-8.0","EBF31F4BA5204F098DF439462C0CF83E","EBF31F4BA5204F098DF439462C0CF83E","8cead3a7-8724-4c33-a9ea-503a73c591a0","6d972c12-ef4f-4967-baa7-815328c4c025","{""num_scrambled_semantic"":""8"",""num_scrambled_causal"":""4"",""num_scrambled_schematic"":""4"",""participantId"":""EBF31F4BA5204F098DF439462C0CF83E"",""assignmentId"":""8cead3a7-8724-4c33-a9ea-503a73c591a0"",""projectId"":""6d972c12-ef4f-4967-baa7-815328c4c025""}","https://test12345.live/?num_scrambled_semantic=8&num_scrambled_causal=4&num_scrambled_schematic=4&participantId=EBF31F4BA5204F098DF439462C0CF83E&assignmentId=8cead3a7-8724-4c33-a9ea-503a73c591a0&projectId=6d972c12-ef4f-4967-baa7-815328c4c025","EBF31F4BA5204F098DF439462C0CF83E-2025-08-07-17-53-24","","27130","","[""<span style=\""color: red; font-size: 24px\""> NOW RECORDING</span><p>Please say out loud all the images you saw in the exact order you saw them. Try to recall as many images as you can, but remember: getting the order right is more important than the number of images you recall.</p>""]","","2",""
"","","","","","instructions","23","307573","0.0-9.0","EBF31F4BA5204F098DF439462C0CF83E","EBF31F4BA5204F098DF439462C0CF83E","8cead3a7-8724-4c33-a9ea-503a73c591a0","6d972c12-ef4f-4967-baa7-815328c4c025","{""num_scrambled_semantic"":""8"",""num_scrambled_causal"":""4"",""num_scrambled_schematic"":""4"",""participantId"":""EBF31F4BA5204F098DF439462C0CF83E"",""assignmentId"":""8cead3a7-8724-4c33-a9ea-503a73c591a0"",""projectId"":""6d972c12-ef4f-4967-baa7-815328c4c025""}","https://test12345.live/?num_scrambled_semantic=8&num_scrambled_causal=4&num_scrambled_schematic=4&participantId=EBF31F4BA5204F098DF439462C0CF83E&assignmentId=8cead3a7-8724-4c33-a9ea-503a73c591a0&projectId=6d972c12-ef4f-4967-baa7-815328c4c025","EBF31F4BA5204F098DF439462C0CF83E-2025-08-07-17-53-24","[{""page_index"":0,""viewing_time"":2999}]","2999","","","","",""
"","","","","","image-button-response","24","313592","0.0-10.0-0.0","EBF31F4BA5204F098DF439462C0CF83E","EBF31F4BA5204F098DF439462C0CF83E","8cead3a7-8724-4c33-a9ea-503a73c591a0","6d972c12-ef4f-4967-baa7-815328c4c025","{""num_scrambled_semantic"":""8"",""num_scrambled_causal"":""4"",""num_scrambled_schematic"":""4"",""participantId"":""EBF31F4BA5204F098DF439462C0CF83E"",""assignmentId"":""8cead3a7-8724-4c33-a9ea-503a73c591a0"",""projectId"":""6d972c12-ef4f-4967-baa7-815328c4c025""}","https://test12345.live/?num_scrambled_semantic=8&num_scrambled_causal=4&num_scrambled_schematic=4&participantId=EBF31F4BA5204F098DF439462C0CF83E&assignmentId=8cead3a7-8724-4c33-a9ea-503a73c591a0&projectId=6d972c12-ef4f-4967-baa7-815328c4c025","EBF31F4BA5204F098DF439462C0CF83E-2025-08-07-17-53-24","","null","","images/causal_sequence/the_performance_causal/the_performance_causal_0.png","null","",""
"","","","","","image-button-response","25","318102","0.0-10.0-1.0-0.0","EBF31F4BA5204F098DF439462C0CF83E","EBF31F4BA5204F098DF439462C0CF83E","8cead3a7-8724-4c33-a9ea-503a73c591a0","6d972c12-ef4f-4967-baa7-815328c4c025","{""num_scrambled_semantic"":""8"",""num_scrambled_causal"":""4"",""num_scrambled_schematic"":""4"",""participantId"":""EBF31F4BA5204F098DF439462C0CF83E"",""assignmentId"":""8cead3a7-8724-4c33-a9ea-503a73c591a0"",""projectId"":""6d972c12-ef4f-4967-baa7-815328c4c025""}","https://test12345.live/?num_scrambled_semantic=8&num_scrambled_causal=4&num_scrambled_schematic=4&participantId=EBF31F4BA5204F098DF439462C0CF83E&assignmentId=8cead3a7-8724-4c33-a9ea-503a73c591a0&projectId=6d972c12-ef4f-4967-baa7-815328c4c025","EBF31F4BA5204F098DF439462C0CF83E-2025-08-07-17-53-24","","null","","images/causal_sequence/the_performance_causal/the_performance_causal_5.png","null","",""
"","","","","","image-button-response","26","322116","0.0-10.0-1.0-1.0","EBF31F4BA5204F098DF439462C0CF83E","EBF31F4BA5204F098DF439462C0CF83E","8cead3a7-8724-4c33-a9ea-503a73c591a0","6d972c12-ef4f-4967-baa7-815328c4c025","{""num_scrambled_semantic"":""8"",""num_scrambled_causal"":""4"",""num_scrambled_schematic"":""4"",""participantId"":""EBF31F4BA5204F098DF439462C0CF83E"",""assignmentId"":""8cead3a7-8724-4c33-a9ea-503a73c591a0"",""projectId"":""6d972c12-ef4f-4967-baa7-815328c4c025""}","https://test12345.live/?num_scrambled_semantic=8&num_scrambled_causal=4&num_scrambled_schematic=4&participantId=EBF31F4BA5204F098DF439462C0CF83E&assignmentId=8cead3a7-8724-4c33-a9ea-503a73c591a0&projectId=6d972c12-ef4f-4967-baa7-815328c4c025","EBF31F4BA5204F098DF439462C0CF83E-2025-08-07-17-53-24","","null","","images/causal_sequence/the_performance_causal/the_performance_causal_5.png","null","",""
"","","","","","image-button-response","27","323927","0.0-10.0-1.0-2.0","EBF31F4BA5204F098DF439462C0CF83E","EBF31F4BA5204F098DF439462C0CF83E","8cead3a7-8724-4c33-a9ea-503a73c591a0","6d972c12-ef4f-4967-baa7-815328c4c025","{""num_scrambled_semantic"":""8"",""num_scrambled_causal"":""4"",""num_scrambled_schematic"":""4"",""participantId"":""EBF31F4BA5204F098DF439462C0CF83E"",""assignmentId"":""8cead3a7-8724-4c33-a9ea-503a73c591a0"",""projectId"":""6d972c12-ef4f-4967-baa7-815328c4c025""}","https://test12345.live/?num_scrambled_semantic=8&num_scrambled_causal=4&num_scrambled_schematic=4&participantId=EBF31F4BA5204F098DF439462C0CF83E&assignmentId=8cead3a7-8724-4c33-a9ea-503a73c591a0&projectId=6d972c12-ef4f-4967-baa7-815328c4c025","EBF31F4BA5204F098DF439462C0CF83E-2025-08-07-17-53-24","","null","","[]","null","",""
"","","","","","image-button-response","28","328437","0.0-10.0-1.0-0.1","EBF31F4BA5204F098DF439462C0CF83E","EBF31F4BA5204F098DF439462C0CF83E","8cead3a7-8724-4c33-a9ea-503a73c591a0","6d972c12-ef4f-4967-baa7-815328c4c025","{""num_scrambled_semantic"":""8"",""num_scrambled_causal"":""4"",""num_scrambled_schematic"":""4"",""participantId"":""EBF31F4BA5204F098DF439462C0CF83E"",""assignmentId"":""8cead3a7-8724-4c33-a9ea-503a73c591a0"",""projectId"":""6d972c12-ef4f-4967-baa7-815328c4c025""}","https://test12345.live/?num_scrambled_semantic=8&num_scrambled_causal=4&num_scrambled_schematic=4&participantId=EBF31F4BA5204F098DF439462C0CF83E&assignmentId=8cead3a7-8724-4c33-a9ea-503a73c591a0&projectId=6d972c12-ef4f-4967-baa7-815328c4c025","EBF31F4BA5204F098DF439462C0CF83E-2025-08-07-17-53-24","","null","","images/causal_sequence/the_performance_causal/the_performance_causal_7.png","null","",""
"","","","","","image-button-response","29","331757","0.0-10.0-1.0-1.1","EBF31F4BA5204F098DF439462C0CF83E","EBF31F4BA5204F098DF439462C0CF83E","8cead3a7-8724-4c33-a9ea-503a73c591a0","6d972c12-ef4f-4967-baa7-815328c4c025","{""num_scrambled_semantic"":""8"",""num_scrambled_causal"":""4"",""num_scrambled_schematic"":""4"",""participantId"":""EBF31F4BA5204F098DF439462C0CF83E"",""assignmentId"":""8cead3a7-8724-4c33-a9ea-503a73c591a0"",""projectId"":""6d972c12-ef4f-4967-baa7-815328c4c025""}","https://test12345.live/?num_scrambled_semantic=8&num_scrambled_causal=4&num_scrambled_schematic=4&participantId=EBF31F4BA5204F098DF439462C0CF83E&assignmentId=8cead3a7-8724-4c33-a9ea-503a73c591a0&projectId=6d972c12-ef4f-4967-baa7-815328c4c025","EBF31F4BA5204F098DF439462C0CF83E-2025-08-07-17-53-24","","3318","","images/causal_sequence/the_performance_causal/the_performance_causal_7.png","0","",""
"","","","","","image-button-response","30","333563","0.0-10.0-1.0-2.1","EBF31F4BA5204F098DF439462C0CF83E","EBF31F4BA5204F098DF439462C0CF83E","8cead3a7-8724-4c33-a9ea-503a73c591a0","6d972c12-ef4f-4967-baa7-815328c4c025","{""num_scrambled_semantic"":""8"",""num_scrambled_causal"":""4"",""num_scrambled_schematic"":""4"",""participantId"":""EBF31F4BA5204F098DF439462C0CF83E"",""assignmentId"":""8cead3a7-8724-4c33-a9ea-503a73c591a0"",""projectId"":""6d972c12-ef4f-4967-baa7-815328c4c025""}","https://test12345.live/?num_scrambled_semantic=8&num_scrambled_causal=4&num_scrambled_schematic=4&participantId=EBF31F4BA5204F098DF439462C0CF83E&assignmentId=8cead3a7-8724-4c33-a9ea-503a73c591a0&projectId=6d972c12-ef4f-4967-baa7-815328c4c025","EBF31F4BA5204F098DF439462C0CF83E-2025-08-07-17-53-24","","null","","[]","null","",""
"","","","","","image-button-response","31","338072","0.0-10.0-1.0-0.2","EBF31F4BA5204F098DF439462C0CF83E","EBF31F4BA5204F098DF439462C0CF83E","8cead3a7-8724-4c33-a9ea-503a73c591a0","6d972c12-ef4f-4967-baa7-815328c4c025","{""num_scrambled_semantic"":""8"",""num_scrambled_causal"":""4"",""num_scrambled_schematic"":""4"",""participantId"":""EBF31F4BA5204F098DF439462C0CF83E"",""assignmentId"":""8cead3a7-8724-4c33-a9ea-503a73c591a0"",""projectId"":""6d972c12-ef4f-4967-baa7-815328c4c025""}","https://test12345.live/?num_scrambled_semantic=8&num_scrambled_causal=4&num_scrambled_schematic=4&participantId=EBF31F4BA5204F098DF439462C0CF83E&assignmentId=8cead3a7-8724-4c33-a9ea-503a73c591a0&projectId=6d972c12-ef4f-4967-baa7-815328c4c025","EBF31F4BA5204F098DF439462C0CF83E-2025-08-07-17-53-24","","null","","images/causal_sequence/the_performance_causal/the_performance_causal_6.png","null","",""
"","","","","","image-button-response","32","339605","0.0-10.0-1.0-1.2","EBF31F4BA5204F098DF439462C0CF83E","EBF31F4BA5204F098DF439462C0CF83E","8cead3a7-8724-4c33-a9ea-503a73c591a0","6d972c12-ef4f-4967-baa7-815328c4c025","{""num_scrambled_semantic"":""8"",""num_scrambled_causal"":""4"",""num_scrambled_schematic"":""4"",""participantId"":""EBF31F4BA5204F098DF439462C0CF83E"",""assignmentId"":""8cead3a7-8724-4c33-a9ea-503a73c591a0"",""projectId"":""6d972c12-ef4f-4967-baa7-815328c4c025""}","https://test12345.live/?num_scrambled_semantic=8&num_scrambled_causal=4&num_scrambled_schematic=4&participantId=EBF31F4BA5204F098DF439462C0CF83E&assignmentId=8cead3a7-8724-4c33-a9ea-503a73c591a0&projectId=6d972c12-ef4f-4967-baa7-815328c4c025","EBF31F4BA5204F098DF439462C0CF83E-2025-08-07-17-53-24","","1531","","images/causal_sequence/the_performance_causal/the_performance_causal_6.png","0","",""
"","","","","","image-button-response","33","341422","0.0-10.0-1.0-2.2","EBF31F4BA5204F098DF439462C0CF83E","EBF31F4BA5204F098DF439462C0CF83E","8cead3a7-8724-4c33-a9ea-503a73c591a0","6d972c12-ef4f-4967-baa7-815328c4c025","{""num_scrambled_semantic"":""8"",""num_scrambled_causal"":""4"",""num_scrambled_schematic"":""4"",""participantId"":""EBF31F4BA5204F098DF439462C0CF83E"",""assignmentId"":""8cead3a7-8724-4c33-a9ea-503a73c591a0"",""projectId"":""6d972c12-ef4f-4967-baa7-815328c4c025""}","https://test12345.live/?num_scrambled_semantic=8&num_scrambled_causal=4&num_scrambled_schematic=4&participantId=EBF31F4BA5204F098DF439462C0CF83E&assignmentId=8cead3a7-8724-4c33-a9ea-503a73c591a0&projectId=6d972c12-ef4f-4967-baa7-815328c4c025","EBF31F4BA5204F098DF439462C0CF83E-2025-08-07-17-53-24","","null","","[]","null","",""
"","","","","","image-button-response","34","345932","0.0-10.0-1.0-0.3","EBF31F4BA5204F098DF439462C0CF83E","EBF31F4BA5204F098DF439462C0CF83E","8cead3a7-8724-4c33-a9ea-503a73c591a0","6d972c12-ef4f-4967-baa7-815328c4c025","{""num_scrambled_semantic"":""8"",""num_scrambled_causal"":""4"",""num_scrambled_schematic"":""4"",""participantId"":""EBF31F4BA5204F098DF439462C0CF83E"",""assignmentId"":""8cead3a7-8724-4c33-a9ea-503a73c591a0"",""projectId"":""6d972c12-ef4f-4967-baa7-815328c4c025""}","https://test12345.live/?num_scrambled_semantic=8&num_scrambled_causal=4&num_scrambled_schematic=4&participantId=EBF31F4BA5204F098DF439462C0CF83E&assignmentId=8cead3a7-8724-4c33-a9ea-503a73c591a0&projectId=6d972c12-ef4f-4967-baa7-815328c4c025","EBF31F4BA5204F098DF439462C0CF83E-2025-08-07-17-53-24","","null","","images/causal_sequence/the_performance_causal/the_performance_causal_9.png","null","",""
"","","","","","image-button-response","35","349244","0.0-10.0-1.0-1.3","EBF31F4BA5204F098DF439462C0CF83E","EBF31F4BA5204F098DF439462C0CF83E","8cead3a7-8724-4c33-a9ea-503a73c591a0","6d972c12-ef4f-4967-baa7-815328c4c025","{""num_scrambled_semantic"":""8"",""num_scrambled_causal"":""4"",""num_scrambled_schematic"":""4"",""participantId"":""EBF31F4BA5204F098DF439462C0CF83E"",""assignmentId"":""8cead3a7-8724-4c33-a9ea-503a73c591a0"",""projectId"":""6d972c12-ef4f-4967-baa7-815328c4c025""}","https://test12345.live/?num_scrambled_semantic=8&num_scrambled_causal=4&num_scrambled_schematic=4&participantId=EBF31F4BA5204F098DF439462C0CF83E&assignmentId=8cead3a7-8724-4c33-a9ea-503a73c591a0&projectId=6d972c12-ef4f-4967-baa7-815328c4c025","EBF31F4BA5204F098DF439462C0CF83E-2025-08-07-17-53-24","","3311","","images/causal_sequence/the_performance_causal/the_performance_causal_9.png","0","",""
"","","","","","image-button-response","36","351062","0.0-10.0-1.0-2.3","EBF31F4BA5204F098DF439462C0CF83E","EBF31F4BA5204F098DF439462C0CF83E","8cead3a7-8724-4c33-a9ea-503a73c591a0","6d972c12-ef4f-4967-baa7-815328c4c025","{""num_scrambled_semantic"":""8"",""num_scrambled_causal"":""4"",""num_scrambled_schematic"":""4"",""participantId"":""EBF31F4BA5204F098DF439462C0CF83E"",""assignmentId"":""8cead3a7-8724-4c33-a9ea-503a73c591a0"",""projectId"":""6d972c12-ef4f-4967-baa7-815328c4c025""}","https://test12345.live/?num_scrambled_semantic=8&num_scrambled_causal=4&num_scrambled_schematic=4&participantId=EBF31F4BA5204F098DF439462C0CF83E&assignmentId=8cead3a7-8724-4c33-a9ea-503a73c591a0&projectId=6d972c12-ef4f-4967-baa7-815328c4c025","EBF31F4BA5204F098DF439462C0CF83E-2025-08-07-17-53-24","","null","","[]","null","",""
"","","","","","image-button-response","37","355572","0.0-10.0-1.0-0.4","EBF31F4BA5204F098DF439462C0CF83E","EBF31F4BA5204F098DF439462C0CF83E","8cead3a7-8724-4c33-a9ea-503a73c591a0","6d972c12-ef4f-4967-baa7-815328c4c025","{""num_scrambled_semantic"":""8"",""num_scrambled_causal"":""4"",""num_scrambled_schematic"":""4"",""participantId"":""EBF31F4BA5204F098DF439462C0CF83E"",""assignmentId"":""8cead3a7-8724-4c33-a9ea-503a73c591a0"",""projectId"":""6d972c12-ef4f-4967-baa7-815328c4c025""}","https://test12345.live/?num_scrambled_semantic=8&num_scrambled_causal=4&num_scrambled_schematic=4&participantId=EBF31F4BA5204F098DF439462C0CF83E&assignmentId=8cead3a7-8724-4c33-a9ea-503a73c591a0&projectId=6d972c12-ef4f-4967-baa7-815328c4c025","EBF31F4BA5204F098DF439462C0CF83E-2025-08-07-17-53-24","","null","","images/causal_sequence/the_performance_causal/the_performance_causal_3.png","null","",""
"","","","","","image-button-response","38","358069","0.0-10.0-1.0-1.4","EBF31F4BA5204F098DF439462C0CF83E","EBF31F4BA5204F098DF439462C0CF83E","8cead3a7-8724-4c33-a9ea-503a73c591a0","6d972c12-ef4f-4967-baa7-815328c4c025","{""num_scrambled_semantic"":""8"",""num_scrambled_causal"":""4"",""num_scrambled_schematic"":""4"",""participantId"":""EBF31F4BA5204F098DF439462C0CF83E"",""assignmentId"":""8cead3a7-8724-4c33-a9ea-503a73c591a0"",""projectId"":""6d972c12-ef4f-4967-baa7-815328c4c025""}","https://test12345.live/?num_scrambled_semantic=8&num_scrambled_causal=4&num_scrambled_schematic=4&participantId=EBF31F4BA5204F098DF439462C0CF83E&assignmentId=8cead3a7-8724-4c33-a9ea-503a73c591a0&projectId=6d972c12-ef4f-4967-baa7-815328c4c025","EBF31F4BA5204F098DF439462C0CF83E-2025-08-07-17-53-24","","2495","","images/causal_sequence/the_performance_causal/the_performance_causal_3.png","0","",""
"","","","","","image-button-response","39","359881","0.0-10.0-1.0-2.4","EBF31F4BA5204F098DF439462C0CF83E","EBF31F4BA5204F098DF439462C0CF83E","8cead3a7-8724-4c33-a9ea-503a73c591a0","6d972c12-ef4f-4967-baa7-815328c4c025","{""num_scrambled_semantic"":""8"",""num_scrambled_causal"":""4"",""num_scrambled_schematic"":""4"",""participantId"":""EBF31F4BA5204F098DF439462C0CF83E"",""assignmentId"":""8cead3a7-8724-4c33-a9ea-503a73c591a0"",""projectId"":""6d972c12-ef4f-4967-baa7-815328c4c025""}","https://test12345.live/?num_scrambled_semantic=8&num_scrambled_causal=4&num_scrambled_schematic=4&participantId=EBF31F4BA5204F098DF439462C0CF83E&assignmentId=8cead3a7-8724-4c33-a9ea-503a73c591a0&projectId=6d972c12-ef4f-4967-baa7-815328c4c025","EBF31F4BA5204F098DF439462C0CF83E-2025-08-07-17-53-24","","null","","[]","null","",""
"","","","","","image-button-response","40","364391","0.0-10.0-1.0-0.5","EBF31F4BA5204F098DF439462C0CF83E","EBF31F4BA5204F098DF439462C0CF83E","8cead3a7-8724-4c33-a9ea-503a73c591a0","6d972c12-ef4f-4967-baa7-815328c4c025","{""num_scrambled_semantic"":""8"",""num_scrambled_causal"":""4"",""num_scrambled_schematic"":""4"",""participantId"":""EBF31F4BA5204F098DF439462C0CF83E"",""assignmentId"":""8cead3a7-8724-4c33-a9ea-503a73c591a0"",""projectId"":""6d972c12-ef4f-4967-baa7-815328c4c025""}","https://test12345.live/?num_scrambled_semantic=8&num_scrambled_causal=4&num_scrambled_schematic=4&participantId=EBF31F4BA5204F098DF439462C0CF83E&assignmentId=8cead3a7-8724-4c33-a9ea-503a73c591a0&projectId=6d972c12-ef4f-4967-baa7-815328c4c025","EBF31F4BA5204F098DF439462C0CF83E-2025-08-07-17-53-24","","null","","images/causal_sequence/the_performance_causal/the_performance_causal_8.png","null","",""
"","","","","","image-button-response","41","366732","0.0-10.0-1.0-1.5","EBF31F4BA5204F098DF439462C0CF83E","EBF31F4BA5204F098DF439462C0CF83E","8cead3a7-8724-4c33-a9ea-503a73c591a0","6d972c12-ef4f-4967-baa7-815328c4c025","{""num_scrambled_semantic"":""8"",""num_scrambled_causal"":""4"",""num_scrambled_schematic"":""4"",""participantId"":""EBF31F4BA5204F098DF439462C0CF83E"",""assignmentId"":""8cead3a7-8724-4c33-a9ea-503a73c591a0"",""projectId"":""6d972c12-ef4f-4967-baa7-815328c4c025""}","https://test12345.live/?num_scrambled_semantic=8&num_scrambled_causal=4&num_scrambled_schematic=4&participantId=EBF31F4BA5204F098DF439462C0CF83E&assignmentId=8cead3a7-8724-4c33-a9ea-503a73c591a0&projectId=6d972c12-ef4f-4967-baa7-815328c4c025","EBF31F4BA5204F098DF439462C0CF83E-2025-08-07-17-53-24","","2340","","images/causal_sequence/the_performance_causal/the_performance_causal_8.png","0","",""
"","","","","","image-button-response","42","368542","0.0-10.0-1.0-2.5","EBF31F4BA5204F098DF439462C0CF83E","EBF31F4BA5204F098DF439462C0CF83E","8cead3a7-8724-4c33-a9ea-503a73c591a0","6d972c12-ef4f-4967-baa7-815328c4c025","{""num_scrambled_semantic"":""8"",""num_scrambled_causal"":""4"",""num_scrambled_schematic"":""4"",""participantId"":""EBF31F4BA5204F098DF439462C0CF83E"",""assignmentId"":""8cead3a7-8724-4c33-a9ea-503a73c591a0"",""projectId"":""6d972c12-ef4f-4967-baa7-815328c4c025""}","https://test12345.live/?num_scrambled_semantic=8&num_scrambled_causal=4&num_scrambled_schematic=4&participantId=EBF31F4BA5204F098DF439462C0CF83E&assignmentId=8cead3a7-8724-4c33-a9ea-503a73c591a0&projectId=6d972c12-ef4f-4967-baa7-815328c4c025","EBF31F4BA5204F098DF439462C0CF83E-2025-08-07-17-53-24","","null","","[]","null","",""
"","","","","","image-button-response","43","373062","0.0-10.0-1.0-0.6","EBF31F4BA5204F098DF439462C0CF83E","EBF31F4BA5204F098DF439462C0CF83E","8cead3a7-8724-4c33-a9ea-503a73c591a0","6d972c12-ef4f-4967-baa7-815328c4c025","{""num_scrambled_semantic"":""8"",""num_scrambled_causal"":""4"",""num_scrambled_schematic"":""4"",""participantId"":""EBF31F4BA5204F098DF439462C0CF83E"",""assignmentId"":""8cead3a7-8724-4c33-a9ea-503a73c591a0"",""projectId"":""6d972c12-ef4f-4967-baa7-815328c4c025""}","https://test12345.live/?num_scrambled_semantic=8&num_scrambled_causal=4&num_scrambled_schematic=4&participantId=EBF31F4BA5204F098DF439462C0CF83E&assignmentId=8cead3a7-8724-4c33-a9ea-503a73c591a0&projectId=6d972c12-ef4f-4967-baa7-815328c4c025","EBF31F4BA5204F098DF439462C0CF83E-2025-08-07-17-53-24","","null","","images/causal_sequence/the_performance_causal/the_performance_causal_4.png","null","",""
"","","","","","image-button-response","44","375204","0.0-10.0-1.0-1.6","EBF31F4BA5204F098DF439462C0CF83E","EBF31F4BA5204F098DF439462C0CF83E","8cead3a7-8724-4c33-a9ea-503a73c591a0","6d972c12-ef4f-4967-baa7-815328c4c025","{""num_scrambled_semantic"":""8"",""num_scrambled_causal"":""4"",""num_scrambled_schematic"":""4"",""participantId"":""EBF31F4BA5204F098DF439462C0CF83E"",""assignmentId"":""8cead3a7-8724-4c33-a9ea-503a73c591a0"",""projectId"":""6d972c12-ef4f-4967-baa7-815328c4c025""}","https://test12345.live/?num_scrambled_semantic=8&num_scrambled_causal=4&num_scrambled_schematic=4&participantId=EBF31F4BA5204F098DF439462C0CF83E&assignmentId=8cead3a7-8724-4c33-a9ea-503a73c591a0&projectId=6d972c12-ef4f-4967-baa7-815328c4c025","EBF31F4BA5204F098DF439462C0CF83E-2025-08-07-17-53-24","","2141","","images/causal_sequence/the_performance_causal/the_performance_causal_4.png","0","",""
"","","","","","image-button-response","45","377022","0.0-10.0-1.0-2.6","EBF31F4BA5204F098DF439462C0CF83E","EBF31F4BA5204F098DF439462C0CF83E","8cead3a7-8724-4c33-a9ea-503a73c591a0","6d972c12-ef4f-4967-baa7-815328c4c025","{""num_scrambled_semantic"":""8"",""num_scrambled_causal"":""4"",""num_scrambled_schematic"":""4"",""participantId"":""EBF31F4BA5204F098DF439462C0CF83E"",""assignmentId"":""8cead3a7-8724-4c33-a9ea-503a73c591a0"",""projectId"":""6d972c12-ef4f-4967-baa7-815328c4c025""}","https://test12345.live/?num_scrambled_semantic=8&num_scrambled_causal=4&num_scrambled_schematic=4&participantId=EBF31F4BA5204F098DF439462C0CF83E&assignmentId=8cead3a7-8724-4c33-a9ea-503a73c591a0&projectId=6d972c12-ef4f-4967-baa7-815328c4c025","EBF31F4BA5204F098DF439462C0CF83E-2025-08-07-17-53-24","","null","","[]","null","",""
"","","","","","image-button-response","46","381541","0.0-10.0-1.0-0.7","EBF31F4BA5204F098DF439462C0CF83E","EBF31F4BA5204F098DF439462C0CF83E","8cead3a7-8724-4c33-a9ea-503a73c591a0","6d972c12-ef4f-4967-baa7-815328c4c025","{""num_scrambled_semantic"":""8"",""num_scrambled_causal"":""4"",""num_scrambled_schematic"":""4"",""participantId"":""EBF31F4BA5204F098DF439462C0CF83E"",""assignmentId"":""8cead3a7-8724-4c33-a9ea-503a73c591a0"",""projectId"":""6d972c12-ef4f-4967-baa7-815328c4c025""}","https://test12345.live/?num_scrambled_semantic=8&num_scrambled_causal=4&num_scrambled_schematic=4&participantId=EBF31F4BA5204F098DF439462C0CF83E&assignmentId=8cead3a7-8724-4c33-a9ea-503a73c591a0&projectId=6d972c12-ef4f-4967-baa7-815328c4c025","EBF31F4BA5204F098DF439462C0CF83E-2025-08-07-17-53-24","","null","","images/causal_sequence/the_performance_causal/the_performance_causal_9 (2).png","null","",""
"","","","","","image-button-response","47","383772","0.0-10.0-1.0-1.7","EBF31F4BA5204F098DF439462C0CF83E","EBF31F4BA5204F098DF439462C0CF83E","8cead3a7-8724-4c33-a9ea-503a73c591a0","6d972c12-ef4f-4967-baa7-815328c4c025","{""num_scrambled_semantic"":""8"",""num_scrambled_causal"":""4"",""num_scrambled_schematic"":""4"",""participantId"":""EBF31F4BA5204F098DF439462C0CF83E"",""assignmentId"":""8cead3a7-8724-4c33-a9ea-503a73c591a0"",""projectId"":""6d972c12-ef4f-4967-baa7-815328c4c025""}","https://test12345.live/?num_scrambled_semantic=8&num_scrambled_causal=4&num_scrambled_schematic=4&participantId=EBF31F4BA5204F098DF439462C0CF83E&assignmentId=8cead3a7-8724-4c33-a9ea-503a73c591a0&projectId=6d972c12-ef4f-4967-baa7-815328c4c025","EBF31F4BA5204F098DF439462C0CF83E-2025-08-07-17-53-24","","2230","","images/causal_sequence/the_performance_causal/the_performance_causal_9 (2).png","0","",""
"","","","","","image-button-response","48","385577","0.0-10.0-1.0-2.7","EBF31F4BA5204F098DF439462C0CF83E","EBF31F4BA5204F098DF439462C0CF83E","8cead3a7-8724-4c33-a9ea-503a73c591a0","6d972c12-ef4f-4967-baa7-815328c4c025","{""num_scrambled_semantic"":""8"",""num_scrambled_causal"":""4"",""num_scrambled_schematic"":""4"",""participantId"":""EBF31F4BA5204F098DF439462C0CF83E"",""assignmentId"":""8cead3a7-8724-4c33-a9ea-503a73c591a0"",""projectId"":""6d972c12-ef4f-4967-baa7-815328c4c025""}","https://test12345.live/?num_scrambled_semantic=8&num_scrambled_causal=4&num_scrambled_schematic=4&participantId=EBF31F4BA5204F098DF439462C0CF83E&assignmentId=8cead3a7-8724-4c33-a9ea-503a73c591a0&projectId=6d972c12-ef4f-4967-baa7-815328c4c025","EBF31F4BA5204F098DF439462C0CF83E-2025-08-07-17-53-24","","null","","[]","null","",""
"","","","","","image-button-response","49","390092","0.0-10.0-1.0-0.8","EBF31F4BA5204F098DF439462C0CF83E","EBF31F4BA5204F098DF439462C0CF83E","8cead3a7-8724-4c33-a9ea-503a73c591a0","6d972c12-ef4f-4967-baa7-815328c4c025","{""num_scrambled_semantic"":""8"",""num_scrambled_causal"":""4"",""num_scrambled_schematic"":""4"",""participantId"":""EBF31F4BA5204F098DF439462C0CF83E"",""assignmentId"":""8cead3a7-8724-4c33-a9ea-503a73c591a0"",""projectId"":""6d972c12-ef4f-4967-baa7-815328c4c025""}","https://test12345.live/?num_scrambled_semantic=8&num_scrambled_causal=4&num_scrambled_schematic=4&participantId=EBF31F4BA5204F098DF439462C0CF83E&assignmentId=8cead3a7-8724-4c33-a9ea-503a73c591a0&projectId=6d972c12-ef4f-4967-baa7-815328c4c025","EBF31F4BA5204F098DF439462C0CF83E-2025-08-07-17-53-24","","null","","images/causal_sequence/the_performance_causal/the_performance_causal_2.png","null","",""
"","","","","","image-button-response","50","391412","0.0-10.0-1.0-1.8","EBF31F4BA5204F098DF439462C0CF83E","EBF31F4BA5204F098DF439462C0CF83E","8cead3a7-8724-4c33-a9ea-503a73c591a0","6d972c12-ef4f-4967-baa7-815328c4c025","{""num_scrambled_semantic"":""8"",""num_scrambled_causal"":""4"",""num_scrambled_schematic"":""4"",""participantId"":""EBF31F4BA5204F098DF439462C0CF83E"",""assignmentId"":""8cead3a7-8724-4c33-a9ea-503a73c591a0"",""projectId"":""6d972c12-ef4f-4967-baa7-815328c4c025""}","https://test12345.live/?num_scrambled_semantic=8&num_scrambled_causal=4&num_scrambled_schematic=4&participantId=EBF31F4BA5204F098DF439462C0CF83E&assignmentId=8cead3a7-8724-4c33-a9ea-503a73c591a0&projectId=6d972c12-ef4f-4967-baa7-815328c4c025","EBF31F4BA5204F098DF439462C0CF83E-2025-08-07-17-53-24","","1319","","images/causal_sequence/the_performance_causal/the_performance_causal_2.png","0","",""
"","","","","","image-button-response","51","393219","0.0-10.0-1.0-2.8","EBF31F4BA5204F098DF439462C0CF83E","EBF31F4BA5204F098DF439462C0CF83E","8cead3a7-8724-4c33-a9ea-503a73c591a0","6d972c12-ef4f-4967-baa7-815328c4c025","{""num_scrambled_semantic"":""8"",""num_scrambled_causal"":""4"",""num_scrambled_schematic"":""4"",""participantId"":""EBF31F4BA5204F098DF439462C0CF83E"",""assignmentId"":""8cead3a7-8724-4c33-a9ea-503a73c591a0"",""projectId"":""6d972c12-ef4f-4967-baa7-815328c4c025""}","https://test12345.live/?num_scrambled_semantic=8&num_scrambled_causal=4&num_scrambled_schematic=4&participantId=EBF31F4BA5204F098DF439462C0CF83E&assignmentId=8cead3a7-8724-4c33-a9ea-503a73c591a0&projectId=6d972c12-ef4f-4967-baa7-815328c4c025","EBF31F4BA5204F098DF439462C0CF83E-2025-08-07-17-53-24","","null","","[]","null","",""
"","","","","","image-button-response","52","397744","0.0-10.0-1.0-0.9","EBF31F4BA5204F098DF439462C0CF83E","EBF31F4BA5204F098DF439462C0CF83E","8cead3a7-8724-4c33-a9ea-503a73c591a0","6d972c12-ef4f-4967-baa7-815328c4c025","{""num_scrambled_semantic"":""8"",""num_scrambled_causal"":""4"",""num_scrambled_schematic"":""4"",""participantId"":""EBF31F4BA5204F098DF439462C0CF83E"",""assignmentId"":""8cead3a7-8724-4c33-a9ea-503a73c591a0"",""projectId"":""6d972c12-ef4f-4967-baa7-815328c4c025""}","https://test12345.live/?num_scrambled_semantic=8&num_scrambled_causal=4&num_scrambled_schematic=4&participantId=EBF31F4BA5204F098DF439462C0CF83E&assignmentId=8cead3a7-8724-4c33-a9ea-503a73c591a0&projectId=6d972c12-ef4f-4967-baa7-815328c4c025","EBF31F4BA5204F098DF439462C0CF83E-2025-08-07-17-53-24","","null","","images/causal_sequence/the_performance_causal/the_performance_causal_1.png","null","",""
"","","","","","image-button-response","53","399037","0.0-10.0-1.0-1.9","EBF31F4BA5204F098DF439462C0CF83E","EBF31F4BA5204F098DF439462C0CF83E","8cead3a7-8724-4c33-a9ea-503a73c591a0","6d972c12-ef4f-4967-baa7-815328c4c025","{""num_scrambled_semantic"":""8"",""num_scrambled_causal"":""4"",""num_scrambled_schematic"":""4"",""participantId"":""EBF31F4BA5204F098DF439462C0CF83E"",""assignmentId"":""8cead3a7-8724-4c33-a9ea-503a73c591a0"",""projectId"":""6d972c12-ef4f-4967-baa7-815328c4c025""}","https://test12345.live/?num_scrambled_semantic=8&num_scrambled_causal=4&num_scrambled_schematic=4&participantId=EBF31F4BA5204F098DF439462C0CF83E&assignmentId=8cead3a7-8724-4c33-a9ea-503a73c591a0&projectId=6d972c12-ef4f-4967-baa7-815328c4c025","EBF31F4BA5204F098DF439462C0CF83E-2025-08-07-17-53-24","","1291","","images/causal_sequence/the_performance_causal/the_performance_causal_1.png","0","",""
"","","","","","image-button-response","54","400847","0.0-10.0-1.0-2.9","EBF31F4BA5204F098DF439462C0CF83E","EBF31F4BA5204F098DF439462C0CF83E","8cead3a7-8724-4c33-a9ea-503a73c591a0","6d972c12-ef4f-4967-baa7-815328c4c025","{""num_scrambled_semantic"":""8"",""num_scrambled_causal"":""4"",""num_scrambled_schematic"":""4"",""participantId"":""EBF31F4BA5204F098DF439462C0CF83E"",""assignmentId"":""8cead3a7-8724-4c33-a9ea-503a73c591a0"",""projectId"":""6d972c12-ef4f-4967-baa7-815328c4c025""}","https://test12345.live/?num_scrambled_semantic=8&num_scrambled_causal=4&num_scrambled_schematic=4&participantId=EBF31F4BA5204F098DF439462C0CF83E&assignmentId=8cead3a7-8724-4c33-a9ea-503a73c591a0&projectId=6d972c12-ef4f-4967-baa7-815328c4c025","EBF31F4BA5204F098DF439462C0CF83E-2025-08-07-17-53-24","","null","","[]","null","",""
"","","","","","html-audio-response","55","450389","0.0-11.0","EBF31F4BA5204F098DF439462C0CF83E","EBF31F4BA5204F098DF439462C0CF83E","8cead3a7-8724-4c33-a9ea-503a73c591a0","6d972c12-ef4f-4967-baa7-815328c4c025","{""num_scrambled_semantic"":""8"",""num_scrambled_causal"":""4"",""num_scrambled_schematic"":""4"",""participantId"":""EBF31F4BA5204F098DF439462C0CF83E"",""assignmentId"":""8cead3a7-8724-4c33-a9ea-503a73c591a0"",""projectId"":""6d972c12-ef4f-4967-baa7-815328c4c025""}","https://test12345.live/?num_scrambled_semantic=8&num_scrambled_causal=4&num_scrambled_schematic=4&participantId=EBF31F4BA5204F098DF439462C0CF83E&assignmentId=8cead3a7-8724-4c33-a9ea-503a73c591a0&projectId=6d972c12-ef4f-4967-baa7-815328c4c025","EBF31F4BA5204F098DF439462C0CF83E-2025-08-07-17-53-24","","26209","","[""<span style=\""color: red; font-size: 24px\""> NOW RECORDING</span><p>Please say out loud all the images you saw, in the exact order you saw them. Try to recall as many images as you can, but remember: getting the order right is more important than the number of images you recall.</p>""]","","1","the_performance_causal"
"","","","","","image-button-response","56","456402","0.0-12.0-0.0","EBF31F4BA5204F098DF439462C0CF83E","EBF31F4BA5204F098DF439462C0CF83E","8cead3a7-8724-4c33-a9ea-503a73c591a0","6d972c12-ef4f-4967-baa7-815328c4c025","{""num_scrambled_semantic"":""8"",""num_scrambled_causal"":""4"",""num_scrambled_schematic"":""4"",""participantId"":""EBF31F4BA5204F098DF439462C0CF83E"",""assignmentId"":""8cead3a7-8724-4c33-a9ea-503a73c591a0"",""projectId"":""6d972c12-ef4f-4967-baa7-815328c4c025""}","https://test12345.live/?num_scrambled_semantic=8&num_scrambled_causal=4&num_scrambled_schematic=4&participantId=EBF31F4BA5204F098DF439462C0CF83E&assignmentId=8cead3a7-8724-4c33-a9ea-503a73c591a0&projectId=6d972c12-ef4f-4967-baa7-815328c4c025","EBF31F4BA5204F098DF439462C0CF83E-2025-08-07-17-53-24","","null","","images/semantic_sequence/self_care_activities_semantic/self_care_activities_semantic_0.png","null","",""
"","","","","","image-button-response","57","460917","0.0-12.0-1.0-0.0","EBF31F4BA5204F098DF439462C0CF83E","EBF31F4BA5204F098DF439462C0CF83E","8cead3a7-8724-4c33-a9ea-503a73c591a0","6d972c12-ef4f-4967-baa7-815328c4c025","{""num_scrambled_semantic"":""8"",""num_scrambled_causal"":""4"",""num_scrambled_schematic"":""4"",""participantId"":""EBF31F4BA5204F098DF439462C0CF83E"",""assignmentId"":""8cead3a7-8724-4c33-a9ea-503a73c591a0"",""projectId"":""6d972c12-ef4f-4967-baa7-815328c4c025""}","https://test12345.live/?num_scrambled_semantic=8&num_scrambled_causal=4&num_scrambled_schematic=4&participantId=EBF31F4BA5204F098DF439462C0CF83E&assignmentId=8cead3a7-8724-4c33-a9ea-503a73c591a0&projectId=6d972c12-ef4f-4967-baa7-815328c4c025","EBF31F4BA5204F098DF439462C0CF83E-2025-08-07-17-53-24","","null","","images/semantic_sequence/self_care_activities_semantic/self_care_activities_semantic_9.png","null","",""
"","","","","","image-button-response","58","463044","0.0-12.0-1.0-1.0","EBF31F4BA5204F098DF439462C0CF83E","EBF31F4BA5204F098DF439462C0CF83E","8cead3a7-8724-4c33-a9ea-503a73c591a0","6d972c12-ef4f-4967-baa7-815328c4c025","{""num_scrambled_semantic"":""8"",""num_scrambled_causal"":""4"",""num_scrambled_schematic"":""4"",""participantId"":""EBF31F4BA5204F098DF439462C0CF83E"",""assignmentId"":""8cead3a7-8724-4c33-a9ea-503a73c591a0"",""projectId"":""6d972c12-ef4f-4967-baa7-815328c4c025""}","https://test12345.live/?num_scrambled_semantic=8&num_scrambled_causal=4&num_scrambled_schematic=4&participantId=EBF31F4BA5204F098DF439462C0CF83E&assignmentId=8cead3a7-8724-4c33-a9ea-503a73c591a0&projectId=6d972c12-ef4f-4967-baa7-815328c4c025","EBF31F4BA5204F098DF439462C0CF83E-2025-08-07-17-53-24","","2125","","images/semantic_sequence/self_care_activities_semantic/self_care_activities_semantic_9.png","0","",""
"","","","","","image-button-response","59","464862","0.0-12.0-1.0-2.0","EBF31F4BA5204F098DF439462C0CF83E","EBF31F4BA5204F098DF439462C0CF83E","8cead3a7-8724-4c33-a9ea-503a73c591a0","6d972c12-ef4f-4967-baa7-815328c4c025","{""num_scrambled_semantic"":""8"",""num_scrambled_causal"":""4"",""num_scrambled_schematic"":""4"",""participantId"":""EBF31F4BA5204F098DF439462C0CF83E"",""assignmentId"":""8cead3a7-8724-4c33-a9ea-503a73c591a0"",""projectId"":""6d972c12-ef4f-4967-baa7-815328c4c025""}","https://test12345.live/?num_scrambled_semantic=8&num_scrambled_causal=4&num_scrambled_schematic=4&participantId=EBF31F4BA5204F098DF439462C0CF83E&assignmentId=8cead3a7-8724-4c33-a9ea-503a73c591a0&projectId=6d972c12-ef4f-4967-baa7-815328c4c025","EBF31F4BA5204F098DF439462C0CF83E-2025-08-07-17-53-24","","null","","[]","null","",""
"","","","","","image-button-response","60","469372","0.0-12.0-1.0-0.1","EBF31F4BA5204F098DF439462C0CF83E","EBF31F4BA5204F098DF439462C0CF83E","8cead3a7-8724-4c33-a9ea-503a73c591a0","6d972c12-ef4f-4967-baa7-815328c4c025","{""num_scrambled_semantic"":""8"",""num_scrambled_causal"":""4"",""num_scrambled_schematic"":""4"",""participantId"":""EBF31F4BA5204F098DF439462C0CF83E"",""assignmentId"":""8cead3a7-8724-4c33-a9ea-503a73c591a0"",""projectId"":""6d972c12-ef4f-4967-baa7-815328c4c025""}","https://test12345.live/?num_scrambled_semantic=8&num_scrambled_causal=4&num_scrambled_schematic=4&participantId=EBF31F4BA5204F098DF439462C0CF83E&assignmentId=8cead3a7-8724-4c33-a9ea-503a73c591a0&projectId=6d972c12-ef4f-4967-baa7-815328c4c025","EBF31F4BA5204F098DF439462C0CF83E-2025-08-07-17-53-24","","null","","images/semantic_sequence/self_care_activities_semantic/self_care_activities_semantic_7.png","null","",""
"","","","","","image-button-response","61","470517","0.0-12.0-1.0-1.1","EBF31F4BA5204F098DF439462C0CF83E","EBF31F4BA5204F098DF439462C0CF83E","8cead3a7-8724-4c33-a9ea-503a73c591a0","6d972c12-ef4f-4967-baa7-815328c4c025","{""num_scrambled_semantic"":""8"",""num_scrambled_causal"":""4"",""num_scrambled_schematic"":""4"",""participantId"":""EBF31F4BA5204F098DF439462C0CF83E"",""assignmentId"":""8cead3a7-8724-4c33-a9ea-503a73c591a0"",""projectId"":""6d972c12-ef4f-4967-baa7-815328c4c025""}","https://test12345.live/?num_scrambled_semantic=8&num_scrambled_causal=4&num_scrambled_schematic=4&participantId=EBF31F4BA5204F098DF439462C0CF83E&assignmentId=8cead3a7-8724-4c33-a9ea-503a73c591a0&projectId=6d972c12-ef4f-4967-baa7-815328c4c025","EBF31F4BA5204F098DF439462C0CF83E-2025-08-07-17-53-24","","1143","","images/semantic_sequence/self_care_activities_semantic/self_care_activities_semantic_7.png","0","",""
"","","","","","image-button-response","62","472322","0.0-12.0-1.0-2.1","EBF31F4BA5204F098DF439462C0CF83E","EBF31F4BA5204F098DF439462C0CF83E","8cead3a7-8724-4c33-a9ea-503a73c591a0","6d972c12-ef4f-4967-baa7-815328c4c025","{""num_scrambled_semantic"":""8"",""num_scrambled_causal"":""4"",""num_scrambled_schematic"":""4"",""participantId"":""EBF31F4BA5204F098DF439462C0CF83E"",""assignmentId"":""8cead3a7-8724-4c33-a9ea-503a73c591a0"",""projectId"":""6d972c12-ef4f-4967-baa7-815328c4c025""}","https://test12345.live/?num_scrambled_semantic=8&num_scrambled_causal=4&num_scrambled_schematic=4&participantId=EBF31F4BA5204F098DF439462C0CF83E&assignmentId=8cead3a7-8724-4c33-a9ea-503a73c591a0&projectId=6d972c12-ef4f-4967-baa7-815328c4c025","EBF31F4BA5204F098DF439462C0CF83E-2025-08-07-17-53-24","","null","","[]","null","",""
"","","","","","image-button-response","63","476828","0.0-12.0-1.0-0.2","EBF31F4BA5204F098DF439462C0CF83E","EBF31F4BA5204F098DF439462C0CF83E","8cead3a7-8724-4c33-a9ea-503a73c591a0","6d972c12-ef4f-4967-baa7-815328c4c025","{""num_scrambled_semantic"":""8"",""num_scrambled_causal"":""4"",""num_scrambled_schematic"":""4"",""participantId"":""EBF31F4BA5204F098DF439462C0CF83E"",""assignmentId"":""8cead3a7-8724-4c33-a9ea-503a73c591a0"",""projectId"":""6d972c12-ef4f-4967-baa7-815328c4c025""}","https://test12345.live/?num_scrambled_semantic=8&num_scrambled_causal=4&num_scrambled_schematic=4&participantId=EBF31F4BA5204F098DF439462C0CF83E&assignmentId=8cead3a7-8724-4c33-a9ea-503a73c591a0&projectId=6d972c12-ef4f-4967-baa7-815328c4c025","EBF31F4BA5204F098DF439462C0CF83E-2025-08-07-17-53-24","","null","","images/semantic_sequence/self_care_activities_semantic/self_care_activities_semantic_3.png","null","",""
"","","","","","image-button-response","64","477820","0.0-12.0-1.0-1.2","EBF31F4BA5204F098DF439462C0CF83E","EBF31F4BA5204F098DF439462C0CF83E","8cead3a7-8724-4c33-a9ea-503a73c591a0","6d972c12-ef4f-4967-baa7-815328c4c025","{""num_scrambled_semantic"":""8"",""num_scrambled_causal"":""4"",""num_scrambled_schematic"":""4"",""participantId"":""EBF31F4BA5204F098DF439462C0CF83E"",""assignmentId"":""8cead3a7-8724-4c33-a9ea-503a73c591a0"",""projectId"":""6d972c12-ef4f-4967-baa7-815328c4c025""}","https://test12345.live/?num_scrambled_semantic=8&num_scrambled_causal=4&num_scrambled_schematic=4&participantId=EBF31F4BA5204F098DF439462C0CF83E&assignmentId=8cead3a7-8724-4c33-a9ea-503a73c591a0&projectId=6d972c12-ef4f-4967-baa7-815328c4c025","EBF31F4BA5204F098DF439462C0CF83E-2025-08-07-17-53-24","","991","","images/semantic_sequence/self_care_activities_semantic/self_care_activities_semantic_3.png","0","",""
"","","","","","image-button-response","65","479641","0.0-12.0-1.0-2.2","EBF31F4BA5204F098DF439462C0CF83E","EBF31F4BA5204F098DF439462C0CF83E","8cead3a7-8724-4c33-a9ea-503a73c591a0","6d972c12-ef4f-4967-baa7-815328c4c025","{""num_scrambled_semantic"":""8"",""num_scrambled_causal"":""4"",""num_scrambled_schematic"":""4"",""participantId"":""EBF31F4BA5204F098DF439462C0CF83E"",""assignmentId"":""8cead3a7-8724-4c33-a9ea-503a73c591a0"",""projectId"":""6d972c12-ef4f-4967-baa7-815328c4c025""}","https://test12345.live/?num_scrambled_semantic=8&num_scrambled_causal=4&num_scrambled_schematic=4&participantId=EBF31F4BA5204F098DF439462C0CF83E&assignmentId=8cead3a7-8724-4c33-a9ea-503a73c591a0&projectId=6d972c12-ef4f-4967-baa7-815328c4c025","EBF31F4BA5204F098DF439462C0CF83E-2025-08-07-17-53-24","","null","","[]","null","",""
"","","","","","image-button-response","66","484151","0.0-12.0-1.0-0.3","EBF31F4BA5204F098DF439462C0CF83E","EBF31F4BA5204F098DF439462C0CF83E","8cead3a7-8724-4c33-a9ea-503a73c591a0","6d972c12-ef4f-4967-baa7-815328c4c025","{""num_scrambled_semantic"":""8"",""num_scrambled_causal"":""4"",""num_scrambled_schematic"":""4"",""participantId"":""EBF31F4BA5204F098DF439462C0CF83E"",""assignmentId"":""8cead3a7-8724-4c33-a9ea-503a73c591a0"",""projectId"":""6d972c12-ef4f-4967-baa7-815328c4c025""}","https://test12345.live/?num_scrambled_semantic=8&num_scrambled_causal=4&num_scrambled_schematic=4&participantId=EBF31F4BA5204F098DF439462C0CF83E&assignmentId=8cead3a7-8724-4c33-a9ea-503a73c591a0&projectId=6d972c12-ef4f-4967-baa7-815328c4c025","EBF31F4BA5204F098DF439462C0CF83E-2025-08-07-17-53-24","","null","","images/semantic_sequence/self_care_activities_semantic/self_care_activities_semantic_2.png","null","",""
"","","","","","image-button-response","67","488170","0.0-12.0-1.0-1.3","EBF31F4BA5204F098DF439462C0CF83E","EBF31F4BA5204F098DF439462C0CF83E","8cead3a7-8724-4c33-a9ea-503a73c591a0","6d972c12-ef4f-4967-baa7-815328c4c025","{""num_scrambled_semantic"":""8"",""num_scrambled_causal"":""4"",""num_scrambled_schematic"":""4"",""participantId"":""EBF31F4BA5204F098DF439462C0CF83E"",""assignmentId"":""8cead3a7-8724-4c33-a9ea-503a73c591a0"",""projectId"":""6d972c12-ef4f-4967-baa7-815328c4c025""}","https://test12345.live/?num_scrambled_semantic=8&num_scrambled_causal=4&num_scrambled_schematic=4&participantId=EBF31F4BA5204F098DF439462C0CF83E&assignmentId=8cead3a7-8724-4c33-a9ea-503a73c591a0&projectId=6d972c12-ef4f-4967-baa7-815328c4c025","EBF31F4BA5204F098DF439462C0CF83E-2025-08-07-17-53-24","","null","","images/semantic_sequence/self_care_activities_semantic/self_care_activities_semantic_2.png","null","",""
"","","","","","image-button-response","68","489991","0.0-12.0-1.0-2.3","EBF31F4BA5204F098DF439462C0CF83E","EBF31F4BA5204F098DF439462C0CF83E","8cead3a7-8724-4c33-a9ea-503a73c591a0","6d972c12-ef4f-4967-baa7-815328c4c025","{""num_scrambled_semantic"":""8"",""num_scrambled_causal"":""4"",""num_scrambled_schematic"":""4"",""participantId"":""EBF31F4BA5204F098DF439462C0CF83E"",""assignmentId"":""8cead3a7-8724-4c33-a9ea-503a73c591a0"",""projectId"":""6d972c12-ef4f-4967-baa7-815328c4c025""}","https://test12345.live/?num_scrambled_semantic=8&num_scrambled_causal=4&num_scrambled_schematic=4&participantId=EBF31F4BA5204F098DF439462C0CF83E&assignmentId=8cead3a7-8724-4c33-a9ea-503a73c591a0&projectId=6d972c12-ef4f-4967-baa7-815328c4c025","EBF31F4BA5204F098DF439462C0CF83E-2025-08-07-17-53-24","","null","","[]","null","",""
"","","","","","image-button-response","69","494493","0.0-12.0-1.0-0.4","EBF31F4BA5204F098DF439462C0CF83E","EBF31F4BA5204F098DF439462C0CF83E","8cead3a7-8724-4c33-a9ea-503a73c591a0","6d972c12-ef4f-4967-baa7-815328c4c025","{""num_scrambled_semantic"":""8"",""num_scrambled_causal"":""4"",""num_scrambled_schematic"":""4"",""participantId"":""EBF31F4BA5204F098DF439462C0CF83E"",""assignmentId"":""8cead3a7-8724-4c33-a9ea-503a73c591a0"",""projectId"":""6d972c12-ef4f-4967-baa7-815328c4c025""}","https://test12345.live/?num_scrambled_semantic=8&num_scrambled_causal=4&num_scrambled_schematic=4&participantId=EBF31F4BA5204F098DF439462C0CF83E&assignmentId=8cead3a7-8724-4c33-a9ea-503a73c591a0&projectId=6d972c12-ef4f-4967-baa7-815328c4c025","EBF31F4BA5204F098DF439462C0CF83E-2025-08-07-17-53-24","","null","","images/semantic_sequence/self_care_activities_semantic/self_care_activities_semantic_6.png","null","",""
"","","","","","image-button-response","70","498506","0.0-12.0-1.0-1.4","EBF31F4BA5204F098DF439462C0CF83E","EBF31F4BA5204F098DF439462C0CF83E","8cead3a7-8724-4c33-a9ea-503a73c591a0","6d972c12-ef4f-4967-baa7-815328c4c025","{""num_scrambled_semantic"":""8"",""num_scrambled_causal"":""4"",""num_scrambled_schematic"":""4"",""participantId"":""EBF31F4BA5204F098DF439462C0CF83E"",""assignmentId"":""8cead3a7-8724-4c33-a9ea-503a73c591a0"",""projectId"":""6d972c12-ef4f-4967-baa7-815328c4c025""}","https://test12345.live/?num_scrambled_semantic=8&num_scrambled_causal=4&num_scrambled_schematic=4&participantId=EBF31F4BA5204F098DF439462C0CF83E&assignmentId=8cead3a7-8724-4c33-a9ea-503a73c591a0&projectId=6d972c12-ef4f-4967-baa7-815328c4c025","EBF31F4BA5204F098DF439462C0CF83E-2025-08-07-17-53-24","","null","","images/semantic_sequence/self_care_activities_semantic/self_care_activities_semantic_6.png","null","",""
"","","","","","image-button-response","71","500310","0.0-12.0-1.0-2.4","EBF31F4BA5204F098DF439462C0CF83E","EBF31F4BA5204F098DF439462C0CF83E","8cead3a7-8724-4c33-a9ea-503a73c591a0","6d972c12-ef4f-4967-baa7-815328c4c025","{""num_scrambled_semantic"":""8"",""num_scrambled_causal"":""4"",""num_scrambled_schematic"":""4"",""participantId"":""EBF31F4BA5204F098DF439462C0CF83E"",""assignmentId"":""8cead3a7-8724-4c33-a9ea-503a73c591a0"",""projectId"":""6d972c12-ef4f-4967-baa7-815328c4c025""}","https://test12345.live/?num_scrambled_semantic=8&num_scrambled_causal=4&num_scrambled_schematic=4&participantId=EBF31F4BA5204F098DF439462C0CF83E&assignmentId=8cead3a7-8724-4c33-a9ea-503a73c591a0&projectId=6d972c12-ef4f-4967-baa7-815328c4c025","EBF31F4BA5204F098DF439462C0CF83E-2025-08-07-17-53-24","","null","","[]","null","",""
"","","","","","image-button-response","72","504812","0.0-12.0-1.0-0.5","EBF31F4BA5204F098DF439462C0CF83E","EBF31F4BA5204F098DF439462C0CF83E","8cead3a7-8724-4c33-a9ea-503a73c591a0","6d972c12-ef4f-4967-baa7-815328c4c025","{""num_scrambled_semantic"":""8"",""num_scrambled_causal"":""4"",""num_scrambled_schematic"":""4"",""participantId"":""EBF31F4BA5204F098DF439462C0CF83E"",""assignmentId"":""8cead3a7-8724-4c33-a9ea-503a73c591a0"",""projectId"":""6d972c12-ef4f-4967-baa7-815328c4c025""}","https://test12345.live/?num_scrambled_semantic=8&num_scrambled_causal=4&num_scrambled_schematic=4&participantId=EBF31F4BA5204F098DF439462C0CF83E&assignmentId=8cead3a7-8724-4c33-a9ea-503a73c591a0&projectId=6d972c12-ef4f-4967-baa7-815328c4c025","EBF31F4BA5204F098DF439462C0CF83E-2025-08-07-17-53-24","","null","","images/semantic_sequence/self_care_activities_semantic/self_care_activities_semantic_5.png","null","",""
"","","","","","image-button-response","73","507500","0.0-12.0-1.0-1.5","EBF31F4BA5204F098DF439462C0CF83E","EBF31F4BA5204F098DF439462C0CF83E","8cead3a7-8724-4c33-a9ea-503a73c591a0","6d972c12-ef4f-4967-baa7-815328c4c025","{""num_scrambled_semantic"":""8"",""num_scrambled_causal"":""4"",""num_scrambled_schematic"":""4"",""participantId"":""EBF31F4BA5204F098DF439462C0CF83E"",""assignmentId"":""8cead3a7-8724-4c33-a9ea-503a73c591a0"",""projectId"":""6d972c12-ef4f-4967-baa7-815328c4c025""}","https://test12345.live/?num_scrambled_semantic=8&num_scrambled_causal=4&num_scrambled_schematic=4&participantId=EBF31F4BA5204F098DF439462C0CF83E&assignmentId=8cead3a7-8724-4c33-a9ea-503a73c591a0&projectId=6d972c12-ef4f-4967-baa7-815328c4c025","EBF31F4BA5204F098DF439462C0CF83E-2025-08-07-17-53-24","","2687","","images/semantic_sequence/self_care_activities_semantic/self_care_activities_semantic_5.png","0","",""
"","","","","","image-button-response","74","509312","0.0-12.0-1.0-2.5","EBF31F4BA5204F098DF439462C0CF83E","EBF31F4BA5204F098DF439462C0CF83E","8cead3a7-8724-4c33-a9ea-503a73c591a0","6d972c12-ef4f-4967-baa7-815328c4c025","{""num_scrambled_semantic"":""8"",""num_scrambled_causal"":""4"",""num_scrambled_schematic"":""4"",""participantId"":""EBF31F4BA5204F098DF439462C0CF83E"",""assignmentId"":""8cead3a7-8724-4c33-a9ea-503a73c591a0"",""projectId"":""6d972c12-ef4f-4967-baa7-815328c4c025""}","https://test12345.live/?num_scrambled_semantic=8&num_scrambled_causal=4&num_scrambled_schematic=4&participantId=EBF31F4BA5204F098DF439462C0CF83E&assignmentId=8cead3a7-8724-4c33-a9ea-503a73c591a0&projectId=6d972c12-ef4f-4967-baa7-815328c4c025","EBF31F4BA5204F098DF439462C0CF83E-2025-08-07-17-53-24","","null","","[]","null","",""
"","","","","","image-button-response","75","513814","0.0-12.0-1.0-0.6","EBF31F4BA5204F098DF439462C0CF83E","EBF31F4BA5204F098DF439462C0CF83E","8cead3a7-8724-4c33-a9ea-503a73c591a0","6d972c12-ef4f-4967-baa7-815328c4c025","{""num_scrambled_semantic"":""8"",""num_scrambled_causal"":""4"",""num_scrambled_schematic"":""4"",""participantId"":""EBF31F4BA5204F098DF439462C0CF83E"",""assignmentId"":""8cead3a7-8724-4c33-a9ea-503a73c591a0"",""projectId"":""6d972c12-ef4f-4967-baa7-815328c4c025""}","https://test12345.live/?num_scrambled_semantic=8&num_scrambled_causal=4&num_scrambled_schematic=4&participantId=EBF31F4BA5204F098DF439462C0CF83E&assignmentId=8cead3a7-8724-4c33-a9ea-503a73c591a0&projectId=6d972c12-ef4f-4967-baa7-815328c4c025","EBF31F4BA5204F098DF439462C0CF83E-2025-08-07-17-53-24","","null","","images/semantic_sequence/self_care_activities_semantic/self_care_activities_semantic_4.png","null","",""
"","","","","","image-button-response","76","515261","0.0-12.0-1.0-1.6","EBF31F4BA5204F098DF439462C0CF83E","EBF31F4BA5204F098DF439462C0CF83E","8cead3a7-8724-4c33-a9ea-503a73c591a0","6d972c12-ef4f-4967-baa7-815328c4c025","{""num_scrambled_semantic"":""8"",""num_scrambled_causal"":""4"",""num_scrambled_schematic"":""4"",""participantId"":""EBF31F4BA5204F098DF439462C0CF83E"",""assignmentId"":""8cead3a7-8724-4c33-a9ea-503a73c591a0"",""projectId"":""6d972c12-ef4f-4967-baa7-815328c4c025""}","https://test12345.live/?num_scrambled_semantic=8&num_scrambled_causal=4&num_scrambled_schematic=4&participantId=EBF31F4BA5204F098DF439462C0CF83E&assignmentId=8cead3a7-8724-4c33-a9ea-503a73c591a0&projectId=6d972c12-ef4f-4967-baa7-815328c4c025","EBF31F4BA5204F098DF439462C0CF83E-2025-08-07-17-53-24","","1445","","images/semantic_sequence/self_care_activities_semantic/self_care_activities_semantic_4.png","0","",""
"","","","","","image-button-response","77","517072","0.0-12.0-1.0-2.6","EBF31F4BA5204F098DF439462C0CF83E","EBF31F4BA5204F098DF439462C0CF83E","8cead3a7-8724-4c33-a9ea-503a73c591a0","6d972c12-ef4f-4967-baa7-815328c4c025","{""num_scrambled_semantic"":""8"",""num_scrambled_causal"":""4"",""num_scrambled_schematic"":""4"",""participantId"":""EBF31F4BA5204F098DF439462C0CF83E"",""assignmentId"":""8cead3a7-8724-4c33-a9ea-503a73c591a0"",""projectId"":""6d972c12-ef4f-4967-baa7-815328c4c025""}","https://test12345.live/?num_scrambled_semantic=8&num_scrambled_causal=4&num_scrambled_schematic=4&participantId=EBF31F4BA5204F098DF439462C0CF83E&assignmentId=8cead3a7-8724-4c33-a9ea-503a73c591a0&projectId=6d972c12-ef4f-4967-baa7-815328c4c025","EBF31F4BA5204F098DF439462C0CF83E-2025-08-07-17-53-24","","null","","[]","null","",""
"","","","","","image-button-response","78","521577","0.0-12.0-1.0-0.7","EBF31F4BA5204F098DF439462C0CF83E","EBF31F4BA5204F098DF439462C0CF83E","8cead3a7-8724-4c33-a9ea-503a73c591a0","6d972c12-ef4f-4967-baa7-815328c4c025","{""num_scrambled_semantic"":""8"",""num_scrambled_causal"":""4"",""num_scrambled_schematic"":""4"",""participantId"":""EBF31F4BA5204F098DF439462C0CF83E"",""assignmentId"":""8cead3a7-8724-4c33-a9ea-503a73c591a0"",""projectId"":""6d972c12-ef4f-4967-baa7-815328c4c025""}","https://test12345.live/?num_scrambled_semantic=8&num_scrambled_causal=4&num_scrambled_schematic=4&participantId=EBF31F4BA5204F098DF439462C0CF83E&assignmentId=8cead3a7-8724-4c33-a9ea-503a73c591a0&projectId=6d972c12-ef4f-4967-baa7-815328c4c025","EBF31F4BA5204F098DF439462C0CF83E-2025-08-07-17-53-24","","null","","images/semantic_sequence/self_care_activities_semantic/self_care_activities_semantic_8.png","null","",""
"","","","","","image-button-response","79","522813","0.0-12.0-1.0-1.7","EBF31F4BA5204F098DF439462C0CF83E","EBF31F4BA5204F098DF439462C0CF83E","8cead3a7-8724-4c33-a9ea-503a73c591a0","6d972c12-ef4f-4967-baa7-815328c4c025","{""num_scrambled_semantic"":""8"",""num_scrambled_causal"":""4"",""num_scrambled_schematic"":""4"",""participantId"":""EBF31F4BA5204F098DF439462C0CF83E"",""assignmentId"":""8cead3a7-8724-4c33-a9ea-503a73c591a0"",""projectId"":""6d972c12-ef4f-4967-baa7-815328c4c025""}","https://test12345.live/?num_scrambled_semantic=8&num_scrambled_causal=4&num_scrambled_schematic=4&participantId=EBF31F4BA5204F098DF439462C0CF83E&assignmentId=8cead3a7-8724-4c33-a9ea-503a73c591a0&projectId=6d972c12-ef4f-4967-baa7-815328c4c025","EBF31F4BA5204F098DF439462C0CF83E-2025-08-07-17-53-24","","1234","","images/semantic_sequence/self_care_activities_semantic/self_care_activities_semantic_8.png","0","",""
"","","","","","image-button-response","80","524632","0.0-12.0-1.0-2.7","EBF31F4BA5204F098DF439462C0CF83E","EBF31F4BA5204F098DF439462C0CF83E","8cead3a7-8724-4c33-a9ea-503a73c591a0","6d972c12-ef4f-4967-baa7-815328c4c025","{""num_scrambled_semantic"":""8"",""num_scrambled_causal"":""4"",""num_scrambled_schematic"":""4"",""participantId"":""EBF31F4BA5204F098DF439462C0CF83E"",""assignmentId"":""8cead3a7-8724-4c33-a9ea-503a73c591a0"",""projectId"":""6d972c12-ef4f-4967-baa7-815328c4c025""}","https://test12345.live/?num_scrambled_semantic=8&num_scrambled_causal=4&num_scrambled_schematic=4&participantId=EBF31F4BA5204F098DF439462C0CF83E&assignmentId=8cead3a7-8724-4c33-a9ea-503a73c591a0&projectId=6d972c12-ef4f-4967-baa7-815328c4c025","EBF31F4BA5204F098DF439462C0CF83E-2025-08-07-17-53-24","","null","","[]","null","",""
"","","","","","image-button-response","81","529142","0.0-12.0-1.0-0.8","EBF31F4BA5204F098DF439462C0CF83E","EBF31F4BA5204F098DF439462C0CF83E","8cead3a7-8724-4c33-a9ea-503a73c591a0","6d972c12-ef4f-4967-baa7-815328c4c025","{""num_scrambled_semantic"":""8"",""num_scrambled_causal"":""4"",""num_scrambled_schematic"":""4"",""participantId"":""EBF31F4BA5204F098DF439462C0CF83E"",""assignmentId"":""8cead3a7-8724-4c33-a9ea-503a73c591a0"",""projectId"":""6d972c12-ef4f-4967-baa7-815328c4c025""}","https://test12345.live/?num_scrambled_semantic=8&num_scrambled_causal=4&num_scrambled_schematic=4&participantId=EBF31F4BA5204F098DF439462C0CF83E&assignmentId=8cead3a7-8724-4c33-a9ea-503a73c591a0&projectId=6d972c12-ef4f-4967-baa7-815328c4c025","EBF31F4BA5204F098DF439462C0CF83E-2025-08-07-17-53-24","","null","","images/semantic_sequence/self_care_activities_semantic/self_care_activities_semantic_ten.png","null","",""
"","","","","","image-button-response","82","530788","0.0-12.0-1.0-1.8","EBF31F4BA5204F098DF439462C0CF83E","EBF31F4BA5204F098DF439462C0CF83E","8cead3a7-8724-4c33-a9ea-503a73c591a0","6d972c12-ef4f-4967-baa7-815328c4c025","{""num_scrambled_semantic"":""8"",""num_scrambled_causal"":""4"",""num_scrambled_schematic"":""4"",""participantId"":""EBF31F4BA5204F098DF439462C0CF83E"",""assignmentId"":""8cead3a7-8724-4c33-a9ea-503a73c591a0"",""projectId"":""6d972c12-ef4f-4967-baa7-815328c4c025""}","https://test12345.live/?num_scrambled_semantic=8&num_scrambled_causal=4&num_scrambled_schematic=4&participantId=EBF31F4BA5204F098DF439462C0CF83E&assignmentId=8cead3a7-8724-4c33-a9ea-503a73c591a0&projectId=6d972c12-ef4f-4967-baa7-815328c4c025","EBF31F4BA5204F098DF439462C0CF83E-2025-08-07-17-53-24","","1644","","images/semantic_sequence/self_care_activities_semantic/self_care_activities_semantic_ten.png","0","",""
"","","","","","image-button-response","83","532612","0.0-12.0-1.0-2.8","EBF31F4BA5204F098DF439462C0CF83E","EBF31F4BA5204F098DF439462C0CF83E","8cead3a7-8724-4c33-a9ea-503a73c591a0","6d972c12-ef4f-4967-baa7-815328c4c025","{""num_scrambled_semantic"":""8"",""num_scrambled_causal"":""4"",""num_scrambled_schematic"":""4"",""participantId"":""EBF31F4BA5204F098DF439462C0CF83E"",""assignmentId"":""8cead3a7-8724-4c33-a9ea-503a73c591a0"",""projectId"":""6d972c12-ef4f-4967-baa7-815328c4c025""}","https://test12345.live/?num_scrambled_semantic=8&num_scrambled_causal=4&num_scrambled_schematic=4&participantId=EBF31F4BA5204F098DF439462C0CF83E&assignmentId=8cead3a7-8724-4c33-a9ea-503a73c591a0&projectId=6d972c12-ef4f-4967-baa7-815328c4c025","EBF31F4BA5204F098DF439462C0CF83E-2025-08-07-17-53-24","","null","","[]","null","",""
"","","","","","image-button-response","84","537122","0.0-12.0-1.0-0.9","EBF31F4BA5204F098DF439462C0CF83E","EBF31F4BA5204F098DF439462C0CF83E","8cead3a7-8724-4c33-a9ea-503a73c591a0","6d972c12-ef4f-4967-baa7-815328c4c025","{""num_scrambled_semantic"":""8"",""num_scrambled_causal"":""4"",""num_scrambled_schematic"":""4"",""participantId"":""EBF31F4BA5204F098DF439462C0CF83E"",""assignmentId"":""8cead3a7-8724-4c33-a9ea-503a73c591a0"",""projectId"":""6d972c12-ef4f-4967-baa7-815328c4c025""}","https://test12345.live/?num_scrambled_semantic=8&num_scrambled_causal=4&num_scrambled_schematic=4&participantId=EBF31F4BA5204F098DF439462C0CF83E&assignmentId=8cead3a7-8724-4c33-a9ea-503a73c591a0&projectId=6d972c12-ef4f-4967-baa7-815328c4c025","EBF31F4BA5204F098DF439462C0CF83E-2025-08-07-17-53-24","","null","","images/semantic_sequence/self_care_activities_semantic/self_care_activities_semantic_1.png","null","",""
"","","","","","image-button-response","85","541131","0.0-12.0-1.0-1.9","EBF31F4BA5204F098DF439462C0CF83E","EBF31F4BA5204F098DF439462C0CF83E","8cead3a7-8724-4c33-a9ea-503a73c591a0","6d972c12-ef4f-4967-baa7-815328c4c025","{""num_scrambled_semantic"":""8"",""num_scrambled_causal"":""4"",""num_scrambled_schematic"":""4"",""participantId"":""EBF31F4BA5204F098DF439462C0CF83E"",""assignmentId"":""8cead3a7-8724-4c33-a9ea-503a73c591a0"",""projectId"":""6d972c12-ef4f-4967-baa7-815328c4c025""}","https://test12345.live/?num_scrambled_semantic=8&num_scrambled_causal=4&num_scrambled_schematic=4&participantId=EBF31F4BA5204F098DF439462C0CF83E&assignmentId=8cead3a7-8724-4c33-a9ea-503a73c591a0&projectId=6d972c12-ef4f-4967-baa7-815328c4c025","EBF31F4BA5204F098DF439462C0CF83E-2025-08-07-17-53-24","","null","","images/semantic_sequence/self_care_activities_semantic/self_care_activities_semantic_1.png","null","",""
"","","","","","image-button-response","86","542942","0.0-12.0-1.0-2.9","EBF31F4BA5204F098DF439462C0CF83E","EBF31F4BA5204F098DF439462C0CF83E","8cead3a7-8724-4c33-a9ea-503a73c591a0","6d972c12-ef4f-4967-baa7-815328c4c025","{""num_scrambled_semantic"":""8"",""num_scrambled_causal"":""4"",""num_scrambled_schematic"":""4"",""participantId"":""EBF31F4BA5204F098DF439462C0CF83E"",""assignmentId"":""8cead3a7-8724-4c33-a9ea-503a73c591a0"",""projectId"":""6d972c12-ef4f-4967-baa7-815328c4c025""}","https://test12345.live/?num_scrambled_semantic=8&num_scrambled_causal=4&num_scrambled_schematic=4&participantId=EBF31F4BA5204F098DF439462C0CF83E&assignmentId=8cead3a7-8724-4c33-a9ea-503a73c591a0&projectId=6d972c12-ef4f-4967-baa7-815328c4c025","EBF31F4BA5204F098DF439462C0CF83E-2025-08-07-17-53-24","","null","","[]","null","",""
"","","","","","html-audio-response","87","598109","0.0-13.0","EBF31F4BA5204F098DF439462C0CF83E","EBF31F4BA5204F098DF439462C0CF83E","8cead3a7-8724-4c33-a9ea-503a73c591a0","6d972c12-ef4f-4967-baa7-815328c4c025","{""num_scrambled_semantic"":""8"",""num_scrambled_causal"":""4"",""num_scrambled_schematic"":""4"",""participantId"":""EBF31F4BA5204F098DF439462C0CF83E"",""assignmentId"":""8cead3a7-8724-4c33-a9ea-503a73c591a0"",""projectId"":""6d972c12-ef4f-4967-baa7-815328c4c025""}","https://test12345.live/?num_scrambled_semantic=8&num_scrambled_causal=4&num_scrambled_schematic=4&participantId=EBF31F4BA5204F098DF439462C0CF83E&assignmentId=8cead3a7-8724-4c33-a9ea-503a73c591a0&projectId=6d972c12-ef4f-4967-baa7-815328c4c025","EBF31F4BA5204F098DF439462C0CF83E-2025-08-07-17-53-24","","28705","","[""<span style=\""color: red; font-size: 24px\""> NOW RECORDING</span><p>Please say out loud all the images you saw, in the exact order you saw them. Try to recall as many images as you can, but remember: getting the order right is more important than the number of images you recall.</p>""]","","3","self_care_activities_semantic"
"","","","","","image-button-response","88","604122","0.0-14.0-0.0","EBF31F4BA5204F098DF439462C0CF83E","EBF31F4BA5204F098DF439462C0CF83E","8cead3a7-8724-4c33-a9ea-503a73c591a0","6d972c12-ef4f-4967-baa7-815328c4c025","{""num_scrambled_semantic"":""8"",""num_scrambled_causal"":""4"",""num_scrambled_schematic"":""4"",""participantId"":""EBF31F4BA5204F098DF439462C0CF83E"",""assignmentId"":""8cead3a7-8724-4c33-a9ea-503a73c591a0"",""projectId"":""6d972c12-ef4f-4967-baa7-815328c4c025""}","https://test12345.live/?num_scrambled_semantic=8&num_scrambled_causal=4&num_scrambled_schematic=4&participantId=EBF31F4BA5204F098DF439462C0CF83E&assignmentId=8cead3a7-8724-4c33-a9ea-503a73c591a0&projectId=6d972c12-ef4f-4967-baa7-815328c4c025","EBF31F4BA5204F098DF439462C0CF83E-2025-08-07-17-53-24","","null","","images/semantic_sequence/housework_semantic/housework_semantic_0.png","null","",""
"","","","","","image-button-response","89","608637","0.0-14.0-1.0-0.0","EBF31F4BA5204F098DF439462C0CF83E","EBF31F4BA5204F098DF439462C0CF83E","8cead3a7-8724-4c33-a9ea-503a73c591a0","6d972c12-ef4f-4967-baa7-815328c4c025","{""num_scrambled_semantic"":""8"",""num_scrambled_causal"":""4"",""num_scrambled_schematic"":""4"",""participantId"":""EBF31F4BA5204F098DF439462C0CF83E"",""assignmentId"":""8cead3a7-8724-4c33-a9ea-503a73c591a0"",""projectId"":""6d972c12-ef4f-4967-baa7-815328c4c025""}","https://test12345.live/?num_scrambled_semantic=8&num_scrambled_causal=4&num_scrambled_schematic=4&participantId=EBF31F4BA5204F098DF439462C0CF83E&assignmentId=8cead3a7-8724-4c33-a9ea-503a73c591a0&projectId=6d972c12-ef4f-4967-baa7-815328c4c025","EBF31F4BA5204F098DF439462C0CF83E-2025-08-07-17-53-24","","null","","images/semantic_sequence/housework_semantic/housework_semantic_6.png","null","",""
"","","","","","image-button-response","90","610029","0.0-14.0-1.0-1.0","EBF31F4BA5204F098DF439462C0CF83E","EBF31F4BA5204F098DF439462C0CF83E","8cead3a7-8724-4c33-a9ea-503a73c591a0","6d972c12-ef4f-4967-baa7-815328c4c025","{""num_scrambled_semantic"":""8"",""num_scrambled_causal"":""4"",""num_scrambled_schematic"":""4"",""participantId"":""EBF31F4BA5204F098DF439462C0CF83E"",""assignmentId"":""8cead3a7-8724-4c33-a9ea-503a73c591a0"",""projectId"":""6d972c12-ef4f-4967-baa7-815328c4c025""}","https://test12345.live/?num_scrambled_semantic=8&num_scrambled_causal=4&num_scrambled_schematic=4&participantId=EBF31F4BA5204F098DF439462C0CF83E&assignmentId=8cead3a7-8724-4c33-a9ea-503a73c591a0&projectId=6d972c12-ef4f-4967-baa7-815328c4c025","EBF31F4BA5204F098DF439462C0CF83E-2025-08-07-17-53-24","","1390","","images/semantic_sequence/housework_semantic/housework_semantic_6.png","0","",""
"","","","","","image-button-response","91","611832","0.0-14.0-1.0-2.0","EBF31F4BA5204F098DF439462C0CF83E","EBF31F4BA5204F098DF439462C0CF83E","8cead3a7-8724-4c33-a9ea-503a73c591a0","6d972c12-ef4f-4967-baa7-815328c4c025","{""num_scrambled_semantic"":""8"",""num_scrambled_causal"":""4"",""num_scrambled_schematic"":""4"",""participantId"":""EBF31F4BA5204F098DF439462C0CF83E"",""assignmentId"":""8cead3a7-8724-4c33-a9ea-503a73c591a0"",""projectId"":""6d972c12-ef4f-4967-baa7-815328c4c025""}","https://test12345.live/?num_scrambled_semantic=8&num_scrambled_causal=4&num_scrambled_schematic=4&participantId=EBF31F4BA5204F098DF439462C0CF83E&assignmentId=8cead3a7-8724-4c33-a9ea-503a73c591a0&projectId=6d972c12-ef4f-4967-baa7-815328c4c025","EBF31F4BA5204F098DF439462C0CF83E-2025-08-07-17-53-24","","null","","[]","null","",""
"","","","","","image-button-response","92","616352","0.0-14.0-1.0-0.1","EBF31F4BA5204F098DF439462C0CF83E","EBF31F4BA5204F098DF439462C0CF83E","8cead3a7-8724-4c33-a9ea-503a73c591a0","6d972c12-ef4f-4967-baa7-815328c4c025","{""num_scrambled_semantic"":""8"",""num_scrambled_causal"":""4"",""num_scrambled_schematic"":""4"",""participantId"":""EBF31F4BA5204F098DF439462C0CF83E"",""assignmentId"":""8cead3a7-8724-4c33-a9ea-503a73c591a0"",""projectId"":""6d972c12-ef4f-4967-baa7-815328c4c025""}","https://test12345.live/?num_scrambled_semantic=8&num_scrambled_causal=4&num_scrambled_schematic=4&participantId=EBF31F4BA5204F098DF439462C0CF83E&assignmentId=8cead3a7-8724-4c33-a9ea-503a73c591a0&projectId=6d972c12-ef4f-4967-baa7-815328c4c025","EBF31F4BA5204F098DF439462C0CF83E-2025-08-07-17-53-24","","null","","images/semantic_sequence/housework_semantic/housework_semantic_ten.png","null","",""
"","","","","","image-button-response","93","616924","0.0-14.0-1.0-1.1","EBF31F4BA5204F098DF439462C0CF83E","EBF31F4BA5204F098DF439462C0CF83E","8cead3a7-8724-4c33-a9ea-503a73c591a0","6d972c12-ef4f-4967-baa7-815328c4c025","{""num_scrambled_semantic"":""8"",""num_scrambled_causal"":""4"",""num_scrambled_schematic"":""4"",""participantId"":""EBF31F4BA5204F098DF439462C0CF83E"",""assignmentId"":""8cead3a7-8724-4c33-a9ea-503a73c591a0"",""projectId"":""6d972c12-ef4f-4967-baa7-815328c4c025""}","https://test12345.live/?num_scrambled_semantic=8&num_scrambled_causal=4&num_scrambled_schematic=4&participantId=EBF31F4BA5204F098DF439462C0CF83E&assignmentId=8cead3a7-8724-4c33-a9ea-503a73c591a0&projectId=6d972c12-ef4f-4967-baa7-815328c4c025","EBF31F4BA5204F098DF439462C0CF83E-2025-08-07-17-53-24","","570","","images/semantic_sequence/housework_semantic/housework_semantic_ten.png","0","",""
"","","","","","image-button-response","94","618731","0.0-14.0-1.0-2.1","EBF31F4BA5204F098DF439462C0CF83E","EBF31F4BA5204F098DF439462C0CF83E","8cead3a7-8724-4c33-a9ea-503a73c591a0","6d972c12-ef4f-4967-baa7-815328c4c025","{""num_scrambled_semantic"":""8"",""num_scrambled_causal"":""4"",""num_scrambled_schematic"":""4"",""participantId"":""EBF31F4BA5204F098DF439462C0CF83E"",""assignmentId"":""8cead3a7-8724-4c33-a9ea-503a73c591a0"",""projectId"":""6d972c12-ef4f-4967-baa7-815328c4c025""}","https://test12345.live/?num_scrambled_semantic=8&num_scrambled_causal=4&num_scrambled_schematic=4&participantId=EBF31F4BA5204F098DF439462C0CF83E&assignmentId=8cead3a7-8724-4c33-a9ea-503a73c591a0&projectId=6d972c12-ef4f-4967-baa7-815328c4c025","EBF31F4BA5204F098DF439462C0CF83E-2025-08-07-17-53-24","","null","","[]","null","",""
"","","","","","image-button-response","95","623242","0.0-14.0-1.0-0.2","EBF31F4BA5204F098DF439462C0CF83E","EBF31F4BA5204F098DF439462C0CF83E","8cead3a7-8724-4c33-a9ea-503a73c591a0","6d972c12-ef4f-4967-baa7-815328c4c025","{""num_scrambled_semantic"":""8"",""num_scrambled_causal"":""4"",""num_scrambled_schematic"":""4"",""participantId"":""EBF31F4BA5204F098DF439462C0CF83E"",""assignmentId"":""8cead3a7-8724-4c33-a9ea-503a73c591a0"",""projectId"":""6d972c12-ef4f-4967-baa7-815328c4c025""}","https://test12345.live/?num_scrambled_semantic=8&num_scrambled_causal=4&num_scrambled_schematic=4&participantId=EBF31F4BA5204F098DF439462C0CF83E&assignmentId=8cead3a7-8724-4c33-a9ea-503a73c591a0&projectId=6d972c12-ef4f-4967-baa7-815328c4c025","EBF31F4BA5204F098DF439462C0CF83E-2025-08-07-17-53-24","","null","","images/semantic_sequence/housework_semantic/housework_semantic_7.png","null","",""
"","","","","","image-button-response","96","623996","0.0-14.0-1.0-1.2","EBF31F4BA5204F098DF439462C0CF83E","EBF31F4BA5204F098DF439462C0CF83E","8cead3a7-8724-4c33-a9ea-503a73c591a0","6d972c12-ef4f-4967-baa7-815328c4c025","{""num_scrambled_semantic"":""8"",""num_scrambled_causal"":""4"",""num_scrambled_schematic"":""4"",""participantId"":""EBF31F4BA5204F098DF439462C0CF83E"",""assignmentId"":""8cead3a7-8724-4c33-a9ea-503a73c591a0"",""projectId"":""6d972c12-ef4f-4967-baa7-815328c4c025""}","https://test12345.live/?num_scrambled_semantic=8&num_scrambled_causal=4&num_scrambled_schematic=4&participantId=EBF31F4BA5204F098DF439462C0CF83E&assignmentId=8cead3a7-8724-4c33-a9ea-503a73c591a0&projectId=6d972c12-ef4f-4967-baa7-815328c4c025","EBF31F4BA5204F098DF439462C0CF83E-2025-08-07-17-53-24","","753","","images/semantic_sequence/housework_semantic/housework_semantic_7.png","0","",""
"","","","","","image-button-response","97","625801","0.0-14.0-1.0-2.2","EBF31F4BA5204F098DF439462C0CF83E","EBF31F4BA5204F098DF439462C0CF83E","8cead3a7-8724-4c33-a9ea-503a73c591a0","6d972c12-ef4f-4967-baa7-815328c4c025","{""num_scrambled_semantic"":""8"",""num_scrambled_causal"":""4"",""num_scrambled_schematic"":""4"",""participantId"":""EBF31F4BA5204F098DF439462C0CF83E"",""assignmentId"":""8cead3a7-8724-4c33-a9ea-503a73c591a0"",""projectId"":""6d972c12-ef4f-4967-baa7-815328c4c025""}","https://test12345.live/?num_scrambled_semantic=8&num_scrambled_causal=4&num_scrambled_schematic=4&participantId=EBF31F4BA5204F098DF439462C0CF83E&assignmentId=8cead3a7-8724-4c33-a9ea-503a73c591a0&projectId=6d972c12-ef4f-4967-baa7-815328c4c025","EBF31F4BA5204F098DF439462C0CF83E-2025-08-07-17-53-24","","null","","[]","null","",""
"","","","","","image-button-response","98","630312","0.0-14.0-1.0-0.3","EBF31F4BA5204F098DF439462C0CF83E","EBF31F4BA5204F098DF439462C0CF83E","8cead3a7-8724-4c33-a9ea-503a73c591a0","6d972c12-ef4f-4967-baa7-815328c4c025","{""num_scrambled_semantic"":""8"",""num_scrambled_causal"":""4"",""num_scrambled_schematic"":""4"",""participantId"":""EBF31F4BA5204F098DF439462C0CF83E"",""assignmentId"":""8cead3a7-8724-4c33-a9ea-503a73c591a0"",""projectId"":""6d972c12-ef4f-4967-baa7-815328c4c025""}","https://test12345.live/?num_scrambled_semantic=8&num_scrambled_causal=4&num_scrambled_schematic=4&participantId=EBF31F4BA5204F098DF439462C0CF83E&assignmentId=8cead3a7-8724-4c33-a9ea-503a73c591a0&projectId=6d972c12-ef4f-4967-baa7-815328c4c025","EBF31F4BA5204F098DF439462C0CF83E-2025-08-07-17-53-24","","null","","images/semantic_sequence/housework_semantic/housework_semantic_3.png","null","",""
"","","","","","image-button-response","99","632773","0.0-14.0-1.0-1.3","EBF31F4BA5204F098DF439462C0CF83E","EBF31F4BA5204F098DF439462C0CF83E","8cead3a7-8724-4c33-a9ea-503a73c591a0","6d972c12-ef4f-4967-baa7-815328c4c025","{""num_scrambled_semantic"":""8"",""num_scrambled_causal"":""4"",""num_scrambled_schematic"":""4"",""participantId"":""EBF31F4BA5204F098DF439462C0CF83E"",""assignmentId"":""8cead3a7-8724-4c33-a9ea-503a73c591a0"",""projectId"":""6d972c12-ef4f-4967-baa7-815328c4c025""}","https://test12345.live/?num_scrambled_semantic=8&num_scrambled_causal=4&num_scrambled_schematic=4&participantId=EBF31F4BA5204F098DF439462C0CF83E&assignmentId=8cead3a7-8724-4c33-a9ea-503a73c591a0&projectId=6d972c12-ef4f-4967-baa7-815328c4c025","EBF31F4BA5204F098DF439462C0CF83E-2025-08-07-17-53-24","","2459","","images/semantic_sequence/housework_semantic/housework_semantic_3.png","0","",""
"","","","","","image-button-response","100","634586","0.0-14.0-1.0-2.3","EBF31F4BA5204F098DF439462C0CF83E","EBF31F4BA5204F098DF439462C0CF83E","8cead3a7-8724-4c33-a9ea-503a73c591a0","6d972c12-ef4f-4967-baa7-815328c4c025","{""num_scrambled_semantic"":""8"",""num_scrambled_causal"":""4"",""num_scrambled_schematic"":""4"",""participantId"":""EBF31F4BA5204F098DF439462C0CF83E"",""assignmentId"":""8cead3a7-8724-4c33-a9ea-503a73c591a0"",""projectId"":""6d972c12-ef4f-4967-baa7-815328c4c025""}","https://test12345.live/?num_scrambled_semantic=8&num_scrambled_causal=4&num_scrambled_schematic=4&participantId=EBF31F4BA5204F098DF439462C0CF83E&assignmentId=8cead3a7-8724-4c33-a9ea-503a73c591a0&projectId=6d972c12-ef4f-4967-baa7-815328c4c025","EBF31F4BA5204F098DF439462C0CF83E-2025-08-07-17-53-24","","null","","[]","null","",""
"","","","","","image-button-response","101","639101","0.0-14.0-1.0-0.4","EBF31F4BA5204F098DF439462C0CF83E","EBF31F4BA5204F098DF439462C0CF83E","8cead3a7-8724-4c33-a9ea-503a73c591a0","6d972c12-ef4f-4967-baa7-815328c4c025","{""num_scrambled_semantic"":""8"",""num_scrambled_causal"":""4"",""num_scrambled_schematic"":""4"",""participantId"":""EBF31F4BA5204F098DF439462C0CF83E"",""assignmentId"":""8cead3a7-8724-4c33-a9ea-503a73c591a0"",""projectId"":""6d972c12-ef4f-4967-baa7-815328c4c025""}","https://test12345.live/?num_scrambled_semantic=8&num_scrambled_causal=4&num_scrambled_schematic=4&participantId=EBF31F4BA5204F098DF439462C0CF83E&assignmentId=8cead3a7-8724-4c33-a9ea-503a73c591a0&projectId=6d972c12-ef4f-4967-baa7-815328c4c025","EBF31F4BA5204F098DF439462C0CF83E-2025-08-07-17-53-24","","null","","images/semantic_sequence/housework_semantic/housework_semantic_4.png","null","",""
"","","","","","image-button-response","102","643117","0.0-14.0-1.0-1.4","EBF31F4BA5204F098DF439462C0CF83E","EBF31F4BA5204F098DF439462C0CF83E","8cead3a7-8724-4c33-a9ea-503a73c591a0","6d972c12-ef4f-4967-baa7-815328c4c025","{""num_scrambled_semantic"":""8"",""num_scrambled_causal"":""4"",""num_scrambled_schematic"":""4"",""participantId"":""EBF31F4BA5204F098DF439462C0CF83E"",""assignmentId"":""8cead3a7-8724-4c33-a9ea-503a73c591a0"",""projectId"":""6d972c12-ef4f-4967-baa7-815328c4c025""}","https://test12345.live/?num_scrambled_semantic=8&num_scrambled_causal=4&num_scrambled_schematic=4&participantId=EBF31F4BA5204F098DF439462C0CF83E&assignmentId=8cead3a7-8724-4c33-a9ea-503a73c591a0&projectId=6d972c12-ef4f-4967-baa7-815328c4c025","EBF31F4BA5204F098DF439462C0CF83E-2025-08-07-17-53-24","","null","","images/semantic_sequence/housework_semantic/housework_semantic_4.png","null","",""
"","","","","","image-button-response","103","644921","0.0-14.0-1.0-2.4","EBF31F4BA5204F098DF439462C0CF83E","EBF31F4BA5204F098DF439462C0CF83E","8cead3a7-8724-4c33-a9ea-503a73c591a0","6d972c12-ef4f-4967-baa7-815328c4c025","{""num_scrambled_semantic"":""8"",""num_scrambled_causal"":""4"",""num_scrambled_schematic"":""4"",""participantId"":""EBF31F4BA5204F098DF439462C0CF83E"",""assignmentId"":""8cead3a7-8724-4c33-a9ea-503a73c591a0"",""projectId"":""6d972c12-ef4f-4967-baa7-815328c4c025""}","https://test12345.live/?num_scrambled_semantic=8&num_scrambled_causal=4&num_scrambled_schematic=4&participantId=EBF31F4BA5204F098DF439462C0CF83E&assignmentId=8cead3a7-8724-4c33-a9ea-503a73c591a0&projectId=6d972c12-ef4f-4967-baa7-815328c4c025","EBF31F4BA5204F098DF439462C0CF83E-2025-08-07-17-53-24","","null","","[]","null","",""
"","","","","","image-button-response","104","649426","0.0-14.0-1.0-0.5","EBF31F4BA5204F098DF439462C0CF83E","EBF31F4BA5204F098DF439462C0CF83E","8cead3a7-8724-4c33-a9ea-503a73c591a0","6d972c12-ef4f-4967-baa7-815328c4c025","{""num_scrambled_semantic"":""8"",""num_scrambled_causal"":""4"",""num_scrambled_schematic"":""4"",""participantId"":""EBF31F4BA5204F098DF439462C0CF83E"",""assignmentId"":""8cead3a7-8724-4c33-a9ea-503a73c591a0"",""projectId"":""6d972c12-ef4f-4967-baa7-815328c4c025""}","https://test12345.live/?num_scrambled_semantic=8&num_scrambled_causal=4&num_scrambled_schematic=4&participantId=EBF31F4BA5204F098DF439462C0CF83E&assignmentId=8cead3a7-8724-4c33-a9ea-503a73c591a0&projectId=6d972c12-ef4f-4967-baa7-815328c4c025","EBF31F4BA5204F098DF439462C0CF83E-2025-08-07-17-53-24","","null","","images/semantic_sequence/housework_semantic/housework_semantic_2.png","null","",""
"","","","","","image-button-response","105","650700","0.0-14.0-1.0-1.5","EBF31F4BA5204F098DF439462C0CF83E","EBF31F4BA5204F098DF439462C0CF83E","8cead3a7-8724-4c33-a9ea-503a73c591a0","6d972c12-ef4f-4967-baa7-815328c4c025","{""num_scrambled_semantic"":""8"",""num_scrambled_causal"":""4"",""num_scrambled_schematic"":""4"",""participantId"":""EBF31F4BA5204F098DF439462C0CF83E"",""assignmentId"":""8cead3a7-8724-4c33-a9ea-503a73c591a0"",""projectId"":""6d972c12-ef4f-4967-baa7-815328c4c025""}","https://test12345.live/?num_scrambled_semantic=8&num_scrambled_causal=4&num_scrambled_schematic=4&participantId=EBF31F4BA5204F098DF439462C0CF83E&assignmentId=8cead3a7-8724-4c33-a9ea-503a73c591a0&projectId=6d972c12-ef4f-4967-baa7-815328c4c025","EBF31F4BA5204F098DF439462C0CF83E-2025-08-07-17-53-24","","1272","","images/semantic_sequence/housework_semantic/housework_semantic_2.png","0","",""
"","","","","","image-button-response","106","652521","0.0-14.0-1.0-2.5","EBF31F4BA5204F098DF439462C0CF83E","EBF31F4BA5204F098DF439462C0CF83E","8cead3a7-8724-4c33-a9ea-503a73c591a0","6d972c12-ef4f-4967-baa7-815328c4c025","{""num_scrambled_semantic"":""8"",""num_scrambled_causal"":""4"",""num_scrambled_schematic"":""4"",""participantId"":""EBF31F4BA5204F098DF439462C0CF83E"",""assignmentId"":""8cead3a7-8724-4c33-a9ea-503a73c591a0"",""projectId"":""6d972c12-ef4f-4967-baa7-815328c4c025""}","https://test12345.live/?num_scrambled_semantic=8&num_scrambled_causal=4&num_scrambled_schematic=4&participantId=EBF31F4BA5204F098DF439462C0CF83E&assignmentId=8cead3a7-8724-4c33-a9ea-503a73c591a0&projectId=6d972c12-ef4f-4967-baa7-815328c4c025","EBF31F4BA5204F098DF439462C0CF83E-2025-08-07-17-53-24","","null","","[]","null","",""
"","","","","","image-button-response","107","657041","0.0-14.0-1.0-0.6","EBF31F4BA5204F098DF439462C0CF83E","EBF31F4BA5204F098DF439462C0CF83E","8cead3a7-8724-4c33-a9ea-503a73c591a0","6d972c12-ef4f-4967-baa7-815328c4c025","{""num_scrambled_semantic"":""8"",""num_scrambled_causal"":""4"",""num_scrambled_schematic"":""4"",""participantId"":""EBF31F4BA5204F098DF439462C0CF83E"",""assignmentId"":""8cead3a7-8724-4c33-a9ea-503a73c591a0"",""projectId"":""6d972c12-ef4f-4967-baa7-815328c4c025""}","https://test12345.live/?num_scrambled_semantic=8&num_scrambled_causal=4&num_scrambled_schematic=4&participantId=EBF31F4BA5204F098DF439462C0CF83E&assignmentId=8cead3a7-8724-4c33-a9ea-503a73c591a0&projectId=6d972c12-ef4f-4967-baa7-815328c4c025","EBF31F4BA5204F098DF439462C0CF83E-2025-08-07-17-53-24","","null","","images/semantic_sequence/housework_semantic/housework_semantic_9.png","null","",""
"","","","","","image-button-response","108","658037","0.0-14.0-1.0-1.6","EBF31F4BA5204F098DF439462C0CF83E","EBF31F4BA5204F098DF439462C0CF83E","8cead3a7-8724-4c33-a9ea-503a73c591a0","6d972c12-ef4f-4967-baa7-815328c4c025","{""num_scrambled_semantic"":""8"",""num_scrambled_causal"":""4"",""num_scrambled_schematic"":""4"",""participantId"":""EBF31F4BA5204F098DF439462C0CF83E"",""assignmentId"":""8cead3a7-8724-4c33-a9ea-503a73c591a0"",""projectId"":""6d972c12-ef4f-4967-baa7-815328c4c025""}","https://test12345.live/?num_scrambled_semantic=8&num_scrambled_causal=4&num_scrambled_schematic=4&participantId=EBF31F4BA5204F098DF439462C0CF83E&assignmentId=8cead3a7-8724-4c33-a9ea-503a73c591a0&projectId=6d972c12-ef4f-4967-baa7-815328c4c025","EBF31F4BA5204F098DF439462C0CF83E-2025-08-07-17-53-24","","994","","images/semantic_sequence/housework_semantic/housework_semantic_9.png","0","",""
"","","","","","image-button-response","109","659842","0.0-14.0-1.0-2.6","EBF31F4BA5204F098DF439462C0CF83E","EBF31F4BA5204F098DF439462C0CF83E","8cead3a7-8724-4c33-a9ea-503a73c591a0","6d972c12-ef4f-4967-baa7-815328c4c025","{""num_scrambled_semantic"":""8"",""num_scrambled_causal"":""4"",""num_scrambled_schematic"":""4"",""participantId"":""EBF31F4BA5204F098DF439462C0CF83E"",""assignmentId"":""8cead3a7-8724-4c33-a9ea-503a73c591a0"",""projectId"":""6d972c12-ef4f-4967-baa7-815328c4c025""}","https://test12345.live/?num_scrambled_semantic=8&num_scrambled_causal=4&num_scrambled_schematic=4&participantId=EBF31F4BA5204F098DF439462C0CF83E&assignmentId=8cead3a7-8724-4c33-a9ea-503a73c591a0&projectId=6d972c12-ef4f-4967-baa7-815328c4c025","EBF31F4BA5204F098DF439462C0CF83E-2025-08-07-17-53-24","","null","","[]","null","",""
"","","","","","image-button-response","110","664351","0.0-14.0-1.0-0.7","EBF31F4BA5204F098DF439462C0CF83E","EBF31F4BA5204F098DF439462C0CF83E","8cead3a7-8724-4c33-a9ea-503a73c591a0","6d972c12-ef4f-4967-baa7-815328c4c025","{""num_scrambled_semantic"":""8"",""num_scrambled_causal"":""4"",""num_scrambled_schematic"":""4"",""participantId"":""EBF31F4BA5204F098DF439462C0CF83E"",""assignmentId"":""8cead3a7-8724-4c33-a9ea-503a73c591a0"",""projectId"":""6d972c12-ef4f-4967-baa7-815328c4c025""}","https://test12345.live/?num_scrambled_semantic=8&num_scrambled_causal=4&num_scrambled_schematic=4&participantId=EBF31F4BA5204F098DF439462C0CF83E&assignmentId=8cead3a7-8724-4c33-a9ea-503a73c591a0&projectId=6d972c12-ef4f-4967-baa7-815328c4c025","EBF31F4BA5204F098DF439462C0CF83E-2025-08-07-17-53-24","","null","","images/semantic_sequence/housework_semantic/housework_semantic_5.png","null","",""
"","","","","","image-button-response","111","665012","0.0-14.0-1.0-1.7","EBF31F4BA5204F098DF439462C0CF83E","EBF31F4BA5204F098DF439462C0CF83E","8cead3a7-8724-4c33-a9ea-503a73c591a0","6d972c12-ef4f-4967-baa7-815328c4c025","{""num_scrambled_semantic"":""8"",""num_scrambled_causal"":""4"",""num_scrambled_schematic"":""4"",""participantId"":""EBF31F4BA5204F098DF439462C0CF83E"",""assignmentId"":""8cead3a7-8724-4c33-a9ea-503a73c591a0"",""projectId"":""6d972c12-ef4f-4967-baa7-815328c4c025""}","https://test12345.live/?num_scrambled_semantic=8&num_scrambled_causal=4&num_scrambled_schematic=4&participantId=EBF31F4BA5204F098DF439462C0CF83E&assignmentId=8cead3a7-8724-4c33-a9ea-503a73c591a0&projectId=6d972c12-ef4f-4967-baa7-815328c4c025","EBF31F4BA5204F098DF439462C0CF83E-2025-08-07-17-53-24","","660","","images/semantic_sequence/housework_semantic/housework_semantic_5.png","0","",""
"","","","","","image-button-response","112","666819","0.0-14.0-1.0-2.7","EBF31F4BA5204F098DF439462C0CF83E","EBF31F4BA5204F098DF439462C0CF83E","8cead3a7-8724-4c33-a9ea-503a73c591a0","6d972c12-ef4f-4967-baa7-815328c4c025","{""num_scrambled_semantic"":""8"",""num_scrambled_causal"":""4"",""num_scrambled_schematic"":""4"",""participantId"":""EBF31F4BA5204F098DF439462C0CF83E"",""assignmentId"":""8cead3a7-8724-4c33-a9ea-503a73c591a0"",""projectId"":""6d972c12-ef4f-4967-baa7-815328c4c025""}","https://test12345.live/?num_scrambled_semantic=8&num_scrambled_causal=4&num_scrambled_schematic=4&participantId=EBF31F4BA5204F098DF439462C0CF83E&assignmentId=8cead3a7-8724-4c33-a9ea-503a73c591a0&projectId=6d972c12-ef4f-4967-baa7-815328c4c025","EBF31F4BA5204F098DF439462C0CF83E-2025-08-07-17-53-24","","null","","[]","null","",""
"","","","","","image-button-response","113","671326","0.0-14.0-1.0-0.8","EBF31F4BA5204F098DF439462C0CF83E","EBF31F4BA5204F098DF439462C0CF83E","8cead3a7-8724-4c33-a9ea-503a73c591a0","6d972c12-ef4f-4967-baa7-815328c4c025","{""num_scrambled_semantic"":""8"",""num_scrambled_causal"":""4"",""num_scrambled_schematic"":""4"",""participantId"":""EBF31F4BA5204F098DF439462C0CF83E"",""assignmentId"":""8cead3a7-8724-4c33-a9ea-503a73c591a0"",""projectId"":""6d972c12-ef4f-4967-baa7-815328c4c025""}","https://test12345.live/?num_scrambled_semantic=8&num_scrambled_causal=4&num_scrambled_schematic=4&participantId=EBF31F4BA5204F098DF439462C0CF83E&assignmentId=8cead3a7-8724-4c33-a9ea-503a73c591a0&projectId=6d972c12-ef4f-4967-baa7-815328c4c025","EBF31F4BA5204F098DF439462C0CF83E-2025-08-07-17-53-24","","null","","images/semantic_sequence/housework_semantic/housework_semantic_1.png","null","",""
