"success","timeout","failed_images","failed_audio","failed_video","trial_type","trial_index","time_elapsed","internal_node_id","subject","subject_id","study_id","session_id","urlvar","current_url","audio_id","view_history","rt","device_id","stimulus","response","estimated_stimulus_onset","seq_name"
"true","false","[]","[]","[]","preload","0","1958","0.0-0.0","ECBE6A47D17C4A6F95B4495C6A3D90C3","ECBE6A47D17C4A6F95B4495C6A3D90C3","8f4dd62b-6521-4136-8f98-3e7ebd9b2f9c","a9f3d40c-5730-405c-b25e-1034c4c56f3f","{""num_scrambled_semantic"":""8"",""num_scrambled_causal"":""4"",""num_scrambled_schematic"":""4"",""participantId"":""ECBE6A47D17C4A6F95B4495C6A3D90C3"",""assignmentId"":""8f4dd62b-6521-4136-8f98-3e7ebd9b2f9c"",""projectId"":""a9f3d40c-5730-405c-b25e-1034c4c56f3f""}","https://test12345.live/?num_scrambled_semantic=8&num_scrambled_causal=4&num_scrambled_schematic=4&participantId=ECBE6A47D17C4A6F95B4495C6A3D90C3&assignmentId=8f4dd62b-6521-4136-8f98-3e7ebd9b2f9c&projectId=a9f3d40c-5730-405c-b25e-1034c4c56f3f","ECBE6A47D17C4A6F95B4495C6A3D90C3-2025-08-07-18-59-43","","","","","","",""
"","","","","","instructions","1","49713","0.0-1.0","ECBE6A47D17C4A6F95B4495C6A3D90C3","ECBE6A47D17C4A6F95B4495C6A3D90C3","8f4dd62b-6521-4136-8f98-3e7ebd9b2f9c","a9f3d40c-5730-405c-b25e-1034c4c56f3f","{""num_scrambled_semantic"":""8"",""num_scrambled_causal"":""4"",""num_scrambled_schematic"":""4"",""participantId"":""ECBE6A47D17C4A6F95B4495C6A3D90C3"",""assignmentId"":""8f4dd62b-6521-4136-8f98-3e7ebd9b2f9c"",""projectId"":""a9f3d40c-5730-405c-b25e-1034c4c56f3f""}","https://test12345.live/?num_scrambled_semantic=8&num_scrambled_causal=4&num_scrambled_schematic=4&participantId=ECBE6A47D17C4A6F95B4495C6A3D90C3&assignmentId=8f4dd62b-6521-4136-8f98-3e7ebd9b2f9c&projectId=a9f3d40c-5730-405c-b25e-1034c4c56f3f","ECBE6A47D17C4A6F95B4495C6A3D90C3-2025-08-07-18-59-43","[{""page_index"":0,""viewing_time"":47755}]","47755","","","","",""
"","","","","","instructions","2","74598","0.0-2.0","ECBE6A47D17C4A6F95B4495C6A3D90C3","ECBE6A47D17C4A6F95B4495C6A3D90C3","8f4dd62b-6521-4136-8f98-3e7ebd9b2f9c","a9f3d40c-5730-405c-b25e-1034c4c56f3f","{""num_scrambled_semantic"":""8"",""num_scrambled_causal"":""4"",""num_scrambled_schematic"":""4"",""participantId"":""ECBE6A47D17C4A6F95B4495C6A3D90C3"",""assignmentId"":""8f4dd62b-6521-4136-8f98-3e7ebd9b2f9c"",""projectId"":""a9f3d40c-5730-405c-b25e-1034c4c56f3f""}","https://test12345.live/?num_scrambled_semantic=8&num_scrambled_causal=4&num_scrambled_schematic=4&participantId=ECBE6A47D17C4A6F95B4495C6A3D90C3&assignmentId=8f4dd62b-6521-4136-8f98-3e7ebd9b2f9c&projectId=a9f3d40c-5730-405c-b25e-1034c4c56f3f","ECBE6A47D17C4A6F95B4495C6A3D90C3-2025-08-07-18-59-43","[{""page_index"":0,""viewing_time"":24884}]","24884","","","","",""
"true","","","","","fullscreen","3","77494","0.0-3.0","ECBE6A47D17C4A6F95B4495C6A3D90C3","ECBE6A47D17C4A6F95B4495C6A3D90C3","8f4dd62b-6521-4136-8f98-3e7ebd9b2f9c","a9f3d40c-5730-405c-b25e-1034c4c56f3f","{""num_scrambled_semantic"":""8"",""num_scrambled_causal"":""4"",""num_scrambled_schematic"":""4"",""participantId"":""ECBE6A47D17C4A6F95B4495C6A3D90C3"",""assignmentId"":""8f4dd62b-6521-4136-8f98-3e7ebd9b2f9c"",""projectId"":""a9f3d40c-5730-405c-b25e-1034c4c56f3f""}","https://test12345.live/?num_scrambled_semantic=8&num_scrambled_causal=4&num_scrambled_schematic=4&participantId=ECBE6A47D17C4A6F95B4495C6A3D90C3&assignmentId=8f4dd62b-6521-4136-8f98-3e7ebd9b2f9c&projectId=a9f3d40c-5730-405c-b25e-1034c4c56f3f","ECBE6A47D17C4A6F95B4495C6A3D90C3-2025-08-07-18-59-43","","1892","","","","",""
"","","","","","initialize-microphone","4","85372","0.0-4.0-0.0","ECBE6A47D17C4A6F95B4495C6A3D90C3","ECBE6A47D17C4A6F95B4495C6A3D90C3","8f4dd62b-6521-4136-8f98-3e7ebd9b2f9c","a9f3d40c-5730-405c-b25e-1034c4c56f3f","{""num_scrambled_semantic"":""8"",""num_scrambled_causal"":""4"",""num_scrambled_schematic"":""4"",""participantId"":""ECBE6A47D17C4A6F95B4495C6A3D90C3"",""assignmentId"":""8f4dd62b-6521-4136-8f98-3e7ebd9b2f9c"",""projectId"":""a9f3d40c-5730-405c-b25e-1034c4c56f3f""}","https://test12345.live/?num_scrambled_semantic=8&num_scrambled_causal=4&num_scrambled_schematic=4&participantId=ECBE6A47D17C4A6F95B4495C6A3D90C3&assignmentId=8f4dd62b-6521-4136-8f98-3e7ebd9b2f9c&projectId=a9f3d40c-5730-405c-b25e-1034c4c56f3f","ECBE6A47D17C4A6F95B4495C6A3D90C3-2025-08-07-18-59-43","","","32c0aa857f99deb1f11d9697eed802c04dbacc99b7722621031b5e01386b9e46","","","",""
"","","","","","html-audio-response","5","99113","0.0-4.0-1.0","ECBE6A47D17C4A6F95B4495C6A3D90C3","ECBE6A47D17C4A6F95B4495C6A3D90C3","8f4dd62b-6521-4136-8f98-3e7ebd9b2f9c","a9f3d40c-5730-405c-b25e-1034c4c56f3f","{""num_scrambled_semantic"":""8"",""num_scrambled_causal"":""4"",""num_scrambled_schematic"":""4"",""participantId"":""ECBE6A47D17C4A6F95B4495C6A3D90C3"",""assignmentId"":""8f4dd62b-6521-4136-8f98-3e7ebd9b2f9c"",""projectId"":""a9f3d40c-5730-405c-b25e-1034c4c56f3f""}","https://test12345.live/?num_scrambled_semantic=8&num_scrambled_causal=4&num_scrambled_schematic=4&participantId=ECBE6A47D17C4A6F95B4495C6A3D90C3&assignmentId=8f4dd62b-6521-4136-8f98-3e7ebd9b2f9c&projectId=a9f3d40c-5730-405c-b25e-1034c4c56f3f","ECBE6A47D17C4A6F95B4495C6A3D90C3-2025-08-07-18-59-43","","5959","","<span style=""color: red; font-size: 24px""> NOW RECORDING</span>
        <p>Please test Microphone</p>","","2",""
"","","","","","html-button-response","6","100548","0.0-4.0-2.0","ECBE6A47D17C4A6F95B4495C6A3D90C3","ECBE6A47D17C4A6F95B4495C6A3D90C3","8f4dd62b-6521-4136-8f98-3e7ebd9b2f9c","a9f3d40c-5730-405c-b25e-1034c4c56f3f","{""num_scrambled_semantic"":""8"",""num_scrambled_causal"":""4"",""num_scrambled_schematic"":""4"",""participantId"":""ECBE6A47D17C4A6F95B4495C6A3D90C3"",""assignmentId"":""8f4dd62b-6521-4136-8f98-3e7ebd9b2f9c"",""projectId"":""a9f3d40c-5730-405c-b25e-1034c4c56f3f""}","https://test12345.live/?num_scrambled_semantic=8&num_scrambled_causal=4&num_scrambled_schematic=4&participantId=ECBE6A47D17C4A6F95B4495C6A3D90C3&assignmentId=8f4dd62b-6521-4136-8f98-3e7ebd9b2f9c&projectId=a9f3d40c-5730-405c-b25e-1034c4c56f3f","ECBE6A47D17C4A6F95B4495C6A3D90C3-2025-08-07-18-59-43","","1434","","<p style=""font-size:48px; color:red;"">Is Microphone OK?</p>","1","",""
"","","","","","instructions","7","119076","0.0-5.0","ECBE6A47D17C4A6F95B4495C6A3D90C3","ECBE6A47D17C4A6F95B4495C6A3D90C3","8f4dd62b-6521-4136-8f98-3e7ebd9b2f9c","a9f3d40c-5730-405c-b25e-1034c4c56f3f","{""num_scrambled_semantic"":""8"",""num_scrambled_causal"":""4"",""num_scrambled_schematic"":""4"",""participantId"":""ECBE6A47D17C4A6F95B4495C6A3D90C3"",""assignmentId"":""8f4dd62b-6521-4136-8f98-3e7ebd9b2f9c"",""projectId"":""a9f3d40c-5730-405c-b25e-1034c4c56f3f""}","https://test12345.live/?num_scrambled_semantic=8&num_scrambled_causal=4&num_scrambled_schematic=4&participantId=ECBE6A47D17C4A6F95B4495C6A3D90C3&assignmentId=8f4dd62b-6521-4136-8f98-3e7ebd9b2f9c&projectId=a9f3d40c-5730-405c-b25e-1034c4c56f3f","ECBE6A47D17C4A6F95B4495C6A3D90C3-2025-08-07-18-59-43","[{""page_index"":0,""viewing_time"":5013},{""page_index"":1,""viewing_time"":13514}]","18528","","","","",""
"","","","","","image-button-response","8","125081","0.0-6.0-0.0","ECBE6A47D17C4A6F95B4495C6A3D90C3","ECBE6A47D17C4A6F95B4495C6A3D90C3","8f4dd62b-6521-4136-8f98-3e7ebd9b2f9c","a9f3d40c-5730-405c-b25e-1034c4c56f3f","{""num_scrambled_semantic"":""8"",""num_scrambled_causal"":""4"",""num_scrambled_schematic"":""4"",""participantId"":""ECBE6A47D17C4A6F95B4495C6A3D90C3"",""assignmentId"":""8f4dd62b-6521-4136-8f98-3e7ebd9b2f9c"",""projectId"":""a9f3d40c-5730-405c-b25e-1034c4c56f3f""}","https://test12345.live/?num_scrambled_semantic=8&num_scrambled_causal=4&num_scrambled_schematic=4&participantId=ECBE6A47D17C4A6F95B4495C6A3D90C3&assignmentId=8f4dd62b-6521-4136-8f98-3e7ebd9b2f9c&projectId=a9f3d40c-5730-405c-b25e-1034c4c56f3f","ECBE6A47D17C4A6F95B4495C6A3D90C3-2025-08-07-18-59-43","","null","","images/instructions/movie_0.png","null","",""
"","","","","","image-button-response","9","129587","0.0-6.0-1.0-0.0","ECBE6A47D17C4A6F95B4495C6A3D90C3","ECBE6A47D17C4A6F95B4495C6A3D90C3","8f4dd62b-6521-4136-8f98-3e7ebd9b2f9c","a9f3d40c-5730-405c-b25e-1034c4c56f3f","{""num_scrambled_semantic"":""8"",""num_scrambled_causal"":""4"",""num_scrambled_schematic"":""4"",""participantId"":""ECBE6A47D17C4A6F95B4495C6A3D90C3"",""assignmentId"":""8f4dd62b-6521-4136-8f98-3e7ebd9b2f9c"",""projectId"":""a9f3d40c-5730-405c-b25e-1034c4c56f3f""}","https://test12345.live/?num_scrambled_semantic=8&num_scrambled_causal=4&num_scrambled_schematic=4&participantId=ECBE6A47D17C4A6F95B4495C6A3D90C3&assignmentId=8f4dd62b-6521-4136-8f98-3e7ebd9b2f9c&projectId=a9f3d40c-5730-405c-b25e-1034c4c56f3f","ECBE6A47D17C4A6F95B4495C6A3D90C3-2025-08-07-18-59-43","","null","","images/instructions/movie_1.png","null","",""
"","","","","","image-button-response","10","133588","0.0-6.0-1.0-1.0","ECBE6A47D17C4A6F95B4495C6A3D90C3","ECBE6A47D17C4A6F95B4495C6A3D90C3","8f4dd62b-6521-4136-8f98-3e7ebd9b2f9c","a9f3d40c-5730-405c-b25e-1034c4c56f3f","{""num_scrambled_semantic"":""8"",""num_scrambled_causal"":""4"",""num_scrambled_schematic"":""4"",""participantId"":""ECBE6A47D17C4A6F95B4495C6A3D90C3"",""assignmentId"":""8f4dd62b-6521-4136-8f98-3e7ebd9b2f9c"",""projectId"":""a9f3d40c-5730-405c-b25e-1034c4c56f3f""}","https://test12345.live/?num_scrambled_semantic=8&num_scrambled_causal=4&num_scrambled_schematic=4&participantId=ECBE6A47D17C4A6F95B4495C6A3D90C3&assignmentId=8f4dd62b-6521-4136-8f98-3e7ebd9b2f9c&projectId=a9f3d40c-5730-405c-b25e-1034c4c56f3f","ECBE6A47D17C4A6F95B4495C6A3D90C3-2025-08-07-18-59-43","","null","","images/instructions/movie_1.png","null","",""
"","","","","","image-button-response","11","135394","0.0-6.0-1.0-2.0","ECBE6A47D17C4A6F95B4495C6A3D90C3","ECBE6A47D17C4A6F95B4495C6A3D90C3","8f4dd62b-6521-4136-8f98-3e7ebd9b2f9c","a9f3d40c-5730-405c-b25e-1034c4c56f3f","{""num_scrambled_semantic"":""8"",""num_scrambled_causal"":""4"",""num_scrambled_schematic"":""4"",""participantId"":""ECBE6A47D17C4A6F95B4495C6A3D90C3"",""assignmentId"":""8f4dd62b-6521-4136-8f98-3e7ebd9b2f9c"",""projectId"":""a9f3d40c-5730-405c-b25e-1034c4c56f3f""}","https://test12345.live/?num_scrambled_semantic=8&num_scrambled_causal=4&num_scrambled_schematic=4&participantId=ECBE6A47D17C4A6F95B4495C6A3D90C3&assignmentId=8f4dd62b-6521-4136-8f98-3e7ebd9b2f9c&projectId=a9f3d40c-5730-405c-b25e-1034c4c56f3f","ECBE6A47D17C4A6F95B4495C6A3D90C3-2025-08-07-18-59-43","","null","","[]","null","",""
"","","","","","image-button-response","12","139903","0.0-6.0-1.0-0.1","ECBE6A47D17C4A6F95B4495C6A3D90C3","ECBE6A47D17C4A6F95B4495C6A3D90C3","8f4dd62b-6521-4136-8f98-3e7ebd9b2f9c","a9f3d40c-5730-405c-b25e-1034c4c56f3f","{""num_scrambled_semantic"":""8"",""num_scrambled_causal"":""4"",""num_scrambled_schematic"":""4"",""participantId"":""ECBE6A47D17C4A6F95B4495C6A3D90C3"",""assignmentId"":""8f4dd62b-6521-4136-8f98-3e7ebd9b2f9c"",""projectId"":""a9f3d40c-5730-405c-b25e-1034c4c56f3f""}","https://test12345.live/?num_scrambled_semantic=8&num_scrambled_causal=4&num_scrambled_schematic=4&participantId=ECBE6A47D17C4A6F95B4495C6A3D90C3&assignmentId=8f4dd62b-6521-4136-8f98-3e7ebd9b2f9c&projectId=a9f3d40c-5730-405c-b25e-1034c4c56f3f","ECBE6A47D17C4A6F95B4495C6A3D90C3-2025-08-07-18-59-43","","null","","images/instructions/movie_2.png","null","",""
"","","","","","image-button-response","13","141061","0.0-6.0-1.0-1.1","ECBE6A47D17C4A6F95B4495C6A3D90C3","ECBE6A47D17C4A6F95B4495C6A3D90C3","8f4dd62b-6521-4136-8f98-3e7ebd9b2f9c","a9f3d40c-5730-405c-b25e-1034c4c56f3f","{""num_scrambled_semantic"":""8"",""num_scrambled_causal"":""4"",""num_scrambled_schematic"":""4"",""participantId"":""ECBE6A47D17C4A6F95B4495C6A3D90C3"",""assignmentId"":""8f4dd62b-6521-4136-8f98-3e7ebd9b2f9c"",""projectId"":""a9f3d40c-5730-405c-b25e-1034c4c56f3f""}","https://test12345.live/?num_scrambled_semantic=8&num_scrambled_causal=4&num_scrambled_schematic=4&participantId=ECBE6A47D17C4A6F95B4495C6A3D90C3&assignmentId=8f4dd62b-6521-4136-8f98-3e7ebd9b2f9c&projectId=a9f3d40c-5730-405c-b25e-1034c4c56f3f","ECBE6A47D17C4A6F95B4495C6A3D90C3-2025-08-07-18-59-43","","1157","","images/instructions/movie_2.png","1","",""
"","","","","","image-button-response","14","142864","0.0-6.0-1.0-2.1","ECBE6A47D17C4A6F95B4495C6A3D90C3","ECBE6A47D17C4A6F95B4495C6A3D90C3","8f4dd62b-6521-4136-8f98-3e7ebd9b2f9c","a9f3d40c-5730-405c-b25e-1034c4c56f3f","{""num_scrambled_semantic"":""8"",""num_scrambled_causal"":""4"",""num_scrambled_schematic"":""4"",""participantId"":""ECBE6A47D17C4A6F95B4495C6A3D90C3"",""assignmentId"":""8f4dd62b-6521-4136-8f98-3e7ebd9b2f9c"",""projectId"":""a9f3d40c-5730-405c-b25e-1034c4c56f3f""}","https://test12345.live/?num_scrambled_semantic=8&num_scrambled_causal=4&num_scrambled_schematic=4&participantId=ECBE6A47D17C4A6F95B4495C6A3D90C3&assignmentId=8f4dd62b-6521-4136-8f98-3e7ebd9b2f9c&projectId=a9f3d40c-5730-405c-b25e-1034c4c56f3f","ECBE6A47D17C4A6F95B4495C6A3D90C3-2025-08-07-18-59-43","","null","","[]","null","",""
"","","","","","image-button-response","15","147371","0.0-6.0-1.0-0.2","ECBE6A47D17C4A6F95B4495C6A3D90C3","ECBE6A47D17C4A6F95B4495C6A3D90C3","8f4dd62b-6521-4136-8f98-3e7ebd9b2f9c","a9f3d40c-5730-405c-b25e-1034c4c56f3f","{""num_scrambled_semantic"":""8"",""num_scrambled_causal"":""4"",""num_scrambled_schematic"":""4"",""participantId"":""ECBE6A47D17C4A6F95B4495C6A3D90C3"",""assignmentId"":""8f4dd62b-6521-4136-8f98-3e7ebd9b2f9c"",""projectId"":""a9f3d40c-5730-405c-b25e-1034c4c56f3f""}","https://test12345.live/?num_scrambled_semantic=8&num_scrambled_causal=4&num_scrambled_schematic=4&participantId=ECBE6A47D17C4A6F95B4495C6A3D90C3&assignmentId=8f4dd62b-6521-4136-8f98-3e7ebd9b2f9c&projectId=a9f3d40c-5730-405c-b25e-1034c4c56f3f","ECBE6A47D17C4A6F95B4495C6A3D90C3-2025-08-07-18-59-43","","null","","images/instructions/movie_3.png","null","",""
"","","","","","image-button-response","16","148155","0.0-6.0-1.0-1.2","ECBE6A47D17C4A6F95B4495C6A3D90C3","ECBE6A47D17C4A6F95B4495C6A3D90C3","8f4dd62b-6521-4136-8f98-3e7ebd9b2f9c","a9f3d40c-5730-405c-b25e-1034c4c56f3f","{""num_scrambled_semantic"":""8"",""num_scrambled_causal"":""4"",""num_scrambled_schematic"":""4"",""participantId"":""ECBE6A47D17C4A6F95B4495C6A3D90C3"",""assignmentId"":""8f4dd62b-6521-4136-8f98-3e7ebd9b2f9c"",""projectId"":""a9f3d40c-5730-405c-b25e-1034c4c56f3f""}","https://test12345.live/?num_scrambled_semantic=8&num_scrambled_causal=4&num_scrambled_schematic=4&participantId=ECBE6A47D17C4A6F95B4495C6A3D90C3&assignmentId=8f4dd62b-6521-4136-8f98-3e7ebd9b2f9c&projectId=a9f3d40c-5730-405c-b25e-1034c4c56f3f","ECBE6A47D17C4A6F95B4495C6A3D90C3-2025-08-07-18-59-43","","784","","images/instructions/movie_3.png","0","",""
"","","","","","image-button-response","17","149965","0.0-6.0-1.0-2.2","ECBE6A47D17C4A6F95B4495C6A3D90C3","ECBE6A47D17C4A6F95B4495C6A3D90C3","8f4dd62b-6521-4136-8f98-3e7ebd9b2f9c","a9f3d40c-5730-405c-b25e-1034c4c56f3f","{""num_scrambled_semantic"":""8"",""num_scrambled_causal"":""4"",""num_scrambled_schematic"":""4"",""participantId"":""ECBE6A47D17C4A6F95B4495C6A3D90C3"",""assignmentId"":""8f4dd62b-6521-4136-8f98-3e7ebd9b2f9c"",""projectId"":""a9f3d40c-5730-405c-b25e-1034c4c56f3f""}","https://test12345.live/?num_scrambled_semantic=8&num_scrambled_causal=4&num_scrambled_schematic=4&participantId=ECBE6A47D17C4A6F95B4495C6A3D90C3&assignmentId=8f4dd62b-6521-4136-8f98-3e7ebd9b2f9c&projectId=a9f3d40c-5730-405c-b25e-1034c4c56f3f","ECBE6A47D17C4A6F95B4495C6A3D90C3-2025-08-07-18-59-43","","null","","[]","null","",""
"","","","","","image-button-response","18","154469","0.0-6.0-1.0-0.3","ECBE6A47D17C4A6F95B4495C6A3D90C3","ECBE6A47D17C4A6F95B4495C6A3D90C3","8f4dd62b-6521-4136-8f98-3e7ebd9b2f9c","a9f3d40c-5730-405c-b25e-1034c4c56f3f","{""num_scrambled_semantic"":""8"",""num_scrambled_causal"":""4"",""num_scrambled_schematic"":""4"",""participantId"":""ECBE6A47D17C4A6F95B4495C6A3D90C3"",""assignmentId"":""8f4dd62b-6521-4136-8f98-3e7ebd9b2f9c"",""projectId"":""a9f3d40c-5730-405c-b25e-1034c4c56f3f""}","https://test12345.live/?num_scrambled_semantic=8&num_scrambled_causal=4&num_scrambled_schematic=4&participantId=ECBE6A47D17C4A6F95B4495C6A3D90C3&assignmentId=8f4dd62b-6521-4136-8f98-3e7ebd9b2f9c&projectId=a9f3d40c-5730-405c-b25e-1034c4c56f3f","ECBE6A47D17C4A6F95B4495C6A3D90C3-2025-08-07-18-59-43","","null","","images/instructions/movie_4.png","null","",""
"","","","","","image-button-response","19","156126","0.0-6.0-1.0-1.3","ECBE6A47D17C4A6F95B4495C6A3D90C3","ECBE6A47D17C4A6F95B4495C6A3D90C3","8f4dd62b-6521-4136-8f98-3e7ebd9b2f9c","a9f3d40c-5730-405c-b25e-1034c4c56f3f","{""num_scrambled_semantic"":""8"",""num_scrambled_causal"":""4"",""num_scrambled_schematic"":""4"",""participantId"":""ECBE6A47D17C4A6F95B4495C6A3D90C3"",""assignmentId"":""8f4dd62b-6521-4136-8f98-3e7ebd9b2f9c"",""projectId"":""a9f3d40c-5730-405c-b25e-1034c4c56f3f""}","https://test12345.live/?num_scrambled_semantic=8&num_scrambled_causal=4&num_scrambled_schematic=4&participantId=ECBE6A47D17C4A6F95B4495C6A3D90C3&assignmentId=8f4dd62b-6521-4136-8f98-3e7ebd9b2f9c&projectId=a9f3d40c-5730-405c-b25e-1034c4c56f3f","ECBE6A47D17C4A6F95B4495C6A3D90C3-2025-08-07-18-59-43","","1656","","images/instructions/movie_4.png","0","",""
"","","","","","image-button-response","20","157928","0.0-6.0-1.0-2.3","ECBE6A47D17C4A6F95B4495C6A3D90C3","ECBE6A47D17C4A6F95B4495C6A3D90C3","8f4dd62b-6521-4136-8f98-3e7ebd9b2f9c","a9f3d40c-5730-405c-b25e-1034c4c56f3f","{""num_scrambled_semantic"":""8"",""num_scrambled_causal"":""4"",""num_scrambled_schematic"":""4"",""participantId"":""ECBE6A47D17C4A6F95B4495C6A3D90C3"",""assignmentId"":""8f4dd62b-6521-4136-8f98-3e7ebd9b2f9c"",""projectId"":""a9f3d40c-5730-405c-b25e-1034c4c56f3f""}","https://test12345.live/?num_scrambled_semantic=8&num_scrambled_causal=4&num_scrambled_schematic=4&participantId=ECBE6A47D17C4A6F95B4495C6A3D90C3&assignmentId=8f4dd62b-6521-4136-8f98-3e7ebd9b2f9c&projectId=a9f3d40c-5730-405c-b25e-1034c4c56f3f","ECBE6A47D17C4A6F95B4495C6A3D90C3-2025-08-07-18-59-43","","null","","[]","null","",""
"","","","","","instructions","21","165013","0.0-7.0","ECBE6A47D17C4A6F95B4495C6A3D90C3","ECBE6A47D17C4A6F95B4495C6A3D90C3","8f4dd62b-6521-4136-8f98-3e7ebd9b2f9c","a9f3d40c-5730-405c-b25e-1034c4c56f3f","{""num_scrambled_semantic"":""8"",""num_scrambled_causal"":""4"",""num_scrambled_schematic"":""4"",""participantId"":""ECBE6A47D17C4A6F95B4495C6A3D90C3"",""assignmentId"":""8f4dd62b-6521-4136-8f98-3e7ebd9b2f9c"",""projectId"":""a9f3d40c-5730-405c-b25e-1034c4c56f3f""}","https://test12345.live/?num_scrambled_semantic=8&num_scrambled_causal=4&num_scrambled_schematic=4&participantId=ECBE6A47D17C4A6F95B4495C6A3D90C3&assignmentId=8f4dd62b-6521-4136-8f98-3e7ebd9b2f9c&projectId=a9f3d40c-5730-405c-b25e-1034c4c56f3f","ECBE6A47D17C4A6F95B4495C6A3D90C3-2025-08-07-18-59-43","[{""page_index"":0,""viewing_time"":6117},{""page_index"":1,""viewing_time"":967}]","7085","","","","",""
"","","","","","html-audio-response","22","203521","0.0-8.0","ECBE6A47D17C4A6F95B4495C6A3D90C3","ECBE6A47D17C4A6F95B4495C6A3D90C3","8f4dd62b-6521-4136-8f98-3e7ebd9b2f9c","a9f3d40c-5730-405c-b25e-1034c4c56f3f","{""num_scrambled_semantic"":""8"",""num_scrambled_causal"":""4"",""num_scrambled_schematic"":""4"",""participantId"":""ECBE6A47D17C4A6F95B4495C6A3D90C3"",""assignmentId"":""8f4dd62b-6521-4136-8f98-3e7ebd9b2f9c"",""projectId"":""a9f3d40c-5730-405c-b25e-1034c4c56f3f""}","https://test12345.live/?num_scrambled_semantic=8&num_scrambled_causal=4&num_scrambled_schematic=4&participantId=ECBE6A47D17C4A6F95B4495C6A3D90C3&assignmentId=8f4dd62b-6521-4136-8f98-3e7ebd9b2f9c&projectId=a9f3d40c-5730-405c-b25e-1034c4c56f3f","ECBE6A47D17C4A6F95B4495C6A3D90C3-2025-08-07-18-59-43","","30107","","[""<span style=\""color: red; font-size: 24px\""> NOW RECORDING</span><p>Please say out loud all the images you saw, as many as you can remember. The images can be said in any order.</p>""]","","1",""
"","","","","","instructions","23","204622","0.0-9.0","ECBE6A47D17C4A6F95B4495C6A3D90C3","ECBE6A47D17C4A6F95B4495C6A3D90C3","8f4dd62b-6521-4136-8f98-3e7ebd9b2f9c","a9f3d40c-5730-405c-b25e-1034c4c56f3f","{""num_scrambled_semantic"":""8"",""num_scrambled_causal"":""4"",""num_scrambled_schematic"":""4"",""participantId"":""ECBE6A47D17C4A6F95B4495C6A3D90C3"",""assignmentId"":""8f4dd62b-6521-4136-8f98-3e7ebd9b2f9c"",""projectId"":""a9f3d40c-5730-405c-b25e-1034c4c56f3f""}","https://test12345.live/?num_scrambled_semantic=8&num_scrambled_causal=4&num_scrambled_schematic=4&participantId=ECBE6A47D17C4A6F95B4495C6A3D90C3&assignmentId=8f4dd62b-6521-4136-8f98-3e7ebd9b2f9c&projectId=a9f3d40c-5730-405c-b25e-1034c4c56f3f","ECBE6A47D17C4A6F95B4495C6A3D90C3-2025-08-07-18-59-43","[{""page_index"":0,""viewing_time"":1098}]","1098","","","","",""
"","","","","","image-button-response","24","210631","0.0-10.0-0.0","ECBE6A47D17C4A6F95B4495C6A3D90C3","ECBE6A47D17C4A6F95B4495C6A3D90C3","8f4dd62b-6521-4136-8f98-3e7ebd9b2f9c","a9f3d40c-5730-405c-b25e-1034c4c56f3f","{""num_scrambled_semantic"":""8"",""num_scrambled_causal"":""4"",""num_scrambled_schematic"":""4"",""participantId"":""ECBE6A47D17C4A6F95B4495C6A3D90C3"",""assignmentId"":""8f4dd62b-6521-4136-8f98-3e7ebd9b2f9c"",""projectId"":""a9f3d40c-5730-405c-b25e-1034c4c56f3f""}","https://test12345.live/?num_scrambled_semantic=8&num_scrambled_causal=4&num_scrambled_schematic=4&participantId=ECBE6A47D17C4A6F95B4495C6A3D90C3&assignmentId=8f4dd62b-6521-4136-8f98-3e7ebd9b2f9c&projectId=a9f3d40c-5730-405c-b25e-1034c4c56f3f","ECBE6A47D17C4A6F95B4495C6A3D90C3-2025-08-07-18-59-43","","null","","images/causal_sequence/the_performance_causal/the_performance_causal_0.png","null","",""
"","","","","","image-button-response","25","215134","0.0-10.0-1.0-0.0","ECBE6A47D17C4A6F95B4495C6A3D90C3","ECBE6A47D17C4A6F95B4495C6A3D90C3","8f4dd62b-6521-4136-8f98-3e7ebd9b2f9c","a9f3d40c-5730-405c-b25e-1034c4c56f3f","{""num_scrambled_semantic"":""8"",""num_scrambled_causal"":""4"",""num_scrambled_schematic"":""4"",""participantId"":""ECBE6A47D17C4A6F95B4495C6A3D90C3"",""assignmentId"":""8f4dd62b-6521-4136-8f98-3e7ebd9b2f9c"",""projectId"":""a9f3d40c-5730-405c-b25e-1034c4c56f3f""}","https://test12345.live/?num_scrambled_semantic=8&num_scrambled_causal=4&num_scrambled_schematic=4&participantId=ECBE6A47D17C4A6F95B4495C6A3D90C3&assignmentId=8f4dd62b-6521-4136-8f98-3e7ebd9b2f9c&projectId=a9f3d40c-5730-405c-b25e-1034c4c56f3f","ECBE6A47D17C4A6F95B4495C6A3D90C3-2025-08-07-18-59-43","","null","","images/causal_sequence/the_performance_causal/the_performance_causal_5.png","null","",""
"","","","","","image-button-response","26","217596","0.0-10.0-1.0-1.0","ECBE6A47D17C4A6F95B4495C6A3D90C3","ECBE6A47D17C4A6F95B4495C6A3D90C3","8f4dd62b-6521-4136-8f98-3e7ebd9b2f9c","a9f3d40c-5730-405c-b25e-1034c4c56f3f","{""num_scrambled_semantic"":""8"",""num_scrambled_causal"":""4"",""num_scrambled_schematic"":""4"",""participantId"":""ECBE6A47D17C4A6F95B4495C6A3D90C3"",""assignmentId"":""8f4dd62b-6521-4136-8f98-3e7ebd9b2f9c"",""projectId"":""a9f3d40c-5730-405c-b25e-1034c4c56f3f""}","https://test12345.live/?num_scrambled_semantic=8&num_scrambled_causal=4&num_scrambled_schematic=4&participantId=ECBE6A47D17C4A6F95B4495C6A3D90C3&assignmentId=8f4dd62b-6521-4136-8f98-3e7ebd9b2f9c&projectId=a9f3d40c-5730-405c-b25e-1034c4c56f3f","ECBE6A47D17C4A6F95B4495C6A3D90C3-2025-08-07-18-59-43","","2461","","images/causal_sequence/the_performance_causal/the_performance_causal_5.png","0","",""
"","","","","","image-button-response","27","219408","0.0-10.0-1.0-2.0","ECBE6A47D17C4A6F95B4495C6A3D90C3","ECBE6A47D17C4A6F95B4495C6A3D90C3","8f4dd62b-6521-4136-8f98-3e7ebd9b2f9c","a9f3d40c-5730-405c-b25e-1034c4c56f3f","{""num_scrambled_semantic"":""8"",""num_scrambled_causal"":""4"",""num_scrambled_schematic"":""4"",""participantId"":""ECBE6A47D17C4A6F95B4495C6A3D90C3"",""assignmentId"":""8f4dd62b-6521-4136-8f98-3e7ebd9b2f9c"",""projectId"":""a9f3d40c-5730-405c-b25e-1034c4c56f3f""}","https://test12345.live/?num_scrambled_semantic=8&num_scrambled_causal=4&num_scrambled_schematic=4&participantId=ECBE6A47D17C4A6F95B4495C6A3D90C3&assignmentId=8f4dd62b-6521-4136-8f98-3e7ebd9b2f9c&projectId=a9f3d40c-5730-405c-b25e-1034c4c56f3f","ECBE6A47D17C4A6F95B4495C6A3D90C3-2025-08-07-18-59-43","","null","","[]","null","",""
"","","","","","image-button-response","28","223910","0.0-10.0-1.0-0.1","ECBE6A47D17C4A6F95B4495C6A3D90C3","ECBE6A47D17C4A6F95B4495C6A3D90C3","8f4dd62b-6521-4136-8f98-3e7ebd9b2f9c","a9f3d40c-5730-405c-b25e-1034c4c56f3f","{""num_scrambled_semantic"":""8"",""num_scrambled_causal"":""4"",""num_scrambled_schematic"":""4"",""participantId"":""ECBE6A47D17C4A6F95B4495C6A3D90C3"",""assignmentId"":""8f4dd62b-6521-4136-8f98-3e7ebd9b2f9c"",""projectId"":""a9f3d40c-5730-405c-b25e-1034c4c56f3f""}","https://test12345.live/?num_scrambled_semantic=8&num_scrambled_causal=4&num_scrambled_schematic=4&participantId=ECBE6A47D17C4A6F95B4495C6A3D90C3&assignmentId=8f4dd62b-6521-4136-8f98-3e7ebd9b2f9c&projectId=a9f3d40c-5730-405c-b25e-1034c4c56f3f","ECBE6A47D17C4A6F95B4495C6A3D90C3-2025-08-07-18-59-43","","null","","images/causal_sequence/the_performance_causal/the_performance_causal_9.png","null","",""
"","","","","","image-button-response","29","224904","0.0-10.0-1.0-1.1","ECBE6A47D17C4A6F95B4495C6A3D90C3","ECBE6A47D17C4A6F95B4495C6A3D90C3","8f4dd62b-6521-4136-8f98-3e7ebd9b2f9c","a9f3d40c-5730-405c-b25e-1034c4c56f3f","{""num_scrambled_semantic"":""8"",""num_scrambled_causal"":""4"",""num_scrambled_schematic"":""4"",""participantId"":""ECBE6A47D17C4A6F95B4495C6A3D90C3"",""assignmentId"":""8f4dd62b-6521-4136-8f98-3e7ebd9b2f9c"",""projectId"":""a9f3d40c-5730-405c-b25e-1034c4c56f3f""}","https://test12345.live/?num_scrambled_semantic=8&num_scrambled_causal=4&num_scrambled_schematic=4&participantId=ECBE6A47D17C4A6F95B4495C6A3D90C3&assignmentId=8f4dd62b-6521-4136-8f98-3e7ebd9b2f9c&projectId=a9f3d40c-5730-405c-b25e-1034c4c56f3f","ECBE6A47D17C4A6F95B4495C6A3D90C3-2025-08-07-18-59-43","","993","","images/causal_sequence/the_performance_causal/the_performance_causal_9.png","0","",""
"","","","","","image-button-response","30","226706","0.0-10.0-1.0-2.1","ECBE6A47D17C4A6F95B4495C6A3D90C3","ECBE6A47D17C4A6F95B4495C6A3D90C3","8f4dd62b-6521-4136-8f98-3e7ebd9b2f9c","a9f3d40c-5730-405c-b25e-1034c4c56f3f","{""num_scrambled_semantic"":""8"",""num_scrambled_causal"":""4"",""num_scrambled_schematic"":""4"",""participantId"":""ECBE6A47D17C4A6F95B4495C6A3D90C3"",""assignmentId"":""8f4dd62b-6521-4136-8f98-3e7ebd9b2f9c"",""projectId"":""a9f3d40c-5730-405c-b25e-1034c4c56f3f""}","https://test12345.live/?num_scrambled_semantic=8&num_scrambled_causal=4&num_scrambled_schematic=4&participantId=ECBE6A47D17C4A6F95B4495C6A3D90C3&assignmentId=8f4dd62b-6521-4136-8f98-3e7ebd9b2f9c&projectId=a9f3d40c-5730-405c-b25e-1034c4c56f3f","ECBE6A47D17C4A6F95B4495C6A3D90C3-2025-08-07-18-59-43","","null","","[]","null","",""
"","","","","","image-button-response","31","231209","0.0-10.0-1.0-0.2","ECBE6A47D17C4A6F95B4495C6A3D90C3","ECBE6A47D17C4A6F95B4495C6A3D90C3","8f4dd62b-6521-4136-8f98-3e7ebd9b2f9c","a9f3d40c-5730-405c-b25e-1034c4c56f3f","{""num_scrambled_semantic"":""8"",""num_scrambled_causal"":""4"",""num_scrambled_schematic"":""4"",""participantId"":""ECBE6A47D17C4A6F95B4495C6A3D90C3"",""assignmentId"":""8f4dd62b-6521-4136-8f98-3e7ebd9b2f9c"",""projectId"":""a9f3d40c-5730-405c-b25e-1034c4c56f3f""}","https://test12345.live/?num_scrambled_semantic=8&num_scrambled_causal=4&num_scrambled_schematic=4&participantId=ECBE6A47D17C4A6F95B4495C6A3D90C3&assignmentId=8f4dd62b-6521-4136-8f98-3e7ebd9b2f9c&projectId=a9f3d40c-5730-405c-b25e-1034c4c56f3f","ECBE6A47D17C4A6F95B4495C6A3D90C3-2025-08-07-18-59-43","","null","","images/causal_sequence/the_performance_causal/the_performance_causal_8.png","null","",""
"","","","","","image-button-response","32","232142","0.0-10.0-1.0-1.2","ECBE6A47D17C4A6F95B4495C6A3D90C3","ECBE6A47D17C4A6F95B4495C6A3D90C3","8f4dd62b-6521-4136-8f98-3e7ebd9b2f9c","a9f3d40c-5730-405c-b25e-1034c4c56f3f","{""num_scrambled_semantic"":""8"",""num_scrambled_causal"":""4"",""num_scrambled_schematic"":""4"",""participantId"":""ECBE6A47D17C4A6F95B4495C6A3D90C3"",""assignmentId"":""8f4dd62b-6521-4136-8f98-3e7ebd9b2f9c"",""projectId"":""a9f3d40c-5730-405c-b25e-1034c4c56f3f""}","https://test12345.live/?num_scrambled_semantic=8&num_scrambled_causal=4&num_scrambled_schematic=4&participantId=ECBE6A47D17C4A6F95B4495C6A3D90C3&assignmentId=8f4dd62b-6521-4136-8f98-3e7ebd9b2f9c&projectId=a9f3d40c-5730-405c-b25e-1034c4c56f3f","ECBE6A47D17C4A6F95B4495C6A3D90C3-2025-08-07-18-59-43","","932","","images/causal_sequence/the_performance_causal/the_performance_causal_8.png","0","",""
"","","","","","image-button-response","33","233943","0.0-10.0-1.0-2.2","ECBE6A47D17C4A6F95B4495C6A3D90C3","ECBE6A47D17C4A6F95B4495C6A3D90C3","8f4dd62b-6521-4136-8f98-3e7ebd9b2f9c","a9f3d40c-5730-405c-b25e-1034c4c56f3f","{""num_scrambled_semantic"":""8"",""num_scrambled_causal"":""4"",""num_scrambled_schematic"":""4"",""participantId"":""ECBE6A47D17C4A6F95B4495C6A3D90C3"",""assignmentId"":""8f4dd62b-6521-4136-8f98-3e7ebd9b2f9c"",""projectId"":""a9f3d40c-5730-405c-b25e-1034c4c56f3f""}","https://test12345.live/?num_scrambled_semantic=8&num_scrambled_causal=4&num_scrambled_schematic=4&participantId=ECBE6A47D17C4A6F95B4495C6A3D90C3&assignmentId=8f4dd62b-6521-4136-8f98-3e7ebd9b2f9c&projectId=a9f3d40c-5730-405c-b25e-1034c4c56f3f","ECBE6A47D17C4A6F95B4495C6A3D90C3-2025-08-07-18-59-43","","null","","[]","null","",""
"","","","","","image-button-response","34","238452","0.0-10.0-1.0-0.3","ECBE6A47D17C4A6F95B4495C6A3D90C3","ECBE6A47D17C4A6F95B4495C6A3D90C3","8f4dd62b-6521-4136-8f98-3e7ebd9b2f9c","a9f3d40c-5730-405c-b25e-1034c4c56f3f","{""num_scrambled_semantic"":""8"",""num_scrambled_causal"":""4"",""num_scrambled_schematic"":""4"",""participantId"":""ECBE6A47D17C4A6F95B4495C6A3D90C3"",""assignmentId"":""8f4dd62b-6521-4136-8f98-3e7ebd9b2f9c"",""projectId"":""a9f3d40c-5730-405c-b25e-1034c4c56f3f""}","https://test12345.live/?num_scrambled_semantic=8&num_scrambled_causal=4&num_scrambled_schematic=4&participantId=ECBE6A47D17C4A6F95B4495C6A3D90C3&assignmentId=8f4dd62b-6521-4136-8f98-3e7ebd9b2f9c&projectId=a9f3d40c-5730-405c-b25e-1034c4c56f3f","ECBE6A47D17C4A6F95B4495C6A3D90C3-2025-08-07-18-59-43","","null","","images/causal_sequence/the_performance_causal/the_performance_causal_3.png","null","",""
"","","","","","image-button-response","35","239693","0.0-10.0-1.0-1.3","ECBE6A47D17C4A6F95B4495C6A3D90C3","ECBE6A47D17C4A6F95B4495C6A3D90C3","8f4dd62b-6521-4136-8f98-3e7ebd9b2f9c","a9f3d40c-5730-405c-b25e-1034c4c56f3f","{""num_scrambled_semantic"":""8"",""num_scrambled_causal"":""4"",""num_scrambled_schematic"":""4"",""participantId"":""ECBE6A47D17C4A6F95B4495C6A3D90C3"",""assignmentId"":""8f4dd62b-6521-4136-8f98-3e7ebd9b2f9c"",""projectId"":""a9f3d40c-5730-405c-b25e-1034c4c56f3f""}","https://test12345.live/?num_scrambled_semantic=8&num_scrambled_causal=4&num_scrambled_schematic=4&participantId=ECBE6A47D17C4A6F95B4495C6A3D90C3&assignmentId=8f4dd62b-6521-4136-8f98-3e7ebd9b2f9c&projectId=a9f3d40c-5730-405c-b25e-1034c4c56f3f","ECBE6A47D17C4A6F95B4495C6A3D90C3-2025-08-07-18-59-43","","1240","","images/causal_sequence/the_performance_causal/the_performance_causal_3.png","0","",""
"","","","","","image-button-response","36","241504","0.0-10.0-1.0-2.3","ECBE6A47D17C4A6F95B4495C6A3D90C3","ECBE6A47D17C4A6F95B4495C6A3D90C3","8f4dd62b-6521-4136-8f98-3e7ebd9b2f9c","a9f3d40c-5730-405c-b25e-1034c4c56f3f","{""num_scrambled_semantic"":""8"",""num_scrambled_causal"":""4"",""num_scrambled_schematic"":""4"",""participantId"":""ECBE6A47D17C4A6F95B4495C6A3D90C3"",""assignmentId"":""8f4dd62b-6521-4136-8f98-3e7ebd9b2f9c"",""projectId"":""a9f3d40c-5730-405c-b25e-1034c4c56f3f""}","https://test12345.live/?num_scrambled_semantic=8&num_scrambled_causal=4&num_scrambled_schematic=4&participantId=ECBE6A47D17C4A6F95B4495C6A3D90C3&assignmentId=8f4dd62b-6521-4136-8f98-3e7ebd9b2f9c&projectId=a9f3d40c-5730-405c-b25e-1034c4c56f3f","ECBE6A47D17C4A6F95B4495C6A3D90C3-2025-08-07-18-59-43","","null","","[]","null","",""
"","","","","","image-button-response","37","246013","0.0-10.0-1.0-0.4","ECBE6A47D17C4A6F95B4495C6A3D90C3","ECBE6A47D17C4A6F95B4495C6A3D90C3","8f4dd62b-6521-4136-8f98-3e7ebd9b2f9c","a9f3d40c-5730-405c-b25e-1034c4c56f3f","{""num_scrambled_semantic"":""8"",""num_scrambled_causal"":""4"",""num_scrambled_schematic"":""4"",""participantId"":""ECBE6A47D17C4A6F95B4495C6A3D90C3"",""assignmentId"":""8f4dd62b-6521-4136-8f98-3e7ebd9b2f9c"",""projectId"":""a9f3d40c-5730-405c-b25e-1034c4c56f3f""}","https://test12345.live/?num_scrambled_semantic=8&num_scrambled_causal=4&num_scrambled_schematic=4&participantId=ECBE6A47D17C4A6F95B4495C6A3D90C3&assignmentId=8f4dd62b-6521-4136-8f98-3e7ebd9b2f9c&projectId=a9f3d40c-5730-405c-b25e-1034c4c56f3f","ECBE6A47D17C4A6F95B4495C6A3D90C3-2025-08-07-18-59-43","","null","","images/causal_sequence/the_performance_causal/the_performance_causal_4.png","null","",""
"","","","","","image-button-response","38","247185","0.0-10.0-1.0-1.4","ECBE6A47D17C4A6F95B4495C6A3D90C3","ECBE6A47D17C4A6F95B4495C6A3D90C3","8f4dd62b-6521-4136-8f98-3e7ebd9b2f9c","a9f3d40c-5730-405c-b25e-1034c4c56f3f","{""num_scrambled_semantic"":""8"",""num_scrambled_causal"":""4"",""num_scrambled_schematic"":""4"",""participantId"":""ECBE6A47D17C4A6F95B4495C6A3D90C3"",""assignmentId"":""8f4dd62b-6521-4136-8f98-3e7ebd9b2f9c"",""projectId"":""a9f3d40c-5730-405c-b25e-1034c4c56f3f""}","https://test12345.live/?num_scrambled_semantic=8&num_scrambled_causal=4&num_scrambled_schematic=4&participantId=ECBE6A47D17C4A6F95B4495C6A3D90C3&assignmentId=8f4dd62b-6521-4136-8f98-3e7ebd9b2f9c&projectId=a9f3d40c-5730-405c-b25e-1034c4c56f3f","ECBE6A47D17C4A6F95B4495C6A3D90C3-2025-08-07-18-59-43","","1172","","images/causal_sequence/the_performance_causal/the_performance_causal_4.png","0","",""
"","","","","","image-button-response","39","248990","0.0-10.0-1.0-2.4","ECBE6A47D17C4A6F95B4495C6A3D90C3","ECBE6A47D17C4A6F95B4495C6A3D90C3","8f4dd62b-6521-4136-8f98-3e7ebd9b2f9c","a9f3d40c-5730-405c-b25e-1034c4c56f3f","{""num_scrambled_semantic"":""8"",""num_scrambled_causal"":""4"",""num_scrambled_schematic"":""4"",""participantId"":""ECBE6A47D17C4A6F95B4495C6A3D90C3"",""assignmentId"":""8f4dd62b-6521-4136-8f98-3e7ebd9b2f9c"",""projectId"":""a9f3d40c-5730-405c-b25e-1034c4c56f3f""}","https://test12345.live/?num_scrambled_semantic=8&num_scrambled_causal=4&num_scrambled_schematic=4&participantId=ECBE6A47D17C4A6F95B4495C6A3D90C3&assignmentId=8f4dd62b-6521-4136-8f98-3e7ebd9b2f9c&projectId=a9f3d40c-5730-405c-b25e-1034c4c56f3f","ECBE6A47D17C4A6F95B4495C6A3D90C3-2025-08-07-18-59-43","","null","","[]","null","",""
"","","","","","image-button-response","40","253491","0.0-10.0-1.0-0.5","ECBE6A47D17C4A6F95B4495C6A3D90C3","ECBE6A47D17C4A6F95B4495C6A3D90C3","8f4dd62b-6521-4136-8f98-3e7ebd9b2f9c","a9f3d40c-5730-405c-b25e-1034c4c56f3f","{""num_scrambled_semantic"":""8"",""num_scrambled_causal"":""4"",""num_scrambled_schematic"":""4"",""participantId"":""ECBE6A47D17C4A6F95B4495C6A3D90C3"",""assignmentId"":""8f4dd62b-6521-4136-8f98-3e7ebd9b2f9c"",""projectId"":""a9f3d40c-5730-405c-b25e-1034c4c56f3f""}","https://test12345.live/?num_scrambled_semantic=8&num_scrambled_causal=4&num_scrambled_schematic=4&participantId=ECBE6A47D17C4A6F95B4495C6A3D90C3&assignmentId=8f4dd62b-6521-4136-8f98-3e7ebd9b2f9c&projectId=a9f3d40c-5730-405c-b25e-1034c4c56f3f","ECBE6A47D17C4A6F95B4495C6A3D90C3-2025-08-07-18-59-43","","null","","images/causal_sequence/the_performance_causal/the_performance_causal_9 (2).png","null","",""
"","","","","","image-button-response","41","254347","0.0-10.0-1.0-1.5","ECBE6A47D17C4A6F95B4495C6A3D90C3","ECBE6A47D17C4A6F95B4495C6A3D90C3","8f4dd62b-6521-4136-8f98-3e7ebd9b2f9c","a9f3d40c-5730-405c-b25e-1034c4c56f3f","{""num_scrambled_semantic"":""8"",""num_scrambled_causal"":""4"",""num_scrambled_schematic"":""4"",""participantId"":""ECBE6A47D17C4A6F95B4495C6A3D90C3"",""assignmentId"":""8f4dd62b-6521-4136-8f98-3e7ebd9b2f9c"",""projectId"":""a9f3d40c-5730-405c-b25e-1034c4c56f3f""}","https://test12345.live/?num_scrambled_semantic=8&num_scrambled_causal=4&num_scrambled_schematic=4&participantId=ECBE6A47D17C4A6F95B4495C6A3D90C3&assignmentId=8f4dd62b-6521-4136-8f98-3e7ebd9b2f9c&projectId=a9f3d40c-5730-405c-b25e-1034c4c56f3f","ECBE6A47D17C4A6F95B4495C6A3D90C3-2025-08-07-18-59-43","","855","","images/causal_sequence/the_performance_causal/the_performance_causal_9 (2).png","0","",""
"","","","","","image-button-response","42","256148","0.0-10.0-1.0-2.5","ECBE6A47D17C4A6F95B4495C6A3D90C3","ECBE6A47D17C4A6F95B4495C6A3D90C3","8f4dd62b-6521-4136-8f98-3e7ebd9b2f9c","a9f3d40c-5730-405c-b25e-1034c4c56f3f","{""num_scrambled_semantic"":""8"",""num_scrambled_causal"":""4"",""num_scrambled_schematic"":""4"",""participantId"":""ECBE6A47D17C4A6F95B4495C6A3D90C3"",""assignmentId"":""8f4dd62b-6521-4136-8f98-3e7ebd9b2f9c"",""projectId"":""a9f3d40c-5730-405c-b25e-1034c4c56f3f""}","https://test12345.live/?num_scrambled_semantic=8&num_scrambled_causal=4&num_scrambled_schematic=4&participantId=ECBE6A47D17C4A6F95B4495C6A3D90C3&assignmentId=8f4dd62b-6521-4136-8f98-3e7ebd9b2f9c&projectId=a9f3d40c-5730-405c-b25e-1034c4c56f3f","ECBE6A47D17C4A6F95B4495C6A3D90C3-2025-08-07-18-59-43","","null","","[]","null","",""
"","","","","","image-button-response","43","260652","0.0-10.0-1.0-0.6","ECBE6A47D17C4A6F95B4495C6A3D90C3","ECBE6A47D17C4A6F95B4495C6A3D90C3","8f4dd62b-6521-4136-8f98-3e7ebd9b2f9c","a9f3d40c-5730-405c-b25e-1034c4c56f3f","{""num_scrambled_semantic"":""8"",""num_scrambled_causal"":""4"",""num_scrambled_schematic"":""4"",""participantId"":""ECBE6A47D17C4A6F95B4495C6A3D90C3"",""assignmentId"":""8f4dd62b-6521-4136-8f98-3e7ebd9b2f9c"",""projectId"":""a9f3d40c-5730-405c-b25e-1034c4c56f3f""}","https://test12345.live/?num_scrambled_semantic=8&num_scrambled_causal=4&num_scrambled_schematic=4&participantId=ECBE6A47D17C4A6F95B4495C6A3D90C3&assignmentId=8f4dd62b-6521-4136-8f98-3e7ebd9b2f9c&projectId=a9f3d40c-5730-405c-b25e-1034c4c56f3f","ECBE6A47D17C4A6F95B4495C6A3D90C3-2025-08-07-18-59-43","","null","","images/causal_sequence/the_performance_causal/the_performance_causal_6.png","null","",""
"","","","","","image-button-response","44","261660","0.0-10.0-1.0-1.6","ECBE6A47D17C4A6F95B4495C6A3D90C3","ECBE6A47D17C4A6F95B4495C6A3D90C3","8f4dd62b-6521-4136-8f98-3e7ebd9b2f9c","a9f3d40c-5730-405c-b25e-1034c4c56f3f","{""num_scrambled_semantic"":""8"",""num_scrambled_causal"":""4"",""num_scrambled_schematic"":""4"",""participantId"":""ECBE6A47D17C4A6F95B4495C6A3D90C3"",""assignmentId"":""8f4dd62b-6521-4136-8f98-3e7ebd9b2f9c"",""projectId"":""a9f3d40c-5730-405c-b25e-1034c4c56f3f""}","https://test12345.live/?num_scrambled_semantic=8&num_scrambled_causal=4&num_scrambled_schematic=4&participantId=ECBE6A47D17C4A6F95B4495C6A3D90C3&assignmentId=8f4dd62b-6521-4136-8f98-3e7ebd9b2f9c&projectId=a9f3d40c-5730-405c-b25e-1034c4c56f3f","ECBE6A47D17C4A6F95B4495C6A3D90C3-2025-08-07-18-59-43","","1007","","images/causal_sequence/the_performance_causal/the_performance_causal_6.png","0","",""
"","","","","","image-button-response","45","263461","0.0-10.0-1.0-2.6","ECBE6A47D17C4A6F95B4495C6A3D90C3","ECBE6A47D17C4A6F95B4495C6A3D90C3","8f4dd62b-6521-4136-8f98-3e7ebd9b2f9c","a9f3d40c-5730-405c-b25e-1034c4c56f3f","{""num_scrambled_semantic"":""8"",""num_scrambled_causal"":""4"",""num_scrambled_schematic"":""4"",""participantId"":""ECBE6A47D17C4A6F95B4495C6A3D90C3"",""assignmentId"":""8f4dd62b-6521-4136-8f98-3e7ebd9b2f9c"",""projectId"":""a9f3d40c-5730-405c-b25e-1034c4c56f3f""}","https://test12345.live/?num_scrambled_semantic=8&num_scrambled_causal=4&num_scrambled_schematic=4&participantId=ECBE6A47D17C4A6F95B4495C6A3D90C3&assignmentId=8f4dd62b-6521-4136-8f98-3e7ebd9b2f9c&projectId=a9f3d40c-5730-405c-b25e-1034c4c56f3f","ECBE6A47D17C4A6F95B4495C6A3D90C3-2025-08-07-18-59-43","","null","","[]","null","",""
"","","","","","image-button-response","46","267963","0.0-10.0-1.0-0.7","ECBE6A47D17C4A6F95B4495C6A3D90C3","ECBE6A47D17C4A6F95B4495C6A3D90C3","8f4dd62b-6521-4136-8f98-3e7ebd9b2f9c","a9f3d40c-5730-405c-b25e-1034c4c56f3f","{""num_scrambled_semantic"":""8"",""num_scrambled_causal"":""4"",""num_scrambled_schematic"":""4"",""participantId"":""ECBE6A47D17C4A6F95B4495C6A3D90C3"",""assignmentId"":""8f4dd62b-6521-4136-8f98-3e7ebd9b2f9c"",""projectId"":""a9f3d40c-5730-405c-b25e-1034c4c56f3f""}","https://test12345.live/?num_scrambled_semantic=8&num_scrambled_causal=4&num_scrambled_schematic=4&participantId=ECBE6A47D17C4A6F95B4495C6A3D90C3&assignmentId=8f4dd62b-6521-4136-8f98-3e7ebd9b2f9c&projectId=a9f3d40c-5730-405c-b25e-1034c4c56f3f","ECBE6A47D17C4A6F95B4495C6A3D90C3-2025-08-07-18-59-43","","null","","images/causal_sequence/the_performance_causal/the_performance_causal_2.png","null","",""
"","","","","","image-button-response","47","269013","0.0-10.0-1.0-1.7","ECBE6A47D17C4A6F95B4495C6A3D90C3","ECBE6A47D17C4A6F95B4495C6A3D90C3","8f4dd62b-6521-4136-8f98-3e7ebd9b2f9c","a9f3d40c-5730-405c-b25e-1034c4c56f3f","{""num_scrambled_semantic"":""8"",""num_scrambled_causal"":""4"",""num_scrambled_schematic"":""4"",""participantId"":""ECBE6A47D17C4A6F95B4495C6A3D90C3"",""assignmentId"":""8f4dd62b-6521-4136-8f98-3e7ebd9b2f9c"",""projectId"":""a9f3d40c-5730-405c-b25e-1034c4c56f3f""}","https://test12345.live/?num_scrambled_semantic=8&num_scrambled_causal=4&num_scrambled_schematic=4&participantId=ECBE6A47D17C4A6F95B4495C6A3D90C3&assignmentId=8f4dd62b-6521-4136-8f98-3e7ebd9b2f9c&projectId=a9f3d40c-5730-405c-b25e-1034c4c56f3f","ECBE6A47D17C4A6F95B4495C6A3D90C3-2025-08-07-18-59-43","","1050","","images/causal_sequence/the_performance_causal/the_performance_causal_2.png","0","",""
"","","","","","image-button-response","48","270822","0.0-10.0-1.0-2.7","ECBE6A47D17C4A6F95B4495C6A3D90C3","ECBE6A47D17C4A6F95B4495C6A3D90C3","8f4dd62b-6521-4136-8f98-3e7ebd9b2f9c","a9f3d40c-5730-405c-b25e-1034c4c56f3f","{""num_scrambled_semantic"":""8"",""num_scrambled_causal"":""4"",""num_scrambled_schematic"":""4"",""participantId"":""ECBE6A47D17C4A6F95B4495C6A3D90C3"",""assignmentId"":""8f4dd62b-6521-4136-8f98-3e7ebd9b2f9c"",""projectId"":""a9f3d40c-5730-405c-b25e-1034c4c56f3f""}","https://test12345.live/?num_scrambled_semantic=8&num_scrambled_causal=4&num_scrambled_schematic=4&participantId=ECBE6A47D17C4A6F95B4495C6A3D90C3&assignmentId=8f4dd62b-6521-4136-8f98-3e7ebd9b2f9c&projectId=a9f3d40c-5730-405c-b25e-1034c4c56f3f","ECBE6A47D17C4A6F95B4495C6A3D90C3-2025-08-07-18-59-43","","null","","[]","null","",""
"","","","","","image-button-response","49","275329","0.0-10.0-1.0-0.8","ECBE6A47D17C4A6F95B4495C6A3D90C3","ECBE6A47D17C4A6F95B4495C6A3D90C3","8f4dd62b-6521-4136-8f98-3e7ebd9b2f9c","a9f3d40c-5730-405c-b25e-1034c4c56f3f","{""num_scrambled_semantic"":""8"",""num_scrambled_causal"":""4"",""num_scrambled_schematic"":""4"",""participantId"":""ECBE6A47D17C4A6F95B4495C6A3D90C3"",""assignmentId"":""8f4dd62b-6521-4136-8f98-3e7ebd9b2f9c"",""projectId"":""a9f3d40c-5730-405c-b25e-1034c4c56f3f""}","https://test12345.live/?num_scrambled_semantic=8&num_scrambled_causal=4&num_scrambled_schematic=4&participantId=ECBE6A47D17C4A6F95B4495C6A3D90C3&assignmentId=8f4dd62b-6521-4136-8f98-3e7ebd9b2f9c&projectId=a9f3d40c-5730-405c-b25e-1034c4c56f3f","ECBE6A47D17C4A6F95B4495C6A3D90C3-2025-08-07-18-59-43","","null","","images/causal_sequence/the_performance_causal/the_performance_causal_1.png","null","",""
"","","","","","image-button-response","50","276692","0.0-10.0-1.0-1.8","ECBE6A47D17C4A6F95B4495C6A3D90C3","ECBE6A47D17C4A6F95B4495C6A3D90C3","8f4dd62b-6521-4136-8f98-3e7ebd9b2f9c","a9f3d40c-5730-405c-b25e-1034c4c56f3f","{""num_scrambled_semantic"":""8"",""num_scrambled_causal"":""4"",""num_scrambled_schematic"":""4"",""participantId"":""ECBE6A47D17C4A6F95B4495C6A3D90C3"",""assignmentId"":""8f4dd62b-6521-4136-8f98-3e7ebd9b2f9c"",""projectId"":""a9f3d40c-5730-405c-b25e-1034c4c56f3f""}","https://test12345.live/?num_scrambled_semantic=8&num_scrambled_causal=4&num_scrambled_schematic=4&participantId=ECBE6A47D17C4A6F95B4495C6A3D90C3&assignmentId=8f4dd62b-6521-4136-8f98-3e7ebd9b2f9c&projectId=a9f3d40c-5730-405c-b25e-1034c4c56f3f","ECBE6A47D17C4A6F95B4495C6A3D90C3-2025-08-07-18-59-43","","1363","","images/causal_sequence/the_performance_causal/the_performance_causal_1.png","0","",""
"","","","","","image-button-response","51","278497","0.0-10.0-1.0-2.8","ECBE6A47D17C4A6F95B4495C6A3D90C3","ECBE6A47D17C4A6F95B4495C6A3D90C3","8f4dd62b-6521-4136-8f98-3e7ebd9b2f9c","a9f3d40c-5730-405c-b25e-1034c4c56f3f","{""num_scrambled_semantic"":""8"",""num_scrambled_causal"":""4"",""num_scrambled_schematic"":""4"",""participantId"":""ECBE6A47D17C4A6F95B4495C6A3D90C3"",""assignmentId"":""8f4dd62b-6521-4136-8f98-3e7ebd9b2f9c"",""projectId"":""a9f3d40c-5730-405c-b25e-1034c4c56f3f""}","https://test12345.live/?num_scrambled_semantic=8&num_scrambled_causal=4&num_scrambled_schematic=4&participantId=ECBE6A47D17C4A6F95B4495C6A3D90C3&assignmentId=8f4dd62b-6521-4136-8f98-3e7ebd9b2f9c&projectId=a9f3d40c-5730-405c-b25e-1034c4c56f3f","ECBE6A47D17C4A6F95B4495C6A3D90C3-2025-08-07-18-59-43","","null","","[]","null","",""
"","","","","","image-button-response","52","283004","0.0-10.0-1.0-0.9","ECBE6A47D17C4A6F95B4495C6A3D90C3","ECBE6A47D17C4A6F95B4495C6A3D90C3","8f4dd62b-6521-4136-8f98-3e7ebd9b2f9c","a9f3d40c-5730-405c-b25e-1034c4c56f3f","{""num_scrambled_semantic"":""8"",""num_scrambled_causal"":""4"",""num_scrambled_schematic"":""4"",""participantId"":""ECBE6A47D17C4A6F95B4495C6A3D90C3"",""assignmentId"":""8f4dd62b-6521-4136-8f98-3e7ebd9b2f9c"",""projectId"":""a9f3d40c-5730-405c-b25e-1034c4c56f3f""}","https://test12345.live/?num_scrambled_semantic=8&num_scrambled_causal=4&num_scrambled_schematic=4&participantId=ECBE6A47D17C4A6F95B4495C6A3D90C3&assignmentId=8f4dd62b-6521-4136-8f98-3e7ebd9b2f9c&projectId=a9f3d40c-5730-405c-b25e-1034c4c56f3f","ECBE6A47D17C4A6F95B4495C6A3D90C3-2025-08-07-18-59-43","","null","","images/causal_sequence/the_performance_causal/the_performance_causal_7.png","null","",""
"","","","","","image-button-response","53","284006","0.0-10.0-1.0-1.9","ECBE6A47D17C4A6F95B4495C6A3D90C3","ECBE6A47D17C4A6F95B4495C6A3D90C3","8f4dd62b-6521-4136-8f98-3e7ebd9b2f9c","a9f3d40c-5730-405c-b25e-1034c4c56f3f","{""num_scrambled_semantic"":""8"",""num_scrambled_causal"":""4"",""num_scrambled_schematic"":""4"",""participantId"":""ECBE6A47D17C4A6F95B4495C6A3D90C3"",""assignmentId"":""8f4dd62b-6521-4136-8f98-3e7ebd9b2f9c"",""projectId"":""a9f3d40c-5730-405c-b25e-1034c4c56f3f""}","https://test12345.live/?num_scrambled_semantic=8&num_scrambled_causal=4&num_scrambled_schematic=4&participantId=ECBE6A47D17C4A6F95B4495C6A3D90C3&assignmentId=8f4dd62b-6521-4136-8f98-3e7ebd9b2f9c&projectId=a9f3d40c-5730-405c-b25e-1034c4c56f3f","ECBE6A47D17C4A6F95B4495C6A3D90C3-2025-08-07-18-59-43","","1001","","images/causal_sequence/the_performance_causal/the_performance_causal_7.png","0","",""
"","","","","","image-button-response","54","285820","0.0-10.0-1.0-2.9","ECBE6A47D17C4A6F95B4495C6A3D90C3","ECBE6A47D17C4A6F95B4495C6A3D90C3","8f4dd62b-6521-4136-8f98-3e7ebd9b2f9c","a9f3d40c-5730-405c-b25e-1034c4c56f3f","{""num_scrambled_semantic"":""8"",""num_scrambled_causal"":""4"",""num_scrambled_schematic"":""4"",""participantId"":""ECBE6A47D17C4A6F95B4495C6A3D90C3"",""assignmentId"":""8f4dd62b-6521-4136-8f98-3e7ebd9b2f9c"",""projectId"":""a9f3d40c-5730-405c-b25e-1034c4c56f3f""}","https://test12345.live/?num_scrambled_semantic=8&num_scrambled_causal=4&num_scrambled_schematic=4&participantId=ECBE6A47D17C4A6F95B4495C6A3D90C3&assignmentId=8f4dd62b-6521-4136-8f98-3e7ebd9b2f9c&projectId=a9f3d40c-5730-405c-b25e-1034c4c56f3f","ECBE6A47D17C4A6F95B4495C6A3D90C3-2025-08-07-18-59-43","","null","","[]","null","",""
"","","","","","html-audio-response","55","330530","0.0-11.0","ECBE6A47D17C4A6F95B4495C6A3D90C3","ECBE6A47D17C4A6F95B4495C6A3D90C3","8f4dd62b-6521-4136-8f98-3e7ebd9b2f9c","a9f3d40c-5730-405c-b25e-1034c4c56f3f","{""num_scrambled_semantic"":""8"",""num_scrambled_causal"":""4"",""num_scrambled_schematic"":""4"",""participantId"":""ECBE6A47D17C4A6F95B4495C6A3D90C3"",""assignmentId"":""8f4dd62b-6521-4136-8f98-3e7ebd9b2f9c"",""projectId"":""a9f3d40c-5730-405c-b25e-1034c4c56f3f""}","https://test12345.live/?num_scrambled_semantic=8&num_scrambled_causal=4&num_scrambled_schematic=4&participantId=ECBE6A47D17C4A6F95B4495C6A3D90C3&assignmentId=8f4dd62b-6521-4136-8f98-3e7ebd9b2f9c&projectId=a9f3d40c-5730-405c-b25e-1034c4c56f3f","ECBE6A47D17C4A6F95B4495C6A3D90C3-2025-08-07-18-59-43","","38946","","[""<span style=\""color: red; font-size: 24px\""> NOW RECORDING</span><p>Please say out loud all the images you saw, as many as you can remember. The images can be said in any order.</p>""]","","1","the_performance_causal"
"","","","","","image-button-response","56","336536","0.0-12.0-0.0","ECBE6A47D17C4A6F95B4495C6A3D90C3","ECBE6A47D17C4A6F95B4495C6A3D90C3","8f4dd62b-6521-4136-8f98-3e7ebd9b2f9c","a9f3d40c-5730-405c-b25e-1034c4c56f3f","{""num_scrambled_semantic"":""8"",""num_scrambled_causal"":""4"",""num_scrambled_schematic"":""4"",""participantId"":""ECBE6A47D17C4A6F95B4495C6A3D90C3"",""assignmentId"":""8f4dd62b-6521-4136-8f98-3e7ebd9b2f9c"",""projectId"":""a9f3d40c-5730-405c-b25e-1034c4c56f3f""}","https://test12345.live/?num_scrambled_semantic=8&num_scrambled_causal=4&num_scrambled_schematic=4&participantId=ECBE6A47D17C4A6F95B4495C6A3D90C3&assignmentId=8f4dd62b-6521-4136-8f98-3e7ebd9b2f9c&projectId=a9f3d40c-5730-405c-b25e-1034c4c56f3f","ECBE6A47D17C4A6F95B4495C6A3D90C3-2025-08-07-18-59-43","","null","","images/semantic_sequence/physical_activity_semantic/physical_activity_semantic_0.png","null","",""
"","","","","","image-button-response","57","341044","0.0-12.0-1.0-0.0","ECBE6A47D17C4A6F95B4495C6A3D90C3","ECBE6A47D17C4A6F95B4495C6A3D90C3","8f4dd62b-6521-4136-8f98-3e7ebd9b2f9c","a9f3d40c-5730-405c-b25e-1034c4c56f3f","{""num_scrambled_semantic"":""8"",""num_scrambled_causal"":""4"",""num_scrambled_schematic"":""4"",""participantId"":""ECBE6A47D17C4A6F95B4495C6A3D90C3"",""assignmentId"":""8f4dd62b-6521-4136-8f98-3e7ebd9b2f9c"",""projectId"":""a9f3d40c-5730-405c-b25e-1034c4c56f3f""}","https://test12345.live/?num_scrambled_semantic=8&num_scrambled_causal=4&num_scrambled_schematic=4&participantId=ECBE6A47D17C4A6F95B4495C6A3D90C3&assignmentId=8f4dd62b-6521-4136-8f98-3e7ebd9b2f9c&projectId=a9f3d40c-5730-405c-b25e-1034c4c56f3f","ECBE6A47D17C4A6F95B4495C6A3D90C3-2025-08-07-18-59-43","","null","","images/semantic_sequence/physical_activity_semantic/physical_activity_semantic_5.png","null","",""
"","","","","","image-button-response","58","343007","0.0-12.0-1.0-1.0","ECBE6A47D17C4A6F95B4495C6A3D90C3","ECBE6A47D17C4A6F95B4495C6A3D90C3","8f4dd62b-6521-4136-8f98-3e7ebd9b2f9c","a9f3d40c-5730-405c-b25e-1034c4c56f3f","{""num_scrambled_semantic"":""8"",""num_scrambled_causal"":""4"",""num_scrambled_schematic"":""4"",""participantId"":""ECBE6A47D17C4A6F95B4495C6A3D90C3"",""assignmentId"":""8f4dd62b-6521-4136-8f98-3e7ebd9b2f9c"",""projectId"":""a9f3d40c-5730-405c-b25e-1034c4c56f3f""}","https://test12345.live/?num_scrambled_semantic=8&num_scrambled_causal=4&num_scrambled_schematic=4&participantId=ECBE6A47D17C4A6F95B4495C6A3D90C3&assignmentId=8f4dd62b-6521-4136-8f98-3e7ebd9b2f9c&projectId=a9f3d40c-5730-405c-b25e-1034c4c56f3f","ECBE6A47D17C4A6F95B4495C6A3D90C3-2025-08-07-18-59-43","","1962","","images/semantic_sequence/physical_activity_semantic/physical_activity_semantic_5.png","0","",""
"","","","","","image-button-response","59","344821","0.0-12.0-1.0-2.0","ECBE6A47D17C4A6F95B4495C6A3D90C3","ECBE6A47D17C4A6F95B4495C6A3D90C3","8f4dd62b-6521-4136-8f98-3e7ebd9b2f9c","a9f3d40c-5730-405c-b25e-1034c4c56f3f","{""num_scrambled_semantic"":""8"",""num_scrambled_causal"":""4"",""num_scrambled_schematic"":""4"",""participantId"":""ECBE6A47D17C4A6F95B4495C6A3D90C3"",""assignmentId"":""8f4dd62b-6521-4136-8f98-3e7ebd9b2f9c"",""projectId"":""a9f3d40c-5730-405c-b25e-1034c4c56f3f""}","https://test12345.live/?num_scrambled_semantic=8&num_scrambled_causal=4&num_scrambled_schematic=4&participantId=ECBE6A47D17C4A6F95B4495C6A3D90C3&assignmentId=8f4dd62b-6521-4136-8f98-3e7ebd9b2f9c&projectId=a9f3d40c-5730-405c-b25e-1034c4c56f3f","ECBE6A47D17C4A6F95B4495C6A3D90C3-2025-08-07-18-59-43","","null","","[]","null","",""
"","","","","","image-button-response","60","349324","0.0-12.0-1.0-0.1","ECBE6A47D17C4A6F95B4495C6A3D90C3","ECBE6A47D17C4A6F95B4495C6A3D90C3","8f4dd62b-6521-4136-8f98-3e7ebd9b2f9c","a9f3d40c-5730-405c-b25e-1034c4c56f3f","{""num_scrambled_semantic"":""8"",""num_scrambled_causal"":""4"",""num_scrambled_schematic"":""4"",""participantId"":""ECBE6A47D17C4A6F95B4495C6A3D90C3"",""assignmentId"":""8f4dd62b-6521-4136-8f98-3e7ebd9b2f9c"",""projectId"":""a9f3d40c-5730-405c-b25e-1034c4c56f3f""}","https://test12345.live/?num_scrambled_semantic=8&num_scrambled_causal=4&num_scrambled_schematic=4&participantId=ECBE6A47D17C4A6F95B4495C6A3D90C3&assignmentId=8f4dd62b-6521-4136-8f98-3e7ebd9b2f9c&projectId=a9f3d40c-5730-405c-b25e-1034c4c56f3f","ECBE6A47D17C4A6F95B4495C6A3D90C3-2025-08-07-18-59-43","","null","","images/semantic_sequence/physical_activity_semantic/physical_activity_semantic_1.png","null","",""
"","","","","","image-button-response","61","349889","0.0-12.0-1.0-1.1","ECBE6A47D17C4A6F95B4495C6A3D90C3","ECBE6A47D17C4A6F95B4495C6A3D90C3","8f4dd62b-6521-4136-8f98-3e7ebd9b2f9c","a9f3d40c-5730-405c-b25e-1034c4c56f3f","{""num_scrambled_semantic"":""8"",""num_scrambled_causal"":""4"",""num_scrambled_schematic"":""4"",""participantId"":""ECBE6A47D17C4A6F95B4495C6A3D90C3"",""assignmentId"":""8f4dd62b-6521-4136-8f98-3e7ebd9b2f9c"",""projectId"":""a9f3d40c-5730-405c-b25e-1034c4c56f3f""}","https://test12345.live/?num_scrambled_semantic=8&num_scrambled_causal=4&num_scrambled_schematic=4&participantId=ECBE6A47D17C4A6F95B4495C6A3D90C3&assignmentId=8f4dd62b-6521-4136-8f98-3e7ebd9b2f9c&projectId=a9f3d40c-5730-405c-b25e-1034c4c56f3f","ECBE6A47D17C4A6F95B4495C6A3D90C3-2025-08-07-18-59-43","","564","","images/semantic_sequence/physical_activity_semantic/physical_activity_semantic_1.png","0","",""
"","","","","","image-button-response","62","351700","0.0-12.0-1.0-2.1","ECBE6A47D17C4A6F95B4495C6A3D90C3","ECBE6A47D17C4A6F95B4495C6A3D90C3","8f4dd62b-6521-4136-8f98-3e7ebd9b2f9c","a9f3d40c-5730-405c-b25e-1034c4c56f3f","{""num_scrambled_semantic"":""8"",""num_scrambled_causal"":""4"",""num_scrambled_schematic"":""4"",""participantId"":""ECBE6A47D17C4A6F95B4495C6A3D90C3"",""assignmentId"":""8f4dd62b-6521-4136-8f98-3e7ebd9b2f9c"",""projectId"":""a9f3d40c-5730-405c-b25e-1034c4c56f3f""}","https://test12345.live/?num_scrambled_semantic=8&num_scrambled_causal=4&num_scrambled_schematic=4&participantId=ECBE6A47D17C4A6F95B4495C6A3D90C3&assignmentId=8f4dd62b-6521-4136-8f98-3e7ebd9b2f9c&projectId=a9f3d40c-5730-405c-b25e-1034c4c56f3f","ECBE6A47D17C4A6F95B4495C6A3D90C3-2025-08-07-18-59-43","","null","","[]","null","",""
"","","","","","image-button-response","63","356205","0.0-12.0-1.0-0.2","ECBE6A47D17C4A6F95B4495C6A3D90C3","ECBE6A47D17C4A6F95B4495C6A3D90C3","8f4dd62b-6521-4136-8f98-3e7ebd9b2f9c","a9f3d40c-5730-405c-b25e-1034c4c56f3f","{""num_scrambled_semantic"":""8"",""num_scrambled_causal"":""4"",""num_scrambled_schematic"":""4"",""participantId"":""ECBE6A47D17C4A6F95B4495C6A3D90C3"",""assignmentId"":""8f4dd62b-6521-4136-8f98-3e7ebd9b2f9c"",""projectId"":""a9f3d40c-5730-405c-b25e-1034c4c56f3f""}","https://test12345.live/?num_scrambled_semantic=8&num_scrambled_causal=4&num_scrambled_schematic=4&participantId=ECBE6A47D17C4A6F95B4495C6A3D90C3&assignmentId=8f4dd62b-6521-4136-8f98-3e7ebd9b2f9c&projectId=a9f3d40c-5730-405c-b25e-1034c4c56f3f","ECBE6A47D17C4A6F95B4495C6A3D90C3-2025-08-07-18-59-43","","null","","images/semantic_sequence/physical_activity_semantic/physical_activity_semantic_9.png","null","",""
"","","","","","image-button-response","64","356869","0.0-12.0-1.0-1.2","ECBE6A47D17C4A6F95B4495C6A3D90C3","ECBE6A47D17C4A6F95B4495C6A3D90C3","8f4dd62b-6521-4136-8f98-3e7ebd9b2f9c","a9f3d40c-5730-405c-b25e-1034c4c56f3f","{""num_scrambled_semantic"":""8"",""num_scrambled_causal"":""4"",""num_scrambled_schematic"":""4"",""participantId"":""ECBE6A47D17C4A6F95B4495C6A3D90C3"",""assignmentId"":""8f4dd62b-6521-4136-8f98-3e7ebd9b2f9c"",""projectId"":""a9f3d40c-5730-405c-b25e-1034c4c56f3f""}","https://test12345.live/?num_scrambled_semantic=8&num_scrambled_causal=4&num_scrambled_schematic=4&participantId=ECBE6A47D17C4A6F95B4495C6A3D90C3&assignmentId=8f4dd62b-6521-4136-8f98-3e7ebd9b2f9c&projectId=a9f3d40c-5730-405c-b25e-1034c4c56f3f","ECBE6A47D17C4A6F95B4495C6A3D90C3-2025-08-07-18-59-43","","663","","images/semantic_sequence/physical_activity_semantic/physical_activity_semantic_9.png","0","",""
"","","","","","image-button-response","65","358676","0.0-12.0-1.0-2.2","ECBE6A47D17C4A6F95B4495C6A3D90C3","ECBE6A47D17C4A6F95B4495C6A3D90C3","8f4dd62b-6521-4136-8f98-3e7ebd9b2f9c","a9f3d40c-5730-405c-b25e-1034c4c56f3f","{""num_scrambled_semantic"":""8"",""num_scrambled_causal"":""4"",""num_scrambled_schematic"":""4"",""participantId"":""ECBE6A47D17C4A6F95B4495C6A3D90C3"",""assignmentId"":""8f4dd62b-6521-4136-8f98-3e7ebd9b2f9c"",""projectId"":""a9f3d40c-5730-405c-b25e-1034c4c56f3f""}","https://test12345.live/?num_scrambled_semantic=8&num_scrambled_causal=4&num_scrambled_schematic=4&participantId=ECBE6A47D17C4A6F95B4495C6A3D90C3&assignmentId=8f4dd62b-6521-4136-8f98-3e7ebd9b2f9c&projectId=a9f3d40c-5730-405c-b25e-1034c4c56f3f","ECBE6A47D17C4A6F95B4495C6A3D90C3-2025-08-07-18-59-43","","null","","[]","null","",""
"","","","","","image-button-response","66","363185","0.0-12.0-1.0-0.3","ECBE6A47D17C4A6F95B4495C6A3D90C3","ECBE6A47D17C4A6F95B4495C6A3D90C3","8f4dd62b-6521-4136-8f98-3e7ebd9b2f9c","a9f3d40c-5730-405c-b25e-1034c4c56f3f","{""num_scrambled_semantic"":""8"",""num_scrambled_causal"":""4"",""num_scrambled_schematic"":""4"",""participantId"":""ECBE6A47D17C4A6F95B4495C6A3D90C3"",""assignmentId"":""8f4dd62b-6521-4136-8f98-3e7ebd9b2f9c"",""projectId"":""a9f3d40c-5730-405c-b25e-1034c4c56f3f""}","https://test12345.live/?num_scrambled_semantic=8&num_scrambled_causal=4&num_scrambled_schematic=4&participantId=ECBE6A47D17C4A6F95B4495C6A3D90C3&assignmentId=8f4dd62b-6521-4136-8f98-3e7ebd9b2f9c&projectId=a9f3d40c-5730-405c-b25e-1034c4c56f3f","ECBE6A47D17C4A6F95B4495C6A3D90C3-2025-08-07-18-59-43","","null","","images/semantic_sequence/physical_activity_semantic/physical_activity_semantic_6.png","null","",""
"","","","","","image-button-response","67","363874","0.0-12.0-1.0-1.3","ECBE6A47D17C4A6F95B4495C6A3D90C3","ECBE6A47D17C4A6F95B4495C6A3D90C3","8f4dd62b-6521-4136-8f98-3e7ebd9b2f9c","a9f3d40c-5730-405c-b25e-1034c4c56f3f","{""num_scrambled_semantic"":""8"",""num_scrambled_causal"":""4"",""num_scrambled_schematic"":""4"",""participantId"":""ECBE6A47D17C4A6F95B4495C6A3D90C3"",""assignmentId"":""8f4dd62b-6521-4136-8f98-3e7ebd9b2f9c"",""projectId"":""a9f3d40c-5730-405c-b25e-1034c4c56f3f""}","https://test12345.live/?num_scrambled_semantic=8&num_scrambled_causal=4&num_scrambled_schematic=4&participantId=ECBE6A47D17C4A6F95B4495C6A3D90C3&assignmentId=8f4dd62b-6521-4136-8f98-3e7ebd9b2f9c&projectId=a9f3d40c-5730-405c-b25e-1034c4c56f3f","ECBE6A47D17C4A6F95B4495C6A3D90C3-2025-08-07-18-59-43","","688","","images/semantic_sequence/physical_activity_semantic/physical_activity_semantic_6.png","0","",""
"","","","","","image-button-response","68","365686","0.0-12.0-1.0-2.3","ECBE6A47D17C4A6F95B4495C6A3D90C3","ECBE6A47D17C4A6F95B4495C6A3D90C3","8f4dd62b-6521-4136-8f98-3e7ebd9b2f9c","a9f3d40c-5730-405c-b25e-1034c4c56f3f","{""num_scrambled_semantic"":""8"",""num_scrambled_causal"":""4"",""num_scrambled_schematic"":""4"",""participantId"":""ECBE6A47D17C4A6F95B4495C6A3D90C3"",""assignmentId"":""8f4dd62b-6521-4136-8f98-3e7ebd9b2f9c"",""projectId"":""a9f3d40c-5730-405c-b25e-1034c4c56f3f""}","https://test12345.live/?num_scrambled_semantic=8&num_scrambled_causal=4&num_scrambled_schematic=4&participantId=ECBE6A47D17C4A6F95B4495C6A3D90C3&assignmentId=8f4dd62b-6521-4136-8f98-3e7ebd9b2f9c&projectId=a9f3d40c-5730-405c-b25e-1034c4c56f3f","ECBE6A47D17C4A6F95B4495C6A3D90C3-2025-08-07-18-59-43","","null","","[]","null","",""
"","","","","","image-button-response","69","370189","0.0-12.0-1.0-0.4","ECBE6A47D17C4A6F95B4495C6A3D90C3","ECBE6A47D17C4A6F95B4495C6A3D90C3","8f4dd62b-6521-4136-8f98-3e7ebd9b2f9c","a9f3d40c-5730-405c-b25e-1034c4c56f3f","{""num_scrambled_semantic"":""8"",""num_scrambled_causal"":""4"",""num_scrambled_schematic"":""4"",""participantId"":""ECBE6A47D17C4A6F95B4495C6A3D90C3"",""assignmentId"":""8f4dd62b-6521-4136-8f98-3e7ebd9b2f9c"",""projectId"":""a9f3d40c-5730-405c-b25e-1034c4c56f3f""}","https://test12345.live/?num_scrambled_semantic=8&num_scrambled_causal=4&num_scrambled_schematic=4&participantId=ECBE6A47D17C4A6F95B4495C6A3D90C3&assignmentId=8f4dd62b-6521-4136-8f98-3e7ebd9b2f9c&projectId=a9f3d40c-5730-405c-b25e-1034c4c56f3f","ECBE6A47D17C4A6F95B4495C6A3D90C3-2025-08-07-18-59-43","","null","","images/semantic_sequence/physical_activity_semantic/physical_activity_semantic_2.png","null","",""
"","","","","","image-button-response","70","372441","0.0-12.0-1.0-1.4","ECBE6A47D17C4A6F95B4495C6A3D90C3","ECBE6A47D17C4A6F95B4495C6A3D90C3","8f4dd62b-6521-4136-8f98-3e7ebd9b2f9c","a9f3d40c-5730-405c-b25e-1034c4c56f3f","{""num_scrambled_semantic"":""8"",""num_scrambled_causal"":""4"",""num_scrambled_schematic"":""4"",""participantId"":""ECBE6A47D17C4A6F95B4495C6A3D90C3"",""assignmentId"":""8f4dd62b-6521-4136-8f98-3e7ebd9b2f9c"",""projectId"":""a9f3d40c-5730-405c-b25e-1034c4c56f3f""}","https://test12345.live/?num_scrambled_semantic=8&num_scrambled_causal=4&num_scrambled_schematic=4&participantId=ECBE6A47D17C4A6F95B4495C6A3D90C3&assignmentId=8f4dd62b-6521-4136-8f98-3e7ebd9b2f9c&projectId=a9f3d40c-5730-405c-b25e-1034c4c56f3f","ECBE6A47D17C4A6F95B4495C6A3D90C3-2025-08-07-18-59-43","","2252","","images/semantic_sequence/physical_activity_semantic/physical_activity_semantic_2.png","0","",""
"","","","","","image-button-response","71","374257","0.0-12.0-1.0-2.4","ECBE6A47D17C4A6F95B4495C6A3D90C3","ECBE6A47D17C4A6F95B4495C6A3D90C3","8f4dd62b-6521-4136-8f98-3e7ebd9b2f9c","a9f3d40c-5730-405c-b25e-1034c4c56f3f","{""num_scrambled_semantic"":""8"",""num_scrambled_causal"":""4"",""num_scrambled_schematic"":""4"",""participantId"":""ECBE6A47D17C4A6F95B4495C6A3D90C3"",""assignmentId"":""8f4dd62b-6521-4136-8f98-3e7ebd9b2f9c"",""projectId"":""a9f3d40c-5730-405c-b25e-1034c4c56f3f""}","https://test12345.live/?num_scrambled_semantic=8&num_scrambled_causal=4&num_scrambled_schematic=4&participantId=ECBE6A47D17C4A6F95B4495C6A3D90C3&assignmentId=8f4dd62b-6521-4136-8f98-3e7ebd9b2f9c&projectId=a9f3d40c-5730-405c-b25e-1034c4c56f3f","ECBE6A47D17C4A6F95B4495C6A3D90C3-2025-08-07-18-59-43","","null","","[]","null","",""
"","","","","","image-button-response","72","378760","0.0-12.0-1.0-0.5","ECBE6A47D17C4A6F95B4495C6A3D90C3","ECBE6A47D17C4A6F95B4495C6A3D90C3","8f4dd62b-6521-4136-8f98-3e7ebd9b2f9c","a9f3d40c-5730-405c-b25e-1034c4c56f3f","{""num_scrambled_semantic"":""8"",""num_scrambled_causal"":""4"",""num_scrambled_schematic"":""4"",""participantId"":""ECBE6A47D17C4A6F95B4495C6A3D90C3"",""assignmentId"":""8f4dd62b-6521-4136-8f98-3e7ebd9b2f9c"",""projectId"":""a9f3d40c-5730-405c-b25e-1034c4c56f3f""}","https://test12345.live/?num_scrambled_semantic=8&num_scrambled_causal=4&num_scrambled_schematic=4&participantId=ECBE6A47D17C4A6F95B4495C6A3D90C3&assignmentId=8f4dd62b-6521-4136-8f98-3e7ebd9b2f9c&projectId=a9f3d40c-5730-405c-b25e-1034c4c56f3f","ECBE6A47D17C4A6F95B4495C6A3D90C3-2025-08-07-18-59-43","","null","","images/semantic_sequence/physical_activity_semantic/physical_activity_semantic_7.png","null","",""
"","","","","","image-button-response","73","379555","0.0-12.0-1.0-1.5","ECBE6A47D17C4A6F95B4495C6A3D90C3","ECBE6A47D17C4A6F95B4495C6A3D90C3","8f4dd62b-6521-4136-8f98-3e7ebd9b2f9c","a9f3d40c-5730-405c-b25e-1034c4c56f3f","{""num_scrambled_semantic"":""8"",""num_scrambled_causal"":""4"",""num_scrambled_schematic"":""4"",""participantId"":""ECBE6A47D17C4A6F95B4495C6A3D90C3"",""assignmentId"":""8f4dd62b-6521-4136-8f98-3e7ebd9b2f9c"",""projectId"":""a9f3d40c-5730-405c-b25e-1034c4c56f3f""}","https://test12345.live/?num_scrambled_semantic=8&num_scrambled_causal=4&num_scrambled_schematic=4&participantId=ECBE6A47D17C4A6F95B4495C6A3D90C3&assignmentId=8f4dd62b-6521-4136-8f98-3e7ebd9b2f9c&projectId=a9f3d40c-5730-405c-b25e-1034c4c56f3f","ECBE6A47D17C4A6F95B4495C6A3D90C3-2025-08-07-18-59-43","","794","","images/semantic_sequence/physical_activity_semantic/physical_activity_semantic_7.png","0","",""
"","","","","","image-button-response","74","381361","0.0-12.0-1.0-2.5","ECBE6A47D17C4A6F95B4495C6A3D90C3","ECBE6A47D17C4A6F95B4495C6A3D90C3","8f4dd62b-6521-4136-8f98-3e7ebd9b2f9c","a9f3d40c-5730-405c-b25e-1034c4c56f3f","{""num_scrambled_semantic"":""8"",""num_scrambled_causal"":""4"",""num_scrambled_schematic"":""4"",""participantId"":""ECBE6A47D17C4A6F95B4495C6A3D90C3"",""assignmentId"":""8f4dd62b-6521-4136-8f98-3e7ebd9b2f9c"",""projectId"":""a9f3d40c-5730-405c-b25e-1034c4c56f3f""}","https://test12345.live/?num_scrambled_semantic=8&num_scrambled_causal=4&num_scrambled_schematic=4&participantId=ECBE6A47D17C4A6F95B4495C6A3D90C3&assignmentId=8f4dd62b-6521-4136-8f98-3e7ebd9b2f9c&projectId=a9f3d40c-5730-405c-b25e-1034c4c56f3f","ECBE6A47D17C4A6F95B4495C6A3D90C3-2025-08-07-18-59-43","","null","","[]","null","",""
"","","","","","image-button-response","75","385870","0.0-12.0-1.0-0.6","ECBE6A47D17C4A6F95B4495C6A3D90C3","ECBE6A47D17C4A6F95B4495C6A3D90C3","8f4dd62b-6521-4136-8f98-3e7ebd9b2f9c","a9f3d40c-5730-405c-b25e-1034c4c56f3f","{""num_scrambled_semantic"":""8"",""num_scrambled_causal"":""4"",""num_scrambled_schematic"":""4"",""participantId"":""ECBE6A47D17C4A6F95B4495C6A3D90C3"",""assignmentId"":""8f4dd62b-6521-4136-8f98-3e7ebd9b2f9c"",""projectId"":""a9f3d40c-5730-405c-b25e-1034c4c56f3f""}","https://test12345.live/?num_scrambled_semantic=8&num_scrambled_causal=4&num_scrambled_schematic=4&participantId=ECBE6A47D17C4A6F95B4495C6A3D90C3&assignmentId=8f4dd62b-6521-4136-8f98-3e7ebd9b2f9c&projectId=a9f3d40c-5730-405c-b25e-1034c4c56f3f","ECBE6A47D17C4A6F95B4495C6A3D90C3-2025-08-07-18-59-43","","null","","images/semantic_sequence/physical_activity_semantic/physical_activity_semantic_4.png","null","",""
"","","","","","image-button-response","76","387270","0.0-12.0-1.0-1.6","ECBE6A47D17C4A6F95B4495C6A3D90C3","ECBE6A47D17C4A6F95B4495C6A3D90C3","8f4dd62b-6521-4136-8f98-3e7ebd9b2f9c","a9f3d40c-5730-405c-b25e-1034c4c56f3f","{""num_scrambled_semantic"":""8"",""num_scrambled_causal"":""4"",""num_scrambled_schematic"":""4"",""participantId"":""ECBE6A47D17C4A6F95B4495C6A3D90C3"",""assignmentId"":""8f4dd62b-6521-4136-8f98-3e7ebd9b2f9c"",""projectId"":""a9f3d40c-5730-405c-b25e-1034c4c56f3f""}","https://test12345.live/?num_scrambled_semantic=8&num_scrambled_causal=4&num_scrambled_schematic=4&participantId=ECBE6A47D17C4A6F95B4495C6A3D90C3&assignmentId=8f4dd62b-6521-4136-8f98-3e7ebd9b2f9c&projectId=a9f3d40c-5730-405c-b25e-1034c4c56f3f","ECBE6A47D17C4A6F95B4495C6A3D90C3-2025-08-07-18-59-43","","1400","","images/semantic_sequence/physical_activity_semantic/physical_activity_semantic_4.png","0","",""
"","","","","","image-button-response","77","389075","0.0-12.0-1.0-2.6","ECBE6A47D17C4A6F95B4495C6A3D90C3","ECBE6A47D17C4A6F95B4495C6A3D90C3","8f4dd62b-6521-4136-8f98-3e7ebd9b2f9c","a9f3d40c-5730-405c-b25e-1034c4c56f3f","{""num_scrambled_semantic"":""8"",""num_scrambled_causal"":""4"",""num_scrambled_schematic"":""4"",""participantId"":""ECBE6A47D17C4A6F95B4495C6A3D90C3"",""assignmentId"":""8f4dd62b-6521-4136-8f98-3e7ebd9b2f9c"",""projectId"":""a9f3d40c-5730-405c-b25e-1034c4c56f3f""}","https://test12345.live/?num_scrambled_semantic=8&num_scrambled_causal=4&num_scrambled_schematic=4&participantId=ECBE6A47D17C4A6F95B4495C6A3D90C3&assignmentId=8f4dd62b-6521-4136-8f98-3e7ebd9b2f9c&projectId=a9f3d40c-5730-405c-b25e-1034c4c56f3f","ECBE6A47D17C4A6F95B4495C6A3D90C3-2025-08-07-18-59-43","","null","","[]","null","",""
"","","","","","image-button-response","78","393583","0.0-12.0-1.0-0.7","ECBE6A47D17C4A6F95B4495C6A3D90C3","ECBE6A47D17C4A6F95B4495C6A3D90C3","8f4dd62b-6521-4136-8f98-3e7ebd9b2f9c","a9f3d40c-5730-405c-b25e-1034c4c56f3f","{""num_scrambled_semantic"":""8"",""num_scrambled_causal"":""4"",""num_scrambled_schematic"":""4"",""participantId"":""ECBE6A47D17C4A6F95B4495C6A3D90C3"",""assignmentId"":""8f4dd62b-6521-4136-8f98-3e7ebd9b2f9c"",""projectId"":""a9f3d40c-5730-405c-b25e-1034c4c56f3f""}","https://test12345.live/?num_scrambled_semantic=8&num_scrambled_causal=4&num_scrambled_schematic=4&participantId=ECBE6A47D17C4A6F95B4495C6A3D90C3&assignmentId=8f4dd62b-6521-4136-8f98-3e7ebd9b2f9c&projectId=a9f3d40c-5730-405c-b25e-1034c4c56f3f","ECBE6A47D17C4A6F95B4495C6A3D90C3-2025-08-07-18-59-43","","null","","images/semantic_sequence/physical_activity_semantic/physical_activity_semantic_ten.png","null","",""
"","","","","","image-button-response","79","394136","0.0-12.0-1.0-1.7","ECBE6A47D17C4A6F95B4495C6A3D90C3","ECBE6A47D17C4A6F95B4495C6A3D90C3","8f4dd62b-6521-4136-8f98-3e7ebd9b2f9c","a9f3d40c-5730-405c-b25e-1034c4c56f3f","{""num_scrambled_semantic"":""8"",""num_scrambled_causal"":""4"",""num_scrambled_schematic"":""4"",""participantId"":""ECBE6A47D17C4A6F95B4495C6A3D90C3"",""assignmentId"":""8f4dd62b-6521-4136-8f98-3e7ebd9b2f9c"",""projectId"":""a9f3d40c-5730-405c-b25e-1034c4c56f3f""}","https://test12345.live/?num_scrambled_semantic=8&num_scrambled_causal=4&num_scrambled_schematic=4&participantId=ECBE6A47D17C4A6F95B4495C6A3D90C3&assignmentId=8f4dd62b-6521-4136-8f98-3e7ebd9b2f9c&projectId=a9f3d40c-5730-405c-b25e-1034c4c56f3f","ECBE6A47D17C4A6F95B4495C6A3D90C3-2025-08-07-18-59-43","","552","","images/semantic_sequence/physical_activity_semantic/physical_activity_semantic_ten.png","0","",""
"","","","","","image-button-response","80","395946","0.0-12.0-1.0-2.7","ECBE6A47D17C4A6F95B4495C6A3D90C3","ECBE6A47D17C4A6F95B4495C6A3D90C3","8f4dd62b-6521-4136-8f98-3e7ebd9b2f9c","a9f3d40c-5730-405c-b25e-1034c4c56f3f","{""num_scrambled_semantic"":""8"",""num_scrambled_causal"":""4"",""num_scrambled_schematic"":""4"",""participantId"":""ECBE6A47D17C4A6F95B4495C6A3D90C3"",""assignmentId"":""8f4dd62b-6521-4136-8f98-3e7ebd9b2f9c"",""projectId"":""a9f3d40c-5730-405c-b25e-1034c4c56f3f""}","https://test12345.live/?num_scrambled_semantic=8&num_scrambled_causal=4&num_scrambled_schematic=4&participantId=ECBE6A47D17C4A6F95B4495C6A3D90C3&assignmentId=8f4dd62b-6521-4136-8f98-3e7ebd9b2f9c&projectId=a9f3d40c-5730-405c-b25e-1034c4c56f3f","ECBE6A47D17C4A6F95B4495C6A3D90C3-2025-08-07-18-59-43","","null","","[]","null","",""
"","","","","","image-button-response","81","400451","0.0-12.0-1.0-0.8","ECBE6A47D17C4A6F95B4495C6A3D90C3","ECBE6A47D17C4A6F95B4495C6A3D90C3","8f4dd62b-6521-4136-8f98-3e7ebd9b2f9c","a9f3d40c-5730-405c-b25e-1034c4c56f3f","{""num_scrambled_semantic"":""8"",""num_scrambled_causal"":""4"",""num_scrambled_schematic"":""4"",""participantId"":""ECBE6A47D17C4A6F95B4495C6A3D90C3"",""assignmentId"":""8f4dd62b-6521-4136-8f98-3e7ebd9b2f9c"",""projectId"":""a9f3d40c-5730-405c-b25e-1034c4c56f3f""}","https://test12345.live/?num_scrambled_semantic=8&num_scrambled_causal=4&num_scrambled_schematic=4&participantId=ECBE6A47D17C4A6F95B4495C6A3D90C3&assignmentId=8f4dd62b-6521-4136-8f98-3e7ebd9b2f9c&projectId=a9f3d40c-5730-405c-b25e-1034c4c56f3f","ECBE6A47D17C4A6F95B4495C6A3D90C3-2025-08-07-18-59-43","","null","","images/semantic_sequence/physical_activity_semantic/physical_activity_semantic_8.png","null","",""
"","","","","","image-button-response","82","400986","0.0-12.0-1.0-1.8","ECBE6A47D17C4A6F95B4495C6A3D90C3","ECBE6A47D17C4A6F95B4495C6A3D90C3","8f4dd62b-6521-4136-8f98-3e7ebd9b2f9c","a9f3d40c-5730-405c-b25e-1034c4c56f3f","{""num_scrambled_semantic"":""8"",""num_scrambled_causal"":""4"",""num_scrambled_schematic"":""4"",""participantId"":""ECBE6A47D17C4A6F95B4495C6A3D90C3"",""assignmentId"":""8f4dd62b-6521-4136-8f98-3e7ebd9b2f9c"",""projectId"":""a9f3d40c-5730-405c-b25e-1034c4c56f3f""}","https://test12345.live/?num_scrambled_semantic=8&num_scrambled_causal=4&num_scrambled_schematic=4&participantId=ECBE6A47D17C4A6F95B4495C6A3D90C3&assignmentId=8f4dd62b-6521-4136-8f98-3e7ebd9b2f9c&projectId=a9f3d40c-5730-405c-b25e-1034c4c56f3f","ECBE6A47D17C4A6F95B4495C6A3D90C3-2025-08-07-18-59-43","","534","","images/semantic_sequence/physical_activity_semantic/physical_activity_semantic_8.png","0","",""
"","","","","","image-button-response","83","402788","0.0-12.0-1.0-2.8","ECBE6A47D17C4A6F95B4495C6A3D90C3","ECBE6A47D17C4A6F95B4495C6A3D90C3","8f4dd62b-6521-4136-8f98-3e7ebd9b2f9c","a9f3d40c-5730-405c-b25e-1034c4c56f3f","{""num_scrambled_semantic"":""8"",""num_scrambled_causal"":""4"",""num_scrambled_schematic"":""4"",""participantId"":""ECBE6A47D17C4A6F95B4495C6A3D90C3"",""assignmentId"":""8f4dd62b-6521-4136-8f98-3e7ebd9b2f9c"",""projectId"":""a9f3d40c-5730-405c-b25e-1034c4c56f3f""}","https://test12345.live/?num_scrambled_semantic=8&num_scrambled_causal=4&num_scrambled_schematic=4&participantId=ECBE6A47D17C4A6F95B4495C6A3D90C3&assignmentId=8f4dd62b-6521-4136-8f98-3e7ebd9b2f9c&projectId=a9f3d40c-5730-405c-b25e-1034c4c56f3f","ECBE6A47D17C4A6F95B4495C6A3D90C3-2025-08-07-18-59-43","","null","","[]","null","",""
"","","","","","image-button-response","84","407300","0.0-12.0-1.0-0.9","ECBE6A47D17C4A6F95B4495C6A3D90C3","ECBE6A47D17C4A6F95B4495C6A3D90C3","8f4dd62b-6521-4136-8f98-3e7ebd9b2f9c","a9f3d40c-5730-405c-b25e-1034c4c56f3f","{""num_scrambled_semantic"":""8"",""num_scrambled_causal"":""4"",""num_scrambled_schematic"":""4"",""participantId"":""ECBE6A47D17C4A6F95B4495C6A3D90C3"",""assignmentId"":""8f4dd62b-6521-4136-8f98-3e7ebd9b2f9c"",""projectId"":""a9f3d40c-5730-405c-b25e-1034c4c56f3f""}","https://test12345.live/?num_scrambled_semantic=8&num_scrambled_causal=4&num_scrambled_schematic=4&participantId=ECBE6A47D17C4A6F95B4495C6A3D90C3&assignmentId=8f4dd62b-6521-4136-8f98-3e7ebd9b2f9c&projectId=a9f3d40c-5730-405c-b25e-1034c4c56f3f","ECBE6A47D17C4A6F95B4495C6A3D90C3-2025-08-07-18-59-43","","null","","images/semantic_sequence/physical_activity_semantic/physical_activity_semantic_3.png","null","",""
"","","","","","image-button-response","85","408227","0.0-12.0-1.0-1.9","ECBE6A47D17C4A6F95B4495C6A3D90C3","ECBE6A47D17C4A6F95B4495C6A3D90C3","8f4dd62b-6521-4136-8f98-3e7ebd9b2f9c","a9f3d40c-5730-405c-b25e-1034c4c56f3f","{""num_scrambled_semantic"":""8"",""num_scrambled_causal"":""4"",""num_scrambled_schematic"":""4"",""participantId"":""ECBE6A47D17C4A6F95B4495C6A3D90C3"",""assignmentId"":""8f4dd62b-6521-4136-8f98-3e7ebd9b2f9c"",""projectId"":""a9f3d40c-5730-405c-b25e-1034c4c56f3f""}","https://test12345.live/?num_scrambled_semantic=8&num_scrambled_causal=4&num_scrambled_schematic=4&participantId=ECBE6A47D17C4A6F95B4495C6A3D90C3&assignmentId=8f4dd62b-6521-4136-8f98-3e7ebd9b2f9c&projectId=a9f3d40c-5730-405c-b25e-1034c4c56f3f","ECBE6A47D17C4A6F95B4495C6A3D90C3-2025-08-07-18-59-43","","926","","images/semantic_sequence/physical_activity_semantic/physical_activity_semantic_3.png","0","",""
"","","","","","image-button-response","86","410031","0.0-12.0-1.0-2.9","ECBE6A47D17C4A6F95B4495C6A3D90C3","ECBE6A47D17C4A6F95B4495C6A3D90C3","8f4dd62b-6521-4136-8f98-3e7ebd9b2f9c","a9f3d40c-5730-405c-b25e-1034c4c56f3f","{""num_scrambled_semantic"":""8"",""num_scrambled_causal"":""4"",""num_scrambled_schematic"":""4"",""participantId"":""ECBE6A47D17C4A6F95B4495C6A3D90C3"",""assignmentId"":""8f4dd62b-6521-4136-8f98-3e7ebd9b2f9c"",""projectId"":""a9f3d40c-5730-405c-b25e-1034c4c56f3f""}","https://test12345.live/?num_scrambled_semantic=8&num_scrambled_causal=4&num_scrambled_schematic=4&participantId=ECBE6A47D17C4A6F95B4495C6A3D90C3&assignmentId=8f4dd62b-6521-4136-8f98-3e7ebd9b2f9c&projectId=a9f3d40c-5730-405c-b25e-1034c4c56f3f","ECBE6A47D17C4A6F95B4495C6A3D90C3-2025-08-07-18-59-43","","null","","[]","null","",""
"","","","","","html-audio-response","87","450751","0.0-13.0","ECBE6A47D17C4A6F95B4495C6A3D90C3","ECBE6A47D17C4A6F95B4495C6A3D90C3","8f4dd62b-6521-4136-8f98-3e7ebd9b2f9c","a9f3d40c-5730-405c-b25e-1034c4c56f3f","{""num_scrambled_semantic"":""8"",""num_scrambled_causal"":""4"",""num_scrambled_schematic"":""4"",""participantId"":""ECBE6A47D17C4A6F95B4495C6A3D90C3"",""assignmentId"":""8f4dd62b-6521-4136-8f98-3e7ebd9b2f9c"",""projectId"":""a9f3d40c-5730-405c-b25e-1034c4c56f3f""}","https://test12345.live/?num_scrambled_semantic=8&num_scrambled_causal=4&num_scrambled_schematic=4&participantId=ECBE6A47D17C4A6F95B4495C6A3D90C3&assignmentId=8f4dd62b-6521-4136-8f98-3e7ebd9b2f9c&projectId=a9f3d40c-5730-405c-b25e-1034c4c56f3f","ECBE6A47D17C4A6F95B4495C6A3D90C3-2025-08-07-18-59-43","","39831","","[""<span style=\""color: red; font-size: 24px\""> NOW RECORDING</span><p>Please say out loud all the images you saw, as many as you can remember. The images can be said in any order.</p>""]","","1","physical_activity_semantic"
"","","","","","image-button-response","88","456759","0.0-14.0-0.0","ECBE6A47D17C4A6F95B4495C6A3D90C3","ECBE6A47D17C4A6F95B4495C6A3D90C3","8f4dd62b-6521-4136-8f98-3e7ebd9b2f9c","a9f3d40c-5730-405c-b25e-1034c4c56f3f","{""num_scrambled_semantic"":""8"",""num_scrambled_causal"":""4"",""num_scrambled_schematic"":""4"",""participantId"":""ECBE6A47D17C4A6F95B4495C6A3D90C3"",""assignmentId"":""8f4dd62b-6521-4136-8f98-3e7ebd9b2f9c"",""projectId"":""a9f3d40c-5730-405c-b25e-1034c4c56f3f""}","https://test12345.live/?num_scrambled_semantic=8&num_scrambled_causal=4&num_scrambled_schematic=4&participantId=ECBE6A47D17C4A6F95B4495C6A3D90C3&assignmentId=8f4dd62b-6521-4136-8f98-3e7ebd9b2f9c&projectId=a9f3d40c-5730-405c-b25e-1034c4c56f3f","ECBE6A47D17C4A6F95B4495C6A3D90C3-2025-08-07-18-59-43","","null","","images/semantic_sequence/self_care_activities_semantic/self_care_activities_semantic_0.png","null","",""
"","","","","","image-button-response","89","461267","0.0-14.0-1.0-0.0","ECBE6A47D17C4A6F95B4495C6A3D90C3","ECBE6A47D17C4A6F95B4495C6A3D90C3","8f4dd62b-6521-4136-8f98-3e7ebd9b2f9c","a9f3d40c-5730-405c-b25e-1034c4c56f3f","{""num_scrambled_semantic"":""8"",""num_scrambled_causal"":""4"",""num_scrambled_schematic"":""4"",""participantId"":""ECBE6A47D17C4A6F95B4495C6A3D90C3"",""assignmentId"":""8f4dd62b-6521-4136-8f98-3e7ebd9b2f9c"",""projectId"":""a9f3d40c-5730-405c-b25e-1034c4c56f3f""}","https://test12345.live/?num_scrambled_semantic=8&num_scrambled_causal=4&num_scrambled_schematic=4&participantId=ECBE6A47D17C4A6F95B4495C6A3D90C3&assignmentId=8f4dd62b-6521-4136-8f98-3e7ebd9b2f9c&projectId=a9f3d40c-5730-405c-b25e-1034c4c56f3f","ECBE6A47D17C4A6F95B4495C6A3D90C3-2025-08-07-18-59-43","","null","","images/semantic_sequence/self_care_activities_semantic/self_care_activities_semantic_3.png","null","",""
"","","","","","image-button-response","90","463602","0.0-14.0-1.0-1.0","ECBE6A47D17C4A6F95B4495C6A3D90C3","ECBE6A47D17C4A6F95B4495C6A3D90C3","8f4dd62b-6521-4136-8f98-3e7ebd9b2f9c","a9f3d40c-5730-405c-b25e-1034c4c56f3f","{""num_scrambled_semantic"":""8"",""num_scrambled_causal"":""4"",""num_scrambled_schematic"":""4"",""participantId"":""ECBE6A47D17C4A6F95B4495C6A3D90C3"",""assignmentId"":""8f4dd62b-6521-4136-8f98-3e7ebd9b2f9c"",""projectId"":""a9f3d40c-5730-405c-b25e-1034c4c56f3f""}","https://test12345.live/?num_scrambled_semantic=8&num_scrambled_causal=4&num_scrambled_schematic=4&participantId=ECBE6A47D17C4A6F95B4495C6A3D90C3&assignmentId=8f4dd62b-6521-4136-8f98-3e7ebd9b2f9c&projectId=a9f3d40c-5730-405c-b25e-1034c4c56f3f","ECBE6A47D17C4A6F95B4495C6A3D90C3-2025-08-07-18-59-43","","2334","","images/semantic_sequence/self_care_activities_semantic/self_care_activities_semantic_3.png","0","",""
"","","","","","image-button-response","91","465404","0.0-14.0-1.0-2.0","ECBE6A47D17C4A6F95B4495C6A3D90C3","ECBE6A47D17C4A6F95B4495C6A3D90C3","8f4dd62b-6521-4136-8f98-3e7ebd9b2f9c","a9f3d40c-5730-405c-b25e-1034c4c56f3f","{""num_scrambled_semantic"":""8"",""num_scrambled_causal"":""4"",""num_scrambled_schematic"":""4"",""participantId"":""ECBE6A47D17C4A6F95B4495C6A3D90C3"",""assignmentId"":""8f4dd62b-6521-4136-8f98-3e7ebd9b2f9c"",""projectId"":""a9f3d40c-5730-405c-b25e-1034c4c56f3f""}","https://test12345.live/?num_scrambled_semantic=8&num_scrambled_causal=4&num_scrambled_schematic=4&participantId=ECBE6A47D17C4A6F95B4495C6A3D90C3&assignmentId=8f4dd62b-6521-4136-8f98-3e7ebd9b2f9c&projectId=a9f3d40c-5730-405c-b25e-1034c4c56f3f","ECBE6A47D17C4A6F95B4495C6A3D90C3-2025-08-07-18-59-43","","null","","[]","null","",""
"","","","","","image-button-response","92","469916","0.0-14.0-1.0-0.1","ECBE6A47D17C4A6F95B4495C6A3D90C3","ECBE6A47D17C4A6F95B4495C6A3D90C3","8f4dd62b-6521-4136-8f98-3e7ebd9b2f9c","a9f3d40c-5730-405c-b25e-1034c4c56f3f","{""num_scrambled_semantic"":""8"",""num_scrambled_causal"":""4"",""num_scrambled_schematic"":""4"",""participantId"":""ECBE6A47D17C4A6F95B4495C6A3D90C3"",""assignmentId"":""8f4dd62b-6521-4136-8f98-3e7ebd9b2f9c"",""projectId"":""a9f3d40c-5730-405c-b25e-1034c4c56f3f""}","https://test12345.live/?num_scrambled_semantic=8&num_scrambled_causal=4&num_scrambled_schematic=4&participantId=ECBE6A47D17C4A6F95B4495C6A3D90C3&assignmentId=8f4dd62b-6521-4136-8f98-3e7ebd9b2f9c&projectId=a9f3d40c-5730-405c-b25e-1034c4c56f3f","ECBE6A47D17C4A6F95B4495C6A3D90C3-2025-08-07-18-59-43","","null","","images/semantic_sequence/self_care_activities_semantic/self_care_activities_semantic_8.png","null","",""
"","","","","","image-button-response","93","470764","0.0-14.0-1.0-1.1","ECBE6A47D17C4A6F95B4495C6A3D90C3","ECBE6A47D17C4A6F95B4495C6A3D90C3","8f4dd62b-6521-4136-8f98-3e7ebd9b2f9c","a9f3d40c-5730-405c-b25e-1034c4c56f3f","{""num_scrambled_semantic"":""8"",""num_scrambled_causal"":""4"",""num_scrambled_schematic"":""4"",""participantId"":""ECBE6A47D17C4A6F95B4495C6A3D90C3"",""assignmentId"":""8f4dd62b-6521-4136-8f98-3e7ebd9b2f9c"",""projectId"":""a9f3d40c-5730-405c-b25e-1034c4c56f3f""}","https://test12345.live/?num_scrambled_semantic=8&num_scrambled_causal=4&num_scrambled_schematic=4&participantId=ECBE6A47D17C4A6F95B4495C6A3D90C3&assignmentId=8f4dd62b-6521-4136-8f98-3e7ebd9b2f9c&projectId=a9f3d40c-5730-405c-b25e-1034c4c56f3f","ECBE6A47D17C4A6F95B4495C6A3D90C3-2025-08-07-18-59-43","","847","","images/semantic_sequence/self_care_activities_semantic/self_care_activities_semantic_8.png","0","",""
"","","","","","image-button-response","94","472571","0.0-14.0-1.0-2.1","ECBE6A47D17C4A6F95B4495C6A3D90C3","ECBE6A47D17C4A6F95B4495C6A3D90C3","8f4dd62b-6521-4136-8f98-3e7ebd9b2f9c","a9f3d40c-5730-405c-b25e-1034c4c56f3f","{""num_scrambled_semantic"":""8"",""num_scrambled_causal"":""4"",""num_scrambled_schematic"":""4"",""participantId"":""ECBE6A47D17C4A6F95B4495C6A3D90C3"",""assignmentId"":""8f4dd62b-6521-4136-8f98-3e7ebd9b2f9c"",""projectId"":""a9f3d40c-5730-405c-b25e-1034c4c56f3f""}","https://test12345.live/?num_scrambled_semantic=8&num_scrambled_causal=4&num_scrambled_schematic=4&participantId=ECBE6A47D17C4A6F95B4495C6A3D90C3&assignmentId=8f4dd62b-6521-4136-8f98-3e7ebd9b2f9c&projectId=a9f3d40c-5730-405c-b25e-1034c4c56f3f","ECBE6A47D17C4A6F95B4495C6A3D90C3-2025-08-07-18-59-43","","null","","[]","null","",""
"","","","","","image-button-response","95","477084","0.0-14.0-1.0-0.2","ECBE6A47D17C4A6F95B4495C6A3D90C3","ECBE6A47D17C4A6F95B4495C6A3D90C3","8f4dd62b-6521-4136-8f98-3e7ebd9b2f9c","a9f3d40c-5730-405c-b25e-1034c4c56f3f","{""num_scrambled_semantic"":""8"",""num_scrambled_causal"":""4"",""num_scrambled_schematic"":""4"",""participantId"":""ECBE6A47D17C4A6F95B4495C6A3D90C3"",""assignmentId"":""8f4dd62b-6521-4136-8f98-3e7ebd9b2f9c"",""projectId"":""a9f3d40c-5730-405c-b25e-1034c4c56f3f""}","https://test12345.live/?num_scrambled_semantic=8&num_scrambled_causal=4&num_scrambled_schematic=4&participantId=ECBE6A47D17C4A6F95B4495C6A3D90C3&assignmentId=8f4dd62b-6521-4136-8f98-3e7ebd9b2f9c&projectId=a9f3d40c-5730-405c-b25e-1034c4c56f3f","ECBE6A47D17C4A6F95B4495C6A3D90C3-2025-08-07-18-59-43","","null","","images/semantic_sequence/self_care_activities_semantic/self_care_activities_semantic_2.png","null","",""
"","","","","","image-button-response","96","479688","0.0-14.0-1.0-1.2","ECBE6A47D17C4A6F95B4495C6A3D90C3","ECBE6A47D17C4A6F95B4495C6A3D90C3","8f4dd62b-6521-4136-8f98-3e7ebd9b2f9c","a9f3d40c-5730-405c-b25e-1034c4c56f3f","{""num_scrambled_semantic"":""8"",""num_scrambled_causal"":""4"",""num_scrambled_schematic"":""4"",""participantId"":""ECBE6A47D17C4A6F95B4495C6A3D90C3"",""assignmentId"":""8f4dd62b-6521-4136-8f98-3e7ebd9b2f9c"",""projectId"":""a9f3d40c-5730-405c-b25e-1034c4c56f3f""}","https://test12345.live/?num_scrambled_semantic=8&num_scrambled_causal=4&num_scrambled_schematic=4&participantId=ECBE6A47D17C4A6F95B4495C6A3D90C3&assignmentId=8f4dd62b-6521-4136-8f98-3e7ebd9b2f9c&projectId=a9f3d40c-5730-405c-b25e-1034c4c56f3f","ECBE6A47D17C4A6F95B4495C6A3D90C3-2025-08-07-18-59-43","","2604","","images/semantic_sequence/self_care_activities_semantic/self_care_activities_semantic_2.png","0","",""
"","","","","","image-button-response","97","481494","0.0-14.0-1.0-2.2","ECBE6A47D17C4A6F95B4495C6A3D90C3","ECBE6A47D17C4A6F95B4495C6A3D90C3","8f4dd62b-6521-4136-8f98-3e7ebd9b2f9c","a9f3d40c-5730-405c-b25e-1034c4c56f3f","{""num_scrambled_semantic"":""8"",""num_scrambled_causal"":""4"",""num_scrambled_schematic"":""4"",""participantId"":""ECBE6A47D17C4A6F95B4495C6A3D90C3"",""assignmentId"":""8f4dd62b-6521-4136-8f98-3e7ebd9b2f9c"",""projectId"":""a9f3d40c-5730-405c-b25e-1034c4c56f3f""}","https://test12345.live/?num_scrambled_semantic=8&num_scrambled_causal=4&num_scrambled_schematic=4&participantId=ECBE6A47D17C4A6F95B4495C6A3D90C3&assignmentId=8f4dd62b-6521-4136-8f98-3e7ebd9b2f9c&projectId=a9f3d40c-5730-405c-b25e-1034c4c56f3f","ECBE6A47D17C4A6F95B4495C6A3D90C3-2025-08-07-18-59-43","","null","","[]","null","",""
"","","","","","image-button-response","98","485998","0.0-14.0-1.0-0.3","ECBE6A47D17C4A6F95B4495C6A3D90C3","ECBE6A47D17C4A6F95B4495C6A3D90C3","8f4dd62b-6521-4136-8f98-3e7ebd9b2f9c","a9f3d40c-5730-405c-b25e-1034c4c56f3f","{""num_scrambled_semantic"":""8"",""num_scrambled_causal"":""4"",""num_scrambled_schematic"":""4"",""participantId"":""ECBE6A47D17C4A6F95B4495C6A3D90C3"",""assignmentId"":""8f4dd62b-6521-4136-8f98-3e7ebd9b2f9c"",""projectId"":""a9f3d40c-5730-405c-b25e-1034c4c56f3f""}","https://test12345.live/?num_scrambled_semantic=8&num_scrambled_causal=4&num_scrambled_schematic=4&participantId=ECBE6A47D17C4A6F95B4495C6A3D90C3&assignmentId=8f4dd62b-6521-4136-8f98-3e7ebd9b2f9c&projectId=a9f3d40c-5730-405c-b25e-1034c4c56f3f","ECBE6A47D17C4A6F95B4495C6A3D90C3-2025-08-07-18-59-43","","null","","images/semantic_sequence/self_care_activities_semantic/self_care_activities_semantic_9.png","null","",""
"","","","","","image-button-response","99","486686","0.0-14.0-1.0-1.3","ECBE6A47D17C4A6F95B4495C6A3D90C3","ECBE6A47D17C4A6F95B4495C6A3D90C3","8f4dd62b-6521-4136-8f98-3e7ebd9b2f9c","a9f3d40c-5730-405c-b25e-1034c4c56f3f","{""num_scrambled_semantic"":""8"",""num_scrambled_causal"":""4"",""num_scrambled_schematic"":""4"",""participantId"":""ECBE6A47D17C4A6F95B4495C6A3D90C3"",""assignmentId"":""8f4dd62b-6521-4136-8f98-3e7ebd9b2f9c"",""projectId"":""a9f3d40c-5730-405c-b25e-1034c4c56f3f""}","https://test12345.live/?num_scrambled_semantic=8&num_scrambled_causal=4&num_scrambled_schematic=4&participantId=ECBE6A47D17C4A6F95B4495C6A3D90C3&assignmentId=8f4dd62b-6521-4136-8f98-3e7ebd9b2f9c&projectId=a9f3d40c-5730-405c-b25e-1034c4c56f3f","ECBE6A47D17C4A6F95B4495C6A3D90C3-2025-08-07-18-59-43","","687","","images/semantic_sequence/self_care_activities_semantic/self_care_activities_semantic_9.png","0","",""
"","","","","","image-button-response","100","488501","0.0-14.0-1.0-2.3","ECBE6A47D17C4A6F95B4495C6A3D90C3","ECBE6A47D17C4A6F95B4495C6A3D90C3","8f4dd62b-6521-4136-8f98-3e7ebd9b2f9c","a9f3d40c-5730-405c-b25e-1034c4c56f3f","{""num_scrambled_semantic"":""8"",""num_scrambled_causal"":""4"",""num_scrambled_schematic"":""4"",""participantId"":""ECBE6A47D17C4A6F95B4495C6A3D90C3"",""assignmentId"":""8f4dd62b-6521-4136-8f98-3e7ebd9b2f9c"",""projectId"":""a9f3d40c-5730-405c-b25e-1034c4c56f3f""}","https://test12345.live/?num_scrambled_semantic=8&num_scrambled_causal=4&num_scrambled_schematic=4&participantId=ECBE6A47D17C4A6F95B4495C6A3D90C3&assignmentId=8f4dd62b-6521-4136-8f98-3e7ebd9b2f9c&projectId=a9f3d40c-5730-405c-b25e-1034c4c56f3f","ECBE6A47D17C4A6F95B4495C6A3D90C3-2025-08-07-18-59-43","","null","","[]","null","",""
"","","","","","image-button-response","101","493008","0.0-14.0-1.0-0.4","ECBE6A47D17C4A6F95B4495C6A3D90C3","ECBE6A47D17C4A6F95B4495C6A3D90C3","8f4dd62b-6521-4136-8f98-3e7ebd9b2f9c","a9f3d40c-5730-405c-b25e-1034c4c56f3f","{""num_scrambled_semantic"":""8"",""num_scrambled_causal"":""4"",""num_scrambled_schematic"":""4"",""participantId"":""ECBE6A47D17C4A6F95B4495C6A3D90C3"",""assignmentId"":""8f4dd62b-6521-4136-8f98-3e7ebd9b2f9c"",""projectId"":""a9f3d40c-5730-405c-b25e-1034c4c56f3f""}","https://test12345.live/?num_scrambled_semantic=8&num_scrambled_causal=4&num_scrambled_schematic=4&participantId=ECBE6A47D17C4A6F95B4495C6A3D90C3&assignmentId=8f4dd62b-6521-4136-8f98-3e7ebd9b2f9c&projectId=a9f3d40c-5730-405c-b25e-1034c4c56f3f","ECBE6A47D17C4A6F95B4495C6A3D90C3-2025-08-07-18-59-43","","null","","images/semantic_sequence/self_care_activities_semantic/self_care_activities_semantic_5.png","null","",""
"","","","","","image-button-response","102","493657","0.0-14.0-1.0-1.4","ECBE6A47D17C4A6F95B4495C6A3D90C3","ECBE6A47D17C4A6F95B4495C6A3D90C3","8f4dd62b-6521-4136-8f98-3e7ebd9b2f9c","a9f3d40c-5730-405c-b25e-1034c4c56f3f","{""num_scrambled_semantic"":""8"",""num_scrambled_causal"":""4"",""num_scrambled_schematic"":""4"",""participantId"":""ECBE6A47D17C4A6F95B4495C6A3D90C3"",""assignmentId"":""8f4dd62b-6521-4136-8f98-3e7ebd9b2f9c"",""projectId"":""a9f3d40c-5730-405c-b25e-1034c4c56f3f""}","https://test12345.live/?num_scrambled_semantic=8&num_scrambled_causal=4&num_scrambled_schematic=4&participantId=ECBE6A47D17C4A6F95B4495C6A3D90C3&assignmentId=8f4dd62b-6521-4136-8f98-3e7ebd9b2f9c&projectId=a9f3d40c-5730-405c-b25e-1034c4c56f3f","ECBE6A47D17C4A6F95B4495C6A3D90C3-2025-08-07-18-59-43","","648","","images/semantic_sequence/self_care_activities_semantic/self_care_activities_semantic_5.png","0","",""
"","","","","","image-button-response","103","495465","0.0-14.0-1.0-2.4","ECBE6A47D17C4A6F95B4495C6A3D90C3","ECBE6A47D17C4A6F95B4495C6A3D90C3","8f4dd62b-6521-4136-8f98-3e7ebd9b2f9c","a9f3d40c-5730-405c-b25e-1034c4c56f3f","{""num_scrambled_semantic"":""8"",""num_scrambled_causal"":""4"",""num_scrambled_schematic"":""4"",""participantId"":""ECBE6A47D17C4A6F95B4495C6A3D90C3"",""assignmentId"":""8f4dd62b-6521-4136-8f98-3e7ebd9b2f9c"",""projectId"":""a9f3d40c-5730-405c-b25e-1034c4c56f3f""}","https://test12345.live/?num_scrambled_semantic=8&num_scrambled_causal=4&num_scrambled_schematic=4&participantId=ECBE6A47D17C4A6F95B4495C6A3D90C3&assignmentId=8f4dd62b-6521-4136-8f98-3e7ebd9b2f9c&projectId=a9f3d40c-5730-405c-b25e-1034c4c56f3f","ECBE6A47D17C4A6F95B4495C6A3D90C3-2025-08-07-18-59-43","","null","","[]","null","",""
"","","","","","image-button-response","104","499979","0.0-14.0-1.0-0.5","ECBE6A47D17C4A6F95B4495C6A3D90C3","ECBE6A47D17C4A6F95B4495C6A3D90C3","8f4dd62b-6521-4136-8f98-3e7ebd9b2f9c","a9f3d40c-5730-405c-b25e-1034c4c56f3f","{""num_scrambled_semantic"":""8"",""num_scrambled_causal"":""4"",""num_scrambled_schematic"":""4"",""participantId"":""ECBE6A47D17C4A6F95B4495C6A3D90C3"",""assignmentId"":""8f4dd62b-6521-4136-8f98-3e7ebd9b2f9c"",""projectId"":""a9f3d40c-5730-405c-b25e-1034c4c56f3f""}","https://test12345.live/?num_scrambled_semantic=8&num_scrambled_causal=4&num_scrambled_schematic=4&participantId=ECBE6A47D17C4A6F95B4495C6A3D90C3&assignmentId=8f4dd62b-6521-4136-8f98-3e7ebd9b2f9c&projectId=a9f3d40c-5730-405c-b25e-1034c4c56f3f","ECBE6A47D17C4A6F95B4495C6A3D90C3-2025-08-07-18-59-43","","null","","images/semantic_sequence/self_care_activities_semantic/self_care_activities_semantic_7.png","null","",""
"","","","","","image-button-response","105","500679","0.0-14.0-1.0-1.5","ECBE6A47D17C4A6F95B4495C6A3D90C3","ECBE6A47D17C4A6F95B4495C6A3D90C3","8f4dd62b-6521-4136-8f98-3e7ebd9b2f9c","a9f3d40c-5730-405c-b25e-1034c4c56f3f","{""num_scrambled_semantic"":""8"",""num_scrambled_causal"":""4"",""num_scrambled_schematic"":""4"",""participantId"":""ECBE6A47D17C4A6F95B4495C6A3D90C3"",""assignmentId"":""8f4dd62b-6521-4136-8f98-3e7ebd9b2f9c"",""projectId"":""a9f3d40c-5730-405c-b25e-1034c4c56f3f""}","https://test12345.live/?num_scrambled_semantic=8&num_scrambled_causal=4&num_scrambled_schematic=4&participantId=ECBE6A47D17C4A6F95B4495C6A3D90C3&assignmentId=8f4dd62b-6521-4136-8f98-3e7ebd9b2f9c&projectId=a9f3d40c-5730-405c-b25e-1034c4c56f3f","ECBE6A47D17C4A6F95B4495C6A3D90C3-2025-08-07-18-59-43","","699","","images/semantic_sequence/self_care_activities_semantic/self_care_activities_semantic_7.png","0","",""
"","","","","","image-button-response","106","502481","0.0-14.0-1.0-2.5","ECBE6A47D17C4A6F95B4495C6A3D90C3","ECBE6A47D17C4A6F95B4495C6A3D90C3","8f4dd62b-6521-4136-8f98-3e7ebd9b2f9c","a9f3d40c-5730-405c-b25e-1034c4c56f3f","{""num_scrambled_semantic"":""8"",""num_scrambled_causal"":""4"",""num_scrambled_schematic"":""4"",""participantId"":""ECBE6A47D17C4A6F95B4495C6A3D90C3"",""assignmentId"":""8f4dd62b-6521-4136-8f98-3e7ebd9b2f9c"",""projectId"":""a9f3d40c-5730-405c-b25e-1034c4c56f3f""}","https://test12345.live/?num_scrambled_semantic=8&num_scrambled_causal=4&num_scrambled_schematic=4&participantId=ECBE6A47D17C4A6F95B4495C6A3D90C3&assignmentId=8f4dd62b-6521-4136-8f98-3e7ebd9b2f9c&projectId=a9f3d40c-5730-405c-b25e-1034c4c56f3f","ECBE6A47D17C4A6F95B4495C6A3D90C3-2025-08-07-18-59-43","","null","","[]","null","",""
"","","","","","image-button-response","107","506987","0.0-14.0-1.0-0.6","ECBE6A47D17C4A6F95B4495C6A3D90C3","ECBE6A47D17C4A6F95B4495C6A3D90C3","8f4dd62b-6521-4136-8f98-3e7ebd9b2f9c","a9f3d40c-5730-405c-b25e-1034c4c56f3f","{""num_scrambled_semantic"":""8"",""num_scrambled_causal"":""4"",""num_scrambled_schematic"":""4"",""participantId"":""ECBE6A47D17C4A6F95B4495C6A3D90C3"",""assignmentId"":""8f4dd62b-6521-4136-8f98-3e7ebd9b2f9c"",""projectId"":""a9f3d40c-5730-405c-b25e-1034c4c56f3f""}","https://test12345.live/?num_scrambled_semantic=8&num_scrambled_causal=4&num_scrambled_schematic=4&participantId=ECBE6A47D17C4A6F95B4495C6A3D90C3&assignmentId=8f4dd62b-6521-4136-8f98-3e7ebd9b2f9c&projectId=a9f3d40c-5730-405c-b25e-1034c4c56f3f","ECBE6A47D17C4A6F95B4495C6A3D90C3-2025-08-07-18-59-43","","null","","images/semantic_sequence/self_care_activities_semantic/self_care_activities_semantic_4.png","null","",""
"","","","","","image-button-response","108","507604","0.0-14.0-1.0-1.6","ECBE6A47D17C4A6F95B4495C6A3D90C3","ECBE6A47D17C4A6F95B4495C6A3D90C3","8f4dd62b-6521-4136-8f98-3e7ebd9b2f9c","a9f3d40c-5730-405c-b25e-1034c4c56f3f","{""num_scrambled_semantic"":""8"",""num_scrambled_causal"":""4"",""num_scrambled_schematic"":""4"",""participantId"":""ECBE6A47D17C4A6F95B4495C6A3D90C3"",""assignmentId"":""8f4dd62b-6521-4136-8f98-3e7ebd9b2f9c"",""projectId"":""a9f3d40c-5730-405c-b25e-1034c4c56f3f""}","https://test12345.live/?num_scrambled_semantic=8&num_scrambled_causal=4&num_scrambled_schematic=4&participantId=ECBE6A47D17C4A6F95B4495C6A3D90C3&assignmentId=8f4dd62b-6521-4136-8f98-3e7ebd9b2f9c&projectId=a9f3d40c-5730-405c-b25e-1034c4c56f3f","ECBE6A47D17C4A6F95B4495C6A3D90C3-2025-08-07-18-59-43","","616","","images/semantic_sequence/self_care_activities_semantic/self_care_activities_semantic_4.png","0","",""
"","","","","","image-button-response","109","509412","0.0-14.0-1.0-2.6","ECBE6A47D17C4A6F95B4495C6A3D90C3","ECBE6A47D17C4A6F95B4495C6A3D90C3","8f4dd62b-6521-4136-8f98-3e7ebd9b2f9c","a9f3d40c-5730-405c-b25e-1034c4c56f3f","{""num_scrambled_semantic"":""8"",""num_scrambled_causal"":""4"",""num_scrambled_schematic"":""4"",""participantId"":""ECBE6A47D17C4A6F95B4495C6A3D90C3"",""assignmentId"":""8f4dd62b-6521-4136-8f98-3e7ebd9b2f9c"",""projectId"":""a9f3d40c-5730-405c-b25e-1034c4c56f3f""}","https://test12345.live/?num_scrambled_semantic=8&num_scrambled_causal=4&num_scrambled_schematic=4&participantId=ECBE6A47D17C4A6F95B4495C6A3D90C3&assignmentId=8f4dd62b-6521-4136-8f98-3e7ebd9b2f9c&projectId=a9f3d40c-5730-405c-b25e-1034c4c56f3f","ECBE6A47D17C4A6F95B4495C6A3D90C3-2025-08-07-18-59-43","","null","","[]","null","",""
"","","","","","image-button-response","110","513920","0.0-14.0-1.0-0.7","ECBE6A47D17C4A6F95B4495C6A3D90C3","ECBE6A47D17C4A6F95B4495C6A3D90C3","8f4dd62b-6521-4136-8f98-3e7ebd9b2f9c","a9f3d40c-5730-405c-b25e-1034c4c56f3f","{""num_scrambled_semantic"":""8"",""num_scrambled_causal"":""4"",""num_scrambled_schematic"":""4"",""participantId"":""ECBE6A47D17C4A6F95B4495C6A3D90C3"",""assignmentId"":""8f4dd62b-6521-4136-8f98-3e7ebd9b2f9c"",""projectId"":""a9f3d40c-5730-405c-b25e-1034c4c56f3f""}","https://test12345.live/?num_scrambled_semantic=8&num_scrambled_causal=4&num_scrambled_schematic=4&participantId=ECBE6A47D17C4A6F95B4495C6A3D90C3&assignmentId=8f4dd62b-6521-4136-8f98-3e7ebd9b2f9c&projectId=a9f3d40c-5730-405c-b25e-1034c4c56f3f","ECBE6A47D17C4A6F95B4495C6A3D90C3-2025-08-07-18-59-43","","null","","images/semantic_sequence/self_care_activities_semantic/self_care_activities_semantic_6.png","null","",""
"","","","","","image-button-response","111","514456","0.0-14.0-1.0-1.7","ECBE6A47D17C4A6F95B4495C6A3D90C3","ECBE6A47D17C4A6F95B4495C6A3D90C3","8f4dd62b-6521-4136-8f98-3e7ebd9b2f9c","a9f3d40c-5730-405c-b25e-1034c4c56f3f","{""num_scrambled_semantic"":""8"",""num_scrambled_causal"":""4"",""num_scrambled_schematic"":""4"",""participantId"":""ECBE6A47D17C4A6F95B4495C6A3D90C3"",""assignmentId"":""8f4dd62b-6521-4136-8f98-3e7ebd9b2f9c"",""projectId"":""a9f3d40c-5730-405c-b25e-1034c4c56f3f""}","https://test12345.live/?num_scrambled_semantic=8&num_scrambled_causal=4&num_scrambled_schematic=4&participantId=ECBE6A47D17C4A6F95B4495C6A3D90C3&assignmentId=8f4dd62b-6521-4136-8f98-3e7ebd9b2f9c&projectId=a9f3d40c-5730-405c-b25e-1034c4c56f3f","ECBE6A47D17C4A6F95B4495C6A3D90C3-2025-08-07-18-59-43","","535","","images/semantic_sequence/self_care_activities_semantic/self_care_activities_semantic_6.png","0","",""
"","","","","","image-button-response","112","516267","0.0-14.0-1.0-2.7","ECBE6A47D17C4A6F95B4495C6A3D90C3","ECBE6A47D17C4A6F95B4495C6A3D90C3","8f4dd62b-6521-4136-8f98-3e7ebd9b2f9c","a9f3d40c-5730-405c-b25e-1034c4c56f3f","{""num_scrambled_semantic"":""8"",""num_scrambled_causal"":""4"",""num_scrambled_schematic"":""4"",""participantId"":""ECBE6A47D17C4A6F95B4495C6A3D90C3"",""assignmentId"":""8f4dd62b-6521-4136-8f98-3e7ebd9b2f9c"",""projectId"":""a9f3d40c-5730-405c-b25e-1034c4c56f3f""}","https://test12345.live/?num_scrambled_semantic=8&num_scrambled_causal=4&num_scrambled_schematic=4&participantId=ECBE6A47D17C4A6F95B4495C6A3D90C3&assignmentId=8f4dd62b-6521-4136-8f98-3e7ebd9b2f9c&projectId=a9f3d40c-5730-405c-b25e-1034c4c56f3f","ECBE6A47D17C4A6F95B4495C6A3D90C3-2025-08-07-18-59-43","","null","","[]","null","",""
"","","","","","image-button-response","113","520784","0.0-14.0-1.0-0.8","ECBE6A47D17C4A6F95B4495C6A3D90C3","ECBE6A47D17C4A6F95B4495C6A3D90C3","8f4dd62b-6521-4136-8f98-3e7ebd9b2f9c","a9f3d40c-5730-405c-b25e-1034c4c56f3f","{""num_scrambled_semantic"":""8"",""num_scrambled_causal"":""4"",""num_scrambled_schematic"":""4"",""participantId"":""ECBE6A47D17C4A6F95B4495C6A3D90C3"",""assignmentId"":""8f4dd62b-6521-4136-8f98-3e7ebd9b2f9c"",""projectId"":""a9f3d40c-5730-405c-b25e-1034c4c56f3f""}","https://test12345.live/?num_scrambled_semantic=8&num_scrambled_causal=4&num_scrambled_schematic=4&participantId=ECBE6A47D17C4A6F95B4495C6A3D90C3&assignmentId=8f4dd62b-6521-4136-8f98-3e7ebd9b2f9c&projectId=a9f3d40c-5730-405c-b25e-1034c4c56f3f","ECBE6A47D17C4A6F95B4495C6A3D90C3-2025-08-07-18-59-43","","null","","images/semantic_sequence/self_care_activities_semantic/self_care_activities_semantic_ten.png","null","",""
