"success","timeout","failed_images","failed_audio","failed_video","trial_type","trial_index","time_elapsed","internal_node_id","subject","subject_id","study_id","session_id","urlvar","current_url","audio_id","view_history","rt","device_id","stimulus","response","estimated_stimulus_onset","seq_name"
"true","false","[]","[]","[]","preload","0","10771","0.0-0.0","ECDF8D4F17D94CF49AFDAB1B1125634A","ECDF8D4F17D94CF49AFDAB1B1125634A","2b3b1445-8fa6-4c95-aaa6-70d3ce2e6ab6","5e631737-0fa4-44a6-b227-7ba1d7345015","{""num_scrambled_semantic"":""8"",""num_scrambled_causal"":""4"",""num_scrambled_schematic"":""4"",""participantId"":""ECDF8D4F17D94CF49AFDAB1B1125634A"",""assignmentId"":""2b3b1445-8fa6-4c95-aaa6-70d3ce2e6ab6"",""projectId"":""5e631737-0fa4-44a6-b227-7ba1d7345015""}","https://test12345.live/?num_scrambled_semantic=8&num_scrambled_causal=4&num_scrambled_schematic=4&participantId=ECDF8D4F17D94CF49AFDAB1B1125634A&assignmentId=2b3b1445-8fa6-4c95-aaa6-70d3ce2e6ab6&projectId=5e631737-0fa4-44a6-b227-7ba1d7345015","ECDF8D4F17D94CF49AFDAB1B1125634A-2025-05-27-18-40-31","","","","","","",""
"","","","","","instructions","1","260439","0.0-1.0","ECDF8D4F17D94CF49AFDAB1B1125634A","ECDF8D4F17D94CF49AFDAB1B1125634A","2b3b1445-8fa6-4c95-aaa6-70d3ce2e6ab6","5e631737-0fa4-44a6-b227-7ba1d7345015","{""num_scrambled_semantic"":""8"",""num_scrambled_causal"":""4"",""num_scrambled_schematic"":""4"",""participantId"":""ECDF8D4F17D94CF49AFDAB1B1125634A"",""assignmentId"":""2b3b1445-8fa6-4c95-aaa6-70d3ce2e6ab6"",""projectId"":""5e631737-0fa4-44a6-b227-7ba1d7345015""}","https://test12345.live/?num_scrambled_semantic=8&num_scrambled_causal=4&num_scrambled_schematic=4&participantId=ECDF8D4F17D94CF49AFDAB1B1125634A&assignmentId=2b3b1445-8fa6-4c95-aaa6-70d3ce2e6ab6&projectId=5e631737-0fa4-44a6-b227-7ba1d7345015","ECDF8D4F17D94CF49AFDAB1B1125634A-2025-05-27-18-40-31","[{""page_index"":0,""viewing_time"":249665}]","249666","","","","",""
"","","","","","instructions","2","269469","0.0-2.0","ECDF8D4F17D94CF49AFDAB1B1125634A","ECDF8D4F17D94CF49AFDAB1B1125634A","2b3b1445-8fa6-4c95-aaa6-70d3ce2e6ab6","5e631737-0fa4-44a6-b227-7ba1d7345015","{""num_scrambled_semantic"":""8"",""num_scrambled_causal"":""4"",""num_scrambled_schematic"":""4"",""participantId"":""ECDF8D4F17D94CF49AFDAB1B1125634A"",""assignmentId"":""2b3b1445-8fa6-4c95-aaa6-70d3ce2e6ab6"",""projectId"":""5e631737-0fa4-44a6-b227-7ba1d7345015""}","https://test12345.live/?num_scrambled_semantic=8&num_scrambled_causal=4&num_scrambled_schematic=4&participantId=ECDF8D4F17D94CF49AFDAB1B1125634A&assignmentId=2b3b1445-8fa6-4c95-aaa6-70d3ce2e6ab6&projectId=5e631737-0fa4-44a6-b227-7ba1d7345015","ECDF8D4F17D94CF49AFDAB1B1125634A-2025-05-27-18-40-31","[{""page_index"":0,""viewing_time"":9029}]","9029","","","","",""
"true","","","","","fullscreen","3","274124","0.0-3.0","ECDF8D4F17D94CF49AFDAB1B1125634A","ECDF8D4F17D94CF49AFDAB1B1125634A","2b3b1445-8fa6-4c95-aaa6-70d3ce2e6ab6","5e631737-0fa4-44a6-b227-7ba1d7345015","{""num_scrambled_semantic"":""8"",""num_scrambled_causal"":""4"",""num_scrambled_schematic"":""4"",""participantId"":""ECDF8D4F17D94CF49AFDAB1B1125634A"",""assignmentId"":""2b3b1445-8fa6-4c95-aaa6-70d3ce2e6ab6"",""projectId"":""5e631737-0fa4-44a6-b227-7ba1d7345015""}","https://test12345.live/?num_scrambled_semantic=8&num_scrambled_causal=4&num_scrambled_schematic=4&participantId=ECDF8D4F17D94CF49AFDAB1B1125634A&assignmentId=2b3b1445-8fa6-4c95-aaa6-70d3ce2e6ab6&projectId=5e631737-0fa4-44a6-b227-7ba1d7345015","ECDF8D4F17D94CF49AFDAB1B1125634A-2025-05-27-18-40-31","","3642","","","","",""
"","","","","","initialize-microphone","4","284883","0.0-4.0-0.0","ECDF8D4F17D94CF49AFDAB1B1125634A","ECDF8D4F17D94CF49AFDAB1B1125634A","2b3b1445-8fa6-4c95-aaa6-70d3ce2e6ab6","5e631737-0fa4-44a6-b227-7ba1d7345015","{""num_scrambled_semantic"":""8"",""num_scrambled_causal"":""4"",""num_scrambled_schematic"":""4"",""participantId"":""ECDF8D4F17D94CF49AFDAB1B1125634A"",""assignmentId"":""2b3b1445-8fa6-4c95-aaa6-70d3ce2e6ab6"",""projectId"":""5e631737-0fa4-44a6-b227-7ba1d7345015""}","https://test12345.live/?num_scrambled_semantic=8&num_scrambled_causal=4&num_scrambled_schematic=4&participantId=ECDF8D4F17D94CF49AFDAB1B1125634A&assignmentId=2b3b1445-8fa6-4c95-aaa6-70d3ce2e6ab6&projectId=5e631737-0fa4-44a6-b227-7ba1d7345015","ECDF8D4F17D94CF49AFDAB1B1125634A-2025-05-27-18-40-31","","","6769eb2aff9f792026c17247c500dd0fdcd32b3b605bf6e1e05ee0c0cd18c110","","","",""
"","","","","","html-audio-response","5","298222","0.0-4.0-1.0","ECDF8D4F17D94CF49AFDAB1B1125634A","ECDF8D4F17D94CF49AFDAB1B1125634A","2b3b1445-8fa6-4c95-aaa6-70d3ce2e6ab6","5e631737-0fa4-44a6-b227-7ba1d7345015","{""num_scrambled_semantic"":""8"",""num_scrambled_causal"":""4"",""num_scrambled_schematic"":""4"",""participantId"":""ECDF8D4F17D94CF49AFDAB1B1125634A"",""assignmentId"":""2b3b1445-8fa6-4c95-aaa6-70d3ce2e6ab6"",""projectId"":""5e631737-0fa4-44a6-b227-7ba1d7345015""}","https://test12345.live/?num_scrambled_semantic=8&num_scrambled_causal=4&num_scrambled_schematic=4&participantId=ECDF8D4F17D94CF49AFDAB1B1125634A&assignmentId=2b3b1445-8fa6-4c95-aaa6-70d3ce2e6ab6&projectId=5e631737-0fa4-44a6-b227-7ba1d7345015","ECDF8D4F17D94CF49AFDAB1B1125634A-2025-05-27-18-40-31","","2850","","<span style=""color: red; font-size: 24px""> NOW RECORDING</span>
        <p>Please test Microphone</p>","","9",""
"","","","","","html-button-response","6","303417","0.0-4.0-2.0","ECDF8D4F17D94CF49AFDAB1B1125634A","ECDF8D4F17D94CF49AFDAB1B1125634A","2b3b1445-8fa6-4c95-aaa6-70d3ce2e6ab6","5e631737-0fa4-44a6-b227-7ba1d7345015","{""num_scrambled_semantic"":""8"",""num_scrambled_causal"":""4"",""num_scrambled_schematic"":""4"",""participantId"":""ECDF8D4F17D94CF49AFDAB1B1125634A"",""assignmentId"":""2b3b1445-8fa6-4c95-aaa6-70d3ce2e6ab6"",""projectId"":""5e631737-0fa4-44a6-b227-7ba1d7345015""}","https://test12345.live/?num_scrambled_semantic=8&num_scrambled_causal=4&num_scrambled_schematic=4&participantId=ECDF8D4F17D94CF49AFDAB1B1125634A&assignmentId=2b3b1445-8fa6-4c95-aaa6-70d3ce2e6ab6&projectId=5e631737-0fa4-44a6-b227-7ba1d7345015","ECDF8D4F17D94CF49AFDAB1B1125634A-2025-05-27-18-40-31","","5192","","<p style=""font-size:48px; color:red;"">Is Microphone OK?</p>","0","",""
"","","","","","initialize-microphone","7","309475","0.0-4.1-0.1","ECDF8D4F17D94CF49AFDAB1B1125634A","ECDF8D4F17D94CF49AFDAB1B1125634A","2b3b1445-8fa6-4c95-aaa6-70d3ce2e6ab6","5e631737-0fa4-44a6-b227-7ba1d7345015","{""num_scrambled_semantic"":""8"",""num_scrambled_causal"":""4"",""num_scrambled_schematic"":""4"",""participantId"":""ECDF8D4F17D94CF49AFDAB1B1125634A"",""assignmentId"":""2b3b1445-8fa6-4c95-aaa6-70d3ce2e6ab6"",""projectId"":""5e631737-0fa4-44a6-b227-7ba1d7345015""}","https://test12345.live/?num_scrambled_semantic=8&num_scrambled_causal=4&num_scrambled_schematic=4&participantId=ECDF8D4F17D94CF49AFDAB1B1125634A&assignmentId=2b3b1445-8fa6-4c95-aaa6-70d3ce2e6ab6&projectId=5e631737-0fa4-44a6-b227-7ba1d7345015","ECDF8D4F17D94CF49AFDAB1B1125634A-2025-05-27-18-40-31","","","6769eb2aff9f792026c17247c500dd0fdcd32b3b605bf6e1e05ee0c0cd18c110","","","",""
"","","","","","html-audio-response","8","323291","0.0-4.1-1.1","ECDF8D4F17D94CF49AFDAB1B1125634A","ECDF8D4F17D94CF49AFDAB1B1125634A","2b3b1445-8fa6-4c95-aaa6-70d3ce2e6ab6","5e631737-0fa4-44a6-b227-7ba1d7345015","{""num_scrambled_semantic"":""8"",""num_scrambled_causal"":""4"",""num_scrambled_schematic"":""4"",""participantId"":""ECDF8D4F17D94CF49AFDAB1B1125634A"",""assignmentId"":""2b3b1445-8fa6-4c95-aaa6-70d3ce2e6ab6"",""projectId"":""5e631737-0fa4-44a6-b227-7ba1d7345015""}","https://test12345.live/?num_scrambled_semantic=8&num_scrambled_causal=4&num_scrambled_schematic=4&participantId=ECDF8D4F17D94CF49AFDAB1B1125634A&assignmentId=2b3b1445-8fa6-4c95-aaa6-70d3ce2e6ab6&projectId=5e631737-0fa4-44a6-b227-7ba1d7345015","ECDF8D4F17D94CF49AFDAB1B1125634A-2025-05-27-18-40-31","","1276","","<span style=""color: red; font-size: 24px""> NOW RECORDING</span>
        <p>Please test Microphone</p>","","2",""
"","","","","","html-button-response","9","325030","0.0-4.1-2.1","ECDF8D4F17D94CF49AFDAB1B1125634A","ECDF8D4F17D94CF49AFDAB1B1125634A","2b3b1445-8fa6-4c95-aaa6-70d3ce2e6ab6","5e631737-0fa4-44a6-b227-7ba1d7345015","{""num_scrambled_semantic"":""8"",""num_scrambled_causal"":""4"",""num_scrambled_schematic"":""4"",""participantId"":""ECDF8D4F17D94CF49AFDAB1B1125634A"",""assignmentId"":""2b3b1445-8fa6-4c95-aaa6-70d3ce2e6ab6"",""projectId"":""5e631737-0fa4-44a6-b227-7ba1d7345015""}","https://test12345.live/?num_scrambled_semantic=8&num_scrambled_causal=4&num_scrambled_schematic=4&participantId=ECDF8D4F17D94CF49AFDAB1B1125634A&assignmentId=2b3b1445-8fa6-4c95-aaa6-70d3ce2e6ab6&projectId=5e631737-0fa4-44a6-b227-7ba1d7345015","ECDF8D4F17D94CF49AFDAB1B1125634A-2025-05-27-18-40-31","","1736","","<p style=""font-size:48px; color:red;"">Is Microphone OK?</p>","1","",""
"","","","","","instructions","10","347395","0.0-5.0","ECDF8D4F17D94CF49AFDAB1B1125634A","ECDF8D4F17D94CF49AFDAB1B1125634A","2b3b1445-8fa6-4c95-aaa6-70d3ce2e6ab6","5e631737-0fa4-44a6-b227-7ba1d7345015","{""num_scrambled_semantic"":""8"",""num_scrambled_causal"":""4"",""num_scrambled_schematic"":""4"",""participantId"":""ECDF8D4F17D94CF49AFDAB1B1125634A"",""assignmentId"":""2b3b1445-8fa6-4c95-aaa6-70d3ce2e6ab6"",""projectId"":""5e631737-0fa4-44a6-b227-7ba1d7345015""}","https://test12345.live/?num_scrambled_semantic=8&num_scrambled_causal=4&num_scrambled_schematic=4&participantId=ECDF8D4F17D94CF49AFDAB1B1125634A&assignmentId=2b3b1445-8fa6-4c95-aaa6-70d3ce2e6ab6&projectId=5e631737-0fa4-44a6-b227-7ba1d7345015","ECDF8D4F17D94CF49AFDAB1B1125634A-2025-05-27-18-40-31","[{""page_index"":0,""viewing_time"":6370},{""page_index"":1,""viewing_time"":15990}]","22360","","","","",""
"","","","","","image-button-response","11","353415","0.0-6.0-0.0","ECDF8D4F17D94CF49AFDAB1B1125634A","ECDF8D4F17D94CF49AFDAB1B1125634A","2b3b1445-8fa6-4c95-aaa6-70d3ce2e6ab6","5e631737-0fa4-44a6-b227-7ba1d7345015","{""num_scrambled_semantic"":""8"",""num_scrambled_causal"":""4"",""num_scrambled_schematic"":""4"",""participantId"":""ECDF8D4F17D94CF49AFDAB1B1125634A"",""assignmentId"":""2b3b1445-8fa6-4c95-aaa6-70d3ce2e6ab6"",""projectId"":""5e631737-0fa4-44a6-b227-7ba1d7345015""}","https://test12345.live/?num_scrambled_semantic=8&num_scrambled_causal=4&num_scrambled_schematic=4&participantId=ECDF8D4F17D94CF49AFDAB1B1125634A&assignmentId=2b3b1445-8fa6-4c95-aaa6-70d3ce2e6ab6&projectId=5e631737-0fa4-44a6-b227-7ba1d7345015","ECDF8D4F17D94CF49AFDAB1B1125634A-2025-05-27-18-40-31","","null","","images/instructions/movie_0.png","null","",""
"","","","","","image-button-response","12","357931","0.0-6.0-1.0-0.0","ECDF8D4F17D94CF49AFDAB1B1125634A","ECDF8D4F17D94CF49AFDAB1B1125634A","2b3b1445-8fa6-4c95-aaa6-70d3ce2e6ab6","5e631737-0fa4-44a6-b227-7ba1d7345015","{""num_scrambled_semantic"":""8"",""num_scrambled_causal"":""4"",""num_scrambled_schematic"":""4"",""participantId"":""ECDF8D4F17D94CF49AFDAB1B1125634A"",""assignmentId"":""2b3b1445-8fa6-4c95-aaa6-70d3ce2e6ab6"",""projectId"":""5e631737-0fa4-44a6-b227-7ba1d7345015""}","https://test12345.live/?num_scrambled_semantic=8&num_scrambled_causal=4&num_scrambled_schematic=4&participantId=ECDF8D4F17D94CF49AFDAB1B1125634A&assignmentId=2b3b1445-8fa6-4c95-aaa6-70d3ce2e6ab6&projectId=5e631737-0fa4-44a6-b227-7ba1d7345015","ECDF8D4F17D94CF49AFDAB1B1125634A-2025-05-27-18-40-31","","null","","images/instructions/movie_1.png","null","",""
"","","","","","image-button-response","13","361948","0.0-6.0-1.0-1.0","ECDF8D4F17D94CF49AFDAB1B1125634A","ECDF8D4F17D94CF49AFDAB1B1125634A","2b3b1445-8fa6-4c95-aaa6-70d3ce2e6ab6","5e631737-0fa4-44a6-b227-7ba1d7345015","{""num_scrambled_semantic"":""8"",""num_scrambled_causal"":""4"",""num_scrambled_schematic"":""4"",""participantId"":""ECDF8D4F17D94CF49AFDAB1B1125634A"",""assignmentId"":""2b3b1445-8fa6-4c95-aaa6-70d3ce2e6ab6"",""projectId"":""5e631737-0fa4-44a6-b227-7ba1d7345015""}","https://test12345.live/?num_scrambled_semantic=8&num_scrambled_causal=4&num_scrambled_schematic=4&participantId=ECDF8D4F17D94CF49AFDAB1B1125634A&assignmentId=2b3b1445-8fa6-4c95-aaa6-70d3ce2e6ab6&projectId=5e631737-0fa4-44a6-b227-7ba1d7345015","ECDF8D4F17D94CF49AFDAB1B1125634A-2025-05-27-18-40-31","","null","","images/instructions/movie_1.png","null","",""
"","","","","","image-button-response","14","363754","0.0-6.0-1.0-2.0","ECDF8D4F17D94CF49AFDAB1B1125634A","ECDF8D4F17D94CF49AFDAB1B1125634A","2b3b1445-8fa6-4c95-aaa6-70d3ce2e6ab6","5e631737-0fa4-44a6-b227-7ba1d7345015","{""num_scrambled_semantic"":""8"",""num_scrambled_causal"":""4"",""num_scrambled_schematic"":""4"",""participantId"":""ECDF8D4F17D94CF49AFDAB1B1125634A"",""assignmentId"":""2b3b1445-8fa6-4c95-aaa6-70d3ce2e6ab6"",""projectId"":""5e631737-0fa4-44a6-b227-7ba1d7345015""}","https://test12345.live/?num_scrambled_semantic=8&num_scrambled_causal=4&num_scrambled_schematic=4&participantId=ECDF8D4F17D94CF49AFDAB1B1125634A&assignmentId=2b3b1445-8fa6-4c95-aaa6-70d3ce2e6ab6&projectId=5e631737-0fa4-44a6-b227-7ba1d7345015","ECDF8D4F17D94CF49AFDAB1B1125634A-2025-05-27-18-40-31","","null","","[]","null","",""
"","","","","","image-button-response","15","368276","0.0-6.0-1.0-0.1","ECDF8D4F17D94CF49AFDAB1B1125634A","ECDF8D4F17D94CF49AFDAB1B1125634A","2b3b1445-8fa6-4c95-aaa6-70d3ce2e6ab6","5e631737-0fa4-44a6-b227-7ba1d7345015","{""num_scrambled_semantic"":""8"",""num_scrambled_causal"":""4"",""num_scrambled_schematic"":""4"",""participantId"":""ECDF8D4F17D94CF49AFDAB1B1125634A"",""assignmentId"":""2b3b1445-8fa6-4c95-aaa6-70d3ce2e6ab6"",""projectId"":""5e631737-0fa4-44a6-b227-7ba1d7345015""}","https://test12345.live/?num_scrambled_semantic=8&num_scrambled_causal=4&num_scrambled_schematic=4&participantId=ECDF8D4F17D94CF49AFDAB1B1125634A&assignmentId=2b3b1445-8fa6-4c95-aaa6-70d3ce2e6ab6&projectId=5e631737-0fa4-44a6-b227-7ba1d7345015","ECDF8D4F17D94CF49AFDAB1B1125634A-2025-05-27-18-40-31","","null","","images/instructions/movie_2.png","null","",""
"","","","","","image-button-response","16","369831","0.0-6.0-1.0-1.1","ECDF8D4F17D94CF49AFDAB1B1125634A","ECDF8D4F17D94CF49AFDAB1B1125634A","2b3b1445-8fa6-4c95-aaa6-70d3ce2e6ab6","5e631737-0fa4-44a6-b227-7ba1d7345015","{""num_scrambled_semantic"":""8"",""num_scrambled_causal"":""4"",""num_scrambled_schematic"":""4"",""participantId"":""ECDF8D4F17D94CF49AFDAB1B1125634A"",""assignmentId"":""2b3b1445-8fa6-4c95-aaa6-70d3ce2e6ab6"",""projectId"":""5e631737-0fa4-44a6-b227-7ba1d7345015""}","https://test12345.live/?num_scrambled_semantic=8&num_scrambled_causal=4&num_scrambled_schematic=4&participantId=ECDF8D4F17D94CF49AFDAB1B1125634A&assignmentId=2b3b1445-8fa6-4c95-aaa6-70d3ce2e6ab6&projectId=5e631737-0fa4-44a6-b227-7ba1d7345015","ECDF8D4F17D94CF49AFDAB1B1125634A-2025-05-27-18-40-31","","1554","","images/instructions/movie_2.png","0","",""
"","","","","","image-button-response","17","371639","0.0-6.0-1.0-2.1","ECDF8D4F17D94CF49AFDAB1B1125634A","ECDF8D4F17D94CF49AFDAB1B1125634A","2b3b1445-8fa6-4c95-aaa6-70d3ce2e6ab6","5e631737-0fa4-44a6-b227-7ba1d7345015","{""num_scrambled_semantic"":""8"",""num_scrambled_causal"":""4"",""num_scrambled_schematic"":""4"",""participantId"":""ECDF8D4F17D94CF49AFDAB1B1125634A"",""assignmentId"":""2b3b1445-8fa6-4c95-aaa6-70d3ce2e6ab6"",""projectId"":""5e631737-0fa4-44a6-b227-7ba1d7345015""}","https://test12345.live/?num_scrambled_semantic=8&num_scrambled_causal=4&num_scrambled_schematic=4&participantId=ECDF8D4F17D94CF49AFDAB1B1125634A&assignmentId=2b3b1445-8fa6-4c95-aaa6-70d3ce2e6ab6&projectId=5e631737-0fa4-44a6-b227-7ba1d7345015","ECDF8D4F17D94CF49AFDAB1B1125634A-2025-05-27-18-40-31","","null","","[]","null","",""
"","","","","","image-button-response","18","376147","0.0-6.0-1.0-0.2","ECDF8D4F17D94CF49AFDAB1B1125634A","ECDF8D4F17D94CF49AFDAB1B1125634A","2b3b1445-8fa6-4c95-aaa6-70d3ce2e6ab6","5e631737-0fa4-44a6-b227-7ba1d7345015","{""num_scrambled_semantic"":""8"",""num_scrambled_causal"":""4"",""num_scrambled_schematic"":""4"",""participantId"":""ECDF8D4F17D94CF49AFDAB1B1125634A"",""assignmentId"":""2b3b1445-8fa6-4c95-aaa6-70d3ce2e6ab6"",""projectId"":""5e631737-0fa4-44a6-b227-7ba1d7345015""}","https://test12345.live/?num_scrambled_semantic=8&num_scrambled_causal=4&num_scrambled_schematic=4&participantId=ECDF8D4F17D94CF49AFDAB1B1125634A&assignmentId=2b3b1445-8fa6-4c95-aaa6-70d3ce2e6ab6&projectId=5e631737-0fa4-44a6-b227-7ba1d7345015","ECDF8D4F17D94CF49AFDAB1B1125634A-2025-05-27-18-40-31","","null","","images/instructions/movie_3.png","null","",""
"","","","","","image-button-response","19","377337","0.0-6.0-1.0-1.2","ECDF8D4F17D94CF49AFDAB1B1125634A","ECDF8D4F17D94CF49AFDAB1B1125634A","2b3b1445-8fa6-4c95-aaa6-70d3ce2e6ab6","5e631737-0fa4-44a6-b227-7ba1d7345015","{""num_scrambled_semantic"":""8"",""num_scrambled_causal"":""4"",""num_scrambled_schematic"":""4"",""participantId"":""ECDF8D4F17D94CF49AFDAB1B1125634A"",""assignmentId"":""2b3b1445-8fa6-4c95-aaa6-70d3ce2e6ab6"",""projectId"":""5e631737-0fa4-44a6-b227-7ba1d7345015""}","https://test12345.live/?num_scrambled_semantic=8&num_scrambled_causal=4&num_scrambled_schematic=4&participantId=ECDF8D4F17D94CF49AFDAB1B1125634A&assignmentId=2b3b1445-8fa6-4c95-aaa6-70d3ce2e6ab6&projectId=5e631737-0fa4-44a6-b227-7ba1d7345015","ECDF8D4F17D94CF49AFDAB1B1125634A-2025-05-27-18-40-31","","1186","","images/instructions/movie_3.png","0","",""
"","","","","","image-button-response","20","379144","0.0-6.0-1.0-2.2","ECDF8D4F17D94CF49AFDAB1B1125634A","ECDF8D4F17D94CF49AFDAB1B1125634A","2b3b1445-8fa6-4c95-aaa6-70d3ce2e6ab6","5e631737-0fa4-44a6-b227-7ba1d7345015","{""num_scrambled_semantic"":""8"",""num_scrambled_causal"":""4"",""num_scrambled_schematic"":""4"",""participantId"":""ECDF8D4F17D94CF49AFDAB1B1125634A"",""assignmentId"":""2b3b1445-8fa6-4c95-aaa6-70d3ce2e6ab6"",""projectId"":""5e631737-0fa4-44a6-b227-7ba1d7345015""}","https://test12345.live/?num_scrambled_semantic=8&num_scrambled_causal=4&num_scrambled_schematic=4&participantId=ECDF8D4F17D94CF49AFDAB1B1125634A&assignmentId=2b3b1445-8fa6-4c95-aaa6-70d3ce2e6ab6&projectId=5e631737-0fa4-44a6-b227-7ba1d7345015","ECDF8D4F17D94CF49AFDAB1B1125634A-2025-05-27-18-40-31","","null","","[]","null","",""
"","","","","","image-button-response","21","383652","0.0-6.0-1.0-0.3","ECDF8D4F17D94CF49AFDAB1B1125634A","ECDF8D4F17D94CF49AFDAB1B1125634A","2b3b1445-8fa6-4c95-aaa6-70d3ce2e6ab6","5e631737-0fa4-44a6-b227-7ba1d7345015","{""num_scrambled_semantic"":""8"",""num_scrambled_causal"":""4"",""num_scrambled_schematic"":""4"",""participantId"":""ECDF8D4F17D94CF49AFDAB1B1125634A"",""assignmentId"":""2b3b1445-8fa6-4c95-aaa6-70d3ce2e6ab6"",""projectId"":""5e631737-0fa4-44a6-b227-7ba1d7345015""}","https://test12345.live/?num_scrambled_semantic=8&num_scrambled_causal=4&num_scrambled_schematic=4&participantId=ECDF8D4F17D94CF49AFDAB1B1125634A&assignmentId=2b3b1445-8fa6-4c95-aaa6-70d3ce2e6ab6&projectId=5e631737-0fa4-44a6-b227-7ba1d7345015","ECDF8D4F17D94CF49AFDAB1B1125634A-2025-05-27-18-40-31","","null","","images/instructions/movie_4.png","null","",""
"","","","","","image-button-response","22","384885","0.0-6.0-1.0-1.3","ECDF8D4F17D94CF49AFDAB1B1125634A","ECDF8D4F17D94CF49AFDAB1B1125634A","2b3b1445-8fa6-4c95-aaa6-70d3ce2e6ab6","5e631737-0fa4-44a6-b227-7ba1d7345015","{""num_scrambled_semantic"":""8"",""num_scrambled_causal"":""4"",""num_scrambled_schematic"":""4"",""participantId"":""ECDF8D4F17D94CF49AFDAB1B1125634A"",""assignmentId"":""2b3b1445-8fa6-4c95-aaa6-70d3ce2e6ab6"",""projectId"":""5e631737-0fa4-44a6-b227-7ba1d7345015""}","https://test12345.live/?num_scrambled_semantic=8&num_scrambled_causal=4&num_scrambled_schematic=4&participantId=ECDF8D4F17D94CF49AFDAB1B1125634A&assignmentId=2b3b1445-8fa6-4c95-aaa6-70d3ce2e6ab6&projectId=5e631737-0fa4-44a6-b227-7ba1d7345015","ECDF8D4F17D94CF49AFDAB1B1125634A-2025-05-27-18-40-31","","1230","","images/instructions/movie_4.png","0","",""
"","","","","","image-button-response","23","386695","0.0-6.0-1.0-2.3","ECDF8D4F17D94CF49AFDAB1B1125634A","ECDF8D4F17D94CF49AFDAB1B1125634A","2b3b1445-8fa6-4c95-aaa6-70d3ce2e6ab6","5e631737-0fa4-44a6-b227-7ba1d7345015","{""num_scrambled_semantic"":""8"",""num_scrambled_causal"":""4"",""num_scrambled_schematic"":""4"",""participantId"":""ECDF8D4F17D94CF49AFDAB1B1125634A"",""assignmentId"":""2b3b1445-8fa6-4c95-aaa6-70d3ce2e6ab6"",""projectId"":""5e631737-0fa4-44a6-b227-7ba1d7345015""}","https://test12345.live/?num_scrambled_semantic=8&num_scrambled_causal=4&num_scrambled_schematic=4&participantId=ECDF8D4F17D94CF49AFDAB1B1125634A&assignmentId=2b3b1445-8fa6-4c95-aaa6-70d3ce2e6ab6&projectId=5e631737-0fa4-44a6-b227-7ba1d7345015","ECDF8D4F17D94CF49AFDAB1B1125634A-2025-05-27-18-40-31","","null","","[]","null","",""
"","","","","","instructions","24","402982","0.0-7.0","ECDF8D4F17D94CF49AFDAB1B1125634A","ECDF8D4F17D94CF49AFDAB1B1125634A","2b3b1445-8fa6-4c95-aaa6-70d3ce2e6ab6","5e631737-0fa4-44a6-b227-7ba1d7345015","{""num_scrambled_semantic"":""8"",""num_scrambled_causal"":""4"",""num_scrambled_schematic"":""4"",""participantId"":""ECDF8D4F17D94CF49AFDAB1B1125634A"",""assignmentId"":""2b3b1445-8fa6-4c95-aaa6-70d3ce2e6ab6"",""projectId"":""5e631737-0fa4-44a6-b227-7ba1d7345015""}","https://test12345.live/?num_scrambled_semantic=8&num_scrambled_causal=4&num_scrambled_schematic=4&participantId=ECDF8D4F17D94CF49AFDAB1B1125634A&assignmentId=2b3b1445-8fa6-4c95-aaa6-70d3ce2e6ab6&projectId=5e631737-0fa4-44a6-b227-7ba1d7345015","ECDF8D4F17D94CF49AFDAB1B1125634A-2025-05-27-18-40-31","[{""page_index"":0,""viewing_time"":15200},{""page_index"":1,""viewing_time"":1086}]","16287","","","","",""
"","","","","","html-audio-response","25","449458","0.0-8.0","ECDF8D4F17D94CF49AFDAB1B1125634A","ECDF8D4F17D94CF49AFDAB1B1125634A","2b3b1445-8fa6-4c95-aaa6-70d3ce2e6ab6","5e631737-0fa4-44a6-b227-7ba1d7345015","{""num_scrambled_semantic"":""8"",""num_scrambled_causal"":""4"",""num_scrambled_schematic"":""4"",""participantId"":""ECDF8D4F17D94CF49AFDAB1B1125634A"",""assignmentId"":""2b3b1445-8fa6-4c95-aaa6-70d3ce2e6ab6"",""projectId"":""5e631737-0fa4-44a6-b227-7ba1d7345015""}","https://test12345.live/?num_scrambled_semantic=8&num_scrambled_causal=4&num_scrambled_schematic=4&participantId=ECDF8D4F17D94CF49AFDAB1B1125634A&assignmentId=2b3b1445-8fa6-4c95-aaa6-70d3ce2e6ab6&projectId=5e631737-0fa4-44a6-b227-7ba1d7345015","ECDF8D4F17D94CF49AFDAB1B1125634A-2025-05-27-18-40-31","","17778","","[""<span style=\""color: red; font-size: 24px\""> NOW RECORDING</span><p>Please say out loud all the images you saw in the exact order you saw them. Try to recall as many images as you can, but remember: getting the order right is more important than the number of images you recall.</p>""]","","4",""
"","","","","","instructions","26","452669","0.0-9.0","ECDF8D4F17D94CF49AFDAB1B1125634A","ECDF8D4F17D94CF49AFDAB1B1125634A","2b3b1445-8fa6-4c95-aaa6-70d3ce2e6ab6","5e631737-0fa4-44a6-b227-7ba1d7345015","{""num_scrambled_semantic"":""8"",""num_scrambled_causal"":""4"",""num_scrambled_schematic"":""4"",""participantId"":""ECDF8D4F17D94CF49AFDAB1B1125634A"",""assignmentId"":""2b3b1445-8fa6-4c95-aaa6-70d3ce2e6ab6"",""projectId"":""5e631737-0fa4-44a6-b227-7ba1d7345015""}","https://test12345.live/?num_scrambled_semantic=8&num_scrambled_causal=4&num_scrambled_schematic=4&participantId=ECDF8D4F17D94CF49AFDAB1B1125634A&assignmentId=2b3b1445-8fa6-4c95-aaa6-70d3ce2e6ab6&projectId=5e631737-0fa4-44a6-b227-7ba1d7345015","ECDF8D4F17D94CF49AFDAB1B1125634A-2025-05-27-18-40-31","[{""page_index"":0,""viewing_time"":3198}]","3198","","","","",""
"","","","","","image-button-response","27","458685","0.0-10.0-0.0","ECDF8D4F17D94CF49AFDAB1B1125634A","ECDF8D4F17D94CF49AFDAB1B1125634A","2b3b1445-8fa6-4c95-aaa6-70d3ce2e6ab6","5e631737-0fa4-44a6-b227-7ba1d7345015","{""num_scrambled_semantic"":""8"",""num_scrambled_causal"":""4"",""num_scrambled_schematic"":""4"",""participantId"":""ECDF8D4F17D94CF49AFDAB1B1125634A"",""assignmentId"":""2b3b1445-8fa6-4c95-aaa6-70d3ce2e6ab6"",""projectId"":""5e631737-0fa4-44a6-b227-7ba1d7345015""}","https://test12345.live/?num_scrambled_semantic=8&num_scrambled_causal=4&num_scrambled_schematic=4&participantId=ECDF8D4F17D94CF49AFDAB1B1125634A&assignmentId=2b3b1445-8fa6-4c95-aaa6-70d3ce2e6ab6&projectId=5e631737-0fa4-44a6-b227-7ba1d7345015","ECDF8D4F17D94CF49AFDAB1B1125634A-2025-05-27-18-40-31","","null","","images/semantic_sequence/visiting_cities_semantic/visiting_cities_semantic_0.png","null","",""
"","","","","","image-button-response","28","463196","0.0-10.0-1.0-0.0","ECDF8D4F17D94CF49AFDAB1B1125634A","ECDF8D4F17D94CF49AFDAB1B1125634A","2b3b1445-8fa6-4c95-aaa6-70d3ce2e6ab6","5e631737-0fa4-44a6-b227-7ba1d7345015","{""num_scrambled_semantic"":""8"",""num_scrambled_causal"":""4"",""num_scrambled_schematic"":""4"",""participantId"":""ECDF8D4F17D94CF49AFDAB1B1125634A"",""assignmentId"":""2b3b1445-8fa6-4c95-aaa6-70d3ce2e6ab6"",""projectId"":""5e631737-0fa4-44a6-b227-7ba1d7345015""}","https://test12345.live/?num_scrambled_semantic=8&num_scrambled_causal=4&num_scrambled_schematic=4&participantId=ECDF8D4F17D94CF49AFDAB1B1125634A&assignmentId=2b3b1445-8fa6-4c95-aaa6-70d3ce2e6ab6&projectId=5e631737-0fa4-44a6-b227-7ba1d7345015","ECDF8D4F17D94CF49AFDAB1B1125634A-2025-05-27-18-40-31","","null","","images/semantic_sequence/visiting_cities_semantic/visiting_cities_semantic_1.png","null","",""
"","","","","","image-button-response","29","465465","0.0-10.0-1.0-1.0","ECDF8D4F17D94CF49AFDAB1B1125634A","ECDF8D4F17D94CF49AFDAB1B1125634A","2b3b1445-8fa6-4c95-aaa6-70d3ce2e6ab6","5e631737-0fa4-44a6-b227-7ba1d7345015","{""num_scrambled_semantic"":""8"",""num_scrambled_causal"":""4"",""num_scrambled_schematic"":""4"",""participantId"":""ECDF8D4F17D94CF49AFDAB1B1125634A"",""assignmentId"":""2b3b1445-8fa6-4c95-aaa6-70d3ce2e6ab6"",""projectId"":""5e631737-0fa4-44a6-b227-7ba1d7345015""}","https://test12345.live/?num_scrambled_semantic=8&num_scrambled_causal=4&num_scrambled_schematic=4&participantId=ECDF8D4F17D94CF49AFDAB1B1125634A&assignmentId=2b3b1445-8fa6-4c95-aaa6-70d3ce2e6ab6&projectId=5e631737-0fa4-44a6-b227-7ba1d7345015","ECDF8D4F17D94CF49AFDAB1B1125634A-2025-05-27-18-40-31","","2266","","images/semantic_sequence/visiting_cities_semantic/visiting_cities_semantic_1.png","0","",""
"","","","","","image-button-response","30","467271","0.0-10.0-1.0-2.0","ECDF8D4F17D94CF49AFDAB1B1125634A","ECDF8D4F17D94CF49AFDAB1B1125634A","2b3b1445-8fa6-4c95-aaa6-70d3ce2e6ab6","5e631737-0fa4-44a6-b227-7ba1d7345015","{""num_scrambled_semantic"":""8"",""num_scrambled_causal"":""4"",""num_scrambled_schematic"":""4"",""participantId"":""ECDF8D4F17D94CF49AFDAB1B1125634A"",""assignmentId"":""2b3b1445-8fa6-4c95-aaa6-70d3ce2e6ab6"",""projectId"":""5e631737-0fa4-44a6-b227-7ba1d7345015""}","https://test12345.live/?num_scrambled_semantic=8&num_scrambled_causal=4&num_scrambled_schematic=4&participantId=ECDF8D4F17D94CF49AFDAB1B1125634A&assignmentId=2b3b1445-8fa6-4c95-aaa6-70d3ce2e6ab6&projectId=5e631737-0fa4-44a6-b227-7ba1d7345015","ECDF8D4F17D94CF49AFDAB1B1125634A-2025-05-27-18-40-31","","null","","[]","null","",""
"","","","","","image-button-response","31","471774","0.0-10.0-1.0-0.1","ECDF8D4F17D94CF49AFDAB1B1125634A","ECDF8D4F17D94CF49AFDAB1B1125634A","2b3b1445-8fa6-4c95-aaa6-70d3ce2e6ab6","5e631737-0fa4-44a6-b227-7ba1d7345015","{""num_scrambled_semantic"":""8"",""num_scrambled_causal"":""4"",""num_scrambled_schematic"":""4"",""participantId"":""ECDF8D4F17D94CF49AFDAB1B1125634A"",""assignmentId"":""2b3b1445-8fa6-4c95-aaa6-70d3ce2e6ab6"",""projectId"":""5e631737-0fa4-44a6-b227-7ba1d7345015""}","https://test12345.live/?num_scrambled_semantic=8&num_scrambled_causal=4&num_scrambled_schematic=4&participantId=ECDF8D4F17D94CF49AFDAB1B1125634A&assignmentId=2b3b1445-8fa6-4c95-aaa6-70d3ce2e6ab6&projectId=5e631737-0fa4-44a6-b227-7ba1d7345015","ECDF8D4F17D94CF49AFDAB1B1125634A-2025-05-27-18-40-31","","null","","images/semantic_sequence/visiting_cities_semantic/visiting_cities_semantic_2.png","null","",""
"","","","","","image-button-response","32","473853","0.0-10.0-1.0-1.1","ECDF8D4F17D94CF49AFDAB1B1125634A","ECDF8D4F17D94CF49AFDAB1B1125634A","2b3b1445-8fa6-4c95-aaa6-70d3ce2e6ab6","5e631737-0fa4-44a6-b227-7ba1d7345015","{""num_scrambled_semantic"":""8"",""num_scrambled_causal"":""4"",""num_scrambled_schematic"":""4"",""participantId"":""ECDF8D4F17D94CF49AFDAB1B1125634A"",""assignmentId"":""2b3b1445-8fa6-4c95-aaa6-70d3ce2e6ab6"",""projectId"":""5e631737-0fa4-44a6-b227-7ba1d7345015""}","https://test12345.live/?num_scrambled_semantic=8&num_scrambled_causal=4&num_scrambled_schematic=4&participantId=ECDF8D4F17D94CF49AFDAB1B1125634A&assignmentId=2b3b1445-8fa6-4c95-aaa6-70d3ce2e6ab6&projectId=5e631737-0fa4-44a6-b227-7ba1d7345015","ECDF8D4F17D94CF49AFDAB1B1125634A-2025-05-27-18-40-31","","2077","","images/semantic_sequence/visiting_cities_semantic/visiting_cities_semantic_2.png","1","",""
"","","","","","image-button-response","33","475657","0.0-10.0-1.0-2.1","ECDF8D4F17D94CF49AFDAB1B1125634A","ECDF8D4F17D94CF49AFDAB1B1125634A","2b3b1445-8fa6-4c95-aaa6-70d3ce2e6ab6","5e631737-0fa4-44a6-b227-7ba1d7345015","{""num_scrambled_semantic"":""8"",""num_scrambled_causal"":""4"",""num_scrambled_schematic"":""4"",""participantId"":""ECDF8D4F17D94CF49AFDAB1B1125634A"",""assignmentId"":""2b3b1445-8fa6-4c95-aaa6-70d3ce2e6ab6"",""projectId"":""5e631737-0fa4-44a6-b227-7ba1d7345015""}","https://test12345.live/?num_scrambled_semantic=8&num_scrambled_causal=4&num_scrambled_schematic=4&participantId=ECDF8D4F17D94CF49AFDAB1B1125634A&assignmentId=2b3b1445-8fa6-4c95-aaa6-70d3ce2e6ab6&projectId=5e631737-0fa4-44a6-b227-7ba1d7345015","ECDF8D4F17D94CF49AFDAB1B1125634A-2025-05-27-18-40-31","","null","","[]","null","",""
"","","","","","image-button-response","34","480174","0.0-10.0-1.0-0.2","ECDF8D4F17D94CF49AFDAB1B1125634A","ECDF8D4F17D94CF49AFDAB1B1125634A","2b3b1445-8fa6-4c95-aaa6-70d3ce2e6ab6","5e631737-0fa4-44a6-b227-7ba1d7345015","{""num_scrambled_semantic"":""8"",""num_scrambled_causal"":""4"",""num_scrambled_schematic"":""4"",""participantId"":""ECDF8D4F17D94CF49AFDAB1B1125634A"",""assignmentId"":""2b3b1445-8fa6-4c95-aaa6-70d3ce2e6ab6"",""projectId"":""5e631737-0fa4-44a6-b227-7ba1d7345015""}","https://test12345.live/?num_scrambled_semantic=8&num_scrambled_causal=4&num_scrambled_schematic=4&participantId=ECDF8D4F17D94CF49AFDAB1B1125634A&assignmentId=2b3b1445-8fa6-4c95-aaa6-70d3ce2e6ab6&projectId=5e631737-0fa4-44a6-b227-7ba1d7345015","ECDF8D4F17D94CF49AFDAB1B1125634A-2025-05-27-18-40-31","","null","","images/semantic_sequence/visiting_cities_semantic/visiting_cities_semantic_3.png","null","",""
"","","","","","image-button-response","35","481828","0.0-10.0-1.0-1.2","ECDF8D4F17D94CF49AFDAB1B1125634A","ECDF8D4F17D94CF49AFDAB1B1125634A","2b3b1445-8fa6-4c95-aaa6-70d3ce2e6ab6","5e631737-0fa4-44a6-b227-7ba1d7345015","{""num_scrambled_semantic"":""8"",""num_scrambled_causal"":""4"",""num_scrambled_schematic"":""4"",""participantId"":""ECDF8D4F17D94CF49AFDAB1B1125634A"",""assignmentId"":""2b3b1445-8fa6-4c95-aaa6-70d3ce2e6ab6"",""projectId"":""5e631737-0fa4-44a6-b227-7ba1d7345015""}","https://test12345.live/?num_scrambled_semantic=8&num_scrambled_causal=4&num_scrambled_schematic=4&participantId=ECDF8D4F17D94CF49AFDAB1B1125634A&assignmentId=2b3b1445-8fa6-4c95-aaa6-70d3ce2e6ab6&projectId=5e631737-0fa4-44a6-b227-7ba1d7345015","ECDF8D4F17D94CF49AFDAB1B1125634A-2025-05-27-18-40-31","","1652","","images/semantic_sequence/visiting_cities_semantic/visiting_cities_semantic_3.png","0","",""
"","","","","","image-button-response","36","483639","0.0-10.0-1.0-2.2","ECDF8D4F17D94CF49AFDAB1B1125634A","ECDF8D4F17D94CF49AFDAB1B1125634A","2b3b1445-8fa6-4c95-aaa6-70d3ce2e6ab6","5e631737-0fa4-44a6-b227-7ba1d7345015","{""num_scrambled_semantic"":""8"",""num_scrambled_causal"":""4"",""num_scrambled_schematic"":""4"",""participantId"":""ECDF8D4F17D94CF49AFDAB1B1125634A"",""assignmentId"":""2b3b1445-8fa6-4c95-aaa6-70d3ce2e6ab6"",""projectId"":""5e631737-0fa4-44a6-b227-7ba1d7345015""}","https://test12345.live/?num_scrambled_semantic=8&num_scrambled_causal=4&num_scrambled_schematic=4&participantId=ECDF8D4F17D94CF49AFDAB1B1125634A&assignmentId=2b3b1445-8fa6-4c95-aaa6-70d3ce2e6ab6&projectId=5e631737-0fa4-44a6-b227-7ba1d7345015","ECDF8D4F17D94CF49AFDAB1B1125634A-2025-05-27-18-40-31","","null","","[]","null","",""
"","","","","","image-button-response","37","488144","0.0-10.0-1.0-0.3","ECDF8D4F17D94CF49AFDAB1B1125634A","ECDF8D4F17D94CF49AFDAB1B1125634A","2b3b1445-8fa6-4c95-aaa6-70d3ce2e6ab6","5e631737-0fa4-44a6-b227-7ba1d7345015","{""num_scrambled_semantic"":""8"",""num_scrambled_causal"":""4"",""num_scrambled_schematic"":""4"",""participantId"":""ECDF8D4F17D94CF49AFDAB1B1125634A"",""assignmentId"":""2b3b1445-8fa6-4c95-aaa6-70d3ce2e6ab6"",""projectId"":""5e631737-0fa4-44a6-b227-7ba1d7345015""}","https://test12345.live/?num_scrambled_semantic=8&num_scrambled_causal=4&num_scrambled_schematic=4&participantId=ECDF8D4F17D94CF49AFDAB1B1125634A&assignmentId=2b3b1445-8fa6-4c95-aaa6-70d3ce2e6ab6&projectId=5e631737-0fa4-44a6-b227-7ba1d7345015","ECDF8D4F17D94CF49AFDAB1B1125634A-2025-05-27-18-40-31","","null","","images/semantic_sequence/visiting_cities_semantic/visiting_cities_semantic_4.png","null","",""
"","","","","","image-button-response","38","492151","0.0-10.0-1.0-1.3","ECDF8D4F17D94CF49AFDAB1B1125634A","ECDF8D4F17D94CF49AFDAB1B1125634A","2b3b1445-8fa6-4c95-aaa6-70d3ce2e6ab6","5e631737-0fa4-44a6-b227-7ba1d7345015","{""num_scrambled_semantic"":""8"",""num_scrambled_causal"":""4"",""num_scrambled_schematic"":""4"",""participantId"":""ECDF8D4F17D94CF49AFDAB1B1125634A"",""assignmentId"":""2b3b1445-8fa6-4c95-aaa6-70d3ce2e6ab6"",""projectId"":""5e631737-0fa4-44a6-b227-7ba1d7345015""}","https://test12345.live/?num_scrambled_semantic=8&num_scrambled_causal=4&num_scrambled_schematic=4&participantId=ECDF8D4F17D94CF49AFDAB1B1125634A&assignmentId=2b3b1445-8fa6-4c95-aaa6-70d3ce2e6ab6&projectId=5e631737-0fa4-44a6-b227-7ba1d7345015","ECDF8D4F17D94CF49AFDAB1B1125634A-2025-05-27-18-40-31","","null","","images/semantic_sequence/visiting_cities_semantic/visiting_cities_semantic_4.png","null","",""
"","","","","","image-button-response","39","493956","0.0-10.0-1.0-2.3","ECDF8D4F17D94CF49AFDAB1B1125634A","ECDF8D4F17D94CF49AFDAB1B1125634A","2b3b1445-8fa6-4c95-aaa6-70d3ce2e6ab6","5e631737-0fa4-44a6-b227-7ba1d7345015","{""num_scrambled_semantic"":""8"",""num_scrambled_causal"":""4"",""num_scrambled_schematic"":""4"",""participantId"":""ECDF8D4F17D94CF49AFDAB1B1125634A"",""assignmentId"":""2b3b1445-8fa6-4c95-aaa6-70d3ce2e6ab6"",""projectId"":""5e631737-0fa4-44a6-b227-7ba1d7345015""}","https://test12345.live/?num_scrambled_semantic=8&num_scrambled_causal=4&num_scrambled_schematic=4&participantId=ECDF8D4F17D94CF49AFDAB1B1125634A&assignmentId=2b3b1445-8fa6-4c95-aaa6-70d3ce2e6ab6&projectId=5e631737-0fa4-44a6-b227-7ba1d7345015","ECDF8D4F17D94CF49AFDAB1B1125634A-2025-05-27-18-40-31","","null","","[]","null","",""
"","","","","","image-button-response","40","498466","0.0-10.0-1.0-0.4","ECDF8D4F17D94CF49AFDAB1B1125634A","ECDF8D4F17D94CF49AFDAB1B1125634A","2b3b1445-8fa6-4c95-aaa6-70d3ce2e6ab6","5e631737-0fa4-44a6-b227-7ba1d7345015","{""num_scrambled_semantic"":""8"",""num_scrambled_causal"":""4"",""num_scrambled_schematic"":""4"",""participantId"":""ECDF8D4F17D94CF49AFDAB1B1125634A"",""assignmentId"":""2b3b1445-8fa6-4c95-aaa6-70d3ce2e6ab6"",""projectId"":""5e631737-0fa4-44a6-b227-7ba1d7345015""}","https://test12345.live/?num_scrambled_semantic=8&num_scrambled_causal=4&num_scrambled_schematic=4&participantId=ECDF8D4F17D94CF49AFDAB1B1125634A&assignmentId=2b3b1445-8fa6-4c95-aaa6-70d3ce2e6ab6&projectId=5e631737-0fa4-44a6-b227-7ba1d7345015","ECDF8D4F17D94CF49AFDAB1B1125634A-2025-05-27-18-40-31","","null","","images/semantic_sequence/visiting_cities_semantic/visiting_cities_semantic_5.png","null","",""
"","","","","","image-button-response","41","502482","0.0-10.0-1.0-1.4","ECDF8D4F17D94CF49AFDAB1B1125634A","ECDF8D4F17D94CF49AFDAB1B1125634A","2b3b1445-8fa6-4c95-aaa6-70d3ce2e6ab6","5e631737-0fa4-44a6-b227-7ba1d7345015","{""num_scrambled_semantic"":""8"",""num_scrambled_causal"":""4"",""num_scrambled_schematic"":""4"",""participantId"":""ECDF8D4F17D94CF49AFDAB1B1125634A"",""assignmentId"":""2b3b1445-8fa6-4c95-aaa6-70d3ce2e6ab6"",""projectId"":""5e631737-0fa4-44a6-b227-7ba1d7345015""}","https://test12345.live/?num_scrambled_semantic=8&num_scrambled_causal=4&num_scrambled_schematic=4&participantId=ECDF8D4F17D94CF49AFDAB1B1125634A&assignmentId=2b3b1445-8fa6-4c95-aaa6-70d3ce2e6ab6&projectId=5e631737-0fa4-44a6-b227-7ba1d7345015","ECDF8D4F17D94CF49AFDAB1B1125634A-2025-05-27-18-40-31","","null","","images/semantic_sequence/visiting_cities_semantic/visiting_cities_semantic_5.png","null","",""
"","","","","","image-button-response","42","504286","0.0-10.0-1.0-2.4","ECDF8D4F17D94CF49AFDAB1B1125634A","ECDF8D4F17D94CF49AFDAB1B1125634A","2b3b1445-8fa6-4c95-aaa6-70d3ce2e6ab6","5e631737-0fa4-44a6-b227-7ba1d7345015","{""num_scrambled_semantic"":""8"",""num_scrambled_causal"":""4"",""num_scrambled_schematic"":""4"",""participantId"":""ECDF8D4F17D94CF49AFDAB1B1125634A"",""assignmentId"":""2b3b1445-8fa6-4c95-aaa6-70d3ce2e6ab6"",""projectId"":""5e631737-0fa4-44a6-b227-7ba1d7345015""}","https://test12345.live/?num_scrambled_semantic=8&num_scrambled_causal=4&num_scrambled_schematic=4&participantId=ECDF8D4F17D94CF49AFDAB1B1125634A&assignmentId=2b3b1445-8fa6-4c95-aaa6-70d3ce2e6ab6&projectId=5e631737-0fa4-44a6-b227-7ba1d7345015","ECDF8D4F17D94CF49AFDAB1B1125634A-2025-05-27-18-40-31","","null","","[]","null","",""
"","","","","","image-button-response","43","508798","0.0-10.0-1.0-0.5","ECDF8D4F17D94CF49AFDAB1B1125634A","ECDF8D4F17D94CF49AFDAB1B1125634A","2b3b1445-8fa6-4c95-aaa6-70d3ce2e6ab6","5e631737-0fa4-44a6-b227-7ba1d7345015","{""num_scrambled_semantic"":""8"",""num_scrambled_causal"":""4"",""num_scrambled_schematic"":""4"",""participantId"":""ECDF8D4F17D94CF49AFDAB1B1125634A"",""assignmentId"":""2b3b1445-8fa6-4c95-aaa6-70d3ce2e6ab6"",""projectId"":""5e631737-0fa4-44a6-b227-7ba1d7345015""}","https://test12345.live/?num_scrambled_semantic=8&num_scrambled_causal=4&num_scrambled_schematic=4&participantId=ECDF8D4F17D94CF49AFDAB1B1125634A&assignmentId=2b3b1445-8fa6-4c95-aaa6-70d3ce2e6ab6&projectId=5e631737-0fa4-44a6-b227-7ba1d7345015","ECDF8D4F17D94CF49AFDAB1B1125634A-2025-05-27-18-40-31","","null","","images/semantic_sequence/visiting_cities_semantic/visiting_cities_semantic_6.png","null","",""
"","","","","","image-button-response","44","512813","0.0-10.0-1.0-1.5","ECDF8D4F17D94CF49AFDAB1B1125634A","ECDF8D4F17D94CF49AFDAB1B1125634A","2b3b1445-8fa6-4c95-aaa6-70d3ce2e6ab6","5e631737-0fa4-44a6-b227-7ba1d7345015","{""num_scrambled_semantic"":""8"",""num_scrambled_causal"":""4"",""num_scrambled_schematic"":""4"",""participantId"":""ECDF8D4F17D94CF49AFDAB1B1125634A"",""assignmentId"":""2b3b1445-8fa6-4c95-aaa6-70d3ce2e6ab6"",""projectId"":""5e631737-0fa4-44a6-b227-7ba1d7345015""}","https://test12345.live/?num_scrambled_semantic=8&num_scrambled_causal=4&num_scrambled_schematic=4&participantId=ECDF8D4F17D94CF49AFDAB1B1125634A&assignmentId=2b3b1445-8fa6-4c95-aaa6-70d3ce2e6ab6&projectId=5e631737-0fa4-44a6-b227-7ba1d7345015","ECDF8D4F17D94CF49AFDAB1B1125634A-2025-05-27-18-40-31","","null","","images/semantic_sequence/visiting_cities_semantic/visiting_cities_semantic_6.png","null","",""
"","","","","","image-button-response","45","514620","0.0-10.0-1.0-2.5","ECDF8D4F17D94CF49AFDAB1B1125634A","ECDF8D4F17D94CF49AFDAB1B1125634A","2b3b1445-8fa6-4c95-aaa6-70d3ce2e6ab6","5e631737-0fa4-44a6-b227-7ba1d7345015","{""num_scrambled_semantic"":""8"",""num_scrambled_causal"":""4"",""num_scrambled_schematic"":""4"",""participantId"":""ECDF8D4F17D94CF49AFDAB1B1125634A"",""assignmentId"":""2b3b1445-8fa6-4c95-aaa6-70d3ce2e6ab6"",""projectId"":""5e631737-0fa4-44a6-b227-7ba1d7345015""}","https://test12345.live/?num_scrambled_semantic=8&num_scrambled_causal=4&num_scrambled_schematic=4&participantId=ECDF8D4F17D94CF49AFDAB1B1125634A&assignmentId=2b3b1445-8fa6-4c95-aaa6-70d3ce2e6ab6&projectId=5e631737-0fa4-44a6-b227-7ba1d7345015","ECDF8D4F17D94CF49AFDAB1B1125634A-2025-05-27-18-40-31","","null","","[]","null","",""
"","","","","","image-button-response","46","519126","0.0-10.0-1.0-0.6","ECDF8D4F17D94CF49AFDAB1B1125634A","ECDF8D4F17D94CF49AFDAB1B1125634A","2b3b1445-8fa6-4c95-aaa6-70d3ce2e6ab6","5e631737-0fa4-44a6-b227-7ba1d7345015","{""num_scrambled_semantic"":""8"",""num_scrambled_causal"":""4"",""num_scrambled_schematic"":""4"",""participantId"":""ECDF8D4F17D94CF49AFDAB1B1125634A"",""assignmentId"":""2b3b1445-8fa6-4c95-aaa6-70d3ce2e6ab6"",""projectId"":""5e631737-0fa4-44a6-b227-7ba1d7345015""}","https://test12345.live/?num_scrambled_semantic=8&num_scrambled_causal=4&num_scrambled_schematic=4&participantId=ECDF8D4F17D94CF49AFDAB1B1125634A&assignmentId=2b3b1445-8fa6-4c95-aaa6-70d3ce2e6ab6&projectId=5e631737-0fa4-44a6-b227-7ba1d7345015","ECDF8D4F17D94CF49AFDAB1B1125634A-2025-05-27-18-40-31","","null","","images/semantic_sequence/visiting_cities_semantic/visiting_cities_semantic_7.png","null","",""
"","","","","","image-button-response","47","523141","0.0-10.0-1.0-1.6","ECDF8D4F17D94CF49AFDAB1B1125634A","ECDF8D4F17D94CF49AFDAB1B1125634A","2b3b1445-8fa6-4c95-aaa6-70d3ce2e6ab6","5e631737-0fa4-44a6-b227-7ba1d7345015","{""num_scrambled_semantic"":""8"",""num_scrambled_causal"":""4"",""num_scrambled_schematic"":""4"",""participantId"":""ECDF8D4F17D94CF49AFDAB1B1125634A"",""assignmentId"":""2b3b1445-8fa6-4c95-aaa6-70d3ce2e6ab6"",""projectId"":""5e631737-0fa4-44a6-b227-7ba1d7345015""}","https://test12345.live/?num_scrambled_semantic=8&num_scrambled_causal=4&num_scrambled_schematic=4&participantId=ECDF8D4F17D94CF49AFDAB1B1125634A&assignmentId=2b3b1445-8fa6-4c95-aaa6-70d3ce2e6ab6&projectId=5e631737-0fa4-44a6-b227-7ba1d7345015","ECDF8D4F17D94CF49AFDAB1B1125634A-2025-05-27-18-40-31","","null","","images/semantic_sequence/visiting_cities_semantic/visiting_cities_semantic_7.png","null","",""
"","","","","","image-button-response","48","524959","0.0-10.0-1.0-2.6","ECDF8D4F17D94CF49AFDAB1B1125634A","ECDF8D4F17D94CF49AFDAB1B1125634A","2b3b1445-8fa6-4c95-aaa6-70d3ce2e6ab6","5e631737-0fa4-44a6-b227-7ba1d7345015","{""num_scrambled_semantic"":""8"",""num_scrambled_causal"":""4"",""num_scrambled_schematic"":""4"",""participantId"":""ECDF8D4F17D94CF49AFDAB1B1125634A"",""assignmentId"":""2b3b1445-8fa6-4c95-aaa6-70d3ce2e6ab6"",""projectId"":""5e631737-0fa4-44a6-b227-7ba1d7345015""}","https://test12345.live/?num_scrambled_semantic=8&num_scrambled_causal=4&num_scrambled_schematic=4&participantId=ECDF8D4F17D94CF49AFDAB1B1125634A&assignmentId=2b3b1445-8fa6-4c95-aaa6-70d3ce2e6ab6&projectId=5e631737-0fa4-44a6-b227-7ba1d7345015","ECDF8D4F17D94CF49AFDAB1B1125634A-2025-05-27-18-40-31","","null","","[]","null","",""
"","","","","","image-button-response","49","529467","0.0-10.0-1.0-0.7","ECDF8D4F17D94CF49AFDAB1B1125634A","ECDF8D4F17D94CF49AFDAB1B1125634A","2b3b1445-8fa6-4c95-aaa6-70d3ce2e6ab6","5e631737-0fa4-44a6-b227-7ba1d7345015","{""num_scrambled_semantic"":""8"",""num_scrambled_causal"":""4"",""num_scrambled_schematic"":""4"",""participantId"":""ECDF8D4F17D94CF49AFDAB1B1125634A"",""assignmentId"":""2b3b1445-8fa6-4c95-aaa6-70d3ce2e6ab6"",""projectId"":""5e631737-0fa4-44a6-b227-7ba1d7345015""}","https://test12345.live/?num_scrambled_semantic=8&num_scrambled_causal=4&num_scrambled_schematic=4&participantId=ECDF8D4F17D94CF49AFDAB1B1125634A&assignmentId=2b3b1445-8fa6-4c95-aaa6-70d3ce2e6ab6&projectId=5e631737-0fa4-44a6-b227-7ba1d7345015","ECDF8D4F17D94CF49AFDAB1B1125634A-2025-05-27-18-40-31","","null","","images/semantic_sequence/visiting_cities_semantic/visiting_cities_semantic_8.png","null","",""
"","","","","","image-button-response","50","533471","0.0-10.0-1.0-1.7","ECDF8D4F17D94CF49AFDAB1B1125634A","ECDF8D4F17D94CF49AFDAB1B1125634A","2b3b1445-8fa6-4c95-aaa6-70d3ce2e6ab6","5e631737-0fa4-44a6-b227-7ba1d7345015","{""num_scrambled_semantic"":""8"",""num_scrambled_causal"":""4"",""num_scrambled_schematic"":""4"",""participantId"":""ECDF8D4F17D94CF49AFDAB1B1125634A"",""assignmentId"":""2b3b1445-8fa6-4c95-aaa6-70d3ce2e6ab6"",""projectId"":""5e631737-0fa4-44a6-b227-7ba1d7345015""}","https://test12345.live/?num_scrambled_semantic=8&num_scrambled_causal=4&num_scrambled_schematic=4&participantId=ECDF8D4F17D94CF49AFDAB1B1125634A&assignmentId=2b3b1445-8fa6-4c95-aaa6-70d3ce2e6ab6&projectId=5e631737-0fa4-44a6-b227-7ba1d7345015","ECDF8D4F17D94CF49AFDAB1B1125634A-2025-05-27-18-40-31","","null","","images/semantic_sequence/visiting_cities_semantic/visiting_cities_semantic_8.png","null","",""
"","","","","","image-button-response","51","535281","0.0-10.0-1.0-2.7","ECDF8D4F17D94CF49AFDAB1B1125634A","ECDF8D4F17D94CF49AFDAB1B1125634A","2b3b1445-8fa6-4c95-aaa6-70d3ce2e6ab6","5e631737-0fa4-44a6-b227-7ba1d7345015","{""num_scrambled_semantic"":""8"",""num_scrambled_causal"":""4"",""num_scrambled_schematic"":""4"",""participantId"":""ECDF8D4F17D94CF49AFDAB1B1125634A"",""assignmentId"":""2b3b1445-8fa6-4c95-aaa6-70d3ce2e6ab6"",""projectId"":""5e631737-0fa4-44a6-b227-7ba1d7345015""}","https://test12345.live/?num_scrambled_semantic=8&num_scrambled_causal=4&num_scrambled_schematic=4&participantId=ECDF8D4F17D94CF49AFDAB1B1125634A&assignmentId=2b3b1445-8fa6-4c95-aaa6-70d3ce2e6ab6&projectId=5e631737-0fa4-44a6-b227-7ba1d7345015","ECDF8D4F17D94CF49AFDAB1B1125634A-2025-05-27-18-40-31","","null","","[]","null","",""
"","","","","","image-button-response","52","539794","0.0-10.0-1.0-0.8","ECDF8D4F17D94CF49AFDAB1B1125634A","ECDF8D4F17D94CF49AFDAB1B1125634A","2b3b1445-8fa6-4c95-aaa6-70d3ce2e6ab6","5e631737-0fa4-44a6-b227-7ba1d7345015","{""num_scrambled_semantic"":""8"",""num_scrambled_causal"":""4"",""num_scrambled_schematic"":""4"",""participantId"":""ECDF8D4F17D94CF49AFDAB1B1125634A"",""assignmentId"":""2b3b1445-8fa6-4c95-aaa6-70d3ce2e6ab6"",""projectId"":""5e631737-0fa4-44a6-b227-7ba1d7345015""}","https://test12345.live/?num_scrambled_semantic=8&num_scrambled_causal=4&num_scrambled_schematic=4&participantId=ECDF8D4F17D94CF49AFDAB1B1125634A&assignmentId=2b3b1445-8fa6-4c95-aaa6-70d3ce2e6ab6&projectId=5e631737-0fa4-44a6-b227-7ba1d7345015","ECDF8D4F17D94CF49AFDAB1B1125634A-2025-05-27-18-40-31","","null","","images/semantic_sequence/visiting_cities_semantic/visiting_cities_semantic_9.png","null","",""
"","","","","","image-button-response","53","543800","0.0-10.0-1.0-1.8","ECDF8D4F17D94CF49AFDAB1B1125634A","ECDF8D4F17D94CF49AFDAB1B1125634A","2b3b1445-8fa6-4c95-aaa6-70d3ce2e6ab6","5e631737-0fa4-44a6-b227-7ba1d7345015","{""num_scrambled_semantic"":""8"",""num_scrambled_causal"":""4"",""num_scrambled_schematic"":""4"",""participantId"":""ECDF8D4F17D94CF49AFDAB1B1125634A"",""assignmentId"":""2b3b1445-8fa6-4c95-aaa6-70d3ce2e6ab6"",""projectId"":""5e631737-0fa4-44a6-b227-7ba1d7345015""}","https://test12345.live/?num_scrambled_semantic=8&num_scrambled_causal=4&num_scrambled_schematic=4&participantId=ECDF8D4F17D94CF49AFDAB1B1125634A&assignmentId=2b3b1445-8fa6-4c95-aaa6-70d3ce2e6ab6&projectId=5e631737-0fa4-44a6-b227-7ba1d7345015","ECDF8D4F17D94CF49AFDAB1B1125634A-2025-05-27-18-40-31","","null","","images/semantic_sequence/visiting_cities_semantic/visiting_cities_semantic_9.png","null","",""
"","","","","","image-button-response","54","545604","0.0-10.0-1.0-2.8","ECDF8D4F17D94CF49AFDAB1B1125634A","ECDF8D4F17D94CF49AFDAB1B1125634A","2b3b1445-8fa6-4c95-aaa6-70d3ce2e6ab6","5e631737-0fa4-44a6-b227-7ba1d7345015","{""num_scrambled_semantic"":""8"",""num_scrambled_causal"":""4"",""num_scrambled_schematic"":""4"",""participantId"":""ECDF8D4F17D94CF49AFDAB1B1125634A"",""assignmentId"":""2b3b1445-8fa6-4c95-aaa6-70d3ce2e6ab6"",""projectId"":""5e631737-0fa4-44a6-b227-7ba1d7345015""}","https://test12345.live/?num_scrambled_semantic=8&num_scrambled_causal=4&num_scrambled_schematic=4&participantId=ECDF8D4F17D94CF49AFDAB1B1125634A&assignmentId=2b3b1445-8fa6-4c95-aaa6-70d3ce2e6ab6&projectId=5e631737-0fa4-44a6-b227-7ba1d7345015","ECDF8D4F17D94CF49AFDAB1B1125634A-2025-05-27-18-40-31","","null","","[]","null","",""
"","","","","","image-button-response","55","550115","0.0-10.0-1.0-0.9","ECDF8D4F17D94CF49AFDAB1B1125634A","ECDF8D4F17D94CF49AFDAB1B1125634A","2b3b1445-8fa6-4c95-aaa6-70d3ce2e6ab6","5e631737-0fa4-44a6-b227-7ba1d7345015","{""num_scrambled_semantic"":""8"",""num_scrambled_causal"":""4"",""num_scrambled_schematic"":""4"",""participantId"":""ECDF8D4F17D94CF49AFDAB1B1125634A"",""assignmentId"":""2b3b1445-8fa6-4c95-aaa6-70d3ce2e6ab6"",""projectId"":""5e631737-0fa4-44a6-b227-7ba1d7345015""}","https://test12345.live/?num_scrambled_semantic=8&num_scrambled_causal=4&num_scrambled_schematic=4&participantId=ECDF8D4F17D94CF49AFDAB1B1125634A&assignmentId=2b3b1445-8fa6-4c95-aaa6-70d3ce2e6ab6&projectId=5e631737-0fa4-44a6-b227-7ba1d7345015","ECDF8D4F17D94CF49AFDAB1B1125634A-2025-05-27-18-40-31","","null","","images/semantic_sequence/visiting_cities_semantic/visiting_cities_semantic_ten.png","null","",""
"","","","","","image-button-response","56","554126","0.0-10.0-1.0-1.9","ECDF8D4F17D94CF49AFDAB1B1125634A","ECDF8D4F17D94CF49AFDAB1B1125634A","2b3b1445-8fa6-4c95-aaa6-70d3ce2e6ab6","5e631737-0fa4-44a6-b227-7ba1d7345015","{""num_scrambled_semantic"":""8"",""num_scrambled_causal"":""4"",""num_scrambled_schematic"":""4"",""participantId"":""ECDF8D4F17D94CF49AFDAB1B1125634A"",""assignmentId"":""2b3b1445-8fa6-4c95-aaa6-70d3ce2e6ab6"",""projectId"":""5e631737-0fa4-44a6-b227-7ba1d7345015""}","https://test12345.live/?num_scrambled_semantic=8&num_scrambled_causal=4&num_scrambled_schematic=4&participantId=ECDF8D4F17D94CF49AFDAB1B1125634A&assignmentId=2b3b1445-8fa6-4c95-aaa6-70d3ce2e6ab6&projectId=5e631737-0fa4-44a6-b227-7ba1d7345015","ECDF8D4F17D94CF49AFDAB1B1125634A-2025-05-27-18-40-31","","null","","images/semantic_sequence/visiting_cities_semantic/visiting_cities_semantic_ten.png","null","",""
"","","","","","image-button-response","57","555943","0.0-10.0-1.0-2.9","ECDF8D4F17D94CF49AFDAB1B1125634A","ECDF8D4F17D94CF49AFDAB1B1125634A","2b3b1445-8fa6-4c95-aaa6-70d3ce2e6ab6","5e631737-0fa4-44a6-b227-7ba1d7345015","{""num_scrambled_semantic"":""8"",""num_scrambled_causal"":""4"",""num_scrambled_schematic"":""4"",""participantId"":""ECDF8D4F17D94CF49AFDAB1B1125634A"",""assignmentId"":""2b3b1445-8fa6-4c95-aaa6-70d3ce2e6ab6"",""projectId"":""5e631737-0fa4-44a6-b227-7ba1d7345015""}","https://test12345.live/?num_scrambled_semantic=8&num_scrambled_causal=4&num_scrambled_schematic=4&participantId=ECDF8D4F17D94CF49AFDAB1B1125634A&assignmentId=2b3b1445-8fa6-4c95-aaa6-70d3ce2e6ab6&projectId=5e631737-0fa4-44a6-b227-7ba1d7345015","ECDF8D4F17D94CF49AFDAB1B1125634A-2025-05-27-18-40-31","","null","","[]","null","",""
"","","","","","html-audio-response","58","588668","0.0-11.0","ECDF8D4F17D94CF49AFDAB1B1125634A","ECDF8D4F17D94CF49AFDAB1B1125634A","2b3b1445-8fa6-4c95-aaa6-70d3ce2e6ab6","5e631737-0fa4-44a6-b227-7ba1d7345015","{""num_scrambled_semantic"":""8"",""num_scrambled_causal"":""4"",""num_scrambled_schematic"":""4"",""participantId"":""ECDF8D4F17D94CF49AFDAB1B1125634A"",""assignmentId"":""2b3b1445-8fa6-4c95-aaa6-70d3ce2e6ab6"",""projectId"":""5e631737-0fa4-44a6-b227-7ba1d7345015""}","https://test12345.live/?num_scrambled_semantic=8&num_scrambled_causal=4&num_scrambled_schematic=4&participantId=ECDF8D4F17D94CF49AFDAB1B1125634A&assignmentId=2b3b1445-8fa6-4c95-aaa6-70d3ce2e6ab6&projectId=5e631737-0fa4-44a6-b227-7ba1d7345015","ECDF8D4F17D94CF49AFDAB1B1125634A-2025-05-27-18-40-31","","7548","","[""<span style=\""color: red; font-size: 24px\""> NOW RECORDING</span><p>Please say out loud all the images you saw, in the exact order you saw them. Try to recall as many images as you can, but remember: getting the order right is more important than the number of images you recall.</p>""]","","2","visiting_cities_semantic"
"","","","","","image-button-response","59","594687","0.0-12.0-0.0","ECDF8D4F17D94CF49AFDAB1B1125634A","ECDF8D4F17D94CF49AFDAB1B1125634A","2b3b1445-8fa6-4c95-aaa6-70d3ce2e6ab6","5e631737-0fa4-44a6-b227-7ba1d7345015","{""num_scrambled_semantic"":""8"",""num_scrambled_causal"":""4"",""num_scrambled_schematic"":""4"",""participantId"":""ECDF8D4F17D94CF49AFDAB1B1125634A"",""assignmentId"":""2b3b1445-8fa6-4c95-aaa6-70d3ce2e6ab6"",""projectId"":""5e631737-0fa4-44a6-b227-7ba1d7345015""}","https://test12345.live/?num_scrambled_semantic=8&num_scrambled_causal=4&num_scrambled_schematic=4&participantId=ECDF8D4F17D94CF49AFDAB1B1125634A&assignmentId=2b3b1445-8fa6-4c95-aaa6-70d3ce2e6ab6&projectId=5e631737-0fa4-44a6-b227-7ba1d7345015","ECDF8D4F17D94CF49AFDAB1B1125634A-2025-05-27-18-40-31","","null","","images/schematic_sequence/supermarket_scheme/supermarket_scheme_0.png","null","",""
"","","","","","image-button-response","60","599199","0.0-12.0-1.0-0.0","ECDF8D4F17D94CF49AFDAB1B1125634A","ECDF8D4F17D94CF49AFDAB1B1125634A","2b3b1445-8fa6-4c95-aaa6-70d3ce2e6ab6","5e631737-0fa4-44a6-b227-7ba1d7345015","{""num_scrambled_semantic"":""8"",""num_scrambled_causal"":""4"",""num_scrambled_schematic"":""4"",""participantId"":""ECDF8D4F17D94CF49AFDAB1B1125634A"",""assignmentId"":""2b3b1445-8fa6-4c95-aaa6-70d3ce2e6ab6"",""projectId"":""5e631737-0fa4-44a6-b227-7ba1d7345015""}","https://test12345.live/?num_scrambled_semantic=8&num_scrambled_causal=4&num_scrambled_schematic=4&participantId=ECDF8D4F17D94CF49AFDAB1B1125634A&assignmentId=2b3b1445-8fa6-4c95-aaa6-70d3ce2e6ab6&projectId=5e631737-0fa4-44a6-b227-7ba1d7345015","ECDF8D4F17D94CF49AFDAB1B1125634A-2025-05-27-18-40-31","","null","","images/schematic_sequence/supermarket_scheme/supermarket_scheme_7.png","null","",""
"","","","","","image-button-response","61","603214","0.0-12.0-1.0-1.0","ECDF8D4F17D94CF49AFDAB1B1125634A","ECDF8D4F17D94CF49AFDAB1B1125634A","2b3b1445-8fa6-4c95-aaa6-70d3ce2e6ab6","5e631737-0fa4-44a6-b227-7ba1d7345015","{""num_scrambled_semantic"":""8"",""num_scrambled_causal"":""4"",""num_scrambled_schematic"":""4"",""participantId"":""ECDF8D4F17D94CF49AFDAB1B1125634A"",""assignmentId"":""2b3b1445-8fa6-4c95-aaa6-70d3ce2e6ab6"",""projectId"":""5e631737-0fa4-44a6-b227-7ba1d7345015""}","https://test12345.live/?num_scrambled_semantic=8&num_scrambled_causal=4&num_scrambled_schematic=4&participantId=ECDF8D4F17D94CF49AFDAB1B1125634A&assignmentId=2b3b1445-8fa6-4c95-aaa6-70d3ce2e6ab6&projectId=5e631737-0fa4-44a6-b227-7ba1d7345015","ECDF8D4F17D94CF49AFDAB1B1125634A-2025-05-27-18-40-31","","null","","images/schematic_sequence/supermarket_scheme/supermarket_scheme_7.png","null","",""
"","","","","","image-button-response","62","605028","0.0-12.0-1.0-2.0","ECDF8D4F17D94CF49AFDAB1B1125634A","ECDF8D4F17D94CF49AFDAB1B1125634A","2b3b1445-8fa6-4c95-aaa6-70d3ce2e6ab6","5e631737-0fa4-44a6-b227-7ba1d7345015","{""num_scrambled_semantic"":""8"",""num_scrambled_causal"":""4"",""num_scrambled_schematic"":""4"",""participantId"":""ECDF8D4F17D94CF49AFDAB1B1125634A"",""assignmentId"":""2b3b1445-8fa6-4c95-aaa6-70d3ce2e6ab6"",""projectId"":""5e631737-0fa4-44a6-b227-7ba1d7345015""}","https://test12345.live/?num_scrambled_semantic=8&num_scrambled_causal=4&num_scrambled_schematic=4&participantId=ECDF8D4F17D94CF49AFDAB1B1125634A&assignmentId=2b3b1445-8fa6-4c95-aaa6-70d3ce2e6ab6&projectId=5e631737-0fa4-44a6-b227-7ba1d7345015","ECDF8D4F17D94CF49AFDAB1B1125634A-2025-05-27-18-40-31","","null","","[]","null","",""
"","","","","","image-button-response","63","609543","0.0-12.0-1.0-0.1","ECDF8D4F17D94CF49AFDAB1B1125634A","ECDF8D4F17D94CF49AFDAB1B1125634A","2b3b1445-8fa6-4c95-aaa6-70d3ce2e6ab6","5e631737-0fa4-44a6-b227-7ba1d7345015","{""num_scrambled_semantic"":""8"",""num_scrambled_causal"":""4"",""num_scrambled_schematic"":""4"",""participantId"":""ECDF8D4F17D94CF49AFDAB1B1125634A"",""assignmentId"":""2b3b1445-8fa6-4c95-aaa6-70d3ce2e6ab6"",""projectId"":""5e631737-0fa4-44a6-b227-7ba1d7345015""}","https://test12345.live/?num_scrambled_semantic=8&num_scrambled_causal=4&num_scrambled_schematic=4&participantId=ECDF8D4F17D94CF49AFDAB1B1125634A&assignmentId=2b3b1445-8fa6-4c95-aaa6-70d3ce2e6ab6&projectId=5e631737-0fa4-44a6-b227-7ba1d7345015","ECDF8D4F17D94CF49AFDAB1B1125634A-2025-05-27-18-40-31","","null","","images/schematic_sequence/supermarket_scheme/supermarket_scheme_5.png","null","",""
"","","","","","image-button-response","64","613555","0.0-12.0-1.0-1.1","ECDF8D4F17D94CF49AFDAB1B1125634A","ECDF8D4F17D94CF49AFDAB1B1125634A","2b3b1445-8fa6-4c95-aaa6-70d3ce2e6ab6","5e631737-0fa4-44a6-b227-7ba1d7345015","{""num_scrambled_semantic"":""8"",""num_scrambled_causal"":""4"",""num_scrambled_schematic"":""4"",""participantId"":""ECDF8D4F17D94CF49AFDAB1B1125634A"",""assignmentId"":""2b3b1445-8fa6-4c95-aaa6-70d3ce2e6ab6"",""projectId"":""5e631737-0fa4-44a6-b227-7ba1d7345015""}","https://test12345.live/?num_scrambled_semantic=8&num_scrambled_causal=4&num_scrambled_schematic=4&participantId=ECDF8D4F17D94CF49AFDAB1B1125634A&assignmentId=2b3b1445-8fa6-4c95-aaa6-70d3ce2e6ab6&projectId=5e631737-0fa4-44a6-b227-7ba1d7345015","ECDF8D4F17D94CF49AFDAB1B1125634A-2025-05-27-18-40-31","","null","","images/schematic_sequence/supermarket_scheme/supermarket_scheme_5.png","null","",""
"","","","","","image-button-response","65","615370","0.0-12.0-1.0-2.1","ECDF8D4F17D94CF49AFDAB1B1125634A","ECDF8D4F17D94CF49AFDAB1B1125634A","2b3b1445-8fa6-4c95-aaa6-70d3ce2e6ab6","5e631737-0fa4-44a6-b227-7ba1d7345015","{""num_scrambled_semantic"":""8"",""num_scrambled_causal"":""4"",""num_scrambled_schematic"":""4"",""participantId"":""ECDF8D4F17D94CF49AFDAB1B1125634A"",""assignmentId"":""2b3b1445-8fa6-4c95-aaa6-70d3ce2e6ab6"",""projectId"":""5e631737-0fa4-44a6-b227-7ba1d7345015""}","https://test12345.live/?num_scrambled_semantic=8&num_scrambled_causal=4&num_scrambled_schematic=4&participantId=ECDF8D4F17D94CF49AFDAB1B1125634A&assignmentId=2b3b1445-8fa6-4c95-aaa6-70d3ce2e6ab6&projectId=5e631737-0fa4-44a6-b227-7ba1d7345015","ECDF8D4F17D94CF49AFDAB1B1125634A-2025-05-27-18-40-31","","null","","[]","null","",""
"","","","","","image-button-response","66","619879","0.0-12.0-1.0-0.2","ECDF8D4F17D94CF49AFDAB1B1125634A","ECDF8D4F17D94CF49AFDAB1B1125634A","2b3b1445-8fa6-4c95-aaa6-70d3ce2e6ab6","5e631737-0fa4-44a6-b227-7ba1d7345015","{""num_scrambled_semantic"":""8"",""num_scrambled_causal"":""4"",""num_scrambled_schematic"":""4"",""participantId"":""ECDF8D4F17D94CF49AFDAB1B1125634A"",""assignmentId"":""2b3b1445-8fa6-4c95-aaa6-70d3ce2e6ab6"",""projectId"":""5e631737-0fa4-44a6-b227-7ba1d7345015""}","https://test12345.live/?num_scrambled_semantic=8&num_scrambled_causal=4&num_scrambled_schematic=4&participantId=ECDF8D4F17D94CF49AFDAB1B1125634A&assignmentId=2b3b1445-8fa6-4c95-aaa6-70d3ce2e6ab6&projectId=5e631737-0fa4-44a6-b227-7ba1d7345015","ECDF8D4F17D94CF49AFDAB1B1125634A-2025-05-27-18-40-31","","null","","images/schematic_sequence/supermarket_scheme/supermarket_scheme_2.png","null","",""
"","","","","","image-button-response","67","623100","0.0-12.0-1.0-1.2","ECDF8D4F17D94CF49AFDAB1B1125634A","ECDF8D4F17D94CF49AFDAB1B1125634A","2b3b1445-8fa6-4c95-aaa6-70d3ce2e6ab6","5e631737-0fa4-44a6-b227-7ba1d7345015","{""num_scrambled_semantic"":""8"",""num_scrambled_causal"":""4"",""num_scrambled_schematic"":""4"",""participantId"":""ECDF8D4F17D94CF49AFDAB1B1125634A"",""assignmentId"":""2b3b1445-8fa6-4c95-aaa6-70d3ce2e6ab6"",""projectId"":""5e631737-0fa4-44a6-b227-7ba1d7345015""}","https://test12345.live/?num_scrambled_semantic=8&num_scrambled_causal=4&num_scrambled_schematic=4&participantId=ECDF8D4F17D94CF49AFDAB1B1125634A&assignmentId=2b3b1445-8fa6-4c95-aaa6-70d3ce2e6ab6&projectId=5e631737-0fa4-44a6-b227-7ba1d7345015","ECDF8D4F17D94CF49AFDAB1B1125634A-2025-05-27-18-40-31","","3217","","images/schematic_sequence/supermarket_scheme/supermarket_scheme_2.png","1","",""
"","","","","","image-button-response","68","624916","0.0-12.0-1.0-2.2","ECDF8D4F17D94CF49AFDAB1B1125634A","ECDF8D4F17D94CF49AFDAB1B1125634A","2b3b1445-8fa6-4c95-aaa6-70d3ce2e6ab6","5e631737-0fa4-44a6-b227-7ba1d7345015","{""num_scrambled_semantic"":""8"",""num_scrambled_causal"":""4"",""num_scrambled_schematic"":""4"",""participantId"":""ECDF8D4F17D94CF49AFDAB1B1125634A"",""assignmentId"":""2b3b1445-8fa6-4c95-aaa6-70d3ce2e6ab6"",""projectId"":""5e631737-0fa4-44a6-b227-7ba1d7345015""}","https://test12345.live/?num_scrambled_semantic=8&num_scrambled_causal=4&num_scrambled_schematic=4&participantId=ECDF8D4F17D94CF49AFDAB1B1125634A&assignmentId=2b3b1445-8fa6-4c95-aaa6-70d3ce2e6ab6&projectId=5e631737-0fa4-44a6-b227-7ba1d7345015","ECDF8D4F17D94CF49AFDAB1B1125634A-2025-05-27-18-40-31","","null","","[]","null","",""
"","","","","","image-button-response","69","629433","0.0-12.0-1.0-0.3","ECDF8D4F17D94CF49AFDAB1B1125634A","ECDF8D4F17D94CF49AFDAB1B1125634A","2b3b1445-8fa6-4c95-aaa6-70d3ce2e6ab6","5e631737-0fa4-44a6-b227-7ba1d7345015","{""num_scrambled_semantic"":""8"",""num_scrambled_causal"":""4"",""num_scrambled_schematic"":""4"",""participantId"":""ECDF8D4F17D94CF49AFDAB1B1125634A"",""assignmentId"":""2b3b1445-8fa6-4c95-aaa6-70d3ce2e6ab6"",""projectId"":""5e631737-0fa4-44a6-b227-7ba1d7345015""}","https://test12345.live/?num_scrambled_semantic=8&num_scrambled_causal=4&num_scrambled_schematic=4&participantId=ECDF8D4F17D94CF49AFDAB1B1125634A&assignmentId=2b3b1445-8fa6-4c95-aaa6-70d3ce2e6ab6&projectId=5e631737-0fa4-44a6-b227-7ba1d7345015","ECDF8D4F17D94CF49AFDAB1B1125634A-2025-05-27-18-40-31","","null","","images/schematic_sequence/supermarket_scheme/supermarket_scheme_9.png","null","",""
"","","","","","image-button-response","70","630901","0.0-12.0-1.0-1.3","ECDF8D4F17D94CF49AFDAB1B1125634A","ECDF8D4F17D94CF49AFDAB1B1125634A","2b3b1445-8fa6-4c95-aaa6-70d3ce2e6ab6","5e631737-0fa4-44a6-b227-7ba1d7345015","{""num_scrambled_semantic"":""8"",""num_scrambled_causal"":""4"",""num_scrambled_schematic"":""4"",""participantId"":""ECDF8D4F17D94CF49AFDAB1B1125634A"",""assignmentId"":""2b3b1445-8fa6-4c95-aaa6-70d3ce2e6ab6"",""projectId"":""5e631737-0fa4-44a6-b227-7ba1d7345015""}","https://test12345.live/?num_scrambled_semantic=8&num_scrambled_causal=4&num_scrambled_schematic=4&participantId=ECDF8D4F17D94CF49AFDAB1B1125634A&assignmentId=2b3b1445-8fa6-4c95-aaa6-70d3ce2e6ab6&projectId=5e631737-0fa4-44a6-b227-7ba1d7345015","ECDF8D4F17D94CF49AFDAB1B1125634A-2025-05-27-18-40-31","","1466","","images/schematic_sequence/supermarket_scheme/supermarket_scheme_9.png","0","",""
"","","","","","image-button-response","71","632708","0.0-12.0-1.0-2.3","ECDF8D4F17D94CF49AFDAB1B1125634A","ECDF8D4F17D94CF49AFDAB1B1125634A","2b3b1445-8fa6-4c95-aaa6-70d3ce2e6ab6","5e631737-0fa4-44a6-b227-7ba1d7345015","{""num_scrambled_semantic"":""8"",""num_scrambled_causal"":""4"",""num_scrambled_schematic"":""4"",""participantId"":""ECDF8D4F17D94CF49AFDAB1B1125634A"",""assignmentId"":""2b3b1445-8fa6-4c95-aaa6-70d3ce2e6ab6"",""projectId"":""5e631737-0fa4-44a6-b227-7ba1d7345015""}","https://test12345.live/?num_scrambled_semantic=8&num_scrambled_causal=4&num_scrambled_schematic=4&participantId=ECDF8D4F17D94CF49AFDAB1B1125634A&assignmentId=2b3b1445-8fa6-4c95-aaa6-70d3ce2e6ab6&projectId=5e631737-0fa4-44a6-b227-7ba1d7345015","ECDF8D4F17D94CF49AFDAB1B1125634A-2025-05-27-18-40-31","","null","","[]","null","",""
"","","","","","image-button-response","72","637220","0.0-12.0-1.0-0.4","ECDF8D4F17D94CF49AFDAB1B1125634A","ECDF8D4F17D94CF49AFDAB1B1125634A","2b3b1445-8fa6-4c95-aaa6-70d3ce2e6ab6","5e631737-0fa4-44a6-b227-7ba1d7345015","{""num_scrambled_semantic"":""8"",""num_scrambled_causal"":""4"",""num_scrambled_schematic"":""4"",""participantId"":""ECDF8D4F17D94CF49AFDAB1B1125634A"",""assignmentId"":""2b3b1445-8fa6-4c95-aaa6-70d3ce2e6ab6"",""projectId"":""5e631737-0fa4-44a6-b227-7ba1d7345015""}","https://test12345.live/?num_scrambled_semantic=8&num_scrambled_causal=4&num_scrambled_schematic=4&participantId=ECDF8D4F17D94CF49AFDAB1B1125634A&assignmentId=2b3b1445-8fa6-4c95-aaa6-70d3ce2e6ab6&projectId=5e631737-0fa4-44a6-b227-7ba1d7345015","ECDF8D4F17D94CF49AFDAB1B1125634A-2025-05-27-18-40-31","","null","","images/schematic_sequence/supermarket_scheme/supermarket_scheme_1.png","null","",""
"","","","","","image-button-response","73","639209","0.0-12.0-1.0-1.4","ECDF8D4F17D94CF49AFDAB1B1125634A","ECDF8D4F17D94CF49AFDAB1B1125634A","2b3b1445-8fa6-4c95-aaa6-70d3ce2e6ab6","5e631737-0fa4-44a6-b227-7ba1d7345015","{""num_scrambled_semantic"":""8"",""num_scrambled_causal"":""4"",""num_scrambled_schematic"":""4"",""participantId"":""ECDF8D4F17D94CF49AFDAB1B1125634A"",""assignmentId"":""2b3b1445-8fa6-4c95-aaa6-70d3ce2e6ab6"",""projectId"":""5e631737-0fa4-44a6-b227-7ba1d7345015""}","https://test12345.live/?num_scrambled_semantic=8&num_scrambled_causal=4&num_scrambled_schematic=4&participantId=ECDF8D4F17D94CF49AFDAB1B1125634A&assignmentId=2b3b1445-8fa6-4c95-aaa6-70d3ce2e6ab6&projectId=5e631737-0fa4-44a6-b227-7ba1d7345015","ECDF8D4F17D94CF49AFDAB1B1125634A-2025-05-27-18-40-31","","1987","","images/schematic_sequence/supermarket_scheme/supermarket_scheme_1.png","1","",""
"","","","","","image-button-response","74","641012","0.0-12.0-1.0-2.4","ECDF8D4F17D94CF49AFDAB1B1125634A","ECDF8D4F17D94CF49AFDAB1B1125634A","2b3b1445-8fa6-4c95-aaa6-70d3ce2e6ab6","5e631737-0fa4-44a6-b227-7ba1d7345015","{""num_scrambled_semantic"":""8"",""num_scrambled_causal"":""4"",""num_scrambled_schematic"":""4"",""participantId"":""ECDF8D4F17D94CF49AFDAB1B1125634A"",""assignmentId"":""2b3b1445-8fa6-4c95-aaa6-70d3ce2e6ab6"",""projectId"":""5e631737-0fa4-44a6-b227-7ba1d7345015""}","https://test12345.live/?num_scrambled_semantic=8&num_scrambled_causal=4&num_scrambled_schematic=4&participantId=ECDF8D4F17D94CF49AFDAB1B1125634A&assignmentId=2b3b1445-8fa6-4c95-aaa6-70d3ce2e6ab6&projectId=5e631737-0fa4-44a6-b227-7ba1d7345015","ECDF8D4F17D94CF49AFDAB1B1125634A-2025-05-27-18-40-31","","null","","[]","null","",""
"","","","","","image-button-response","75","645528","0.0-12.0-1.0-0.5","ECDF8D4F17D94CF49AFDAB1B1125634A","ECDF8D4F17D94CF49AFDAB1B1125634A","2b3b1445-8fa6-4c95-aaa6-70d3ce2e6ab6","5e631737-0fa4-44a6-b227-7ba1d7345015","{""num_scrambled_semantic"":""8"",""num_scrambled_causal"":""4"",""num_scrambled_schematic"":""4"",""participantId"":""ECDF8D4F17D94CF49AFDAB1B1125634A"",""assignmentId"":""2b3b1445-8fa6-4c95-aaa6-70d3ce2e6ab6"",""projectId"":""5e631737-0fa4-44a6-b227-7ba1d7345015""}","https://test12345.live/?num_scrambled_semantic=8&num_scrambled_causal=4&num_scrambled_schematic=4&participantId=ECDF8D4F17D94CF49AFDAB1B1125634A&assignmentId=2b3b1445-8fa6-4c95-aaa6-70d3ce2e6ab6&projectId=5e631737-0fa4-44a6-b227-7ba1d7345015","ECDF8D4F17D94CF49AFDAB1B1125634A-2025-05-27-18-40-31","","null","","images/schematic_sequence/supermarket_scheme/supermarket_scheme_6.png","null","",""
"","","","","","image-button-response","76","647328","0.0-12.0-1.0-1.5","ECDF8D4F17D94CF49AFDAB1B1125634A","ECDF8D4F17D94CF49AFDAB1B1125634A","2b3b1445-8fa6-4c95-aaa6-70d3ce2e6ab6","5e631737-0fa4-44a6-b227-7ba1d7345015","{""num_scrambled_semantic"":""8"",""num_scrambled_causal"":""4"",""num_scrambled_schematic"":""4"",""participantId"":""ECDF8D4F17D94CF49AFDAB1B1125634A"",""assignmentId"":""2b3b1445-8fa6-4c95-aaa6-70d3ce2e6ab6"",""projectId"":""5e631737-0fa4-44a6-b227-7ba1d7345015""}","https://test12345.live/?num_scrambled_semantic=8&num_scrambled_causal=4&num_scrambled_schematic=4&participantId=ECDF8D4F17D94CF49AFDAB1B1125634A&assignmentId=2b3b1445-8fa6-4c95-aaa6-70d3ce2e6ab6&projectId=5e631737-0fa4-44a6-b227-7ba1d7345015","ECDF8D4F17D94CF49AFDAB1B1125634A-2025-05-27-18-40-31","","1798","","images/schematic_sequence/supermarket_scheme/supermarket_scheme_6.png","0","",""
"","","","","","image-button-response","77","649145","0.0-12.0-1.0-2.5","ECDF8D4F17D94CF49AFDAB1B1125634A","ECDF8D4F17D94CF49AFDAB1B1125634A","2b3b1445-8fa6-4c95-aaa6-70d3ce2e6ab6","5e631737-0fa4-44a6-b227-7ba1d7345015","{""num_scrambled_semantic"":""8"",""num_scrambled_causal"":""4"",""num_scrambled_schematic"":""4"",""participantId"":""ECDF8D4F17D94CF49AFDAB1B1125634A"",""assignmentId"":""2b3b1445-8fa6-4c95-aaa6-70d3ce2e6ab6"",""projectId"":""5e631737-0fa4-44a6-b227-7ba1d7345015""}","https://test12345.live/?num_scrambled_semantic=8&num_scrambled_causal=4&num_scrambled_schematic=4&participantId=ECDF8D4F17D94CF49AFDAB1B1125634A&assignmentId=2b3b1445-8fa6-4c95-aaa6-70d3ce2e6ab6&projectId=5e631737-0fa4-44a6-b227-7ba1d7345015","ECDF8D4F17D94CF49AFDAB1B1125634A-2025-05-27-18-40-31","","null","","[]","null","",""
"","","","","","image-button-response","78","653663","0.0-12.0-1.0-0.6","ECDF8D4F17D94CF49AFDAB1B1125634A","ECDF8D4F17D94CF49AFDAB1B1125634A","2b3b1445-8fa6-4c95-aaa6-70d3ce2e6ab6","5e631737-0fa4-44a6-b227-7ba1d7345015","{""num_scrambled_semantic"":""8"",""num_scrambled_causal"":""4"",""num_scrambled_schematic"":""4"",""participantId"":""ECDF8D4F17D94CF49AFDAB1B1125634A"",""assignmentId"":""2b3b1445-8fa6-4c95-aaa6-70d3ce2e6ab6"",""projectId"":""5e631737-0fa4-44a6-b227-7ba1d7345015""}","https://test12345.live/?num_scrambled_semantic=8&num_scrambled_causal=4&num_scrambled_schematic=4&participantId=ECDF8D4F17D94CF49AFDAB1B1125634A&assignmentId=2b3b1445-8fa6-4c95-aaa6-70d3ce2e6ab6&projectId=5e631737-0fa4-44a6-b227-7ba1d7345015","ECDF8D4F17D94CF49AFDAB1B1125634A-2025-05-27-18-40-31","","null","","images/schematic_sequence/supermarket_scheme/supermarket_scheme_8.png","null","",""
"","","","","","image-button-response","79","655631","0.0-12.0-1.0-1.6","ECDF8D4F17D94CF49AFDAB1B1125634A","ECDF8D4F17D94CF49AFDAB1B1125634A","2b3b1445-8fa6-4c95-aaa6-70d3ce2e6ab6","5e631737-0fa4-44a6-b227-7ba1d7345015","{""num_scrambled_semantic"":""8"",""num_scrambled_causal"":""4"",""num_scrambled_schematic"":""4"",""participantId"":""ECDF8D4F17D94CF49AFDAB1B1125634A"",""assignmentId"":""2b3b1445-8fa6-4c95-aaa6-70d3ce2e6ab6"",""projectId"":""5e631737-0fa4-44a6-b227-7ba1d7345015""}","https://test12345.live/?num_scrambled_semantic=8&num_scrambled_causal=4&num_scrambled_schematic=4&participantId=ECDF8D4F17D94CF49AFDAB1B1125634A&assignmentId=2b3b1445-8fa6-4c95-aaa6-70d3ce2e6ab6&projectId=5e631737-0fa4-44a6-b227-7ba1d7345015","ECDF8D4F17D94CF49AFDAB1B1125634A-2025-05-27-18-40-31","","1966","","images/schematic_sequence/supermarket_scheme/supermarket_scheme_8.png","0","",""
"","","","","","image-button-response","80","657448","0.0-12.0-1.0-2.6","ECDF8D4F17D94CF49AFDAB1B1125634A","ECDF8D4F17D94CF49AFDAB1B1125634A","2b3b1445-8fa6-4c95-aaa6-70d3ce2e6ab6","5e631737-0fa4-44a6-b227-7ba1d7345015","{""num_scrambled_semantic"":""8"",""num_scrambled_causal"":""4"",""num_scrambled_schematic"":""4"",""participantId"":""ECDF8D4F17D94CF49AFDAB1B1125634A"",""assignmentId"":""2b3b1445-8fa6-4c95-aaa6-70d3ce2e6ab6"",""projectId"":""5e631737-0fa4-44a6-b227-7ba1d7345015""}","https://test12345.live/?num_scrambled_semantic=8&num_scrambled_causal=4&num_scrambled_schematic=4&participantId=ECDF8D4F17D94CF49AFDAB1B1125634A&assignmentId=2b3b1445-8fa6-4c95-aaa6-70d3ce2e6ab6&projectId=5e631737-0fa4-44a6-b227-7ba1d7345015","ECDF8D4F17D94CF49AFDAB1B1125634A-2025-05-27-18-40-31","","null","","[]","null","",""
"","","","","","image-button-response","81","661962","0.0-12.0-1.0-0.7","ECDF8D4F17D94CF49AFDAB1B1125634A","ECDF8D4F17D94CF49AFDAB1B1125634A","2b3b1445-8fa6-4c95-aaa6-70d3ce2e6ab6","5e631737-0fa4-44a6-b227-7ba1d7345015","{""num_scrambled_semantic"":""8"",""num_scrambled_causal"":""4"",""num_scrambled_schematic"":""4"",""participantId"":""ECDF8D4F17D94CF49AFDAB1B1125634A"",""assignmentId"":""2b3b1445-8fa6-4c95-aaa6-70d3ce2e6ab6"",""projectId"":""5e631737-0fa4-44a6-b227-7ba1d7345015""}","https://test12345.live/?num_scrambled_semantic=8&num_scrambled_causal=4&num_scrambled_schematic=4&participantId=ECDF8D4F17D94CF49AFDAB1B1125634A&assignmentId=2b3b1445-8fa6-4c95-aaa6-70d3ce2e6ab6&projectId=5e631737-0fa4-44a6-b227-7ba1d7345015","ECDF8D4F17D94CF49AFDAB1B1125634A-2025-05-27-18-40-31","","null","","images/schematic_sequence/supermarket_scheme/supermarket_scheme_4.png","null","",""
"","","","","","image-button-response","82","663796","0.0-12.0-1.0-1.7","ECDF8D4F17D94CF49AFDAB1B1125634A","ECDF8D4F17D94CF49AFDAB1B1125634A","2b3b1445-8fa6-4c95-aaa6-70d3ce2e6ab6","5e631737-0fa4-44a6-b227-7ba1d7345015","{""num_scrambled_semantic"":""8"",""num_scrambled_causal"":""4"",""num_scrambled_schematic"":""4"",""participantId"":""ECDF8D4F17D94CF49AFDAB1B1125634A"",""assignmentId"":""2b3b1445-8fa6-4c95-aaa6-70d3ce2e6ab6"",""projectId"":""5e631737-0fa4-44a6-b227-7ba1d7345015""}","https://test12345.live/?num_scrambled_semantic=8&num_scrambled_causal=4&num_scrambled_schematic=4&participantId=ECDF8D4F17D94CF49AFDAB1B1125634A&assignmentId=2b3b1445-8fa6-4c95-aaa6-70d3ce2e6ab6&projectId=5e631737-0fa4-44a6-b227-7ba1d7345015","ECDF8D4F17D94CF49AFDAB1B1125634A-2025-05-27-18-40-31","","1832","","images/schematic_sequence/supermarket_scheme/supermarket_scheme_4.png","0","",""
"","","","","","image-button-response","83","665611","0.0-12.0-1.0-2.7","ECDF8D4F17D94CF49AFDAB1B1125634A","ECDF8D4F17D94CF49AFDAB1B1125634A","2b3b1445-8fa6-4c95-aaa6-70d3ce2e6ab6","5e631737-0fa4-44a6-b227-7ba1d7345015","{""num_scrambled_semantic"":""8"",""num_scrambled_causal"":""4"",""num_scrambled_schematic"":""4"",""participantId"":""ECDF8D4F17D94CF49AFDAB1B1125634A"",""assignmentId"":""2b3b1445-8fa6-4c95-aaa6-70d3ce2e6ab6"",""projectId"":""5e631737-0fa4-44a6-b227-7ba1d7345015""}","https://test12345.live/?num_scrambled_semantic=8&num_scrambled_causal=4&num_scrambled_schematic=4&participantId=ECDF8D4F17D94CF49AFDAB1B1125634A&assignmentId=2b3b1445-8fa6-4c95-aaa6-70d3ce2e6ab6&projectId=5e631737-0fa4-44a6-b227-7ba1d7345015","ECDF8D4F17D94CF49AFDAB1B1125634A-2025-05-27-18-40-31","","null","","[]","null","",""
"","","","","","image-button-response","84","670123","0.0-12.0-1.0-0.8","ECDF8D4F17D94CF49AFDAB1B1125634A","ECDF8D4F17D94CF49AFDAB1B1125634A","2b3b1445-8fa6-4c95-aaa6-70d3ce2e6ab6","5e631737-0fa4-44a6-b227-7ba1d7345015","{""num_scrambled_semantic"":""8"",""num_scrambled_causal"":""4"",""num_scrambled_schematic"":""4"",""participantId"":""ECDF8D4F17D94CF49AFDAB1B1125634A"",""assignmentId"":""2b3b1445-8fa6-4c95-aaa6-70d3ce2e6ab6"",""projectId"":""5e631737-0fa4-44a6-b227-7ba1d7345015""}","https://test12345.live/?num_scrambled_semantic=8&num_scrambled_causal=4&num_scrambled_schematic=4&participantId=ECDF8D4F17D94CF49AFDAB1B1125634A&assignmentId=2b3b1445-8fa6-4c95-aaa6-70d3ce2e6ab6&projectId=5e631737-0fa4-44a6-b227-7ba1d7345015","ECDF8D4F17D94CF49AFDAB1B1125634A-2025-05-27-18-40-31","","null","","images/schematic_sequence/supermarket_scheme/supermarket_scheme_ten.png","null","",""
"","","","","","image-button-response","85","673523","0.0-12.0-1.0-1.8","ECDF8D4F17D94CF49AFDAB1B1125634A","ECDF8D4F17D94CF49AFDAB1B1125634A","2b3b1445-8fa6-4c95-aaa6-70d3ce2e6ab6","5e631737-0fa4-44a6-b227-7ba1d7345015","{""num_scrambled_semantic"":""8"",""num_scrambled_causal"":""4"",""num_scrambled_schematic"":""4"",""participantId"":""ECDF8D4F17D94CF49AFDAB1B1125634A"",""assignmentId"":""2b3b1445-8fa6-4c95-aaa6-70d3ce2e6ab6"",""projectId"":""5e631737-0fa4-44a6-b227-7ba1d7345015""}","https://test12345.live/?num_scrambled_semantic=8&num_scrambled_causal=4&num_scrambled_schematic=4&participantId=ECDF8D4F17D94CF49AFDAB1B1125634A&assignmentId=2b3b1445-8fa6-4c95-aaa6-70d3ce2e6ab6&projectId=5e631737-0fa4-44a6-b227-7ba1d7345015","ECDF8D4F17D94CF49AFDAB1B1125634A-2025-05-27-18-40-31","","3397","","images/schematic_sequence/supermarket_scheme/supermarket_scheme_ten.png","0","",""
"","","","","","image-button-response","86","675334","0.0-12.0-1.0-2.8","ECDF8D4F17D94CF49AFDAB1B1125634A","ECDF8D4F17D94CF49AFDAB1B1125634A","2b3b1445-8fa6-4c95-aaa6-70d3ce2e6ab6","5e631737-0fa4-44a6-b227-7ba1d7345015","{""num_scrambled_semantic"":""8"",""num_scrambled_causal"":""4"",""num_scrambled_schematic"":""4"",""participantId"":""ECDF8D4F17D94CF49AFDAB1B1125634A"",""assignmentId"":""2b3b1445-8fa6-4c95-aaa6-70d3ce2e6ab6"",""projectId"":""5e631737-0fa4-44a6-b227-7ba1d7345015""}","https://test12345.live/?num_scrambled_semantic=8&num_scrambled_causal=4&num_scrambled_schematic=4&participantId=ECDF8D4F17D94CF49AFDAB1B1125634A&assignmentId=2b3b1445-8fa6-4c95-aaa6-70d3ce2e6ab6&projectId=5e631737-0fa4-44a6-b227-7ba1d7345015","ECDF8D4F17D94CF49AFDAB1B1125634A-2025-05-27-18-40-31","","null","","[]","null","",""
"","","","","","image-button-response","87","679842","0.0-12.0-1.0-0.9","ECDF8D4F17D94CF49AFDAB1B1125634A","ECDF8D4F17D94CF49AFDAB1B1125634A","2b3b1445-8fa6-4c95-aaa6-70d3ce2e6ab6","5e631737-0fa4-44a6-b227-7ba1d7345015","{""num_scrambled_semantic"":""8"",""num_scrambled_causal"":""4"",""num_scrambled_schematic"":""4"",""participantId"":""ECDF8D4F17D94CF49AFDAB1B1125634A"",""assignmentId"":""2b3b1445-8fa6-4c95-aaa6-70d3ce2e6ab6"",""projectId"":""5e631737-0fa4-44a6-b227-7ba1d7345015""}","https://test12345.live/?num_scrambled_semantic=8&num_scrambled_causal=4&num_scrambled_schematic=4&participantId=ECDF8D4F17D94CF49AFDAB1B1125634A&assignmentId=2b3b1445-8fa6-4c95-aaa6-70d3ce2e6ab6&projectId=5e631737-0fa4-44a6-b227-7ba1d7345015","ECDF8D4F17D94CF49AFDAB1B1125634A-2025-05-27-18-40-31","","null","","images/schematic_sequence/supermarket_scheme/supermarket_scheme_3.png","null","",""
"","","","","","image-button-response","88","681578","0.0-12.0-1.0-1.9","ECDF8D4F17D94CF49AFDAB1B1125634A","ECDF8D4F17D94CF49AFDAB1B1125634A","2b3b1445-8fa6-4c95-aaa6-70d3ce2e6ab6","5e631737-0fa4-44a6-b227-7ba1d7345015","{""num_scrambled_semantic"":""8"",""num_scrambled_causal"":""4"",""num_scrambled_schematic"":""4"",""participantId"":""ECDF8D4F17D94CF49AFDAB1B1125634A"",""assignmentId"":""2b3b1445-8fa6-4c95-aaa6-70d3ce2e6ab6"",""projectId"":""5e631737-0fa4-44a6-b227-7ba1d7345015""}","https://test12345.live/?num_scrambled_semantic=8&num_scrambled_causal=4&num_scrambled_schematic=4&participantId=ECDF8D4F17D94CF49AFDAB1B1125634A&assignmentId=2b3b1445-8fa6-4c95-aaa6-70d3ce2e6ab6&projectId=5e631737-0fa4-44a6-b227-7ba1d7345015","ECDF8D4F17D94CF49AFDAB1B1125634A-2025-05-27-18-40-31","","1733","","images/schematic_sequence/supermarket_scheme/supermarket_scheme_3.png","1","",""
"","","","","","image-button-response","89","683383","0.0-12.0-1.0-2.9","ECDF8D4F17D94CF49AFDAB1B1125634A","ECDF8D4F17D94CF49AFDAB1B1125634A","2b3b1445-8fa6-4c95-aaa6-70d3ce2e6ab6","5e631737-0fa4-44a6-b227-7ba1d7345015","{""num_scrambled_semantic"":""8"",""num_scrambled_causal"":""4"",""num_scrambled_schematic"":""4"",""participantId"":""ECDF8D4F17D94CF49AFDAB1B1125634A"",""assignmentId"":""2b3b1445-8fa6-4c95-aaa6-70d3ce2e6ab6"",""projectId"":""5e631737-0fa4-44a6-b227-7ba1d7345015""}","https://test12345.live/?num_scrambled_semantic=8&num_scrambled_causal=4&num_scrambled_schematic=4&participantId=ECDF8D4F17D94CF49AFDAB1B1125634A&assignmentId=2b3b1445-8fa6-4c95-aaa6-70d3ce2e6ab6&projectId=5e631737-0fa4-44a6-b227-7ba1d7345015","ECDF8D4F17D94CF49AFDAB1B1125634A-2025-05-27-18-40-31","","null","","[]","null","",""
"","","","","","html-audio-response","90","711441","0.0-13.0","ECDF8D4F17D94CF49AFDAB1B1125634A","ECDF8D4F17D94CF49AFDAB1B1125634A","2b3b1445-8fa6-4c95-aaa6-70d3ce2e6ab6","5e631737-0fa4-44a6-b227-7ba1d7345015","{""num_scrambled_semantic"":""8"",""num_scrambled_causal"":""4"",""num_scrambled_schematic"":""4"",""participantId"":""ECDF8D4F17D94CF49AFDAB1B1125634A"",""assignmentId"":""2b3b1445-8fa6-4c95-aaa6-70d3ce2e6ab6"",""projectId"":""5e631737-0fa4-44a6-b227-7ba1d7345015""}","https://test12345.live/?num_scrambled_semantic=8&num_scrambled_causal=4&num_scrambled_schematic=4&participantId=ECDF8D4F17D94CF49AFDAB1B1125634A&assignmentId=2b3b1445-8fa6-4c95-aaa6-70d3ce2e6ab6&projectId=5e631737-0fa4-44a6-b227-7ba1d7345015","ECDF8D4F17D94CF49AFDAB1B1125634A-2025-05-27-18-40-31","","2141","","[""<span style=\""color: red; font-size: 24px\""> NOW RECORDING</span><p>Please say out loud all the images you saw, in the exact order you saw them. Try to recall as many images as you can, but remember: getting the order right is more important than the number of images you recall.</p>""]","","3","supermarket_scheme"
"","","","","","image-button-response","91","717459","0.0-14.0-0.0","ECDF8D4F17D94CF49AFDAB1B1125634A","ECDF8D4F17D94CF49AFDAB1B1125634A","2b3b1445-8fa6-4c95-aaa6-70d3ce2e6ab6","5e631737-0fa4-44a6-b227-7ba1d7345015","{""num_scrambled_semantic"":""8"",""num_scrambled_causal"":""4"",""num_scrambled_schematic"":""4"",""participantId"":""ECDF8D4F17D94CF49AFDAB1B1125634A"",""assignmentId"":""2b3b1445-8fa6-4c95-aaa6-70d3ce2e6ab6"",""projectId"":""5e631737-0fa4-44a6-b227-7ba1d7345015""}","https://test12345.live/?num_scrambled_semantic=8&num_scrambled_causal=4&num_scrambled_schematic=4&participantId=ECDF8D4F17D94CF49AFDAB1B1125634A&assignmentId=2b3b1445-8fa6-4c95-aaa6-70d3ce2e6ab6&projectId=5e631737-0fa4-44a6-b227-7ba1d7345015","ECDF8D4F17D94CF49AFDAB1B1125634A-2025-05-27-18-40-31","","null","","images/schematic_sequence/interview_scheme/interview_scheme_0.png","null","",""
"","","","","","image-button-response","92","721974","0.0-14.0-1.0-0.0","ECDF8D4F17D94CF49AFDAB1B1125634A","ECDF8D4F17D94CF49AFDAB1B1125634A","2b3b1445-8fa6-4c95-aaa6-70d3ce2e6ab6","5e631737-0fa4-44a6-b227-7ba1d7345015","{""num_scrambled_semantic"":""8"",""num_scrambled_causal"":""4"",""num_scrambled_schematic"":""4"",""participantId"":""ECDF8D4F17D94CF49AFDAB1B1125634A"",""assignmentId"":""2b3b1445-8fa6-4c95-aaa6-70d3ce2e6ab6"",""projectId"":""5e631737-0fa4-44a6-b227-7ba1d7345015""}","https://test12345.live/?num_scrambled_semantic=8&num_scrambled_causal=4&num_scrambled_schematic=4&participantId=ECDF8D4F17D94CF49AFDAB1B1125634A&assignmentId=2b3b1445-8fa6-4c95-aaa6-70d3ce2e6ab6&projectId=5e631737-0fa4-44a6-b227-7ba1d7345015","ECDF8D4F17D94CF49AFDAB1B1125634A-2025-05-27-18-40-31","","null","","images/schematic_sequence/interview_scheme/interview_scheme_1.png","null","",""
"","","","","","image-button-response","93","724546","0.0-14.0-1.0-1.0","ECDF8D4F17D94CF49AFDAB1B1125634A","ECDF8D4F17D94CF49AFDAB1B1125634A","2b3b1445-8fa6-4c95-aaa6-70d3ce2e6ab6","5e631737-0fa4-44a6-b227-7ba1d7345015","{""num_scrambled_semantic"":""8"",""num_scrambled_causal"":""4"",""num_scrambled_schematic"":""4"",""participantId"":""ECDF8D4F17D94CF49AFDAB1B1125634A"",""assignmentId"":""2b3b1445-8fa6-4c95-aaa6-70d3ce2e6ab6"",""projectId"":""5e631737-0fa4-44a6-b227-7ba1d7345015""}","https://test12345.live/?num_scrambled_semantic=8&num_scrambled_causal=4&num_scrambled_schematic=4&participantId=ECDF8D4F17D94CF49AFDAB1B1125634A&assignmentId=2b3b1445-8fa6-4c95-aaa6-70d3ce2e6ab6&projectId=5e631737-0fa4-44a6-b227-7ba1d7345015","ECDF8D4F17D94CF49AFDAB1B1125634A-2025-05-27-18-40-31","","2569","","images/schematic_sequence/interview_scheme/interview_scheme_1.png","1","",""
"","","","","","image-button-response","94","726353","0.0-14.0-1.0-2.0","ECDF8D4F17D94CF49AFDAB1B1125634A","ECDF8D4F17D94CF49AFDAB1B1125634A","2b3b1445-8fa6-4c95-aaa6-70d3ce2e6ab6","5e631737-0fa4-44a6-b227-7ba1d7345015","{""num_scrambled_semantic"":""8"",""num_scrambled_causal"":""4"",""num_scrambled_schematic"":""4"",""participantId"":""ECDF8D4F17D94CF49AFDAB1B1125634A"",""assignmentId"":""2b3b1445-8fa6-4c95-aaa6-70d3ce2e6ab6"",""projectId"":""5e631737-0fa4-44a6-b227-7ba1d7345015""}","https://test12345.live/?num_scrambled_semantic=8&num_scrambled_causal=4&num_scrambled_schematic=4&participantId=ECDF8D4F17D94CF49AFDAB1B1125634A&assignmentId=2b3b1445-8fa6-4c95-aaa6-70d3ce2e6ab6&projectId=5e631737-0fa4-44a6-b227-7ba1d7345015","ECDF8D4F17D94CF49AFDAB1B1125634A-2025-05-27-18-40-31","","null","","[]","null","",""
"","","","","","image-button-response","95","730869","0.0-14.0-1.0-0.1","ECDF8D4F17D94CF49AFDAB1B1125634A","ECDF8D4F17D94CF49AFDAB1B1125634A","2b3b1445-8fa6-4c95-aaa6-70d3ce2e6ab6","5e631737-0fa4-44a6-b227-7ba1d7345015","{""num_scrambled_semantic"":""8"",""num_scrambled_causal"":""4"",""num_scrambled_schematic"":""4"",""participantId"":""ECDF8D4F17D94CF49AFDAB1B1125634A"",""assignmentId"":""2b3b1445-8fa6-4c95-aaa6-70d3ce2e6ab6"",""projectId"":""5e631737-0fa4-44a6-b227-7ba1d7345015""}","https://test12345.live/?num_scrambled_semantic=8&num_scrambled_causal=4&num_scrambled_schematic=4&participantId=ECDF8D4F17D94CF49AFDAB1B1125634A&assignmentId=2b3b1445-8fa6-4c95-aaa6-70d3ce2e6ab6&projectId=5e631737-0fa4-44a6-b227-7ba1d7345015","ECDF8D4F17D94CF49AFDAB1B1125634A-2025-05-27-18-40-31","","null","","images/schematic_sequence/interview_scheme/interview_scheme_2.png","null","",""
"","","","","","image-button-response","96","733866","0.0-14.0-1.0-1.1","ECDF8D4F17D94CF49AFDAB1B1125634A","ECDF8D4F17D94CF49AFDAB1B1125634A","2b3b1445-8fa6-4c95-aaa6-70d3ce2e6ab6","5e631737-0fa4-44a6-b227-7ba1d7345015","{""num_scrambled_semantic"":""8"",""num_scrambled_causal"":""4"",""num_scrambled_schematic"":""4"",""participantId"":""ECDF8D4F17D94CF49AFDAB1B1125634A"",""assignmentId"":""2b3b1445-8fa6-4c95-aaa6-70d3ce2e6ab6"",""projectId"":""5e631737-0fa4-44a6-b227-7ba1d7345015""}","https://test12345.live/?num_scrambled_semantic=8&num_scrambled_causal=4&num_scrambled_schematic=4&participantId=ECDF8D4F17D94CF49AFDAB1B1125634A&assignmentId=2b3b1445-8fa6-4c95-aaa6-70d3ce2e6ab6&projectId=5e631737-0fa4-44a6-b227-7ba1d7345015","ECDF8D4F17D94CF49AFDAB1B1125634A-2025-05-27-18-40-31","","2993","","images/schematic_sequence/interview_scheme/interview_scheme_2.png","1","",""
"","","","","","image-button-response","97","735677","0.0-14.0-1.0-2.1","ECDF8D4F17D94CF49AFDAB1B1125634A","ECDF8D4F17D94CF49AFDAB1B1125634A","2b3b1445-8fa6-4c95-aaa6-70d3ce2e6ab6","5e631737-0fa4-44a6-b227-7ba1d7345015","{""num_scrambled_semantic"":""8"",""num_scrambled_causal"":""4"",""num_scrambled_schematic"":""4"",""participantId"":""ECDF8D4F17D94CF49AFDAB1B1125634A"",""assignmentId"":""2b3b1445-8fa6-4c95-aaa6-70d3ce2e6ab6"",""projectId"":""5e631737-0fa4-44a6-b227-7ba1d7345015""}","https://test12345.live/?num_scrambled_semantic=8&num_scrambled_causal=4&num_scrambled_schematic=4&participantId=ECDF8D4F17D94CF49AFDAB1B1125634A&assignmentId=2b3b1445-8fa6-4c95-aaa6-70d3ce2e6ab6&projectId=5e631737-0fa4-44a6-b227-7ba1d7345015","ECDF8D4F17D94CF49AFDAB1B1125634A-2025-05-27-18-40-31","","null","","[]","null","",""
"","","","","","image-button-response","98","740187","0.0-14.0-1.0-0.2","ECDF8D4F17D94CF49AFDAB1B1125634A","ECDF8D4F17D94CF49AFDAB1B1125634A","2b3b1445-8fa6-4c95-aaa6-70d3ce2e6ab6","5e631737-0fa4-44a6-b227-7ba1d7345015","{""num_scrambled_semantic"":""8"",""num_scrambled_causal"":""4"",""num_scrambled_schematic"":""4"",""participantId"":""ECDF8D4F17D94CF49AFDAB1B1125634A"",""assignmentId"":""2b3b1445-8fa6-4c95-aaa6-70d3ce2e6ab6"",""projectId"":""5e631737-0fa4-44a6-b227-7ba1d7345015""}","https://test12345.live/?num_scrambled_semantic=8&num_scrambled_causal=4&num_scrambled_schematic=4&participantId=ECDF8D4F17D94CF49AFDAB1B1125634A&assignmentId=2b3b1445-8fa6-4c95-aaa6-70d3ce2e6ab6&projectId=5e631737-0fa4-44a6-b227-7ba1d7345015","ECDF8D4F17D94CF49AFDAB1B1125634A-2025-05-27-18-40-31","","null","","images/schematic_sequence/interview_scheme/interview_scheme_3.png","null","",""
"","","","","","image-button-response","99","741812","0.0-14.0-1.0-1.2","ECDF8D4F17D94CF49AFDAB1B1125634A","ECDF8D4F17D94CF49AFDAB1B1125634A","2b3b1445-8fa6-4c95-aaa6-70d3ce2e6ab6","5e631737-0fa4-44a6-b227-7ba1d7345015","{""num_scrambled_semantic"":""8"",""num_scrambled_causal"":""4"",""num_scrambled_schematic"":""4"",""participantId"":""ECDF8D4F17D94CF49AFDAB1B1125634A"",""assignmentId"":""2b3b1445-8fa6-4c95-aaa6-70d3ce2e6ab6"",""projectId"":""5e631737-0fa4-44a6-b227-7ba1d7345015""}","https://test12345.live/?num_scrambled_semantic=8&num_scrambled_causal=4&num_scrambled_schematic=4&participantId=ECDF8D4F17D94CF49AFDAB1B1125634A&assignmentId=2b3b1445-8fa6-4c95-aaa6-70d3ce2e6ab6&projectId=5e631737-0fa4-44a6-b227-7ba1d7345015","ECDF8D4F17D94CF49AFDAB1B1125634A-2025-05-27-18-40-31","","1623","","images/schematic_sequence/interview_scheme/interview_scheme_3.png","1","",""
"","","","","","image-button-response","100","743622","0.0-14.0-1.0-2.2","ECDF8D4F17D94CF49AFDAB1B1125634A","ECDF8D4F17D94CF49AFDAB1B1125634A","2b3b1445-8fa6-4c95-aaa6-70d3ce2e6ab6","5e631737-0fa4-44a6-b227-7ba1d7345015","{""num_scrambled_semantic"":""8"",""num_scrambled_causal"":""4"",""num_scrambled_schematic"":""4"",""participantId"":""ECDF8D4F17D94CF49AFDAB1B1125634A"",""assignmentId"":""2b3b1445-8fa6-4c95-aaa6-70d3ce2e6ab6"",""projectId"":""5e631737-0fa4-44a6-b227-7ba1d7345015""}","https://test12345.live/?num_scrambled_semantic=8&num_scrambled_causal=4&num_scrambled_schematic=4&participantId=ECDF8D4F17D94CF49AFDAB1B1125634A&assignmentId=2b3b1445-8fa6-4c95-aaa6-70d3ce2e6ab6&projectId=5e631737-0fa4-44a6-b227-7ba1d7345015","ECDF8D4F17D94CF49AFDAB1B1125634A-2025-05-27-18-40-31","","null","","[]","null","",""
"","","","","","image-button-response","101","748127","0.0-14.0-1.0-0.3","ECDF8D4F17D94CF49AFDAB1B1125634A","ECDF8D4F17D94CF49AFDAB1B1125634A","2b3b1445-8fa6-4c95-aaa6-70d3ce2e6ab6","5e631737-0fa4-44a6-b227-7ba1d7345015","{""num_scrambled_semantic"":""8"",""num_scrambled_causal"":""4"",""num_scrambled_schematic"":""4"",""participantId"":""ECDF8D4F17D94CF49AFDAB1B1125634A"",""assignmentId"":""2b3b1445-8fa6-4c95-aaa6-70d3ce2e6ab6"",""projectId"":""5e631737-0fa4-44a6-b227-7ba1d7345015""}","https://test12345.live/?num_scrambled_semantic=8&num_scrambled_causal=4&num_scrambled_schematic=4&participantId=ECDF8D4F17D94CF49AFDAB1B1125634A&assignmentId=2b3b1445-8fa6-4c95-aaa6-70d3ce2e6ab6&projectId=5e631737-0fa4-44a6-b227-7ba1d7345015","ECDF8D4F17D94CF49AFDAB1B1125634A-2025-05-27-18-40-31","","null","","images/schematic_sequence/interview_scheme/interview_scheme_4.png","null","",""
"","","","","","image-button-response","102","749479","0.0-14.0-1.0-1.3","ECDF8D4F17D94CF49AFDAB1B1125634A","ECDF8D4F17D94CF49AFDAB1B1125634A","2b3b1445-8fa6-4c95-aaa6-70d3ce2e6ab6","5e631737-0fa4-44a6-b227-7ba1d7345015","{""num_scrambled_semantic"":""8"",""num_scrambled_causal"":""4"",""num_scrambled_schematic"":""4"",""participantId"":""ECDF8D4F17D94CF49AFDAB1B1125634A"",""assignmentId"":""2b3b1445-8fa6-4c95-aaa6-70d3ce2e6ab6"",""projectId"":""5e631737-0fa4-44a6-b227-7ba1d7345015""}","https://test12345.live/?num_scrambled_semantic=8&num_scrambled_causal=4&num_scrambled_schematic=4&participantId=ECDF8D4F17D94CF49AFDAB1B1125634A&assignmentId=2b3b1445-8fa6-4c95-aaa6-70d3ce2e6ab6&projectId=5e631737-0fa4-44a6-b227-7ba1d7345015","ECDF8D4F17D94CF49AFDAB1B1125634A-2025-05-27-18-40-31","","1348","","images/schematic_sequence/interview_scheme/interview_scheme_4.png","1","",""
"","","","","","image-button-response","103","751296","0.0-14.0-1.0-2.3","ECDF8D4F17D94CF49AFDAB1B1125634A","ECDF8D4F17D94CF49AFDAB1B1125634A","2b3b1445-8fa6-4c95-aaa6-70d3ce2e6ab6","5e631737-0fa4-44a6-b227-7ba1d7345015","{""num_scrambled_semantic"":""8"",""num_scrambled_causal"":""4"",""num_scrambled_schematic"":""4"",""participantId"":""ECDF8D4F17D94CF49AFDAB1B1125634A"",""assignmentId"":""2b3b1445-8fa6-4c95-aaa6-70d3ce2e6ab6"",""projectId"":""5e631737-0fa4-44a6-b227-7ba1d7345015""}","https://test12345.live/?num_scrambled_semantic=8&num_scrambled_causal=4&num_scrambled_schematic=4&participantId=ECDF8D4F17D94CF49AFDAB1B1125634A&assignmentId=2b3b1445-8fa6-4c95-aaa6-70d3ce2e6ab6&projectId=5e631737-0fa4-44a6-b227-7ba1d7345015","ECDF8D4F17D94CF49AFDAB1B1125634A-2025-05-27-18-40-31","","null","","[]","null","",""
"","","","","","image-button-response","104","755799","0.0-14.0-1.0-0.4","ECDF8D4F17D94CF49AFDAB1B1125634A","ECDF8D4F17D94CF49AFDAB1B1125634A","2b3b1445-8fa6-4c95-aaa6-70d3ce2e6ab6","5e631737-0fa4-44a6-b227-7ba1d7345015","{""num_scrambled_semantic"":""8"",""num_scrambled_causal"":""4"",""num_scrambled_schematic"":""4"",""participantId"":""ECDF8D4F17D94CF49AFDAB1B1125634A"",""assignmentId"":""2b3b1445-8fa6-4c95-aaa6-70d3ce2e6ab6"",""projectId"":""5e631737-0fa4-44a6-b227-7ba1d7345015""}","https://test12345.live/?num_scrambled_semantic=8&num_scrambled_causal=4&num_scrambled_schematic=4&participantId=ECDF8D4F17D94CF49AFDAB1B1125634A&assignmentId=2b3b1445-8fa6-4c95-aaa6-70d3ce2e6ab6&projectId=5e631737-0fa4-44a6-b227-7ba1d7345015","ECDF8D4F17D94CF49AFDAB1B1125634A-2025-05-27-18-40-31","","null","","images/schematic_sequence/interview_scheme/interview_scheme_5.png","null","",""
"","","","","","image-button-response","105","757231","0.0-14.0-1.0-1.4","ECDF8D4F17D94CF49AFDAB1B1125634A","ECDF8D4F17D94CF49AFDAB1B1125634A","2b3b1445-8fa6-4c95-aaa6-70d3ce2e6ab6","5e631737-0fa4-44a6-b227-7ba1d7345015","{""num_scrambled_semantic"":""8"",""num_scrambled_causal"":""4"",""num_scrambled_schematic"":""4"",""participantId"":""ECDF8D4F17D94CF49AFDAB1B1125634A"",""assignmentId"":""2b3b1445-8fa6-4c95-aaa6-70d3ce2e6ab6"",""projectId"":""5e631737-0fa4-44a6-b227-7ba1d7345015""}","https://test12345.live/?num_scrambled_semantic=8&num_scrambled_causal=4&num_scrambled_schematic=4&participantId=ECDF8D4F17D94CF49AFDAB1B1125634A&assignmentId=2b3b1445-8fa6-4c95-aaa6-70d3ce2e6ab6&projectId=5e631737-0fa4-44a6-b227-7ba1d7345015","ECDF8D4F17D94CF49AFDAB1B1125634A-2025-05-27-18-40-31","","1430","","images/schematic_sequence/interview_scheme/interview_scheme_5.png","0","",""
"","","","","","image-button-response","106","759036","0.0-14.0-1.0-2.4","ECDF8D4F17D94CF49AFDAB1B1125634A","ECDF8D4F17D94CF49AFDAB1B1125634A","2b3b1445-8fa6-4c95-aaa6-70d3ce2e6ab6","5e631737-0fa4-44a6-b227-7ba1d7345015","{""num_scrambled_semantic"":""8"",""num_scrambled_causal"":""4"",""num_scrambled_schematic"":""4"",""participantId"":""ECDF8D4F17D94CF49AFDAB1B1125634A"",""assignmentId"":""2b3b1445-8fa6-4c95-aaa6-70d3ce2e6ab6"",""projectId"":""5e631737-0fa4-44a6-b227-7ba1d7345015""}","https://test12345.live/?num_scrambled_semantic=8&num_scrambled_causal=4&num_scrambled_schematic=4&participantId=ECDF8D4F17D94CF49AFDAB1B1125634A&assignmentId=2b3b1445-8fa6-4c95-aaa6-70d3ce2e6ab6&projectId=5e631737-0fa4-44a6-b227-7ba1d7345015","ECDF8D4F17D94CF49AFDAB1B1125634A-2025-05-27-18-40-31","","null","","[]","null","",""
"","","","","","image-button-response","107","763550","0.0-14.0-1.0-0.5","ECDF8D4F17D94CF49AFDAB1B1125634A","ECDF8D4F17D94CF49AFDAB1B1125634A","2b3b1445-8fa6-4c95-aaa6-70d3ce2e6ab6","5e631737-0fa4-44a6-b227-7ba1d7345015","{""num_scrambled_semantic"":""8"",""num_scrambled_causal"":""4"",""num_scrambled_schematic"":""4"",""participantId"":""ECDF8D4F17D94CF49AFDAB1B1125634A"",""assignmentId"":""2b3b1445-8fa6-4c95-aaa6-70d3ce2e6ab6"",""projectId"":""5e631737-0fa4-44a6-b227-7ba1d7345015""}","https://test12345.live/?num_scrambled_semantic=8&num_scrambled_causal=4&num_scrambled_schematic=4&participantId=ECDF8D4F17D94CF49AFDAB1B1125634A&assignmentId=2b3b1445-8fa6-4c95-aaa6-70d3ce2e6ab6&projectId=5e631737-0fa4-44a6-b227-7ba1d7345015","ECDF8D4F17D94CF49AFDAB1B1125634A-2025-05-27-18-40-31","","null","","images/schematic_sequence/interview_scheme/interview_scheme_6.png","null","",""
"","","","","","image-button-response","108","764826","0.0-14.0-1.0-1.5","ECDF8D4F17D94CF49AFDAB1B1125634A","ECDF8D4F17D94CF49AFDAB1B1125634A","2b3b1445-8fa6-4c95-aaa6-70d3ce2e6ab6","5e631737-0fa4-44a6-b227-7ba1d7345015","{""num_scrambled_semantic"":""8"",""num_scrambled_causal"":""4"",""num_scrambled_schematic"":""4"",""participantId"":""ECDF8D4F17D94CF49AFDAB1B1125634A"",""assignmentId"":""2b3b1445-8fa6-4c95-aaa6-70d3ce2e6ab6"",""projectId"":""5e631737-0fa4-44a6-b227-7ba1d7345015""}","https://test12345.live/?num_scrambled_semantic=8&num_scrambled_causal=4&num_scrambled_schematic=4&participantId=ECDF8D4F17D94CF49AFDAB1B1125634A&assignmentId=2b3b1445-8fa6-4c95-aaa6-70d3ce2e6ab6&projectId=5e631737-0fa4-44a6-b227-7ba1d7345015","ECDF8D4F17D94CF49AFDAB1B1125634A-2025-05-27-18-40-31","","1273","","images/schematic_sequence/interview_scheme/interview_scheme_6.png","0","",""
"","","","","","image-button-response","109","766636","0.0-14.0-1.0-2.5","ECDF8D4F17D94CF49AFDAB1B1125634A","ECDF8D4F17D94CF49AFDAB1B1125634A","2b3b1445-8fa6-4c95-aaa6-70d3ce2e6ab6","5e631737-0fa4-44a6-b227-7ba1d7345015","{""num_scrambled_semantic"":""8"",""num_scrambled_causal"":""4"",""num_scrambled_schematic"":""4"",""participantId"":""ECDF8D4F17D94CF49AFDAB1B1125634A"",""assignmentId"":""2b3b1445-8fa6-4c95-aaa6-70d3ce2e6ab6"",""projectId"":""5e631737-0fa4-44a6-b227-7ba1d7345015""}","https://test12345.live/?num_scrambled_semantic=8&num_scrambled_causal=4&num_scrambled_schematic=4&participantId=ECDF8D4F17D94CF49AFDAB1B1125634A&assignmentId=2b3b1445-8fa6-4c95-aaa6-70d3ce2e6ab6&projectId=5e631737-0fa4-44a6-b227-7ba1d7345015","ECDF8D4F17D94CF49AFDAB1B1125634A-2025-05-27-18-40-31","","null","","[]","null","",""
"","","","","","image-button-response","110","771148","0.0-14.0-1.0-0.6","ECDF8D4F17D94CF49AFDAB1B1125634A","ECDF8D4F17D94CF49AFDAB1B1125634A","2b3b1445-8fa6-4c95-aaa6-70d3ce2e6ab6","5e631737-0fa4-44a6-b227-7ba1d7345015","{""num_scrambled_semantic"":""8"",""num_scrambled_causal"":""4"",""num_scrambled_schematic"":""4"",""participantId"":""ECDF8D4F17D94CF49AFDAB1B1125634A"",""assignmentId"":""2b3b1445-8fa6-4c95-aaa6-70d3ce2e6ab6"",""projectId"":""5e631737-0fa4-44a6-b227-7ba1d7345015""}","https://test12345.live/?num_scrambled_semantic=8&num_scrambled_causal=4&num_scrambled_schematic=4&participantId=ECDF8D4F17D94CF49AFDAB1B1125634A&assignmentId=2b3b1445-8fa6-4c95-aaa6-70d3ce2e6ab6&projectId=5e631737-0fa4-44a6-b227-7ba1d7345015","ECDF8D4F17D94CF49AFDAB1B1125634A-2025-05-27-18-40-31","","null","","images/schematic_sequence/interview_scheme/interview_scheme_7.png","null","",""
"","","","","","image-button-response","111","772335","0.0-14.0-1.0-1.6","ECDF8D4F17D94CF49AFDAB1B1125634A","ECDF8D4F17D94CF49AFDAB1B1125634A","2b3b1445-8fa6-4c95-aaa6-70d3ce2e6ab6","5e631737-0fa4-44a6-b227-7ba1d7345015","{""num_scrambled_semantic"":""8"",""num_scrambled_causal"":""4"",""num_scrambled_schematic"":""4"",""participantId"":""ECDF8D4F17D94CF49AFDAB1B1125634A"",""assignmentId"":""2b3b1445-8fa6-4c95-aaa6-70d3ce2e6ab6"",""projectId"":""5e631737-0fa4-44a6-b227-7ba1d7345015""}","https://test12345.live/?num_scrambled_semantic=8&num_scrambled_causal=4&num_scrambled_schematic=4&participantId=ECDF8D4F17D94CF49AFDAB1B1125634A&assignmentId=2b3b1445-8fa6-4c95-aaa6-70d3ce2e6ab6&projectId=5e631737-0fa4-44a6-b227-7ba1d7345015","ECDF8D4F17D94CF49AFDAB1B1125634A-2025-05-27-18-40-31","","1185","","images/schematic_sequence/interview_scheme/interview_scheme_7.png","0","",""
"","","","","","image-button-response","112","774141","0.0-14.0-1.0-2.6","ECDF8D4F17D94CF49AFDAB1B1125634A","ECDF8D4F17D94CF49AFDAB1B1125634A","2b3b1445-8fa6-4c95-aaa6-70d3ce2e6ab6","5e631737-0fa4-44a6-b227-7ba1d7345015","{""num_scrambled_semantic"":""8"",""num_scrambled_causal"":""4"",""num_scrambled_schematic"":""4"",""participantId"":""ECDF8D4F17D94CF49AFDAB1B1125634A"",""assignmentId"":""2b3b1445-8fa6-4c95-aaa6-70d3ce2e6ab6"",""projectId"":""5e631737-0fa4-44a6-b227-7ba1d7345015""}","https://test12345.live/?num_scrambled_semantic=8&num_scrambled_causal=4&num_scrambled_schematic=4&participantId=ECDF8D4F17D94CF49AFDAB1B1125634A&assignmentId=2b3b1445-8fa6-4c95-aaa6-70d3ce2e6ab6&projectId=5e631737-0fa4-44a6-b227-7ba1d7345015","ECDF8D4F17D94CF49AFDAB1B1125634A-2025-05-27-18-40-31","","null","","[]","null","",""
"","","","","","image-button-response","113","778652","0.0-14.0-1.0-0.7","ECDF8D4F17D94CF49AFDAB1B1125634A","ECDF8D4F17D94CF49AFDAB1B1125634A","2b3b1445-8fa6-4c95-aaa6-70d3ce2e6ab6","5e631737-0fa4-44a6-b227-7ba1d7345015","{""num_scrambled_semantic"":""8"",""num_scrambled_causal"":""4"",""num_scrambled_schematic"":""4"",""participantId"":""ECDF8D4F17D94CF49AFDAB1B1125634A"",""assignmentId"":""2b3b1445-8fa6-4c95-aaa6-70d3ce2e6ab6"",""projectId"":""5e631737-0fa4-44a6-b227-7ba1d7345015""}","https://test12345.live/?num_scrambled_semantic=8&num_scrambled_causal=4&num_scrambled_schematic=4&participantId=ECDF8D4F17D94CF49AFDAB1B1125634A&assignmentId=2b3b1445-8fa6-4c95-aaa6-70d3ce2e6ab6&projectId=5e631737-0fa4-44a6-b227-7ba1d7345015","ECDF8D4F17D94CF49AFDAB1B1125634A-2025-05-27-18-40-31","","null","","images/schematic_sequence/interview_scheme/interview_scheme_8.png","null","",""
