"success","timeout","failed_images","failed_audio","failed_video","trial_type","trial_index","time_elapsed","internal_node_id","subject","subject_id","study_id","session_id","urlvar","current_url","audio_id","view_history","rt","device_id","stimulus","response","estimated_stimulus_onset","seq_name"
"true","false","[]","[]","[]","preload","0","333","0.0-0.0","ED99A4077C4B479AB6999B4F1660AAE5","ED99A4077C4B479AB6999B4F1660AAE5","0198b98c-727a-78bf-8657-9d5ef9a97cd3","0198b979-1f5e-7105-8b5f-48f920534529","{""num_scrambled_semantic"":""8"",""num_scrambled_causal"":""4"",""num_scrambled_schematic"":""4"",""participantId"":""ED99A4077C4B479AB6999B4F1660AAE5"",""assignmentId"":""0198b98c-727a-78bf-8657-9d5ef9a97cd3"",""projectId"":""0198b979-1f5e-7105-8b5f-48f920534529""}","https://test12345.live/?num_scrambled_semantic=8&num_scrambled_causal=4&num_scrambled_schematic=4&participantId=ED99A4077C4B479AB6999B4F1660AAE5&assignmentId=0198b98c-727a-78bf-8657-9d5ef9a97cd3&projectId=0198b979-1f5e-7105-8b5f-48f920534529","ED99A4077C4B479AB6999B4F1660AAE5-2025-08-17-20-29-48","","","","","","",""
"","","","","","instructions","1","38280","0.0-1.0","ED99A4077C4B479AB6999B4F1660AAE5","ED99A4077C4B479AB6999B4F1660AAE5","0198b98c-727a-78bf-8657-9d5ef9a97cd3","0198b979-1f5e-7105-8b5f-48f920534529","{""num_scrambled_semantic"":""8"",""num_scrambled_causal"":""4"",""num_scrambled_schematic"":""4"",""participantId"":""ED99A4077C4B479AB6999B4F1660AAE5"",""assignmentId"":""0198b98c-727a-78bf-8657-9d5ef9a97cd3"",""projectId"":""0198b979-1f5e-7105-8b5f-48f920534529""}","https://test12345.live/?num_scrambled_semantic=8&num_scrambled_causal=4&num_scrambled_schematic=4&participantId=ED99A4077C4B479AB6999B4F1660AAE5&assignmentId=0198b98c-727a-78bf-8657-9d5ef9a97cd3&projectId=0198b979-1f5e-7105-8b5f-48f920534529","ED99A4077C4B479AB6999B4F1660AAE5-2025-08-17-20-29-48","[{""page_index"":0,""viewing_time"":37947}]","37947","","","","",""
"","","","","","instructions","2","84195","0.0-2.0","ED99A4077C4B479AB6999B4F1660AAE5","ED99A4077C4B479AB6999B4F1660AAE5","0198b98c-727a-78bf-8657-9d5ef9a97cd3","0198b979-1f5e-7105-8b5f-48f920534529","{""num_scrambled_semantic"":""8"",""num_scrambled_causal"":""4"",""num_scrambled_schematic"":""4"",""participantId"":""ED99A4077C4B479AB6999B4F1660AAE5"",""assignmentId"":""0198b98c-727a-78bf-8657-9d5ef9a97cd3"",""projectId"":""0198b979-1f5e-7105-8b5f-48f920534529""}","https://test12345.live/?num_scrambled_semantic=8&num_scrambled_causal=4&num_scrambled_schematic=4&participantId=ED99A4077C4B479AB6999B4F1660AAE5&assignmentId=0198b98c-727a-78bf-8657-9d5ef9a97cd3&projectId=0198b979-1f5e-7105-8b5f-48f920534529","ED99A4077C4B479AB6999B4F1660AAE5-2025-08-17-20-29-48","[{""page_index"":0,""viewing_time"":45915}]","45915","","","","",""
"true","","","","","fullscreen","3","88503","0.0-3.0","ED99A4077C4B479AB6999B4F1660AAE5","ED99A4077C4B479AB6999B4F1660AAE5","0198b98c-727a-78bf-8657-9d5ef9a97cd3","0198b979-1f5e-7105-8b5f-48f920534529","{""num_scrambled_semantic"":""8"",""num_scrambled_causal"":""4"",""num_scrambled_schematic"":""4"",""participantId"":""ED99A4077C4B479AB6999B4F1660AAE5"",""assignmentId"":""0198b98c-727a-78bf-8657-9d5ef9a97cd3"",""projectId"":""0198b979-1f5e-7105-8b5f-48f920534529""}","https://test12345.live/?num_scrambled_semantic=8&num_scrambled_causal=4&num_scrambled_schematic=4&participantId=ED99A4077C4B479AB6999B4F1660AAE5&assignmentId=0198b98c-727a-78bf-8657-9d5ef9a97cd3&projectId=0198b979-1f5e-7105-8b5f-48f920534529","ED99A4077C4B479AB6999B4F1660AAE5-2025-08-17-20-29-48","","3306","","","","",""
"","","","","","initialize-microphone","4","108695","0.0-4.0-0.0","ED99A4077C4B479AB6999B4F1660AAE5","ED99A4077C4B479AB6999B4F1660AAE5","0198b98c-727a-78bf-8657-9d5ef9a97cd3","0198b979-1f5e-7105-8b5f-48f920534529","{""num_scrambled_semantic"":""8"",""num_scrambled_causal"":""4"",""num_scrambled_schematic"":""4"",""participantId"":""ED99A4077C4B479AB6999B4F1660AAE5"",""assignmentId"":""0198b98c-727a-78bf-8657-9d5ef9a97cd3"",""projectId"":""0198b979-1f5e-7105-8b5f-48f920534529""}","https://test12345.live/?num_scrambled_semantic=8&num_scrambled_causal=4&num_scrambled_schematic=4&participantId=ED99A4077C4B479AB6999B4F1660AAE5&assignmentId=0198b98c-727a-78bf-8657-9d5ef9a97cd3&projectId=0198b979-1f5e-7105-8b5f-48f920534529","ED99A4077C4B479AB6999B4F1660AAE5-2025-08-17-20-29-48","","","02714cd03f1fdac242477f9c3084bc82f1d7ed2237d22c6609371e72ee6c2d7f","","","",""
"","","","","","html-audio-response","5","130726","0.0-4.0-1.0","ED99A4077C4B479AB6999B4F1660AAE5","ED99A4077C4B479AB6999B4F1660AAE5","0198b98c-727a-78bf-8657-9d5ef9a97cd3","0198b979-1f5e-7105-8b5f-48f920534529","{""num_scrambled_semantic"":""8"",""num_scrambled_causal"":""4"",""num_scrambled_schematic"":""4"",""participantId"":""ED99A4077C4B479AB6999B4F1660AAE5"",""assignmentId"":""0198b98c-727a-78bf-8657-9d5ef9a97cd3"",""projectId"":""0198b979-1f5e-7105-8b5f-48f920534529""}","https://test12345.live/?num_scrambled_semantic=8&num_scrambled_causal=4&num_scrambled_schematic=4&participantId=ED99A4077C4B479AB6999B4F1660AAE5&assignmentId=0198b98c-727a-78bf-8657-9d5ef9a97cd3&projectId=0198b979-1f5e-7105-8b5f-48f920534529","ED99A4077C4B479AB6999B4F1660AAE5-2025-08-17-20-29-48","","10418","","<span style=""color: red; font-size: 24px""> NOW RECORDING</span>
        <p>Please test Microphone</p>","","3",""
"","","","","","html-button-response","6","133739","0.0-4.0-2.0","ED99A4077C4B479AB6999B4F1660AAE5","ED99A4077C4B479AB6999B4F1660AAE5","0198b98c-727a-78bf-8657-9d5ef9a97cd3","0198b979-1f5e-7105-8b5f-48f920534529","{""num_scrambled_semantic"":""8"",""num_scrambled_causal"":""4"",""num_scrambled_schematic"":""4"",""participantId"":""ED99A4077C4B479AB6999B4F1660AAE5"",""assignmentId"":""0198b98c-727a-78bf-8657-9d5ef9a97cd3"",""projectId"":""0198b979-1f5e-7105-8b5f-48f920534529""}","https://test12345.live/?num_scrambled_semantic=8&num_scrambled_causal=4&num_scrambled_schematic=4&participantId=ED99A4077C4B479AB6999B4F1660AAE5&assignmentId=0198b98c-727a-78bf-8657-9d5ef9a97cd3&projectId=0198b979-1f5e-7105-8b5f-48f920534529","ED99A4077C4B479AB6999B4F1660AAE5-2025-08-17-20-29-48","","3013","","<p style=""font-size:48px; color:red;"">Is Microphone OK?</p>","1","",""
"","","","","","instructions","7","214445","0.0-5.0","ED99A4077C4B479AB6999B4F1660AAE5","ED99A4077C4B479AB6999B4F1660AAE5","0198b98c-727a-78bf-8657-9d5ef9a97cd3","0198b979-1f5e-7105-8b5f-48f920534529","{""num_scrambled_semantic"":""8"",""num_scrambled_causal"":""4"",""num_scrambled_schematic"":""4"",""participantId"":""ED99A4077C4B479AB6999B4F1660AAE5"",""assignmentId"":""0198b98c-727a-78bf-8657-9d5ef9a97cd3"",""projectId"":""0198b979-1f5e-7105-8b5f-48f920534529""}","https://test12345.live/?num_scrambled_semantic=8&num_scrambled_causal=4&num_scrambled_schematic=4&participantId=ED99A4077C4B479AB6999B4F1660AAE5&assignmentId=0198b98c-727a-78bf-8657-9d5ef9a97cd3&projectId=0198b979-1f5e-7105-8b5f-48f920534529","ED99A4077C4B479AB6999B4F1660AAE5-2025-08-17-20-29-48","[{""page_index"":0,""viewing_time"":70999},{""page_index"":1,""viewing_time"":9706}]","80706","","","","",""
"","","","","","image-button-response","8","220451","0.0-6.0-0.0","ED99A4077C4B479AB6999B4F1660AAE5","ED99A4077C4B479AB6999B4F1660AAE5","0198b98c-727a-78bf-8657-9d5ef9a97cd3","0198b979-1f5e-7105-8b5f-48f920534529","{""num_scrambled_semantic"":""8"",""num_scrambled_causal"":""4"",""num_scrambled_schematic"":""4"",""participantId"":""ED99A4077C4B479AB6999B4F1660AAE5"",""assignmentId"":""0198b98c-727a-78bf-8657-9d5ef9a97cd3"",""projectId"":""0198b979-1f5e-7105-8b5f-48f920534529""}","https://test12345.live/?num_scrambled_semantic=8&num_scrambled_causal=4&num_scrambled_schematic=4&participantId=ED99A4077C4B479AB6999B4F1660AAE5&assignmentId=0198b98c-727a-78bf-8657-9d5ef9a97cd3&projectId=0198b979-1f5e-7105-8b5f-48f920534529","ED99A4077C4B479AB6999B4F1660AAE5-2025-08-17-20-29-48","","null","","images/instructions/movie_0.png","null","",""
"","","","","","image-button-response","9","224958","0.0-6.0-1.0-0.0","ED99A4077C4B479AB6999B4F1660AAE5","ED99A4077C4B479AB6999B4F1660AAE5","0198b98c-727a-78bf-8657-9d5ef9a97cd3","0198b979-1f5e-7105-8b5f-48f920534529","{""num_scrambled_semantic"":""8"",""num_scrambled_causal"":""4"",""num_scrambled_schematic"":""4"",""participantId"":""ED99A4077C4B479AB6999B4F1660AAE5"",""assignmentId"":""0198b98c-727a-78bf-8657-9d5ef9a97cd3"",""projectId"":""0198b979-1f5e-7105-8b5f-48f920534529""}","https://test12345.live/?num_scrambled_semantic=8&num_scrambled_causal=4&num_scrambled_schematic=4&participantId=ED99A4077C4B479AB6999B4F1660AAE5&assignmentId=0198b98c-727a-78bf-8657-9d5ef9a97cd3&projectId=0198b979-1f5e-7105-8b5f-48f920534529","ED99A4077C4B479AB6999B4F1660AAE5-2025-08-17-20-29-48","","null","","images/instructions/movie_1.png","null","",""
"","","","","","image-button-response","10","228974","0.0-6.0-1.0-1.0","ED99A4077C4B479AB6999B4F1660AAE5","ED99A4077C4B479AB6999B4F1660AAE5","0198b98c-727a-78bf-8657-9d5ef9a97cd3","0198b979-1f5e-7105-8b5f-48f920534529","{""num_scrambled_semantic"":""8"",""num_scrambled_causal"":""4"",""num_scrambled_schematic"":""4"",""participantId"":""ED99A4077C4B479AB6999B4F1660AAE5"",""assignmentId"":""0198b98c-727a-78bf-8657-9d5ef9a97cd3"",""projectId"":""0198b979-1f5e-7105-8b5f-48f920534529""}","https://test12345.live/?num_scrambled_semantic=8&num_scrambled_causal=4&num_scrambled_schematic=4&participantId=ED99A4077C4B479AB6999B4F1660AAE5&assignmentId=0198b98c-727a-78bf-8657-9d5ef9a97cd3&projectId=0198b979-1f5e-7105-8b5f-48f920534529","ED99A4077C4B479AB6999B4F1660AAE5-2025-08-17-20-29-48","","null","","images/instructions/movie_1.png","null","",""
"","","","","","image-button-response","11","234376","0.0-6.0-1.0-2.0","ED99A4077C4B479AB6999B4F1660AAE5","ED99A4077C4B479AB6999B4F1660AAE5","0198b98c-727a-78bf-8657-9d5ef9a97cd3","0198b979-1f5e-7105-8b5f-48f920534529","{""num_scrambled_semantic"":""8"",""num_scrambled_causal"":""4"",""num_scrambled_schematic"":""4"",""participantId"":""ED99A4077C4B479AB6999B4F1660AAE5"",""assignmentId"":""0198b98c-727a-78bf-8657-9d5ef9a97cd3"",""projectId"":""0198b979-1f5e-7105-8b5f-48f920534529""}","https://test12345.live/?num_scrambled_semantic=8&num_scrambled_causal=4&num_scrambled_schematic=4&participantId=ED99A4077C4B479AB6999B4F1660AAE5&assignmentId=0198b98c-727a-78bf-8657-9d5ef9a97cd3&projectId=0198b979-1f5e-7105-8b5f-48f920534529","ED99A4077C4B479AB6999B4F1660AAE5-2025-08-17-20-29-48","","null","","[]","null","",""
"","","","","","image-button-response","12","238891","0.0-6.0-1.0-0.1","ED99A4077C4B479AB6999B4F1660AAE5","ED99A4077C4B479AB6999B4F1660AAE5","0198b98c-727a-78bf-8657-9d5ef9a97cd3","0198b979-1f5e-7105-8b5f-48f920534529","{""num_scrambled_semantic"":""8"",""num_scrambled_causal"":""4"",""num_scrambled_schematic"":""4"",""participantId"":""ED99A4077C4B479AB6999B4F1660AAE5"",""assignmentId"":""0198b98c-727a-78bf-8657-9d5ef9a97cd3"",""projectId"":""0198b979-1f5e-7105-8b5f-48f920534529""}","https://test12345.live/?num_scrambled_semantic=8&num_scrambled_causal=4&num_scrambled_schematic=4&participantId=ED99A4077C4B479AB6999B4F1660AAE5&assignmentId=0198b98c-727a-78bf-8657-9d5ef9a97cd3&projectId=0198b979-1f5e-7105-8b5f-48f920534529","ED99A4077C4B479AB6999B4F1660AAE5-2025-08-17-20-29-48","","null","","images/instructions/movie_2.png","null","",""
"","","","","","image-button-response","13","241877","0.0-6.0-1.0-1.1","ED99A4077C4B479AB6999B4F1660AAE5","ED99A4077C4B479AB6999B4F1660AAE5","0198b98c-727a-78bf-8657-9d5ef9a97cd3","0198b979-1f5e-7105-8b5f-48f920534529","{""num_scrambled_semantic"":""8"",""num_scrambled_causal"":""4"",""num_scrambled_schematic"":""4"",""participantId"":""ED99A4077C4B479AB6999B4F1660AAE5"",""assignmentId"":""0198b98c-727a-78bf-8657-9d5ef9a97cd3"",""projectId"":""0198b979-1f5e-7105-8b5f-48f920534529""}","https://test12345.live/?num_scrambled_semantic=8&num_scrambled_causal=4&num_scrambled_schematic=4&participantId=ED99A4077C4B479AB6999B4F1660AAE5&assignmentId=0198b98c-727a-78bf-8657-9d5ef9a97cd3&projectId=0198b979-1f5e-7105-8b5f-48f920534529","ED99A4077C4B479AB6999B4F1660AAE5-2025-08-17-20-29-48","","2984","","images/instructions/movie_2.png","1","",""
"","","","","","image-button-response","14","247281","0.0-6.0-1.0-2.1","ED99A4077C4B479AB6999B4F1660AAE5","ED99A4077C4B479AB6999B4F1660AAE5","0198b98c-727a-78bf-8657-9d5ef9a97cd3","0198b979-1f5e-7105-8b5f-48f920534529","{""num_scrambled_semantic"":""8"",""num_scrambled_causal"":""4"",""num_scrambled_schematic"":""4"",""participantId"":""ED99A4077C4B479AB6999B4F1660AAE5"",""assignmentId"":""0198b98c-727a-78bf-8657-9d5ef9a97cd3"",""projectId"":""0198b979-1f5e-7105-8b5f-48f920534529""}","https://test12345.live/?num_scrambled_semantic=8&num_scrambled_causal=4&num_scrambled_schematic=4&participantId=ED99A4077C4B479AB6999B4F1660AAE5&assignmentId=0198b98c-727a-78bf-8657-9d5ef9a97cd3&projectId=0198b979-1f5e-7105-8b5f-48f920534529","ED99A4077C4B479AB6999B4F1660AAE5-2025-08-17-20-29-48","","null","","[]","null","",""
"","","","","","image-button-response","15","251784","0.0-6.0-1.0-0.2","ED99A4077C4B479AB6999B4F1660AAE5","ED99A4077C4B479AB6999B4F1660AAE5","0198b98c-727a-78bf-8657-9d5ef9a97cd3","0198b979-1f5e-7105-8b5f-48f920534529","{""num_scrambled_semantic"":""8"",""num_scrambled_causal"":""4"",""num_scrambled_schematic"":""4"",""participantId"":""ED99A4077C4B479AB6999B4F1660AAE5"",""assignmentId"":""0198b98c-727a-78bf-8657-9d5ef9a97cd3"",""projectId"":""0198b979-1f5e-7105-8b5f-48f920534529""}","https://test12345.live/?num_scrambled_semantic=8&num_scrambled_causal=4&num_scrambled_schematic=4&participantId=ED99A4077C4B479AB6999B4F1660AAE5&assignmentId=0198b98c-727a-78bf-8657-9d5ef9a97cd3&projectId=0198b979-1f5e-7105-8b5f-48f920534529","ED99A4077C4B479AB6999B4F1660AAE5-2025-08-17-20-29-48","","null","","images/instructions/movie_3.png","null","",""
"","","","","","image-button-response","16","253697","0.0-6.0-1.0-1.2","ED99A4077C4B479AB6999B4F1660AAE5","ED99A4077C4B479AB6999B4F1660AAE5","0198b98c-727a-78bf-8657-9d5ef9a97cd3","0198b979-1f5e-7105-8b5f-48f920534529","{""num_scrambled_semantic"":""8"",""num_scrambled_causal"":""4"",""num_scrambled_schematic"":""4"",""participantId"":""ED99A4077C4B479AB6999B4F1660AAE5"",""assignmentId"":""0198b98c-727a-78bf-8657-9d5ef9a97cd3"",""projectId"":""0198b979-1f5e-7105-8b5f-48f920534529""}","https://test12345.live/?num_scrambled_semantic=8&num_scrambled_causal=4&num_scrambled_schematic=4&participantId=ED99A4077C4B479AB6999B4F1660AAE5&assignmentId=0198b98c-727a-78bf-8657-9d5ef9a97cd3&projectId=0198b979-1f5e-7105-8b5f-48f920534529","ED99A4077C4B479AB6999B4F1660AAE5-2025-08-17-20-29-48","","1911","","images/instructions/movie_3.png","0","",""
"","","","","","image-button-response","17","259103","0.0-6.0-1.0-2.2","ED99A4077C4B479AB6999B4F1660AAE5","ED99A4077C4B479AB6999B4F1660AAE5","0198b98c-727a-78bf-8657-9d5ef9a97cd3","0198b979-1f5e-7105-8b5f-48f920534529","{""num_scrambled_semantic"":""8"",""num_scrambled_causal"":""4"",""num_scrambled_schematic"":""4"",""participantId"":""ED99A4077C4B479AB6999B4F1660AAE5"",""assignmentId"":""0198b98c-727a-78bf-8657-9d5ef9a97cd3"",""projectId"":""0198b979-1f5e-7105-8b5f-48f920534529""}","https://test12345.live/?num_scrambled_semantic=8&num_scrambled_causal=4&num_scrambled_schematic=4&participantId=ED99A4077C4B479AB6999B4F1660AAE5&assignmentId=0198b98c-727a-78bf-8657-9d5ef9a97cd3&projectId=0198b979-1f5e-7105-8b5f-48f920534529","ED99A4077C4B479AB6999B4F1660AAE5-2025-08-17-20-29-48","","null","","[]","null","",""
"","","","","","image-button-response","18","263606","0.0-6.0-1.0-0.3","ED99A4077C4B479AB6999B4F1660AAE5","ED99A4077C4B479AB6999B4F1660AAE5","0198b98c-727a-78bf-8657-9d5ef9a97cd3","0198b979-1f5e-7105-8b5f-48f920534529","{""num_scrambled_semantic"":""8"",""num_scrambled_causal"":""4"",""num_scrambled_schematic"":""4"",""participantId"":""ED99A4077C4B479AB6999B4F1660AAE5"",""assignmentId"":""0198b98c-727a-78bf-8657-9d5ef9a97cd3"",""projectId"":""0198b979-1f5e-7105-8b5f-48f920534529""}","https://test12345.live/?num_scrambled_semantic=8&num_scrambled_causal=4&num_scrambled_schematic=4&participantId=ED99A4077C4B479AB6999B4F1660AAE5&assignmentId=0198b98c-727a-78bf-8657-9d5ef9a97cd3&projectId=0198b979-1f5e-7105-8b5f-48f920534529","ED99A4077C4B479AB6999B4F1660AAE5-2025-08-17-20-29-48","","null","","images/instructions/movie_4.png","null","",""
"","","","","","image-button-response","19","265243","0.0-6.0-1.0-1.3","ED99A4077C4B479AB6999B4F1660AAE5","ED99A4077C4B479AB6999B4F1660AAE5","0198b98c-727a-78bf-8657-9d5ef9a97cd3","0198b979-1f5e-7105-8b5f-48f920534529","{""num_scrambled_semantic"":""8"",""num_scrambled_causal"":""4"",""num_scrambled_schematic"":""4"",""participantId"":""ED99A4077C4B479AB6999B4F1660AAE5"",""assignmentId"":""0198b98c-727a-78bf-8657-9d5ef9a97cd3"",""projectId"":""0198b979-1f5e-7105-8b5f-48f920534529""}","https://test12345.live/?num_scrambled_semantic=8&num_scrambled_causal=4&num_scrambled_schematic=4&participantId=ED99A4077C4B479AB6999B4F1660AAE5&assignmentId=0198b98c-727a-78bf-8657-9d5ef9a97cd3&projectId=0198b979-1f5e-7105-8b5f-48f920534529","ED99A4077C4B479AB6999B4F1660AAE5-2025-08-17-20-29-48","","1636","","images/instructions/movie_4.png","0","",""
"","","","","","image-button-response","20","270652","0.0-6.0-1.0-2.3","ED99A4077C4B479AB6999B4F1660AAE5","ED99A4077C4B479AB6999B4F1660AAE5","0198b98c-727a-78bf-8657-9d5ef9a97cd3","0198b979-1f5e-7105-8b5f-48f920534529","{""num_scrambled_semantic"":""8"",""num_scrambled_causal"":""4"",""num_scrambled_schematic"":""4"",""participantId"":""ED99A4077C4B479AB6999B4F1660AAE5"",""assignmentId"":""0198b98c-727a-78bf-8657-9d5ef9a97cd3"",""projectId"":""0198b979-1f5e-7105-8b5f-48f920534529""}","https://test12345.live/?num_scrambled_semantic=8&num_scrambled_causal=4&num_scrambled_schematic=4&participantId=ED99A4077C4B479AB6999B4F1660AAE5&assignmentId=0198b98c-727a-78bf-8657-9d5ef9a97cd3&projectId=0198b979-1f5e-7105-8b5f-48f920534529","ED99A4077C4B479AB6999B4F1660AAE5-2025-08-17-20-29-48","","null","","[]","null","",""
"","","","","","instructions","21","280199","0.0-7.0","ED99A4077C4B479AB6999B4F1660AAE5","ED99A4077C4B479AB6999B4F1660AAE5","0198b98c-727a-78bf-8657-9d5ef9a97cd3","0198b979-1f5e-7105-8b5f-48f920534529","{""num_scrambled_semantic"":""8"",""num_scrambled_causal"":""4"",""num_scrambled_schematic"":""4"",""participantId"":""ED99A4077C4B479AB6999B4F1660AAE5"",""assignmentId"":""0198b98c-727a-78bf-8657-9d5ef9a97cd3"",""projectId"":""0198b979-1f5e-7105-8b5f-48f920534529""}","https://test12345.live/?num_scrambled_semantic=8&num_scrambled_causal=4&num_scrambled_schematic=4&participantId=ED99A4077C4B479AB6999B4F1660AAE5&assignmentId=0198b98c-727a-78bf-8657-9d5ef9a97cd3&projectId=0198b979-1f5e-7105-8b5f-48f920534529","ED99A4077C4B479AB6999B4F1660AAE5-2025-08-17-20-29-48","[{""page_index"":0,""viewing_time"":7893},{""page_index"":1,""viewing_time"":1654}]","9547","","","","",""
"","","","","","html-audio-response","22","383195","0.0-8.0","ED99A4077C4B479AB6999B4F1660AAE5","ED99A4077C4B479AB6999B4F1660AAE5","0198b98c-727a-78bf-8657-9d5ef9a97cd3","0198b979-1f5e-7105-8b5f-48f920534529","{""num_scrambled_semantic"":""8"",""num_scrambled_causal"":""4"",""num_scrambled_schematic"":""4"",""participantId"":""ED99A4077C4B479AB6999B4F1660AAE5"",""assignmentId"":""0198b98c-727a-78bf-8657-9d5ef9a97cd3"",""projectId"":""0198b979-1f5e-7105-8b5f-48f920534529""}","https://test12345.live/?num_scrambled_semantic=8&num_scrambled_causal=4&num_scrambled_schematic=4&participantId=ED99A4077C4B479AB6999B4F1660AAE5&assignmentId=0198b98c-727a-78bf-8657-9d5ef9a97cd3&projectId=0198b979-1f5e-7105-8b5f-48f920534529","ED99A4077C4B479AB6999B4F1660AAE5-2025-08-17-20-29-48","","50289","","[""<span style=\""color: red; font-size: 24px\""> NOW RECORDING</span><p>Please say out loud all the images you saw, as many as you can remember. The images can be said in any order.</p>""]","","1",""
"","","","","","instructions","23","386291","0.0-9.0","ED99A4077C4B479AB6999B4F1660AAE5","ED99A4077C4B479AB6999B4F1660AAE5","0198b98c-727a-78bf-8657-9d5ef9a97cd3","0198b979-1f5e-7105-8b5f-48f920534529","{""num_scrambled_semantic"":""8"",""num_scrambled_causal"":""4"",""num_scrambled_schematic"":""4"",""participantId"":""ED99A4077C4B479AB6999B4F1660AAE5"",""assignmentId"":""0198b98c-727a-78bf-8657-9d5ef9a97cd3"",""projectId"":""0198b979-1f5e-7105-8b5f-48f920534529""}","https://test12345.live/?num_scrambled_semantic=8&num_scrambled_causal=4&num_scrambled_schematic=4&participantId=ED99A4077C4B479AB6999B4F1660AAE5&assignmentId=0198b98c-727a-78bf-8657-9d5ef9a97cd3&projectId=0198b979-1f5e-7105-8b5f-48f920534529","ED99A4077C4B479AB6999B4F1660AAE5-2025-08-17-20-29-48","[{""page_index"":0,""viewing_time"":3083}]","3083","","","","",""
"","","","","","image-button-response","24","392299","0.0-10.0-0.0","ED99A4077C4B479AB6999B4F1660AAE5","ED99A4077C4B479AB6999B4F1660AAE5","0198b98c-727a-78bf-8657-9d5ef9a97cd3","0198b979-1f5e-7105-8b5f-48f920534529","{""num_scrambled_semantic"":""8"",""num_scrambled_causal"":""4"",""num_scrambled_schematic"":""4"",""participantId"":""ED99A4077C4B479AB6999B4F1660AAE5"",""assignmentId"":""0198b98c-727a-78bf-8657-9d5ef9a97cd3"",""projectId"":""0198b979-1f5e-7105-8b5f-48f920534529""}","https://test12345.live/?num_scrambled_semantic=8&num_scrambled_causal=4&num_scrambled_schematic=4&participantId=ED99A4077C4B479AB6999B4F1660AAE5&assignmentId=0198b98c-727a-78bf-8657-9d5ef9a97cd3&projectId=0198b979-1f5e-7105-8b5f-48f920534529","ED99A4077C4B479AB6999B4F1660AAE5-2025-08-17-20-29-48","","null","","images/semantic_sequence/redecorating_semantic/redecorating_semantic_0.png","null","",""
"","","","","","image-button-response","25","396813","0.0-10.0-1.0-0.0","ED99A4077C4B479AB6999B4F1660AAE5","ED99A4077C4B479AB6999B4F1660AAE5","0198b98c-727a-78bf-8657-9d5ef9a97cd3","0198b979-1f5e-7105-8b5f-48f920534529","{""num_scrambled_semantic"":""8"",""num_scrambled_causal"":""4"",""num_scrambled_schematic"":""4"",""participantId"":""ED99A4077C4B479AB6999B4F1660AAE5"",""assignmentId"":""0198b98c-727a-78bf-8657-9d5ef9a97cd3"",""projectId"":""0198b979-1f5e-7105-8b5f-48f920534529""}","https://test12345.live/?num_scrambled_semantic=8&num_scrambled_causal=4&num_scrambled_schematic=4&participantId=ED99A4077C4B479AB6999B4F1660AAE5&assignmentId=0198b98c-727a-78bf-8657-9d5ef9a97cd3&projectId=0198b979-1f5e-7105-8b5f-48f920534529","ED99A4077C4B479AB6999B4F1660AAE5-2025-08-17-20-29-48","","null","","images/semantic_sequence/redecorating_semantic/redecorating_semantic_ten.png","null","",""
"","","","","","image-button-response","26","398680","0.0-10.0-1.0-1.0","ED99A4077C4B479AB6999B4F1660AAE5","ED99A4077C4B479AB6999B4F1660AAE5","0198b98c-727a-78bf-8657-9d5ef9a97cd3","0198b979-1f5e-7105-8b5f-48f920534529","{""num_scrambled_semantic"":""8"",""num_scrambled_causal"":""4"",""num_scrambled_schematic"":""4"",""participantId"":""ED99A4077C4B479AB6999B4F1660AAE5"",""assignmentId"":""0198b98c-727a-78bf-8657-9d5ef9a97cd3"",""projectId"":""0198b979-1f5e-7105-8b5f-48f920534529""}","https://test12345.live/?num_scrambled_semantic=8&num_scrambled_causal=4&num_scrambled_schematic=4&participantId=ED99A4077C4B479AB6999B4F1660AAE5&assignmentId=0198b98c-727a-78bf-8657-9d5ef9a97cd3&projectId=0198b979-1f5e-7105-8b5f-48f920534529","ED99A4077C4B479AB6999B4F1660AAE5-2025-08-17-20-29-48","","1866","","images/semantic_sequence/redecorating_semantic/redecorating_semantic_ten.png","0","",""
"","","","","","image-button-response","27","404081","0.0-10.0-1.0-2.0","ED99A4077C4B479AB6999B4F1660AAE5","ED99A4077C4B479AB6999B4F1660AAE5","0198b98c-727a-78bf-8657-9d5ef9a97cd3","0198b979-1f5e-7105-8b5f-48f920534529","{""num_scrambled_semantic"":""8"",""num_scrambled_causal"":""4"",""num_scrambled_schematic"":""4"",""participantId"":""ED99A4077C4B479AB6999B4F1660AAE5"",""assignmentId"":""0198b98c-727a-78bf-8657-9d5ef9a97cd3"",""projectId"":""0198b979-1f5e-7105-8b5f-48f920534529""}","https://test12345.live/?num_scrambled_semantic=8&num_scrambled_causal=4&num_scrambled_schematic=4&participantId=ED99A4077C4B479AB6999B4F1660AAE5&assignmentId=0198b98c-727a-78bf-8657-9d5ef9a97cd3&projectId=0198b979-1f5e-7105-8b5f-48f920534529","ED99A4077C4B479AB6999B4F1660AAE5-2025-08-17-20-29-48","","null","","[]","null","",""
"","","","","","image-button-response","28","408590","0.0-10.0-1.0-0.1","ED99A4077C4B479AB6999B4F1660AAE5","ED99A4077C4B479AB6999B4F1660AAE5","0198b98c-727a-78bf-8657-9d5ef9a97cd3","0198b979-1f5e-7105-8b5f-48f920534529","{""num_scrambled_semantic"":""8"",""num_scrambled_causal"":""4"",""num_scrambled_schematic"":""4"",""participantId"":""ED99A4077C4B479AB6999B4F1660AAE5"",""assignmentId"":""0198b98c-727a-78bf-8657-9d5ef9a97cd3"",""projectId"":""0198b979-1f5e-7105-8b5f-48f920534529""}","https://test12345.live/?num_scrambled_semantic=8&num_scrambled_causal=4&num_scrambled_schematic=4&participantId=ED99A4077C4B479AB6999B4F1660AAE5&assignmentId=0198b98c-727a-78bf-8657-9d5ef9a97cd3&projectId=0198b979-1f5e-7105-8b5f-48f920534529","ED99A4077C4B479AB6999B4F1660AAE5-2025-08-17-20-29-48","","null","","images/semantic_sequence/redecorating_semantic/redecorating_semantic_8.png","null","",""
"","","","","","image-button-response","29","411016","0.0-10.0-1.0-1.1","ED99A4077C4B479AB6999B4F1660AAE5","ED99A4077C4B479AB6999B4F1660AAE5","0198b98c-727a-78bf-8657-9d5ef9a97cd3","0198b979-1f5e-7105-8b5f-48f920534529","{""num_scrambled_semantic"":""8"",""num_scrambled_causal"":""4"",""num_scrambled_schematic"":""4"",""participantId"":""ED99A4077C4B479AB6999B4F1660AAE5"",""assignmentId"":""0198b98c-727a-78bf-8657-9d5ef9a97cd3"",""projectId"":""0198b979-1f5e-7105-8b5f-48f920534529""}","https://test12345.live/?num_scrambled_semantic=8&num_scrambled_causal=4&num_scrambled_schematic=4&participantId=ED99A4077C4B479AB6999B4F1660AAE5&assignmentId=0198b98c-727a-78bf-8657-9d5ef9a97cd3&projectId=0198b979-1f5e-7105-8b5f-48f920534529","ED99A4077C4B479AB6999B4F1660AAE5-2025-08-17-20-29-48","","2425","","images/semantic_sequence/redecorating_semantic/redecorating_semantic_8.png","0","",""
"","","","","","image-button-response","30","416428","0.0-10.0-1.0-2.1","ED99A4077C4B479AB6999B4F1660AAE5","ED99A4077C4B479AB6999B4F1660AAE5","0198b98c-727a-78bf-8657-9d5ef9a97cd3","0198b979-1f5e-7105-8b5f-48f920534529","{""num_scrambled_semantic"":""8"",""num_scrambled_causal"":""4"",""num_scrambled_schematic"":""4"",""participantId"":""ED99A4077C4B479AB6999B4F1660AAE5"",""assignmentId"":""0198b98c-727a-78bf-8657-9d5ef9a97cd3"",""projectId"":""0198b979-1f5e-7105-8b5f-48f920534529""}","https://test12345.live/?num_scrambled_semantic=8&num_scrambled_causal=4&num_scrambled_schematic=4&participantId=ED99A4077C4B479AB6999B4F1660AAE5&assignmentId=0198b98c-727a-78bf-8657-9d5ef9a97cd3&projectId=0198b979-1f5e-7105-8b5f-48f920534529","ED99A4077C4B479AB6999B4F1660AAE5-2025-08-17-20-29-48","","null","","[]","null","",""
"","","","","","image-button-response","31","420945","0.0-10.0-1.0-0.2","ED99A4077C4B479AB6999B4F1660AAE5","ED99A4077C4B479AB6999B4F1660AAE5","0198b98c-727a-78bf-8657-9d5ef9a97cd3","0198b979-1f5e-7105-8b5f-48f920534529","{""num_scrambled_semantic"":""8"",""num_scrambled_causal"":""4"",""num_scrambled_schematic"":""4"",""participantId"":""ED99A4077C4B479AB6999B4F1660AAE5"",""assignmentId"":""0198b98c-727a-78bf-8657-9d5ef9a97cd3"",""projectId"":""0198b979-1f5e-7105-8b5f-48f920534529""}","https://test12345.live/?num_scrambled_semantic=8&num_scrambled_causal=4&num_scrambled_schematic=4&participantId=ED99A4077C4B479AB6999B4F1660AAE5&assignmentId=0198b98c-727a-78bf-8657-9d5ef9a97cd3&projectId=0198b979-1f5e-7105-8b5f-48f920534529","ED99A4077C4B479AB6999B4F1660AAE5-2025-08-17-20-29-48","","null","","images/semantic_sequence/redecorating_semantic/redecorating_semantic_2.png","null","",""
"","","","","","image-button-response","32","422465","0.0-10.0-1.0-1.2","ED99A4077C4B479AB6999B4F1660AAE5","ED99A4077C4B479AB6999B4F1660AAE5","0198b98c-727a-78bf-8657-9d5ef9a97cd3","0198b979-1f5e-7105-8b5f-48f920534529","{""num_scrambled_semantic"":""8"",""num_scrambled_causal"":""4"",""num_scrambled_schematic"":""4"",""participantId"":""ED99A4077C4B479AB6999B4F1660AAE5"",""assignmentId"":""0198b98c-727a-78bf-8657-9d5ef9a97cd3"",""projectId"":""0198b979-1f5e-7105-8b5f-48f920534529""}","https://test12345.live/?num_scrambled_semantic=8&num_scrambled_causal=4&num_scrambled_schematic=4&participantId=ED99A4077C4B479AB6999B4F1660AAE5&assignmentId=0198b98c-727a-78bf-8657-9d5ef9a97cd3&projectId=0198b979-1f5e-7105-8b5f-48f920534529","ED99A4077C4B479AB6999B4F1660AAE5-2025-08-17-20-29-48","","1519","","images/semantic_sequence/redecorating_semantic/redecorating_semantic_2.png","0","",""
"","","","","","image-button-response","33","427873","0.0-10.0-1.0-2.2","ED99A4077C4B479AB6999B4F1660AAE5","ED99A4077C4B479AB6999B4F1660AAE5","0198b98c-727a-78bf-8657-9d5ef9a97cd3","0198b979-1f5e-7105-8b5f-48f920534529","{""num_scrambled_semantic"":""8"",""num_scrambled_causal"":""4"",""num_scrambled_schematic"":""4"",""participantId"":""ED99A4077C4B479AB6999B4F1660AAE5"",""assignmentId"":""0198b98c-727a-78bf-8657-9d5ef9a97cd3"",""projectId"":""0198b979-1f5e-7105-8b5f-48f920534529""}","https://test12345.live/?num_scrambled_semantic=8&num_scrambled_causal=4&num_scrambled_schematic=4&participantId=ED99A4077C4B479AB6999B4F1660AAE5&assignmentId=0198b98c-727a-78bf-8657-9d5ef9a97cd3&projectId=0198b979-1f5e-7105-8b5f-48f920534529","ED99A4077C4B479AB6999B4F1660AAE5-2025-08-17-20-29-48","","null","","[]","null","",""
"","","","","","image-button-response","34","432374","0.0-10.0-1.0-0.3","ED99A4077C4B479AB6999B4F1660AAE5","ED99A4077C4B479AB6999B4F1660AAE5","0198b98c-727a-78bf-8657-9d5ef9a97cd3","0198b979-1f5e-7105-8b5f-48f920534529","{""num_scrambled_semantic"":""8"",""num_scrambled_causal"":""4"",""num_scrambled_schematic"":""4"",""participantId"":""ED99A4077C4B479AB6999B4F1660AAE5"",""assignmentId"":""0198b98c-727a-78bf-8657-9d5ef9a97cd3"",""projectId"":""0198b979-1f5e-7105-8b5f-48f920534529""}","https://test12345.live/?num_scrambled_semantic=8&num_scrambled_causal=4&num_scrambled_schematic=4&participantId=ED99A4077C4B479AB6999B4F1660AAE5&assignmentId=0198b98c-727a-78bf-8657-9d5ef9a97cd3&projectId=0198b979-1f5e-7105-8b5f-48f920534529","ED99A4077C4B479AB6999B4F1660AAE5-2025-08-17-20-29-48","","null","","images/semantic_sequence/redecorating_semantic/redecorating_semantic_7.png","null","",""
"","","","","","image-button-response","35","434375","0.0-10.0-1.0-1.3","ED99A4077C4B479AB6999B4F1660AAE5","ED99A4077C4B479AB6999B4F1660AAE5","0198b98c-727a-78bf-8657-9d5ef9a97cd3","0198b979-1f5e-7105-8b5f-48f920534529","{""num_scrambled_semantic"":""8"",""num_scrambled_causal"":""4"",""num_scrambled_schematic"":""4"",""participantId"":""ED99A4077C4B479AB6999B4F1660AAE5"",""assignmentId"":""0198b98c-727a-78bf-8657-9d5ef9a97cd3"",""projectId"":""0198b979-1f5e-7105-8b5f-48f920534529""}","https://test12345.live/?num_scrambled_semantic=8&num_scrambled_causal=4&num_scrambled_schematic=4&participantId=ED99A4077C4B479AB6999B4F1660AAE5&assignmentId=0198b98c-727a-78bf-8657-9d5ef9a97cd3&projectId=0198b979-1f5e-7105-8b5f-48f920534529","ED99A4077C4B479AB6999B4F1660AAE5-2025-08-17-20-29-48","","2000","","images/semantic_sequence/redecorating_semantic/redecorating_semantic_7.png","0","",""
"","","","","","image-button-response","36","439787","0.0-10.0-1.0-2.3","ED99A4077C4B479AB6999B4F1660AAE5","ED99A4077C4B479AB6999B4F1660AAE5","0198b98c-727a-78bf-8657-9d5ef9a97cd3","0198b979-1f5e-7105-8b5f-48f920534529","{""num_scrambled_semantic"":""8"",""num_scrambled_causal"":""4"",""num_scrambled_schematic"":""4"",""participantId"":""ED99A4077C4B479AB6999B4F1660AAE5"",""assignmentId"":""0198b98c-727a-78bf-8657-9d5ef9a97cd3"",""projectId"":""0198b979-1f5e-7105-8b5f-48f920534529""}","https://test12345.live/?num_scrambled_semantic=8&num_scrambled_causal=4&num_scrambled_schematic=4&participantId=ED99A4077C4B479AB6999B4F1660AAE5&assignmentId=0198b98c-727a-78bf-8657-9d5ef9a97cd3&projectId=0198b979-1f5e-7105-8b5f-48f920534529","ED99A4077C4B479AB6999B4F1660AAE5-2025-08-17-20-29-48","","null","","[]","null","",""
"","","","","","image-button-response","37","444299","0.0-10.0-1.0-0.4","ED99A4077C4B479AB6999B4F1660AAE5","ED99A4077C4B479AB6999B4F1660AAE5","0198b98c-727a-78bf-8657-9d5ef9a97cd3","0198b979-1f5e-7105-8b5f-48f920534529","{""num_scrambled_semantic"":""8"",""num_scrambled_causal"":""4"",""num_scrambled_schematic"":""4"",""participantId"":""ED99A4077C4B479AB6999B4F1660AAE5"",""assignmentId"":""0198b98c-727a-78bf-8657-9d5ef9a97cd3"",""projectId"":""0198b979-1f5e-7105-8b5f-48f920534529""}","https://test12345.live/?num_scrambled_semantic=8&num_scrambled_causal=4&num_scrambled_schematic=4&participantId=ED99A4077C4B479AB6999B4F1660AAE5&assignmentId=0198b98c-727a-78bf-8657-9d5ef9a97cd3&projectId=0198b979-1f5e-7105-8b5f-48f920534529","ED99A4077C4B479AB6999B4F1660AAE5-2025-08-17-20-29-48","","null","","images/semantic_sequence/redecorating_semantic/redecorating_semantic_5.png","null","",""
"","","","","","image-button-response","38","445833","0.0-10.0-1.0-1.4","ED99A4077C4B479AB6999B4F1660AAE5","ED99A4077C4B479AB6999B4F1660AAE5","0198b98c-727a-78bf-8657-9d5ef9a97cd3","0198b979-1f5e-7105-8b5f-48f920534529","{""num_scrambled_semantic"":""8"",""num_scrambled_causal"":""4"",""num_scrambled_schematic"":""4"",""participantId"":""ED99A4077C4B479AB6999B4F1660AAE5"",""assignmentId"":""0198b98c-727a-78bf-8657-9d5ef9a97cd3"",""projectId"":""0198b979-1f5e-7105-8b5f-48f920534529""}","https://test12345.live/?num_scrambled_semantic=8&num_scrambled_causal=4&num_scrambled_schematic=4&participantId=ED99A4077C4B479AB6999B4F1660AAE5&assignmentId=0198b98c-727a-78bf-8657-9d5ef9a97cd3&projectId=0198b979-1f5e-7105-8b5f-48f920534529","ED99A4077C4B479AB6999B4F1660AAE5-2025-08-17-20-29-48","","1533","","images/semantic_sequence/redecorating_semantic/redecorating_semantic_5.png","0","",""
"","","","","","image-button-response","39","451242","0.0-10.0-1.0-2.4","ED99A4077C4B479AB6999B4F1660AAE5","ED99A4077C4B479AB6999B4F1660AAE5","0198b98c-727a-78bf-8657-9d5ef9a97cd3","0198b979-1f5e-7105-8b5f-48f920534529","{""num_scrambled_semantic"":""8"",""num_scrambled_causal"":""4"",""num_scrambled_schematic"":""4"",""participantId"":""ED99A4077C4B479AB6999B4F1660AAE5"",""assignmentId"":""0198b98c-727a-78bf-8657-9d5ef9a97cd3"",""projectId"":""0198b979-1f5e-7105-8b5f-48f920534529""}","https://test12345.live/?num_scrambled_semantic=8&num_scrambled_causal=4&num_scrambled_schematic=4&participantId=ED99A4077C4B479AB6999B4F1660AAE5&assignmentId=0198b98c-727a-78bf-8657-9d5ef9a97cd3&projectId=0198b979-1f5e-7105-8b5f-48f920534529","ED99A4077C4B479AB6999B4F1660AAE5-2025-08-17-20-29-48","","null","","[]","null","",""
"","","","","","image-button-response","40","455749","0.0-10.0-1.0-0.5","ED99A4077C4B479AB6999B4F1660AAE5","ED99A4077C4B479AB6999B4F1660AAE5","0198b98c-727a-78bf-8657-9d5ef9a97cd3","0198b979-1f5e-7105-8b5f-48f920534529","{""num_scrambled_semantic"":""8"",""num_scrambled_causal"":""4"",""num_scrambled_schematic"":""4"",""participantId"":""ED99A4077C4B479AB6999B4F1660AAE5"",""assignmentId"":""0198b98c-727a-78bf-8657-9d5ef9a97cd3"",""projectId"":""0198b979-1f5e-7105-8b5f-48f920534529""}","https://test12345.live/?num_scrambled_semantic=8&num_scrambled_causal=4&num_scrambled_schematic=4&participantId=ED99A4077C4B479AB6999B4F1660AAE5&assignmentId=0198b98c-727a-78bf-8657-9d5ef9a97cd3&projectId=0198b979-1f5e-7105-8b5f-48f920534529","ED99A4077C4B479AB6999B4F1660AAE5-2025-08-17-20-29-48","","null","","images/semantic_sequence/redecorating_semantic/redecorating_semantic_1.png","null","",""
"","","","","","image-button-response","41","458181","0.0-10.0-1.0-1.5","ED99A4077C4B479AB6999B4F1660AAE5","ED99A4077C4B479AB6999B4F1660AAE5","0198b98c-727a-78bf-8657-9d5ef9a97cd3","0198b979-1f5e-7105-8b5f-48f920534529","{""num_scrambled_semantic"":""8"",""num_scrambled_causal"":""4"",""num_scrambled_schematic"":""4"",""participantId"":""ED99A4077C4B479AB6999B4F1660AAE5"",""assignmentId"":""0198b98c-727a-78bf-8657-9d5ef9a97cd3"",""projectId"":""0198b979-1f5e-7105-8b5f-48f920534529""}","https://test12345.live/?num_scrambled_semantic=8&num_scrambled_causal=4&num_scrambled_schematic=4&participantId=ED99A4077C4B479AB6999B4F1660AAE5&assignmentId=0198b98c-727a-78bf-8657-9d5ef9a97cd3&projectId=0198b979-1f5e-7105-8b5f-48f920534529","ED99A4077C4B479AB6999B4F1660AAE5-2025-08-17-20-29-48","","2430","","images/semantic_sequence/redecorating_semantic/redecorating_semantic_1.png","0","",""
"","","","","","image-button-response","42","463596","0.0-10.0-1.0-2.5","ED99A4077C4B479AB6999B4F1660AAE5","ED99A4077C4B479AB6999B4F1660AAE5","0198b98c-727a-78bf-8657-9d5ef9a97cd3","0198b979-1f5e-7105-8b5f-48f920534529","{""num_scrambled_semantic"":""8"",""num_scrambled_causal"":""4"",""num_scrambled_schematic"":""4"",""participantId"":""ED99A4077C4B479AB6999B4F1660AAE5"",""assignmentId"":""0198b98c-727a-78bf-8657-9d5ef9a97cd3"",""projectId"":""0198b979-1f5e-7105-8b5f-48f920534529""}","https://test12345.live/?num_scrambled_semantic=8&num_scrambled_causal=4&num_scrambled_schematic=4&participantId=ED99A4077C4B479AB6999B4F1660AAE5&assignmentId=0198b98c-727a-78bf-8657-9d5ef9a97cd3&projectId=0198b979-1f5e-7105-8b5f-48f920534529","ED99A4077C4B479AB6999B4F1660AAE5-2025-08-17-20-29-48","","null","","[]","null","",""
"","","","","","image-button-response","43","468102","0.0-10.0-1.0-0.6","ED99A4077C4B479AB6999B4F1660AAE5","ED99A4077C4B479AB6999B4F1660AAE5","0198b98c-727a-78bf-8657-9d5ef9a97cd3","0198b979-1f5e-7105-8b5f-48f920534529","{""num_scrambled_semantic"":""8"",""num_scrambled_causal"":""4"",""num_scrambled_schematic"":""4"",""participantId"":""ED99A4077C4B479AB6999B4F1660AAE5"",""assignmentId"":""0198b98c-727a-78bf-8657-9d5ef9a97cd3"",""projectId"":""0198b979-1f5e-7105-8b5f-48f920534529""}","https://test12345.live/?num_scrambled_semantic=8&num_scrambled_causal=4&num_scrambled_schematic=4&participantId=ED99A4077C4B479AB6999B4F1660AAE5&assignmentId=0198b98c-727a-78bf-8657-9d5ef9a97cd3&projectId=0198b979-1f5e-7105-8b5f-48f920534529","ED99A4077C4B479AB6999B4F1660AAE5-2025-08-17-20-29-48","","null","","images/semantic_sequence/redecorating_semantic/redecorating_semantic_6.png","null","",""
"","","","","","image-button-response","44","469110","0.0-10.0-1.0-1.6","ED99A4077C4B479AB6999B4F1660AAE5","ED99A4077C4B479AB6999B4F1660AAE5","0198b98c-727a-78bf-8657-9d5ef9a97cd3","0198b979-1f5e-7105-8b5f-48f920534529","{""num_scrambled_semantic"":""8"",""num_scrambled_causal"":""4"",""num_scrambled_schematic"":""4"",""participantId"":""ED99A4077C4B479AB6999B4F1660AAE5"",""assignmentId"":""0198b98c-727a-78bf-8657-9d5ef9a97cd3"",""projectId"":""0198b979-1f5e-7105-8b5f-48f920534529""}","https://test12345.live/?num_scrambled_semantic=8&num_scrambled_causal=4&num_scrambled_schematic=4&participantId=ED99A4077C4B479AB6999B4F1660AAE5&assignmentId=0198b98c-727a-78bf-8657-9d5ef9a97cd3&projectId=0198b979-1f5e-7105-8b5f-48f920534529","ED99A4077C4B479AB6999B4F1660AAE5-2025-08-17-20-29-48","","1007","","images/semantic_sequence/redecorating_semantic/redecorating_semantic_6.png","0","",""
"","","","","","image-button-response","45","474512","0.0-10.0-1.0-2.6","ED99A4077C4B479AB6999B4F1660AAE5","ED99A4077C4B479AB6999B4F1660AAE5","0198b98c-727a-78bf-8657-9d5ef9a97cd3","0198b979-1f5e-7105-8b5f-48f920534529","{""num_scrambled_semantic"":""8"",""num_scrambled_causal"":""4"",""num_scrambled_schematic"":""4"",""participantId"":""ED99A4077C4B479AB6999B4F1660AAE5"",""assignmentId"":""0198b98c-727a-78bf-8657-9d5ef9a97cd3"",""projectId"":""0198b979-1f5e-7105-8b5f-48f920534529""}","https://test12345.live/?num_scrambled_semantic=8&num_scrambled_causal=4&num_scrambled_schematic=4&participantId=ED99A4077C4B479AB6999B4F1660AAE5&assignmentId=0198b98c-727a-78bf-8657-9d5ef9a97cd3&projectId=0198b979-1f5e-7105-8b5f-48f920534529","ED99A4077C4B479AB6999B4F1660AAE5-2025-08-17-20-29-48","","null","","[]","null","",""
"","","","","","image-button-response","46","479019","0.0-10.0-1.0-0.7","ED99A4077C4B479AB6999B4F1660AAE5","ED99A4077C4B479AB6999B4F1660AAE5","0198b98c-727a-78bf-8657-9d5ef9a97cd3","0198b979-1f5e-7105-8b5f-48f920534529","{""num_scrambled_semantic"":""8"",""num_scrambled_causal"":""4"",""num_scrambled_schematic"":""4"",""participantId"":""ED99A4077C4B479AB6999B4F1660AAE5"",""assignmentId"":""0198b98c-727a-78bf-8657-9d5ef9a97cd3"",""projectId"":""0198b979-1f5e-7105-8b5f-48f920534529""}","https://test12345.live/?num_scrambled_semantic=8&num_scrambled_causal=4&num_scrambled_schematic=4&participantId=ED99A4077C4B479AB6999B4F1660AAE5&assignmentId=0198b98c-727a-78bf-8657-9d5ef9a97cd3&projectId=0198b979-1f5e-7105-8b5f-48f920534529","ED99A4077C4B479AB6999B4F1660AAE5-2025-08-17-20-29-48","","null","","images/semantic_sequence/redecorating_semantic/redecorating_semantic_3.png","null","",""
"","","","","","image-button-response","47","480298","0.0-10.0-1.0-1.7","ED99A4077C4B479AB6999B4F1660AAE5","ED99A4077C4B479AB6999B4F1660AAE5","0198b98c-727a-78bf-8657-9d5ef9a97cd3","0198b979-1f5e-7105-8b5f-48f920534529","{""num_scrambled_semantic"":""8"",""num_scrambled_causal"":""4"",""num_scrambled_schematic"":""4"",""participantId"":""ED99A4077C4B479AB6999B4F1660AAE5"",""assignmentId"":""0198b98c-727a-78bf-8657-9d5ef9a97cd3"",""projectId"":""0198b979-1f5e-7105-8b5f-48f920534529""}","https://test12345.live/?num_scrambled_semantic=8&num_scrambled_causal=4&num_scrambled_schematic=4&participantId=ED99A4077C4B479AB6999B4F1660AAE5&assignmentId=0198b98c-727a-78bf-8657-9d5ef9a97cd3&projectId=0198b979-1f5e-7105-8b5f-48f920534529","ED99A4077C4B479AB6999B4F1660AAE5-2025-08-17-20-29-48","","1278","","images/semantic_sequence/redecorating_semantic/redecorating_semantic_3.png","0","",""
"","","","","","image-button-response","48","485708","0.0-10.0-1.0-2.7","ED99A4077C4B479AB6999B4F1660AAE5","ED99A4077C4B479AB6999B4F1660AAE5","0198b98c-727a-78bf-8657-9d5ef9a97cd3","0198b979-1f5e-7105-8b5f-48f920534529","{""num_scrambled_semantic"":""8"",""num_scrambled_causal"":""4"",""num_scrambled_schematic"":""4"",""participantId"":""ED99A4077C4B479AB6999B4F1660AAE5"",""assignmentId"":""0198b98c-727a-78bf-8657-9d5ef9a97cd3"",""projectId"":""0198b979-1f5e-7105-8b5f-48f920534529""}","https://test12345.live/?num_scrambled_semantic=8&num_scrambled_causal=4&num_scrambled_schematic=4&participantId=ED99A4077C4B479AB6999B4F1660AAE5&assignmentId=0198b98c-727a-78bf-8657-9d5ef9a97cd3&projectId=0198b979-1f5e-7105-8b5f-48f920534529","ED99A4077C4B479AB6999B4F1660AAE5-2025-08-17-20-29-48","","null","","[]","null","",""
"","","","","","image-button-response","49","490212","0.0-10.0-1.0-0.8","ED99A4077C4B479AB6999B4F1660AAE5","ED99A4077C4B479AB6999B4F1660AAE5","0198b98c-727a-78bf-8657-9d5ef9a97cd3","0198b979-1f5e-7105-8b5f-48f920534529","{""num_scrambled_semantic"":""8"",""num_scrambled_causal"":""4"",""num_scrambled_schematic"":""4"",""participantId"":""ED99A4077C4B479AB6999B4F1660AAE5"",""assignmentId"":""0198b98c-727a-78bf-8657-9d5ef9a97cd3"",""projectId"":""0198b979-1f5e-7105-8b5f-48f920534529""}","https://test12345.live/?num_scrambled_semantic=8&num_scrambled_causal=4&num_scrambled_schematic=4&participantId=ED99A4077C4B479AB6999B4F1660AAE5&assignmentId=0198b98c-727a-78bf-8657-9d5ef9a97cd3&projectId=0198b979-1f5e-7105-8b5f-48f920534529","ED99A4077C4B479AB6999B4F1660AAE5-2025-08-17-20-29-48","","null","","images/semantic_sequence/redecorating_semantic/redecorating_semantic_4.png","null","",""
"","","","","","image-button-response","50","491253","0.0-10.0-1.0-1.8","ED99A4077C4B479AB6999B4F1660AAE5","ED99A4077C4B479AB6999B4F1660AAE5","0198b98c-727a-78bf-8657-9d5ef9a97cd3","0198b979-1f5e-7105-8b5f-48f920534529","{""num_scrambled_semantic"":""8"",""num_scrambled_causal"":""4"",""num_scrambled_schematic"":""4"",""participantId"":""ED99A4077C4B479AB6999B4F1660AAE5"",""assignmentId"":""0198b98c-727a-78bf-8657-9d5ef9a97cd3"",""projectId"":""0198b979-1f5e-7105-8b5f-48f920534529""}","https://test12345.live/?num_scrambled_semantic=8&num_scrambled_causal=4&num_scrambled_schematic=4&participantId=ED99A4077C4B479AB6999B4F1660AAE5&assignmentId=0198b98c-727a-78bf-8657-9d5ef9a97cd3&projectId=0198b979-1f5e-7105-8b5f-48f920534529","ED99A4077C4B479AB6999B4F1660AAE5-2025-08-17-20-29-48","","1040","","images/semantic_sequence/redecorating_semantic/redecorating_semantic_4.png","0","",""
"","","","","","image-button-response","51","496655","0.0-10.0-1.0-2.8","ED99A4077C4B479AB6999B4F1660AAE5","ED99A4077C4B479AB6999B4F1660AAE5","0198b98c-727a-78bf-8657-9d5ef9a97cd3","0198b979-1f5e-7105-8b5f-48f920534529","{""num_scrambled_semantic"":""8"",""num_scrambled_causal"":""4"",""num_scrambled_schematic"":""4"",""participantId"":""ED99A4077C4B479AB6999B4F1660AAE5"",""assignmentId"":""0198b98c-727a-78bf-8657-9d5ef9a97cd3"",""projectId"":""0198b979-1f5e-7105-8b5f-48f920534529""}","https://test12345.live/?num_scrambled_semantic=8&num_scrambled_causal=4&num_scrambled_schematic=4&participantId=ED99A4077C4B479AB6999B4F1660AAE5&assignmentId=0198b98c-727a-78bf-8657-9d5ef9a97cd3&projectId=0198b979-1f5e-7105-8b5f-48f920534529","ED99A4077C4B479AB6999B4F1660AAE5-2025-08-17-20-29-48","","null","","[]","null","",""
"","","","","","image-button-response","52","501161","0.0-10.0-1.0-0.9","ED99A4077C4B479AB6999B4F1660AAE5","ED99A4077C4B479AB6999B4F1660AAE5","0198b98c-727a-78bf-8657-9d5ef9a97cd3","0198b979-1f5e-7105-8b5f-48f920534529","{""num_scrambled_semantic"":""8"",""num_scrambled_causal"":""4"",""num_scrambled_schematic"":""4"",""participantId"":""ED99A4077C4B479AB6999B4F1660AAE5"",""assignmentId"":""0198b98c-727a-78bf-8657-9d5ef9a97cd3"",""projectId"":""0198b979-1f5e-7105-8b5f-48f920534529""}","https://test12345.live/?num_scrambled_semantic=8&num_scrambled_causal=4&num_scrambled_schematic=4&participantId=ED99A4077C4B479AB6999B4F1660AAE5&assignmentId=0198b98c-727a-78bf-8657-9d5ef9a97cd3&projectId=0198b979-1f5e-7105-8b5f-48f920534529","ED99A4077C4B479AB6999B4F1660AAE5-2025-08-17-20-29-48","","null","","images/semantic_sequence/redecorating_semantic/redecorating_semantic_9.png","null","",""
"","","","","","image-button-response","53","502502","0.0-10.0-1.0-1.9","ED99A4077C4B479AB6999B4F1660AAE5","ED99A4077C4B479AB6999B4F1660AAE5","0198b98c-727a-78bf-8657-9d5ef9a97cd3","0198b979-1f5e-7105-8b5f-48f920534529","{""num_scrambled_semantic"":""8"",""num_scrambled_causal"":""4"",""num_scrambled_schematic"":""4"",""participantId"":""ED99A4077C4B479AB6999B4F1660AAE5"",""assignmentId"":""0198b98c-727a-78bf-8657-9d5ef9a97cd3"",""projectId"":""0198b979-1f5e-7105-8b5f-48f920534529""}","https://test12345.live/?num_scrambled_semantic=8&num_scrambled_causal=4&num_scrambled_schematic=4&participantId=ED99A4077C4B479AB6999B4F1660AAE5&assignmentId=0198b98c-727a-78bf-8657-9d5ef9a97cd3&projectId=0198b979-1f5e-7105-8b5f-48f920534529","ED99A4077C4B479AB6999B4F1660AAE5-2025-08-17-20-29-48","","1339","","images/semantic_sequence/redecorating_semantic/redecorating_semantic_9.png","0","",""
"","","","","","image-button-response","54","507908","0.0-10.0-1.0-2.9","ED99A4077C4B479AB6999B4F1660AAE5","ED99A4077C4B479AB6999B4F1660AAE5","0198b98c-727a-78bf-8657-9d5ef9a97cd3","0198b979-1f5e-7105-8b5f-48f920534529","{""num_scrambled_semantic"":""8"",""num_scrambled_causal"":""4"",""num_scrambled_schematic"":""4"",""participantId"":""ED99A4077C4B479AB6999B4F1660AAE5"",""assignmentId"":""0198b98c-727a-78bf-8657-9d5ef9a97cd3"",""projectId"":""0198b979-1f5e-7105-8b5f-48f920534529""}","https://test12345.live/?num_scrambled_semantic=8&num_scrambled_causal=4&num_scrambled_schematic=4&participantId=ED99A4077C4B479AB6999B4F1660AAE5&assignmentId=0198b98c-727a-78bf-8657-9d5ef9a97cd3&projectId=0198b979-1f5e-7105-8b5f-48f920534529","ED99A4077C4B479AB6999B4F1660AAE5-2025-08-17-20-29-48","","null","","[]","null","",""
"","","","","","html-audio-response","55","566522","0.0-11.0","ED99A4077C4B479AB6999B4F1660AAE5","ED99A4077C4B479AB6999B4F1660AAE5","0198b98c-727a-78bf-8657-9d5ef9a97cd3","0198b979-1f5e-7105-8b5f-48f920534529","{""num_scrambled_semantic"":""8"",""num_scrambled_causal"":""4"",""num_scrambled_schematic"":""4"",""participantId"":""ED99A4077C4B479AB6999B4F1660AAE5"",""assignmentId"":""0198b98c-727a-78bf-8657-9d5ef9a97cd3"",""projectId"":""0198b979-1f5e-7105-8b5f-48f920534529""}","https://test12345.live/?num_scrambled_semantic=8&num_scrambled_causal=4&num_scrambled_schematic=4&participantId=ED99A4077C4B479AB6999B4F1660AAE5&assignmentId=0198b98c-727a-78bf-8657-9d5ef9a97cd3&projectId=0198b979-1f5e-7105-8b5f-48f920534529","ED99A4077C4B479AB6999B4F1660AAE5-2025-08-17-20-29-48","","null","","[""<span style=\""color: red; font-size: 24px\""> NOW RECORDING</span><p>Please say out loud all the images you saw, as many as you can remember. The images can be said in any order.</p>""]","","1","redecorating_semantic"
"","","","","","image-button-response","56","572540","0.0-12.0-0.0","ED99A4077C4B479AB6999B4F1660AAE5","ED99A4077C4B479AB6999B4F1660AAE5","0198b98c-727a-78bf-8657-9d5ef9a97cd3","0198b979-1f5e-7105-8b5f-48f920534529","{""num_scrambled_semantic"":""8"",""num_scrambled_causal"":""4"",""num_scrambled_schematic"":""4"",""participantId"":""ED99A4077C4B479AB6999B4F1660AAE5"",""assignmentId"":""0198b98c-727a-78bf-8657-9d5ef9a97cd3"",""projectId"":""0198b979-1f5e-7105-8b5f-48f920534529""}","https://test12345.live/?num_scrambled_semantic=8&num_scrambled_causal=4&num_scrambled_schematic=4&participantId=ED99A4077C4B479AB6999B4F1660AAE5&assignmentId=0198b98c-727a-78bf-8657-9d5ef9a97cd3&projectId=0198b979-1f5e-7105-8b5f-48f920534529","ED99A4077C4B479AB6999B4F1660AAE5-2025-08-17-20-29-48","","null","","images/causal_sequence/the_performance_causal/the_performance_causal_0.png","null","",""
"","","","","","image-button-response","57","577049","0.0-12.0-1.0-0.0","ED99A4077C4B479AB6999B4F1660AAE5","ED99A4077C4B479AB6999B4F1660AAE5","0198b98c-727a-78bf-8657-9d5ef9a97cd3","0198b979-1f5e-7105-8b5f-48f920534529","{""num_scrambled_semantic"":""8"",""num_scrambled_causal"":""4"",""num_scrambled_schematic"":""4"",""participantId"":""ED99A4077C4B479AB6999B4F1660AAE5"",""assignmentId"":""0198b98c-727a-78bf-8657-9d5ef9a97cd3"",""projectId"":""0198b979-1f5e-7105-8b5f-48f920534529""}","https://test12345.live/?num_scrambled_semantic=8&num_scrambled_causal=4&num_scrambled_schematic=4&participantId=ED99A4077C4B479AB6999B4F1660AAE5&assignmentId=0198b98c-727a-78bf-8657-9d5ef9a97cd3&projectId=0198b979-1f5e-7105-8b5f-48f920534529","ED99A4077C4B479AB6999B4F1660AAE5-2025-08-17-20-29-48","","null","","images/causal_sequence/the_performance_causal/the_performance_causal_6.png","null","",""
"","","","","","image-button-response","58","579154","0.0-12.0-1.0-1.0","ED99A4077C4B479AB6999B4F1660AAE5","ED99A4077C4B479AB6999B4F1660AAE5","0198b98c-727a-78bf-8657-9d5ef9a97cd3","0198b979-1f5e-7105-8b5f-48f920534529","{""num_scrambled_semantic"":""8"",""num_scrambled_causal"":""4"",""num_scrambled_schematic"":""4"",""participantId"":""ED99A4077C4B479AB6999B4F1660AAE5"",""assignmentId"":""0198b98c-727a-78bf-8657-9d5ef9a97cd3"",""projectId"":""0198b979-1f5e-7105-8b5f-48f920534529""}","https://test12345.live/?num_scrambled_semantic=8&num_scrambled_causal=4&num_scrambled_schematic=4&participantId=ED99A4077C4B479AB6999B4F1660AAE5&assignmentId=0198b98c-727a-78bf-8657-9d5ef9a97cd3&projectId=0198b979-1f5e-7105-8b5f-48f920534529","ED99A4077C4B479AB6999B4F1660AAE5-2025-08-17-20-29-48","","2104","","images/causal_sequence/the_performance_causal/the_performance_causal_6.png","0","",""
"","","","","","image-button-response","59","584571","0.0-12.0-1.0-2.0","ED99A4077C4B479AB6999B4F1660AAE5","ED99A4077C4B479AB6999B4F1660AAE5","0198b98c-727a-78bf-8657-9d5ef9a97cd3","0198b979-1f5e-7105-8b5f-48f920534529","{""num_scrambled_semantic"":""8"",""num_scrambled_causal"":""4"",""num_scrambled_schematic"":""4"",""participantId"":""ED99A4077C4B479AB6999B4F1660AAE5"",""assignmentId"":""0198b98c-727a-78bf-8657-9d5ef9a97cd3"",""projectId"":""0198b979-1f5e-7105-8b5f-48f920534529""}","https://test12345.live/?num_scrambled_semantic=8&num_scrambled_causal=4&num_scrambled_schematic=4&participantId=ED99A4077C4B479AB6999B4F1660AAE5&assignmentId=0198b98c-727a-78bf-8657-9d5ef9a97cd3&projectId=0198b979-1f5e-7105-8b5f-48f920534529","ED99A4077C4B479AB6999B4F1660AAE5-2025-08-17-20-29-48","","null","","[]","null","",""
"","","","","","image-button-response","60","589073","0.0-12.0-1.0-0.1","ED99A4077C4B479AB6999B4F1660AAE5","ED99A4077C4B479AB6999B4F1660AAE5","0198b98c-727a-78bf-8657-9d5ef9a97cd3","0198b979-1f5e-7105-8b5f-48f920534529","{""num_scrambled_semantic"":""8"",""num_scrambled_causal"":""4"",""num_scrambled_schematic"":""4"",""participantId"":""ED99A4077C4B479AB6999B4F1660AAE5"",""assignmentId"":""0198b98c-727a-78bf-8657-9d5ef9a97cd3"",""projectId"":""0198b979-1f5e-7105-8b5f-48f920534529""}","https://test12345.live/?num_scrambled_semantic=8&num_scrambled_causal=4&num_scrambled_schematic=4&participantId=ED99A4077C4B479AB6999B4F1660AAE5&assignmentId=0198b98c-727a-78bf-8657-9d5ef9a97cd3&projectId=0198b979-1f5e-7105-8b5f-48f920534529","ED99A4077C4B479AB6999B4F1660AAE5-2025-08-17-20-29-48","","null","","images/causal_sequence/the_performance_causal/the_performance_causal_5.png","null","",""
"","","","","","image-button-response","61","590439","0.0-12.0-1.0-1.1","ED99A4077C4B479AB6999B4F1660AAE5","ED99A4077C4B479AB6999B4F1660AAE5","0198b98c-727a-78bf-8657-9d5ef9a97cd3","0198b979-1f5e-7105-8b5f-48f920534529","{""num_scrambled_semantic"":""8"",""num_scrambled_causal"":""4"",""num_scrambled_schematic"":""4"",""participantId"":""ED99A4077C4B479AB6999B4F1660AAE5"",""assignmentId"":""0198b98c-727a-78bf-8657-9d5ef9a97cd3"",""projectId"":""0198b979-1f5e-7105-8b5f-48f920534529""}","https://test12345.live/?num_scrambled_semantic=8&num_scrambled_causal=4&num_scrambled_schematic=4&participantId=ED99A4077C4B479AB6999B4F1660AAE5&assignmentId=0198b98c-727a-78bf-8657-9d5ef9a97cd3&projectId=0198b979-1f5e-7105-8b5f-48f920534529","ED99A4077C4B479AB6999B4F1660AAE5-2025-08-17-20-29-48","","1366","","images/causal_sequence/the_performance_causal/the_performance_causal_5.png","0","",""
"","","","","","image-button-response","62","595846","0.0-12.0-1.0-2.1","ED99A4077C4B479AB6999B4F1660AAE5","ED99A4077C4B479AB6999B4F1660AAE5","0198b98c-727a-78bf-8657-9d5ef9a97cd3","0198b979-1f5e-7105-8b5f-48f920534529","{""num_scrambled_semantic"":""8"",""num_scrambled_causal"":""4"",""num_scrambled_schematic"":""4"",""participantId"":""ED99A4077C4B479AB6999B4F1660AAE5"",""assignmentId"":""0198b98c-727a-78bf-8657-9d5ef9a97cd3"",""projectId"":""0198b979-1f5e-7105-8b5f-48f920534529""}","https://test12345.live/?num_scrambled_semantic=8&num_scrambled_causal=4&num_scrambled_schematic=4&participantId=ED99A4077C4B479AB6999B4F1660AAE5&assignmentId=0198b98c-727a-78bf-8657-9d5ef9a97cd3&projectId=0198b979-1f5e-7105-8b5f-48f920534529","ED99A4077C4B479AB6999B4F1660AAE5-2025-08-17-20-29-48","","null","","[]","null","",""
"","","","","","image-button-response","63","600351","0.0-12.0-1.0-0.2","ED99A4077C4B479AB6999B4F1660AAE5","ED99A4077C4B479AB6999B4F1660AAE5","0198b98c-727a-78bf-8657-9d5ef9a97cd3","0198b979-1f5e-7105-8b5f-48f920534529","{""num_scrambled_semantic"":""8"",""num_scrambled_causal"":""4"",""num_scrambled_schematic"":""4"",""participantId"":""ED99A4077C4B479AB6999B4F1660AAE5"",""assignmentId"":""0198b98c-727a-78bf-8657-9d5ef9a97cd3"",""projectId"":""0198b979-1f5e-7105-8b5f-48f920534529""}","https://test12345.live/?num_scrambled_semantic=8&num_scrambled_causal=4&num_scrambled_schematic=4&participantId=ED99A4077C4B479AB6999B4F1660AAE5&assignmentId=0198b98c-727a-78bf-8657-9d5ef9a97cd3&projectId=0198b979-1f5e-7105-8b5f-48f920534529","ED99A4077C4B479AB6999B4F1660AAE5-2025-08-17-20-29-48","","null","","images/causal_sequence/the_performance_causal/the_performance_causal_ten.png","null","",""
"","","","","","image-button-response","64","601843","0.0-12.0-1.0-1.2","ED99A4077C4B479AB6999B4F1660AAE5","ED99A4077C4B479AB6999B4F1660AAE5","0198b98c-727a-78bf-8657-9d5ef9a97cd3","0198b979-1f5e-7105-8b5f-48f920534529","{""num_scrambled_semantic"":""8"",""num_scrambled_causal"":""4"",""num_scrambled_schematic"":""4"",""participantId"":""ED99A4077C4B479AB6999B4F1660AAE5"",""assignmentId"":""0198b98c-727a-78bf-8657-9d5ef9a97cd3"",""projectId"":""0198b979-1f5e-7105-8b5f-48f920534529""}","https://test12345.live/?num_scrambled_semantic=8&num_scrambled_causal=4&num_scrambled_schematic=4&participantId=ED99A4077C4B479AB6999B4F1660AAE5&assignmentId=0198b98c-727a-78bf-8657-9d5ef9a97cd3&projectId=0198b979-1f5e-7105-8b5f-48f920534529","ED99A4077C4B479AB6999B4F1660AAE5-2025-08-17-20-29-48","","1491","","images/causal_sequence/the_performance_causal/the_performance_causal_ten.png","0","",""
"","","","","","image-button-response","65","607247","0.0-12.0-1.0-2.2","ED99A4077C4B479AB6999B4F1660AAE5","ED99A4077C4B479AB6999B4F1660AAE5","0198b98c-727a-78bf-8657-9d5ef9a97cd3","0198b979-1f5e-7105-8b5f-48f920534529","{""num_scrambled_semantic"":""8"",""num_scrambled_causal"":""4"",""num_scrambled_schematic"":""4"",""participantId"":""ED99A4077C4B479AB6999B4F1660AAE5"",""assignmentId"":""0198b98c-727a-78bf-8657-9d5ef9a97cd3"",""projectId"":""0198b979-1f5e-7105-8b5f-48f920534529""}","https://test12345.live/?num_scrambled_semantic=8&num_scrambled_causal=4&num_scrambled_schematic=4&participantId=ED99A4077C4B479AB6999B4F1660AAE5&assignmentId=0198b98c-727a-78bf-8657-9d5ef9a97cd3&projectId=0198b979-1f5e-7105-8b5f-48f920534529","ED99A4077C4B479AB6999B4F1660AAE5-2025-08-17-20-29-48","","null","","[]","null","",""
"","","","","","image-button-response","66","611756","0.0-12.0-1.0-0.3","ED99A4077C4B479AB6999B4F1660AAE5","ED99A4077C4B479AB6999B4F1660AAE5","0198b98c-727a-78bf-8657-9d5ef9a97cd3","0198b979-1f5e-7105-8b5f-48f920534529","{""num_scrambled_semantic"":""8"",""num_scrambled_causal"":""4"",""num_scrambled_schematic"":""4"",""participantId"":""ED99A4077C4B479AB6999B4F1660AAE5"",""assignmentId"":""0198b98c-727a-78bf-8657-9d5ef9a97cd3"",""projectId"":""0198b979-1f5e-7105-8b5f-48f920534529""}","https://test12345.live/?num_scrambled_semantic=8&num_scrambled_causal=4&num_scrambled_schematic=4&participantId=ED99A4077C4B479AB6999B4F1660AAE5&assignmentId=0198b98c-727a-78bf-8657-9d5ef9a97cd3&projectId=0198b979-1f5e-7105-8b5f-48f920534529","ED99A4077C4B479AB6999B4F1660AAE5-2025-08-17-20-29-48","","null","","images/causal_sequence/the_performance_causal/the_performance_causal_2.png","null","",""
"","","","","","image-button-response","67","614032","0.0-12.0-1.0-1.3","ED99A4077C4B479AB6999B4F1660AAE5","ED99A4077C4B479AB6999B4F1660AAE5","0198b98c-727a-78bf-8657-9d5ef9a97cd3","0198b979-1f5e-7105-8b5f-48f920534529","{""num_scrambled_semantic"":""8"",""num_scrambled_causal"":""4"",""num_scrambled_schematic"":""4"",""participantId"":""ED99A4077C4B479AB6999B4F1660AAE5"",""assignmentId"":""0198b98c-727a-78bf-8657-9d5ef9a97cd3"",""projectId"":""0198b979-1f5e-7105-8b5f-48f920534529""}","https://test12345.live/?num_scrambled_semantic=8&num_scrambled_causal=4&num_scrambled_schematic=4&participantId=ED99A4077C4B479AB6999B4F1660AAE5&assignmentId=0198b98c-727a-78bf-8657-9d5ef9a97cd3&projectId=0198b979-1f5e-7105-8b5f-48f920534529","ED99A4077C4B479AB6999B4F1660AAE5-2025-08-17-20-29-48","","2274","","images/causal_sequence/the_performance_causal/the_performance_causal_2.png","0","",""
"","","","","","image-button-response","68","619435","0.0-12.0-1.0-2.3","ED99A4077C4B479AB6999B4F1660AAE5","ED99A4077C4B479AB6999B4F1660AAE5","0198b98c-727a-78bf-8657-9d5ef9a97cd3","0198b979-1f5e-7105-8b5f-48f920534529","{""num_scrambled_semantic"":""8"",""num_scrambled_causal"":""4"",""num_scrambled_schematic"":""4"",""participantId"":""ED99A4077C4B479AB6999B4F1660AAE5"",""assignmentId"":""0198b98c-727a-78bf-8657-9d5ef9a97cd3"",""projectId"":""0198b979-1f5e-7105-8b5f-48f920534529""}","https://test12345.live/?num_scrambled_semantic=8&num_scrambled_causal=4&num_scrambled_schematic=4&participantId=ED99A4077C4B479AB6999B4F1660AAE5&assignmentId=0198b98c-727a-78bf-8657-9d5ef9a97cd3&projectId=0198b979-1f5e-7105-8b5f-48f920534529","ED99A4077C4B479AB6999B4F1660AAE5-2025-08-17-20-29-48","","null","","[]","null","",""
"","","","","","image-button-response","69","623947","0.0-12.0-1.0-0.4","ED99A4077C4B479AB6999B4F1660AAE5","ED99A4077C4B479AB6999B4F1660AAE5","0198b98c-727a-78bf-8657-9d5ef9a97cd3","0198b979-1f5e-7105-8b5f-48f920534529","{""num_scrambled_semantic"":""8"",""num_scrambled_causal"":""4"",""num_scrambled_schematic"":""4"",""participantId"":""ED99A4077C4B479AB6999B4F1660AAE5"",""assignmentId"":""0198b98c-727a-78bf-8657-9d5ef9a97cd3"",""projectId"":""0198b979-1f5e-7105-8b5f-48f920534529""}","https://test12345.live/?num_scrambled_semantic=8&num_scrambled_causal=4&num_scrambled_schematic=4&participantId=ED99A4077C4B479AB6999B4F1660AAE5&assignmentId=0198b98c-727a-78bf-8657-9d5ef9a97cd3&projectId=0198b979-1f5e-7105-8b5f-48f920534529","ED99A4077C4B479AB6999B4F1660AAE5-2025-08-17-20-29-48","","null","","images/causal_sequence/the_performance_causal/the_performance_causal_3.png","null","",""
"","","","","","image-button-response","70","625260","0.0-12.0-1.0-1.4","ED99A4077C4B479AB6999B4F1660AAE5","ED99A4077C4B479AB6999B4F1660AAE5","0198b98c-727a-78bf-8657-9d5ef9a97cd3","0198b979-1f5e-7105-8b5f-48f920534529","{""num_scrambled_semantic"":""8"",""num_scrambled_causal"":""4"",""num_scrambled_schematic"":""4"",""participantId"":""ED99A4077C4B479AB6999B4F1660AAE5"",""assignmentId"":""0198b98c-727a-78bf-8657-9d5ef9a97cd3"",""projectId"":""0198b979-1f5e-7105-8b5f-48f920534529""}","https://test12345.live/?num_scrambled_semantic=8&num_scrambled_causal=4&num_scrambled_schematic=4&participantId=ED99A4077C4B479AB6999B4F1660AAE5&assignmentId=0198b98c-727a-78bf-8657-9d5ef9a97cd3&projectId=0198b979-1f5e-7105-8b5f-48f920534529","ED99A4077C4B479AB6999B4F1660AAE5-2025-08-17-20-29-48","","1312","","images/causal_sequence/the_performance_causal/the_performance_causal_3.png","0","",""
"","","","","","image-button-response","71","630667","0.0-12.0-1.0-2.4","ED99A4077C4B479AB6999B4F1660AAE5","ED99A4077C4B479AB6999B4F1660AAE5","0198b98c-727a-78bf-8657-9d5ef9a97cd3","0198b979-1f5e-7105-8b5f-48f920534529","{""num_scrambled_semantic"":""8"",""num_scrambled_causal"":""4"",""num_scrambled_schematic"":""4"",""participantId"":""ED99A4077C4B479AB6999B4F1660AAE5"",""assignmentId"":""0198b98c-727a-78bf-8657-9d5ef9a97cd3"",""projectId"":""0198b979-1f5e-7105-8b5f-48f920534529""}","https://test12345.live/?num_scrambled_semantic=8&num_scrambled_causal=4&num_scrambled_schematic=4&participantId=ED99A4077C4B479AB6999B4F1660AAE5&assignmentId=0198b98c-727a-78bf-8657-9d5ef9a97cd3&projectId=0198b979-1f5e-7105-8b5f-48f920534529","ED99A4077C4B479AB6999B4F1660AAE5-2025-08-17-20-29-48","","null","","[]","null","",""
"","","","","","image-button-response","72","635168","0.0-12.0-1.0-0.5","ED99A4077C4B479AB6999B4F1660AAE5","ED99A4077C4B479AB6999B4F1660AAE5","0198b98c-727a-78bf-8657-9d5ef9a97cd3","0198b979-1f5e-7105-8b5f-48f920534529","{""num_scrambled_semantic"":""8"",""num_scrambled_causal"":""4"",""num_scrambled_schematic"":""4"",""participantId"":""ED99A4077C4B479AB6999B4F1660AAE5"",""assignmentId"":""0198b98c-727a-78bf-8657-9d5ef9a97cd3"",""projectId"":""0198b979-1f5e-7105-8b5f-48f920534529""}","https://test12345.live/?num_scrambled_semantic=8&num_scrambled_causal=4&num_scrambled_schematic=4&participantId=ED99A4077C4B479AB6999B4F1660AAE5&assignmentId=0198b98c-727a-78bf-8657-9d5ef9a97cd3&projectId=0198b979-1f5e-7105-8b5f-48f920534529","ED99A4077C4B479AB6999B4F1660AAE5-2025-08-17-20-29-48","","null","","images/causal_sequence/the_performance_causal/the_performance_causal_4.png","null","",""
"","","","","","image-button-response","73","637657","0.0-12.0-1.0-1.5","ED99A4077C4B479AB6999B4F1660AAE5","ED99A4077C4B479AB6999B4F1660AAE5","0198b98c-727a-78bf-8657-9d5ef9a97cd3","0198b979-1f5e-7105-8b5f-48f920534529","{""num_scrambled_semantic"":""8"",""num_scrambled_causal"":""4"",""num_scrambled_schematic"":""4"",""participantId"":""ED99A4077C4B479AB6999B4F1660AAE5"",""assignmentId"":""0198b98c-727a-78bf-8657-9d5ef9a97cd3"",""projectId"":""0198b979-1f5e-7105-8b5f-48f920534529""}","https://test12345.live/?num_scrambled_semantic=8&num_scrambled_causal=4&num_scrambled_schematic=4&participantId=ED99A4077C4B479AB6999B4F1660AAE5&assignmentId=0198b98c-727a-78bf-8657-9d5ef9a97cd3&projectId=0198b979-1f5e-7105-8b5f-48f920534529","ED99A4077C4B479AB6999B4F1660AAE5-2025-08-17-20-29-48","","2488","","images/causal_sequence/the_performance_causal/the_performance_causal_4.png","0","",""
"","","","","","image-button-response","74","643059","0.0-12.0-1.0-2.5","ED99A4077C4B479AB6999B4F1660AAE5","ED99A4077C4B479AB6999B4F1660AAE5","0198b98c-727a-78bf-8657-9d5ef9a97cd3","0198b979-1f5e-7105-8b5f-48f920534529","{""num_scrambled_semantic"":""8"",""num_scrambled_causal"":""4"",""num_scrambled_schematic"":""4"",""participantId"":""ED99A4077C4B479AB6999B4F1660AAE5"",""assignmentId"":""0198b98c-727a-78bf-8657-9d5ef9a97cd3"",""projectId"":""0198b979-1f5e-7105-8b5f-48f920534529""}","https://test12345.live/?num_scrambled_semantic=8&num_scrambled_causal=4&num_scrambled_schematic=4&participantId=ED99A4077C4B479AB6999B4F1660AAE5&assignmentId=0198b98c-727a-78bf-8657-9d5ef9a97cd3&projectId=0198b979-1f5e-7105-8b5f-48f920534529","ED99A4077C4B479AB6999B4F1660AAE5-2025-08-17-20-29-48","","null","","[]","null","",""
"","","","","","image-button-response","75","647563","0.0-12.0-1.0-0.6","ED99A4077C4B479AB6999B4F1660AAE5","ED99A4077C4B479AB6999B4F1660AAE5","0198b98c-727a-78bf-8657-9d5ef9a97cd3","0198b979-1f5e-7105-8b5f-48f920534529","{""num_scrambled_semantic"":""8"",""num_scrambled_causal"":""4"",""num_scrambled_schematic"":""4"",""participantId"":""ED99A4077C4B479AB6999B4F1660AAE5"",""assignmentId"":""0198b98c-727a-78bf-8657-9d5ef9a97cd3"",""projectId"":""0198b979-1f5e-7105-8b5f-48f920534529""}","https://test12345.live/?num_scrambled_semantic=8&num_scrambled_causal=4&num_scrambled_schematic=4&participantId=ED99A4077C4B479AB6999B4F1660AAE5&assignmentId=0198b98c-727a-78bf-8657-9d5ef9a97cd3&projectId=0198b979-1f5e-7105-8b5f-48f920534529","ED99A4077C4B479AB6999B4F1660AAE5-2025-08-17-20-29-48","","null","","images/causal_sequence/the_performance_causal/the_performance_causal_8.png","null","",""
"","","","","","image-button-response","76","648738","0.0-12.0-1.0-1.6","ED99A4077C4B479AB6999B4F1660AAE5","ED99A4077C4B479AB6999B4F1660AAE5","0198b98c-727a-78bf-8657-9d5ef9a97cd3","0198b979-1f5e-7105-8b5f-48f920534529","{""num_scrambled_semantic"":""8"",""num_scrambled_causal"":""4"",""num_scrambled_schematic"":""4"",""participantId"":""ED99A4077C4B479AB6999B4F1660AAE5"",""assignmentId"":""0198b98c-727a-78bf-8657-9d5ef9a97cd3"",""projectId"":""0198b979-1f5e-7105-8b5f-48f920534529""}","https://test12345.live/?num_scrambled_semantic=8&num_scrambled_causal=4&num_scrambled_schematic=4&participantId=ED99A4077C4B479AB6999B4F1660AAE5&assignmentId=0198b98c-727a-78bf-8657-9d5ef9a97cd3&projectId=0198b979-1f5e-7105-8b5f-48f920534529","ED99A4077C4B479AB6999B4F1660AAE5-2025-08-17-20-29-48","","1174","","images/causal_sequence/the_performance_causal/the_performance_causal_8.png","0","",""
"","","","","","image-button-response","77","654148","0.0-12.0-1.0-2.6","ED99A4077C4B479AB6999B4F1660AAE5","ED99A4077C4B479AB6999B4F1660AAE5","0198b98c-727a-78bf-8657-9d5ef9a97cd3","0198b979-1f5e-7105-8b5f-48f920534529","{""num_scrambled_semantic"":""8"",""num_scrambled_causal"":""4"",""num_scrambled_schematic"":""4"",""participantId"":""ED99A4077C4B479AB6999B4F1660AAE5"",""assignmentId"":""0198b98c-727a-78bf-8657-9d5ef9a97cd3"",""projectId"":""0198b979-1f5e-7105-8b5f-48f920534529""}","https://test12345.live/?num_scrambled_semantic=8&num_scrambled_causal=4&num_scrambled_schematic=4&participantId=ED99A4077C4B479AB6999B4F1660AAE5&assignmentId=0198b98c-727a-78bf-8657-9d5ef9a97cd3&projectId=0198b979-1f5e-7105-8b5f-48f920534529","ED99A4077C4B479AB6999B4F1660AAE5-2025-08-17-20-29-48","","null","","[]","null","",""
"","","","","","image-button-response","78","658649","0.0-12.0-1.0-0.7","ED99A4077C4B479AB6999B4F1660AAE5","ED99A4077C4B479AB6999B4F1660AAE5","0198b98c-727a-78bf-8657-9d5ef9a97cd3","0198b979-1f5e-7105-8b5f-48f920534529","{""num_scrambled_semantic"":""8"",""num_scrambled_causal"":""4"",""num_scrambled_schematic"":""4"",""participantId"":""ED99A4077C4B479AB6999B4F1660AAE5"",""assignmentId"":""0198b98c-727a-78bf-8657-9d5ef9a97cd3"",""projectId"":""0198b979-1f5e-7105-8b5f-48f920534529""}","https://test12345.live/?num_scrambled_semantic=8&num_scrambled_causal=4&num_scrambled_schematic=4&participantId=ED99A4077C4B479AB6999B4F1660AAE5&assignmentId=0198b98c-727a-78bf-8657-9d5ef9a97cd3&projectId=0198b979-1f5e-7105-8b5f-48f920534529","ED99A4077C4B479AB6999B4F1660AAE5-2025-08-17-20-29-48","","null","","images/causal_sequence/the_performance_causal/the_performance_causal_1.png","null","",""
"","","","","","image-button-response","79","659916","0.0-12.0-1.0-1.7","ED99A4077C4B479AB6999B4F1660AAE5","ED99A4077C4B479AB6999B4F1660AAE5","0198b98c-727a-78bf-8657-9d5ef9a97cd3","0198b979-1f5e-7105-8b5f-48f920534529","{""num_scrambled_semantic"":""8"",""num_scrambled_causal"":""4"",""num_scrambled_schematic"":""4"",""participantId"":""ED99A4077C4B479AB6999B4F1660AAE5"",""assignmentId"":""0198b98c-727a-78bf-8657-9d5ef9a97cd3"",""projectId"":""0198b979-1f5e-7105-8b5f-48f920534529""}","https://test12345.live/?num_scrambled_semantic=8&num_scrambled_causal=4&num_scrambled_schematic=4&participantId=ED99A4077C4B479AB6999B4F1660AAE5&assignmentId=0198b98c-727a-78bf-8657-9d5ef9a97cd3&projectId=0198b979-1f5e-7105-8b5f-48f920534529","ED99A4077C4B479AB6999B4F1660AAE5-2025-08-17-20-29-48","","1267","","images/causal_sequence/the_performance_causal/the_performance_causal_1.png","0","",""
"","","","","","image-button-response","80","665332","0.0-12.0-1.0-2.7","ED99A4077C4B479AB6999B4F1660AAE5","ED99A4077C4B479AB6999B4F1660AAE5","0198b98c-727a-78bf-8657-9d5ef9a97cd3","0198b979-1f5e-7105-8b5f-48f920534529","{""num_scrambled_semantic"":""8"",""num_scrambled_causal"":""4"",""num_scrambled_schematic"":""4"",""participantId"":""ED99A4077C4B479AB6999B4F1660AAE5"",""assignmentId"":""0198b98c-727a-78bf-8657-9d5ef9a97cd3"",""projectId"":""0198b979-1f5e-7105-8b5f-48f920534529""}","https://test12345.live/?num_scrambled_semantic=8&num_scrambled_causal=4&num_scrambled_schematic=4&participantId=ED99A4077C4B479AB6999B4F1660AAE5&assignmentId=0198b98c-727a-78bf-8657-9d5ef9a97cd3&projectId=0198b979-1f5e-7105-8b5f-48f920534529","ED99A4077C4B479AB6999B4F1660AAE5-2025-08-17-20-29-48","","null","","[]","null","",""
"","","","","","image-button-response","81","669844","0.0-12.0-1.0-0.8","ED99A4077C4B479AB6999B4F1660AAE5","ED99A4077C4B479AB6999B4F1660AAE5","0198b98c-727a-78bf-8657-9d5ef9a97cd3","0198b979-1f5e-7105-8b5f-48f920534529","{""num_scrambled_semantic"":""8"",""num_scrambled_causal"":""4"",""num_scrambled_schematic"":""4"",""participantId"":""ED99A4077C4B479AB6999B4F1660AAE5"",""assignmentId"":""0198b98c-727a-78bf-8657-9d5ef9a97cd3"",""projectId"":""0198b979-1f5e-7105-8b5f-48f920534529""}","https://test12345.live/?num_scrambled_semantic=8&num_scrambled_causal=4&num_scrambled_schematic=4&participantId=ED99A4077C4B479AB6999B4F1660AAE5&assignmentId=0198b98c-727a-78bf-8657-9d5ef9a97cd3&projectId=0198b979-1f5e-7105-8b5f-48f920534529","ED99A4077C4B479AB6999B4F1660AAE5-2025-08-17-20-29-48","","null","","images/causal_sequence/the_performance_causal/the_performance_causal_9.png","null","",""
"","","","","","image-button-response","82","670851","0.0-12.0-1.0-1.8","ED99A4077C4B479AB6999B4F1660AAE5","ED99A4077C4B479AB6999B4F1660AAE5","0198b98c-727a-78bf-8657-9d5ef9a97cd3","0198b979-1f5e-7105-8b5f-48f920534529","{""num_scrambled_semantic"":""8"",""num_scrambled_causal"":""4"",""num_scrambled_schematic"":""4"",""participantId"":""ED99A4077C4B479AB6999B4F1660AAE5"",""assignmentId"":""0198b98c-727a-78bf-8657-9d5ef9a97cd3"",""projectId"":""0198b979-1f5e-7105-8b5f-48f920534529""}","https://test12345.live/?num_scrambled_semantic=8&num_scrambled_causal=4&num_scrambled_schematic=4&participantId=ED99A4077C4B479AB6999B4F1660AAE5&assignmentId=0198b98c-727a-78bf-8657-9d5ef9a97cd3&projectId=0198b979-1f5e-7105-8b5f-48f920534529","ED99A4077C4B479AB6999B4F1660AAE5-2025-08-17-20-29-48","","1005","","images/causal_sequence/the_performance_causal/the_performance_causal_9.png","0","",""
"","","","","","image-button-response","83","676267","0.0-12.0-1.0-2.8","ED99A4077C4B479AB6999B4F1660AAE5","ED99A4077C4B479AB6999B4F1660AAE5","0198b98c-727a-78bf-8657-9d5ef9a97cd3","0198b979-1f5e-7105-8b5f-48f920534529","{""num_scrambled_semantic"":""8"",""num_scrambled_causal"":""4"",""num_scrambled_schematic"":""4"",""participantId"":""ED99A4077C4B479AB6999B4F1660AAE5"",""assignmentId"":""0198b98c-727a-78bf-8657-9d5ef9a97cd3"",""projectId"":""0198b979-1f5e-7105-8b5f-48f920534529""}","https://test12345.live/?num_scrambled_semantic=8&num_scrambled_causal=4&num_scrambled_schematic=4&participantId=ED99A4077C4B479AB6999B4F1660AAE5&assignmentId=0198b98c-727a-78bf-8657-9d5ef9a97cd3&projectId=0198b979-1f5e-7105-8b5f-48f920534529","ED99A4077C4B479AB6999B4F1660AAE5-2025-08-17-20-29-48","","null","","[]","null","",""
"","","","","","image-button-response","84","680777","0.0-12.0-1.0-0.9","ED99A4077C4B479AB6999B4F1660AAE5","ED99A4077C4B479AB6999B4F1660AAE5","0198b98c-727a-78bf-8657-9d5ef9a97cd3","0198b979-1f5e-7105-8b5f-48f920534529","{""num_scrambled_semantic"":""8"",""num_scrambled_causal"":""4"",""num_scrambled_schematic"":""4"",""participantId"":""ED99A4077C4B479AB6999B4F1660AAE5"",""assignmentId"":""0198b98c-727a-78bf-8657-9d5ef9a97cd3"",""projectId"":""0198b979-1f5e-7105-8b5f-48f920534529""}","https://test12345.live/?num_scrambled_semantic=8&num_scrambled_causal=4&num_scrambled_schematic=4&participantId=ED99A4077C4B479AB6999B4F1660AAE5&assignmentId=0198b98c-727a-78bf-8657-9d5ef9a97cd3&projectId=0198b979-1f5e-7105-8b5f-48f920534529","ED99A4077C4B479AB6999B4F1660AAE5-2025-08-17-20-29-48","","null","","images/causal_sequence/the_performance_causal/the_performance_causal_7.png","null","",""
"","","","","","image-button-response","85","682179","0.0-12.0-1.0-1.9","ED99A4077C4B479AB6999B4F1660AAE5","ED99A4077C4B479AB6999B4F1660AAE5","0198b98c-727a-78bf-8657-9d5ef9a97cd3","0198b979-1f5e-7105-8b5f-48f920534529","{""num_scrambled_semantic"":""8"",""num_scrambled_causal"":""4"",""num_scrambled_schematic"":""4"",""participantId"":""ED99A4077C4B479AB6999B4F1660AAE5"",""assignmentId"":""0198b98c-727a-78bf-8657-9d5ef9a97cd3"",""projectId"":""0198b979-1f5e-7105-8b5f-48f920534529""}","https://test12345.live/?num_scrambled_semantic=8&num_scrambled_causal=4&num_scrambled_schematic=4&participantId=ED99A4077C4B479AB6999B4F1660AAE5&assignmentId=0198b98c-727a-78bf-8657-9d5ef9a97cd3&projectId=0198b979-1f5e-7105-8b5f-48f920534529","ED99A4077C4B479AB6999B4F1660AAE5-2025-08-17-20-29-48","","1401","","images/causal_sequence/the_performance_causal/the_performance_causal_7.png","0","",""
"","","","","","image-button-response","86","687596","0.0-12.0-1.0-2.9","ED99A4077C4B479AB6999B4F1660AAE5","ED99A4077C4B479AB6999B4F1660AAE5","0198b98c-727a-78bf-8657-9d5ef9a97cd3","0198b979-1f5e-7105-8b5f-48f920534529","{""num_scrambled_semantic"":""8"",""num_scrambled_causal"":""4"",""num_scrambled_schematic"":""4"",""participantId"":""ED99A4077C4B479AB6999B4F1660AAE5"",""assignmentId"":""0198b98c-727a-78bf-8657-9d5ef9a97cd3"",""projectId"":""0198b979-1f5e-7105-8b5f-48f920534529""}","https://test12345.live/?num_scrambled_semantic=8&num_scrambled_causal=4&num_scrambled_schematic=4&participantId=ED99A4077C4B479AB6999B4F1660AAE5&assignmentId=0198b98c-727a-78bf-8657-9d5ef9a97cd3&projectId=0198b979-1f5e-7105-8b5f-48f920534529","ED99A4077C4B479AB6999B4F1660AAE5-2025-08-17-20-29-48","","null","","[]","null","",""
"","","","","","html-audio-response","87","745052","0.0-13.0","ED99A4077C4B479AB6999B4F1660AAE5","ED99A4077C4B479AB6999B4F1660AAE5","0198b98c-727a-78bf-8657-9d5ef9a97cd3","0198b979-1f5e-7105-8b5f-48f920534529","{""num_scrambled_semantic"":""8"",""num_scrambled_causal"":""4"",""num_scrambled_schematic"":""4"",""participantId"":""ED99A4077C4B479AB6999B4F1660AAE5"",""assignmentId"":""0198b98c-727a-78bf-8657-9d5ef9a97cd3"",""projectId"":""0198b979-1f5e-7105-8b5f-48f920534529""}","https://test12345.live/?num_scrambled_semantic=8&num_scrambled_causal=4&num_scrambled_schematic=4&participantId=ED99A4077C4B479AB6999B4F1660AAE5&assignmentId=0198b98c-727a-78bf-8657-9d5ef9a97cd3&projectId=0198b979-1f5e-7105-8b5f-48f920534529","ED99A4077C4B479AB6999B4F1660AAE5-2025-08-17-20-29-48","","null","","[""<span style=\""color: red; font-size: 24px\""> NOW RECORDING</span><p>Please say out loud all the images you saw, as many as you can remember. The images can be said in any order.</p>""]","","1","the_performance_causal"
"","","","","","image-button-response","88","751060","0.0-14.0-0.0","ED99A4077C4B479AB6999B4F1660AAE5","ED99A4077C4B479AB6999B4F1660AAE5","0198b98c-727a-78bf-8657-9d5ef9a97cd3","0198b979-1f5e-7105-8b5f-48f920534529","{""num_scrambled_semantic"":""8"",""num_scrambled_causal"":""4"",""num_scrambled_schematic"":""4"",""participantId"":""ED99A4077C4B479AB6999B4F1660AAE5"",""assignmentId"":""0198b98c-727a-78bf-8657-9d5ef9a97cd3"",""projectId"":""0198b979-1f5e-7105-8b5f-48f920534529""}","https://test12345.live/?num_scrambled_semantic=8&num_scrambled_causal=4&num_scrambled_schematic=4&participantId=ED99A4077C4B479AB6999B4F1660AAE5&assignmentId=0198b98c-727a-78bf-8657-9d5ef9a97cd3&projectId=0198b979-1f5e-7105-8b5f-48f920534529","ED99A4077C4B479AB6999B4F1660AAE5-2025-08-17-20-29-48","","null","","images/causal_sequence/museum_causal/museum_causal_0.png","null","",""
"","","","","","image-button-response","89","755572","0.0-14.0-1.0-0.0","ED99A4077C4B479AB6999B4F1660AAE5","ED99A4077C4B479AB6999B4F1660AAE5","0198b98c-727a-78bf-8657-9d5ef9a97cd3","0198b979-1f5e-7105-8b5f-48f920534529","{""num_scrambled_semantic"":""8"",""num_scrambled_causal"":""4"",""num_scrambled_schematic"":""4"",""participantId"":""ED99A4077C4B479AB6999B4F1660AAE5"",""assignmentId"":""0198b98c-727a-78bf-8657-9d5ef9a97cd3"",""projectId"":""0198b979-1f5e-7105-8b5f-48f920534529""}","https://test12345.live/?num_scrambled_semantic=8&num_scrambled_causal=4&num_scrambled_schematic=4&participantId=ED99A4077C4B479AB6999B4F1660AAE5&assignmentId=0198b98c-727a-78bf-8657-9d5ef9a97cd3&projectId=0198b979-1f5e-7105-8b5f-48f920534529","ED99A4077C4B479AB6999B4F1660AAE5-2025-08-17-20-29-48","","null","","images/causal_sequence/museum_causal/museum_causal_2.png","null","",""
"","","","","","image-button-response","90","758783","0.0-14.0-1.0-1.0","ED99A4077C4B479AB6999B4F1660AAE5","ED99A4077C4B479AB6999B4F1660AAE5","0198b98c-727a-78bf-8657-9d5ef9a97cd3","0198b979-1f5e-7105-8b5f-48f920534529","{""num_scrambled_semantic"":""8"",""num_scrambled_causal"":""4"",""num_scrambled_schematic"":""4"",""participantId"":""ED99A4077C4B479AB6999B4F1660AAE5"",""assignmentId"":""0198b98c-727a-78bf-8657-9d5ef9a97cd3"",""projectId"":""0198b979-1f5e-7105-8b5f-48f920534529""}","https://test12345.live/?num_scrambled_semantic=8&num_scrambled_causal=4&num_scrambled_schematic=4&participantId=ED99A4077C4B479AB6999B4F1660AAE5&assignmentId=0198b98c-727a-78bf-8657-9d5ef9a97cd3&projectId=0198b979-1f5e-7105-8b5f-48f920534529","ED99A4077C4B479AB6999B4F1660AAE5-2025-08-17-20-29-48","","3210","","images/causal_sequence/museum_causal/museum_causal_2.png","1","",""
"","","","","","image-button-response","91","764184","0.0-14.0-1.0-2.0","ED99A4077C4B479AB6999B4F1660AAE5","ED99A4077C4B479AB6999B4F1660AAE5","0198b98c-727a-78bf-8657-9d5ef9a97cd3","0198b979-1f5e-7105-8b5f-48f920534529","{""num_scrambled_semantic"":""8"",""num_scrambled_causal"":""4"",""num_scrambled_schematic"":""4"",""participantId"":""ED99A4077C4B479AB6999B4F1660AAE5"",""assignmentId"":""0198b98c-727a-78bf-8657-9d5ef9a97cd3"",""projectId"":""0198b979-1f5e-7105-8b5f-48f920534529""}","https://test12345.live/?num_scrambled_semantic=8&num_scrambled_causal=4&num_scrambled_schematic=4&participantId=ED99A4077C4B479AB6999B4F1660AAE5&assignmentId=0198b98c-727a-78bf-8657-9d5ef9a97cd3&projectId=0198b979-1f5e-7105-8b5f-48f920534529","ED99A4077C4B479AB6999B4F1660AAE5-2025-08-17-20-29-48","","null","","[]","null","",""
"","","","","","image-button-response","92","768700","0.0-14.0-1.0-0.1","ED99A4077C4B479AB6999B4F1660AAE5","ED99A4077C4B479AB6999B4F1660AAE5","0198b98c-727a-78bf-8657-9d5ef9a97cd3","0198b979-1f5e-7105-8b5f-48f920534529","{""num_scrambled_semantic"":""8"",""num_scrambled_causal"":""4"",""num_scrambled_schematic"":""4"",""participantId"":""ED99A4077C4B479AB6999B4F1660AAE5"",""assignmentId"":""0198b98c-727a-78bf-8657-9d5ef9a97cd3"",""projectId"":""0198b979-1f5e-7105-8b5f-48f920534529""}","https://test12345.live/?num_scrambled_semantic=8&num_scrambled_causal=4&num_scrambled_schematic=4&participantId=ED99A4077C4B479AB6999B4F1660AAE5&assignmentId=0198b98c-727a-78bf-8657-9d5ef9a97cd3&projectId=0198b979-1f5e-7105-8b5f-48f920534529","ED99A4077C4B479AB6999B4F1660AAE5-2025-08-17-20-29-48","","null","","images/causal_sequence/museum_causal/museum_causal_7.png","null","",""
"","","","","","image-button-response","93","770644","0.0-14.0-1.0-1.1","ED99A4077C4B479AB6999B4F1660AAE5","ED99A4077C4B479AB6999B4F1660AAE5","0198b98c-727a-78bf-8657-9d5ef9a97cd3","0198b979-1f5e-7105-8b5f-48f920534529","{""num_scrambled_semantic"":""8"",""num_scrambled_causal"":""4"",""num_scrambled_schematic"":""4"",""participantId"":""ED99A4077C4B479AB6999B4F1660AAE5"",""assignmentId"":""0198b98c-727a-78bf-8657-9d5ef9a97cd3"",""projectId"":""0198b979-1f5e-7105-8b5f-48f920534529""}","https://test12345.live/?num_scrambled_semantic=8&num_scrambled_causal=4&num_scrambled_schematic=4&participantId=ED99A4077C4B479AB6999B4F1660AAE5&assignmentId=0198b98c-727a-78bf-8657-9d5ef9a97cd3&projectId=0198b979-1f5e-7105-8b5f-48f920534529","ED99A4077C4B479AB6999B4F1660AAE5-2025-08-17-20-29-48","","1943","","images/causal_sequence/museum_causal/museum_causal_7.png","1","",""
"","","","","","image-button-response","94","776051","0.0-14.0-1.0-2.1","ED99A4077C4B479AB6999B4F1660AAE5","ED99A4077C4B479AB6999B4F1660AAE5","0198b98c-727a-78bf-8657-9d5ef9a97cd3","0198b979-1f5e-7105-8b5f-48f920534529","{""num_scrambled_semantic"":""8"",""num_scrambled_causal"":""4"",""num_scrambled_schematic"":""4"",""participantId"":""ED99A4077C4B479AB6999B4F1660AAE5"",""assignmentId"":""0198b98c-727a-78bf-8657-9d5ef9a97cd3"",""projectId"":""0198b979-1f5e-7105-8b5f-48f920534529""}","https://test12345.live/?num_scrambled_semantic=8&num_scrambled_causal=4&num_scrambled_schematic=4&participantId=ED99A4077C4B479AB6999B4F1660AAE5&assignmentId=0198b98c-727a-78bf-8657-9d5ef9a97cd3&projectId=0198b979-1f5e-7105-8b5f-48f920534529","ED99A4077C4B479AB6999B4F1660AAE5-2025-08-17-20-29-48","","null","","[]","null","",""
"","","","","","image-button-response","95","780557","0.0-14.0-1.0-0.2","ED99A4077C4B479AB6999B4F1660AAE5","ED99A4077C4B479AB6999B4F1660AAE5","0198b98c-727a-78bf-8657-9d5ef9a97cd3","0198b979-1f5e-7105-8b5f-48f920534529","{""num_scrambled_semantic"":""8"",""num_scrambled_causal"":""4"",""num_scrambled_schematic"":""4"",""participantId"":""ED99A4077C4B479AB6999B4F1660AAE5"",""assignmentId"":""0198b98c-727a-78bf-8657-9d5ef9a97cd3"",""projectId"":""0198b979-1f5e-7105-8b5f-48f920534529""}","https://test12345.live/?num_scrambled_semantic=8&num_scrambled_causal=4&num_scrambled_schematic=4&participantId=ED99A4077C4B479AB6999B4F1660AAE5&assignmentId=0198b98c-727a-78bf-8657-9d5ef9a97cd3&projectId=0198b979-1f5e-7105-8b5f-48f920534529","ED99A4077C4B479AB6999B4F1660AAE5-2025-08-17-20-29-48","","null","","images/causal_sequence/museum_causal/museum_causal_8.png","null","",""
"","","","","","image-button-response","96","782169","0.0-14.0-1.0-1.2","ED99A4077C4B479AB6999B4F1660AAE5","ED99A4077C4B479AB6999B4F1660AAE5","0198b98c-727a-78bf-8657-9d5ef9a97cd3","0198b979-1f5e-7105-8b5f-48f920534529","{""num_scrambled_semantic"":""8"",""num_scrambled_causal"":""4"",""num_scrambled_schematic"":""4"",""participantId"":""ED99A4077C4B479AB6999B4F1660AAE5"",""assignmentId"":""0198b98c-727a-78bf-8657-9d5ef9a97cd3"",""projectId"":""0198b979-1f5e-7105-8b5f-48f920534529""}","https://test12345.live/?num_scrambled_semantic=8&num_scrambled_causal=4&num_scrambled_schematic=4&participantId=ED99A4077C4B479AB6999B4F1660AAE5&assignmentId=0198b98c-727a-78bf-8657-9d5ef9a97cd3&projectId=0198b979-1f5e-7105-8b5f-48f920534529","ED99A4077C4B479AB6999B4F1660AAE5-2025-08-17-20-29-48","","1610","","images/causal_sequence/museum_causal/museum_causal_8.png","0","",""
"","","","","","image-button-response","97","787576","0.0-14.0-1.0-2.2","ED99A4077C4B479AB6999B4F1660AAE5","ED99A4077C4B479AB6999B4F1660AAE5","0198b98c-727a-78bf-8657-9d5ef9a97cd3","0198b979-1f5e-7105-8b5f-48f920534529","{""num_scrambled_semantic"":""8"",""num_scrambled_causal"":""4"",""num_scrambled_schematic"":""4"",""participantId"":""ED99A4077C4B479AB6999B4F1660AAE5"",""assignmentId"":""0198b98c-727a-78bf-8657-9d5ef9a97cd3"",""projectId"":""0198b979-1f5e-7105-8b5f-48f920534529""}","https://test12345.live/?num_scrambled_semantic=8&num_scrambled_causal=4&num_scrambled_schematic=4&participantId=ED99A4077C4B479AB6999B4F1660AAE5&assignmentId=0198b98c-727a-78bf-8657-9d5ef9a97cd3&projectId=0198b979-1f5e-7105-8b5f-48f920534529","ED99A4077C4B479AB6999B4F1660AAE5-2025-08-17-20-29-48","","null","","[]","null","",""
"","","","","","image-button-response","98","792082","0.0-14.0-1.0-0.3","ED99A4077C4B479AB6999B4F1660AAE5","ED99A4077C4B479AB6999B4F1660AAE5","0198b98c-727a-78bf-8657-9d5ef9a97cd3","0198b979-1f5e-7105-8b5f-48f920534529","{""num_scrambled_semantic"":""8"",""num_scrambled_causal"":""4"",""num_scrambled_schematic"":""4"",""participantId"":""ED99A4077C4B479AB6999B4F1660AAE5"",""assignmentId"":""0198b98c-727a-78bf-8657-9d5ef9a97cd3"",""projectId"":""0198b979-1f5e-7105-8b5f-48f920534529""}","https://test12345.live/?num_scrambled_semantic=8&num_scrambled_causal=4&num_scrambled_schematic=4&participantId=ED99A4077C4B479AB6999B4F1660AAE5&assignmentId=0198b98c-727a-78bf-8657-9d5ef9a97cd3&projectId=0198b979-1f5e-7105-8b5f-48f920534529","ED99A4077C4B479AB6999B4F1660AAE5-2025-08-17-20-29-48","","null","","images/causal_sequence/museum_causal/museum_causal_5.png","null","",""
"","","","","","image-button-response","99","793333","0.0-14.0-1.0-1.3","ED99A4077C4B479AB6999B4F1660AAE5","ED99A4077C4B479AB6999B4F1660AAE5","0198b98c-727a-78bf-8657-9d5ef9a97cd3","0198b979-1f5e-7105-8b5f-48f920534529","{""num_scrambled_semantic"":""8"",""num_scrambled_causal"":""4"",""num_scrambled_schematic"":""4"",""participantId"":""ED99A4077C4B479AB6999B4F1660AAE5"",""assignmentId"":""0198b98c-727a-78bf-8657-9d5ef9a97cd3"",""projectId"":""0198b979-1f5e-7105-8b5f-48f920534529""}","https://test12345.live/?num_scrambled_semantic=8&num_scrambled_causal=4&num_scrambled_schematic=4&participantId=ED99A4077C4B479AB6999B4F1660AAE5&assignmentId=0198b98c-727a-78bf-8657-9d5ef9a97cd3&projectId=0198b979-1f5e-7105-8b5f-48f920534529","ED99A4077C4B479AB6999B4F1660AAE5-2025-08-17-20-29-48","","1251","","images/causal_sequence/museum_causal/museum_causal_5.png","0","",""
"","","","","","image-button-response","100","798747","0.0-14.0-1.0-2.3","ED99A4077C4B479AB6999B4F1660AAE5","ED99A4077C4B479AB6999B4F1660AAE5","0198b98c-727a-78bf-8657-9d5ef9a97cd3","0198b979-1f5e-7105-8b5f-48f920534529","{""num_scrambled_semantic"":""8"",""num_scrambled_causal"":""4"",""num_scrambled_schematic"":""4"",""participantId"":""ED99A4077C4B479AB6999B4F1660AAE5"",""assignmentId"":""0198b98c-727a-78bf-8657-9d5ef9a97cd3"",""projectId"":""0198b979-1f5e-7105-8b5f-48f920534529""}","https://test12345.live/?num_scrambled_semantic=8&num_scrambled_causal=4&num_scrambled_schematic=4&participantId=ED99A4077C4B479AB6999B4F1660AAE5&assignmentId=0198b98c-727a-78bf-8657-9d5ef9a97cd3&projectId=0198b979-1f5e-7105-8b5f-48f920534529","ED99A4077C4B479AB6999B4F1660AAE5-2025-08-17-20-29-48","","null","","[]","null","",""
"","","","","","image-button-response","101","803259","0.0-14.0-1.0-0.4","ED99A4077C4B479AB6999B4F1660AAE5","ED99A4077C4B479AB6999B4F1660AAE5","0198b98c-727a-78bf-8657-9d5ef9a97cd3","0198b979-1f5e-7105-8b5f-48f920534529","{""num_scrambled_semantic"":""8"",""num_scrambled_causal"":""4"",""num_scrambled_schematic"":""4"",""participantId"":""ED99A4077C4B479AB6999B4F1660AAE5"",""assignmentId"":""0198b98c-727a-78bf-8657-9d5ef9a97cd3"",""projectId"":""0198b979-1f5e-7105-8b5f-48f920534529""}","https://test12345.live/?num_scrambled_semantic=8&num_scrambled_causal=4&num_scrambled_schematic=4&participantId=ED99A4077C4B479AB6999B4F1660AAE5&assignmentId=0198b98c-727a-78bf-8657-9d5ef9a97cd3&projectId=0198b979-1f5e-7105-8b5f-48f920534529","ED99A4077C4B479AB6999B4F1660AAE5-2025-08-17-20-29-48","","null","","images/causal_sequence/museum_causal/museum_causal_6.png","null","",""
"","","","","","image-button-response","102","804155","0.0-14.0-1.0-1.4","ED99A4077C4B479AB6999B4F1660AAE5","ED99A4077C4B479AB6999B4F1660AAE5","0198b98c-727a-78bf-8657-9d5ef9a97cd3","0198b979-1f5e-7105-8b5f-48f920534529","{""num_scrambled_semantic"":""8"",""num_scrambled_causal"":""4"",""num_scrambled_schematic"":""4"",""participantId"":""ED99A4077C4B479AB6999B4F1660AAE5"",""assignmentId"":""0198b98c-727a-78bf-8657-9d5ef9a97cd3"",""projectId"":""0198b979-1f5e-7105-8b5f-48f920534529""}","https://test12345.live/?num_scrambled_semantic=8&num_scrambled_causal=4&num_scrambled_schematic=4&participantId=ED99A4077C4B479AB6999B4F1660AAE5&assignmentId=0198b98c-727a-78bf-8657-9d5ef9a97cd3&projectId=0198b979-1f5e-7105-8b5f-48f920534529","ED99A4077C4B479AB6999B4F1660AAE5-2025-08-17-20-29-48","","895","","images/causal_sequence/museum_causal/museum_causal_6.png","0","",""
"","","","","","image-button-response","103","809569","0.0-14.0-1.0-2.4","ED99A4077C4B479AB6999B4F1660AAE5","ED99A4077C4B479AB6999B4F1660AAE5","0198b98c-727a-78bf-8657-9d5ef9a97cd3","0198b979-1f5e-7105-8b5f-48f920534529","{""num_scrambled_semantic"":""8"",""num_scrambled_causal"":""4"",""num_scrambled_schematic"":""4"",""participantId"":""ED99A4077C4B479AB6999B4F1660AAE5"",""assignmentId"":""0198b98c-727a-78bf-8657-9d5ef9a97cd3"",""projectId"":""0198b979-1f5e-7105-8b5f-48f920534529""}","https://test12345.live/?num_scrambled_semantic=8&num_scrambled_causal=4&num_scrambled_schematic=4&participantId=ED99A4077C4B479AB6999B4F1660AAE5&assignmentId=0198b98c-727a-78bf-8657-9d5ef9a97cd3&projectId=0198b979-1f5e-7105-8b5f-48f920534529","ED99A4077C4B479AB6999B4F1660AAE5-2025-08-17-20-29-48","","null","","[]","null","",""
"","","","","","image-button-response","104","814072","0.0-14.0-1.0-0.5","ED99A4077C4B479AB6999B4F1660AAE5","ED99A4077C4B479AB6999B4F1660AAE5","0198b98c-727a-78bf-8657-9d5ef9a97cd3","0198b979-1f5e-7105-8b5f-48f920534529","{""num_scrambled_semantic"":""8"",""num_scrambled_causal"":""4"",""num_scrambled_schematic"":""4"",""participantId"":""ED99A4077C4B479AB6999B4F1660AAE5"",""assignmentId"":""0198b98c-727a-78bf-8657-9d5ef9a97cd3"",""projectId"":""0198b979-1f5e-7105-8b5f-48f920534529""}","https://test12345.live/?num_scrambled_semantic=8&num_scrambled_causal=4&num_scrambled_schematic=4&participantId=ED99A4077C4B479AB6999B4F1660AAE5&assignmentId=0198b98c-727a-78bf-8657-9d5ef9a97cd3&projectId=0198b979-1f5e-7105-8b5f-48f920534529","ED99A4077C4B479AB6999B4F1660AAE5-2025-08-17-20-29-48","","null","","images/causal_sequence/museum_causal/museum_causal_3.png","null","",""
"","","","","","image-button-response","105","818076","0.0-14.0-1.0-1.5","ED99A4077C4B479AB6999B4F1660AAE5","ED99A4077C4B479AB6999B4F1660AAE5","0198b98c-727a-78bf-8657-9d5ef9a97cd3","0198b979-1f5e-7105-8b5f-48f920534529","{""num_scrambled_semantic"":""8"",""num_scrambled_causal"":""4"",""num_scrambled_schematic"":""4"",""participantId"":""ED99A4077C4B479AB6999B4F1660AAE5"",""assignmentId"":""0198b98c-727a-78bf-8657-9d5ef9a97cd3"",""projectId"":""0198b979-1f5e-7105-8b5f-48f920534529""}","https://test12345.live/?num_scrambled_semantic=8&num_scrambled_causal=4&num_scrambled_schematic=4&participantId=ED99A4077C4B479AB6999B4F1660AAE5&assignmentId=0198b98c-727a-78bf-8657-9d5ef9a97cd3&projectId=0198b979-1f5e-7105-8b5f-48f920534529","ED99A4077C4B479AB6999B4F1660AAE5-2025-08-17-20-29-48","","4004","","images/causal_sequence/museum_causal/museum_causal_3.png","0","",""
"","","","","","image-button-response","106","823479","0.0-14.0-1.0-2.5","ED99A4077C4B479AB6999B4F1660AAE5","ED99A4077C4B479AB6999B4F1660AAE5","0198b98c-727a-78bf-8657-9d5ef9a97cd3","0198b979-1f5e-7105-8b5f-48f920534529","{""num_scrambled_semantic"":""8"",""num_scrambled_causal"":""4"",""num_scrambled_schematic"":""4"",""participantId"":""ED99A4077C4B479AB6999B4F1660AAE5"",""assignmentId"":""0198b98c-727a-78bf-8657-9d5ef9a97cd3"",""projectId"":""0198b979-1f5e-7105-8b5f-48f920534529""}","https://test12345.live/?num_scrambled_semantic=8&num_scrambled_causal=4&num_scrambled_schematic=4&participantId=ED99A4077C4B479AB6999B4F1660AAE5&assignmentId=0198b98c-727a-78bf-8657-9d5ef9a97cd3&projectId=0198b979-1f5e-7105-8b5f-48f920534529","ED99A4077C4B479AB6999B4F1660AAE5-2025-08-17-20-29-48","","null","","[]","null","",""
"","","","","","image-button-response","107","827989","0.0-14.0-1.0-0.6","ED99A4077C4B479AB6999B4F1660AAE5","ED99A4077C4B479AB6999B4F1660AAE5","0198b98c-727a-78bf-8657-9d5ef9a97cd3","0198b979-1f5e-7105-8b5f-48f920534529","{""num_scrambled_semantic"":""8"",""num_scrambled_causal"":""4"",""num_scrambled_schematic"":""4"",""participantId"":""ED99A4077C4B479AB6999B4F1660AAE5"",""assignmentId"":""0198b98c-727a-78bf-8657-9d5ef9a97cd3"",""projectId"":""0198b979-1f5e-7105-8b5f-48f920534529""}","https://test12345.live/?num_scrambled_semantic=8&num_scrambled_causal=4&num_scrambled_schematic=4&participantId=ED99A4077C4B479AB6999B4F1660AAE5&assignmentId=0198b98c-727a-78bf-8657-9d5ef9a97cd3&projectId=0198b979-1f5e-7105-8b5f-48f920534529","ED99A4077C4B479AB6999B4F1660AAE5-2025-08-17-20-29-48","","null","","images/causal_sequence/museum_causal/museum_causal_4.png","null","",""
"","","","","","image-button-response","108","829803","0.0-14.0-1.0-1.6","ED99A4077C4B479AB6999B4F1660AAE5","ED99A4077C4B479AB6999B4F1660AAE5","0198b98c-727a-78bf-8657-9d5ef9a97cd3","0198b979-1f5e-7105-8b5f-48f920534529","{""num_scrambled_semantic"":""8"",""num_scrambled_causal"":""4"",""num_scrambled_schematic"":""4"",""participantId"":""ED99A4077C4B479AB6999B4F1660AAE5"",""assignmentId"":""0198b98c-727a-78bf-8657-9d5ef9a97cd3"",""projectId"":""0198b979-1f5e-7105-8b5f-48f920534529""}","https://test12345.live/?num_scrambled_semantic=8&num_scrambled_causal=4&num_scrambled_schematic=4&participantId=ED99A4077C4B479AB6999B4F1660AAE5&assignmentId=0198b98c-727a-78bf-8657-9d5ef9a97cd3&projectId=0198b979-1f5e-7105-8b5f-48f920534529","ED99A4077C4B479AB6999B4F1660AAE5-2025-08-17-20-29-48","","1813","","images/causal_sequence/museum_causal/museum_causal_4.png","1","",""
"","","","","","image-button-response","109","835215","0.0-14.0-1.0-2.6","ED99A4077C4B479AB6999B4F1660AAE5","ED99A4077C4B479AB6999B4F1660AAE5","0198b98c-727a-78bf-8657-9d5ef9a97cd3","0198b979-1f5e-7105-8b5f-48f920534529","{""num_scrambled_semantic"":""8"",""num_scrambled_causal"":""4"",""num_scrambled_schematic"":""4"",""participantId"":""ED99A4077C4B479AB6999B4F1660AAE5"",""assignmentId"":""0198b98c-727a-78bf-8657-9d5ef9a97cd3"",""projectId"":""0198b979-1f5e-7105-8b5f-48f920534529""}","https://test12345.live/?num_scrambled_semantic=8&num_scrambled_causal=4&num_scrambled_schematic=4&participantId=ED99A4077C4B479AB6999B4F1660AAE5&assignmentId=0198b98c-727a-78bf-8657-9d5ef9a97cd3&projectId=0198b979-1f5e-7105-8b5f-48f920534529","ED99A4077C4B479AB6999B4F1660AAE5-2025-08-17-20-29-48","","null","","[]","null","",""
"","","","","","image-button-response","110","839717","0.0-14.0-1.0-0.7","ED99A4077C4B479AB6999B4F1660AAE5","ED99A4077C4B479AB6999B4F1660AAE5","0198b98c-727a-78bf-8657-9d5ef9a97cd3","0198b979-1f5e-7105-8b5f-48f920534529","{""num_scrambled_semantic"":""8"",""num_scrambled_causal"":""4"",""num_scrambled_schematic"":""4"",""participantId"":""ED99A4077C4B479AB6999B4F1660AAE5"",""assignmentId"":""0198b98c-727a-78bf-8657-9d5ef9a97cd3"",""projectId"":""0198b979-1f5e-7105-8b5f-48f920534529""}","https://test12345.live/?num_scrambled_semantic=8&num_scrambled_causal=4&num_scrambled_schematic=4&participantId=ED99A4077C4B479AB6999B4F1660AAE5&assignmentId=0198b98c-727a-78bf-8657-9d5ef9a97cd3&projectId=0198b979-1f5e-7105-8b5f-48f920534529","ED99A4077C4B479AB6999B4F1660AAE5-2025-08-17-20-29-48","","null","","images/causal_sequence/museum_causal/museum_causal_ten.png","null","",""
"","","","","","image-button-response","111","840701","0.0-14.0-1.0-1.7","ED99A4077C4B479AB6999B4F1660AAE5","ED99A4077C4B479AB6999B4F1660AAE5","0198b98c-727a-78bf-8657-9d5ef9a97cd3","0198b979-1f5e-7105-8b5f-48f920534529","{""num_scrambled_semantic"":""8"",""num_scrambled_causal"":""4"",""num_scrambled_schematic"":""4"",""participantId"":""ED99A4077C4B479AB6999B4F1660AAE5"",""assignmentId"":""0198b98c-727a-78bf-8657-9d5ef9a97cd3"",""projectId"":""0198b979-1f5e-7105-8b5f-48f920534529""}","https://test12345.live/?num_scrambled_semantic=8&num_scrambled_causal=4&num_scrambled_schematic=4&participantId=ED99A4077C4B479AB6999B4F1660AAE5&assignmentId=0198b98c-727a-78bf-8657-9d5ef9a97cd3&projectId=0198b979-1f5e-7105-8b5f-48f920534529","ED99A4077C4B479AB6999B4F1660AAE5-2025-08-17-20-29-48","","984","","images/causal_sequence/museum_causal/museum_causal_ten.png","0","",""
"","","","","","image-button-response","112","846120","0.0-14.0-1.0-2.7","ED99A4077C4B479AB6999B4F1660AAE5","ED99A4077C4B479AB6999B4F1660AAE5","0198b98c-727a-78bf-8657-9d5ef9a97cd3","0198b979-1f5e-7105-8b5f-48f920534529","{""num_scrambled_semantic"":""8"",""num_scrambled_causal"":""4"",""num_scrambled_schematic"":""4"",""participantId"":""ED99A4077C4B479AB6999B4F1660AAE5"",""assignmentId"":""0198b98c-727a-78bf-8657-9d5ef9a97cd3"",""projectId"":""0198b979-1f5e-7105-8b5f-48f920534529""}","https://test12345.live/?num_scrambled_semantic=8&num_scrambled_causal=4&num_scrambled_schematic=4&participantId=ED99A4077C4B479AB6999B4F1660AAE5&assignmentId=0198b98c-727a-78bf-8657-9d5ef9a97cd3&projectId=0198b979-1f5e-7105-8b5f-48f920534529","ED99A4077C4B479AB6999B4F1660AAE5-2025-08-17-20-29-48","","null","","[]","null","",""
"","","","","","image-button-response","113","850622","0.0-14.0-1.0-0.8","ED99A4077C4B479AB6999B4F1660AAE5","ED99A4077C4B479AB6999B4F1660AAE5","0198b98c-727a-78bf-8657-9d5ef9a97cd3","0198b979-1f5e-7105-8b5f-48f920534529","{""num_scrambled_semantic"":""8"",""num_scrambled_causal"":""4"",""num_scrambled_schematic"":""4"",""participantId"":""ED99A4077C4B479AB6999B4F1660AAE5"",""assignmentId"":""0198b98c-727a-78bf-8657-9d5ef9a97cd3"",""projectId"":""0198b979-1f5e-7105-8b5f-48f920534529""}","https://test12345.live/?num_scrambled_semantic=8&num_scrambled_causal=4&num_scrambled_schematic=4&participantId=ED99A4077C4B479AB6999B4F1660AAE5&assignmentId=0198b98c-727a-78bf-8657-9d5ef9a97cd3&projectId=0198b979-1f5e-7105-8b5f-48f920534529","ED99A4077C4B479AB6999B4F1660AAE5-2025-08-17-20-29-48","","null","","images/causal_sequence/museum_causal/museum_causal_9.png","null","",""
"","","","","","image-button-response","114","851812","0.0-14.0-1.0-1.8","ED99A4077C4B479AB6999B4F1660AAE5","ED99A4077C4B479AB6999B4F1660AAE5","0198b98c-727a-78bf-8657-9d5ef9a97cd3","0198b979-1f5e-7105-8b5f-48f920534529","{""num_scrambled_semantic"":""8"",""num_scrambled_causal"":""4"",""num_scrambled_schematic"":""4"",""participantId"":""ED99A4077C4B479AB6999B4F1660AAE5"",""assignmentId"":""0198b98c-727a-78bf-8657-9d5ef9a97cd3"",""projectId"":""0198b979-1f5e-7105-8b5f-48f920534529""}","https://test12345.live/?num_scrambled_semantic=8&num_scrambled_causal=4&num_scrambled_schematic=4&participantId=ED99A4077C4B479AB6999B4F1660AAE5&assignmentId=0198b98c-727a-78bf-8657-9d5ef9a97cd3&projectId=0198b979-1f5e-7105-8b5f-48f920534529","ED99A4077C4B479AB6999B4F1660AAE5-2025-08-17-20-29-48","","1190","","images/causal_sequence/museum_causal/museum_causal_9.png","1","",""
