"success","timeout","failed_images","failed_audio","failed_video","trial_type","trial_index","time_elapsed","internal_node_id","subject","subject_id","study_id","session_id","urlvar","current_url","audio_id","view_history","rt","device_id","stimulus","response","estimated_stimulus_onset","seq_name"
"true","false","[]","[]","[]","preload","0","62713","0.0-0.0","EF267AB9DC6A4FD0A96BEBCCE110ACBC","EF267AB9DC6A4FD0A96BEBCCE110ACBC","469e3c1f-cd75-4055-a97b-87081e13eacc","9076ac92-be42-43a2-9634-8b67c7fe93a7","{""num_scrambled_semantic"":""8"",""num_scrambled_causal"":""4"",""num_scrambled_schematic"":""4"",""participantId"":""EF267AB9DC6A4FD0A96BEBCCE110ACBC"",""assignmentId"":""469e3c1f-cd75-4055-a97b-87081e13eacc"",""projectId"":""9076ac92-be42-43a2-9634-8b67c7fe93a7""}","https://test12345.live/?num_scrambled_semantic=8&num_scrambled_causal=4&num_scrambled_schematic=4&participantId=EF267AB9DC6A4FD0A96BEBCCE110ACBC&assignmentId=469e3c1f-cd75-4055-a97b-87081e13eacc&projectId=9076ac92-be42-43a2-9634-8b67c7fe93a7","EF267AB9DC6A4FD0A96BEBCCE110ACBC-2025-05-22-21-16-58","","","","","","",""
"","","","","","instructions","1","86050","0.0-1.0","EF267AB9DC6A4FD0A96BEBCCE110ACBC","EF267AB9DC6A4FD0A96BEBCCE110ACBC","469e3c1f-cd75-4055-a97b-87081e13eacc","9076ac92-be42-43a2-9634-8b67c7fe93a7","{""num_scrambled_semantic"":""8"",""num_scrambled_causal"":""4"",""num_scrambled_schematic"":""4"",""participantId"":""EF267AB9DC6A4FD0A96BEBCCE110ACBC"",""assignmentId"":""469e3c1f-cd75-4055-a97b-87081e13eacc"",""projectId"":""9076ac92-be42-43a2-9634-8b67c7fe93a7""}","https://test12345.live/?num_scrambled_semantic=8&num_scrambled_causal=4&num_scrambled_schematic=4&participantId=EF267AB9DC6A4FD0A96BEBCCE110ACBC&assignmentId=469e3c1f-cd75-4055-a97b-87081e13eacc&projectId=9076ac92-be42-43a2-9634-8b67c7fe93a7","EF267AB9DC6A4FD0A96BEBCCE110ACBC-2025-05-22-21-16-58","[{""page_index"":0,""viewing_time"":23333}]","23334","","","","",""
"","","","","","instructions","2","105953","0.0-2.0","EF267AB9DC6A4FD0A96BEBCCE110ACBC","EF267AB9DC6A4FD0A96BEBCCE110ACBC","469e3c1f-cd75-4055-a97b-87081e13eacc","9076ac92-be42-43a2-9634-8b67c7fe93a7","{""num_scrambled_semantic"":""8"",""num_scrambled_causal"":""4"",""num_scrambled_schematic"":""4"",""participantId"":""EF267AB9DC6A4FD0A96BEBCCE110ACBC"",""assignmentId"":""469e3c1f-cd75-4055-a97b-87081e13eacc"",""projectId"":""9076ac92-be42-43a2-9634-8b67c7fe93a7""}","https://test12345.live/?num_scrambled_semantic=8&num_scrambled_causal=4&num_scrambled_schematic=4&participantId=EF267AB9DC6A4FD0A96BEBCCE110ACBC&assignmentId=469e3c1f-cd75-4055-a97b-87081e13eacc&projectId=9076ac92-be42-43a2-9634-8b67c7fe93a7","EF267AB9DC6A4FD0A96BEBCCE110ACBC-2025-05-22-21-16-58","[{""page_index"":0,""viewing_time"":19900}]","19901","","","","",""
"true","","","","","fullscreen","3","110708","0.0-3.0","EF267AB9DC6A4FD0A96BEBCCE110ACBC","EF267AB9DC6A4FD0A96BEBCCE110ACBC","469e3c1f-cd75-4055-a97b-87081e13eacc","9076ac92-be42-43a2-9634-8b67c7fe93a7","{""num_scrambled_semantic"":""8"",""num_scrambled_causal"":""4"",""num_scrambled_schematic"":""4"",""participantId"":""EF267AB9DC6A4FD0A96BEBCCE110ACBC"",""assignmentId"":""469e3c1f-cd75-4055-a97b-87081e13eacc"",""projectId"":""9076ac92-be42-43a2-9634-8b67c7fe93a7""}","https://test12345.live/?num_scrambled_semantic=8&num_scrambled_causal=4&num_scrambled_schematic=4&participantId=EF267AB9DC6A4FD0A96BEBCCE110ACBC&assignmentId=469e3c1f-cd75-4055-a97b-87081e13eacc&projectId=9076ac92-be42-43a2-9634-8b67c7fe93a7","EF267AB9DC6A4FD0A96BEBCCE110ACBC-2025-05-22-21-16-58","","3737","","","","",""
"","","","","","initialize-microphone","4","124822","0.0-4.0-0.0","EF267AB9DC6A4FD0A96BEBCCE110ACBC","EF267AB9DC6A4FD0A96BEBCCE110ACBC","469e3c1f-cd75-4055-a97b-87081e13eacc","9076ac92-be42-43a2-9634-8b67c7fe93a7","{""num_scrambled_semantic"":""8"",""num_scrambled_causal"":""4"",""num_scrambled_schematic"":""4"",""participantId"":""EF267AB9DC6A4FD0A96BEBCCE110ACBC"",""assignmentId"":""469e3c1f-cd75-4055-a97b-87081e13eacc"",""projectId"":""9076ac92-be42-43a2-9634-8b67c7fe93a7""}","https://test12345.live/?num_scrambled_semantic=8&num_scrambled_causal=4&num_scrambled_schematic=4&participantId=EF267AB9DC6A4FD0A96BEBCCE110ACBC&assignmentId=469e3c1f-cd75-4055-a97b-87081e13eacc&projectId=9076ac92-be42-43a2-9634-8b67c7fe93a7","EF267AB9DC6A4FD0A96BEBCCE110ACBC-2025-05-22-21-16-58","","","34819d9bd4e2a80b4ef125a26b0d454003cd7923d69062c85eabaf9059e02834","","","",""
"","","","","","html-audio-response","5","144805","0.0-4.0-1.0","EF267AB9DC6A4FD0A96BEBCCE110ACBC","EF267AB9DC6A4FD0A96BEBCCE110ACBC","469e3c1f-cd75-4055-a97b-87081e13eacc","9076ac92-be42-43a2-9634-8b67c7fe93a7","{""num_scrambled_semantic"":""8"",""num_scrambled_causal"":""4"",""num_scrambled_schematic"":""4"",""participantId"":""EF267AB9DC6A4FD0A96BEBCCE110ACBC"",""assignmentId"":""469e3c1f-cd75-4055-a97b-87081e13eacc"",""projectId"":""9076ac92-be42-43a2-9634-8b67c7fe93a7""}","https://test12345.live/?num_scrambled_semantic=8&num_scrambled_causal=4&num_scrambled_schematic=4&participantId=EF267AB9DC6A4FD0A96BEBCCE110ACBC&assignmentId=469e3c1f-cd75-4055-a97b-87081e13eacc&projectId=9076ac92-be42-43a2-9634-8b67c7fe93a7","EF267AB9DC6A4FD0A96BEBCCE110ACBC-2025-05-22-21-16-58","","5228","","<span style=""color: red; font-size: 24px""> NOW RECORDING</span>
        <p>Please test Microphone</p>","","4",""
"","","","","","html-button-response","6","147190","0.0-4.0-2.0","EF267AB9DC6A4FD0A96BEBCCE110ACBC","EF267AB9DC6A4FD0A96BEBCCE110ACBC","469e3c1f-cd75-4055-a97b-87081e13eacc","9076ac92-be42-43a2-9634-8b67c7fe93a7","{""num_scrambled_semantic"":""8"",""num_scrambled_causal"":""4"",""num_scrambled_schematic"":""4"",""participantId"":""EF267AB9DC6A4FD0A96BEBCCE110ACBC"",""assignmentId"":""469e3c1f-cd75-4055-a97b-87081e13eacc"",""projectId"":""9076ac92-be42-43a2-9634-8b67c7fe93a7""}","https://test12345.live/?num_scrambled_semantic=8&num_scrambled_causal=4&num_scrambled_schematic=4&participantId=EF267AB9DC6A4FD0A96BEBCCE110ACBC&assignmentId=469e3c1f-cd75-4055-a97b-87081e13eacc&projectId=9076ac92-be42-43a2-9634-8b67c7fe93a7","EF267AB9DC6A4FD0A96BEBCCE110ACBC-2025-05-22-21-16-58","","2380","","<p style=""font-size:48px; color:red;"">Is Microphone OK?</p>","1","",""
"","","","","","instructions","7","166494","0.0-5.0","EF267AB9DC6A4FD0A96BEBCCE110ACBC","EF267AB9DC6A4FD0A96BEBCCE110ACBC","469e3c1f-cd75-4055-a97b-87081e13eacc","9076ac92-be42-43a2-9634-8b67c7fe93a7","{""num_scrambled_semantic"":""8"",""num_scrambled_causal"":""4"",""num_scrambled_schematic"":""4"",""participantId"":""EF267AB9DC6A4FD0A96BEBCCE110ACBC"",""assignmentId"":""469e3c1f-cd75-4055-a97b-87081e13eacc"",""projectId"":""9076ac92-be42-43a2-9634-8b67c7fe93a7""}","https://test12345.live/?num_scrambled_semantic=8&num_scrambled_causal=4&num_scrambled_schematic=4&participantId=EF267AB9DC6A4FD0A96BEBCCE110ACBC&assignmentId=469e3c1f-cd75-4055-a97b-87081e13eacc&projectId=9076ac92-be42-43a2-9634-8b67c7fe93a7","EF267AB9DC6A4FD0A96BEBCCE110ACBC-2025-05-22-21-16-58","[{""page_index"":0,""viewing_time"":9226},{""page_index"":1,""viewing_time"":10075}]","19302","","","","",""
"","","","","","image-button-response","8","172513","0.0-6.0-0.0","EF267AB9DC6A4FD0A96BEBCCE110ACBC","EF267AB9DC6A4FD0A96BEBCCE110ACBC","469e3c1f-cd75-4055-a97b-87081e13eacc","9076ac92-be42-43a2-9634-8b67c7fe93a7","{""num_scrambled_semantic"":""8"",""num_scrambled_causal"":""4"",""num_scrambled_schematic"":""4"",""participantId"":""EF267AB9DC6A4FD0A96BEBCCE110ACBC"",""assignmentId"":""469e3c1f-cd75-4055-a97b-87081e13eacc"",""projectId"":""9076ac92-be42-43a2-9634-8b67c7fe93a7""}","https://test12345.live/?num_scrambled_semantic=8&num_scrambled_causal=4&num_scrambled_schematic=4&participantId=EF267AB9DC6A4FD0A96BEBCCE110ACBC&assignmentId=469e3c1f-cd75-4055-a97b-87081e13eacc&projectId=9076ac92-be42-43a2-9634-8b67c7fe93a7","EF267AB9DC6A4FD0A96BEBCCE110ACBC-2025-05-22-21-16-58","","null","","images/instructions/movie_0.png","null","",""
"","","","","","image-button-response","9","177028","0.0-6.0-1.0-0.0","EF267AB9DC6A4FD0A96BEBCCE110ACBC","EF267AB9DC6A4FD0A96BEBCCE110ACBC","469e3c1f-cd75-4055-a97b-87081e13eacc","9076ac92-be42-43a2-9634-8b67c7fe93a7","{""num_scrambled_semantic"":""8"",""num_scrambled_causal"":""4"",""num_scrambled_schematic"":""4"",""participantId"":""EF267AB9DC6A4FD0A96BEBCCE110ACBC"",""assignmentId"":""469e3c1f-cd75-4055-a97b-87081e13eacc"",""projectId"":""9076ac92-be42-43a2-9634-8b67c7fe93a7""}","https://test12345.live/?num_scrambled_semantic=8&num_scrambled_causal=4&num_scrambled_schematic=4&participantId=EF267AB9DC6A4FD0A96BEBCCE110ACBC&assignmentId=469e3c1f-cd75-4055-a97b-87081e13eacc&projectId=9076ac92-be42-43a2-9634-8b67c7fe93a7","EF267AB9DC6A4FD0A96BEBCCE110ACBC-2025-05-22-21-16-58","","null","","images/instructions/movie_1.png","null","",""
"","","","","","image-button-response","10","181037","0.0-6.0-1.0-1.0","EF267AB9DC6A4FD0A96BEBCCE110ACBC","EF267AB9DC6A4FD0A96BEBCCE110ACBC","469e3c1f-cd75-4055-a97b-87081e13eacc","9076ac92-be42-43a2-9634-8b67c7fe93a7","{""num_scrambled_semantic"":""8"",""num_scrambled_causal"":""4"",""num_scrambled_schematic"":""4"",""participantId"":""EF267AB9DC6A4FD0A96BEBCCE110ACBC"",""assignmentId"":""469e3c1f-cd75-4055-a97b-87081e13eacc"",""projectId"":""9076ac92-be42-43a2-9634-8b67c7fe93a7""}","https://test12345.live/?num_scrambled_semantic=8&num_scrambled_causal=4&num_scrambled_schematic=4&participantId=EF267AB9DC6A4FD0A96BEBCCE110ACBC&assignmentId=469e3c1f-cd75-4055-a97b-87081e13eacc&projectId=9076ac92-be42-43a2-9634-8b67c7fe93a7","EF267AB9DC6A4FD0A96BEBCCE110ACBC-2025-05-22-21-16-58","","null","","images/instructions/movie_1.png","null","",""
"","","","","","image-button-response","11","182845","0.0-6.0-1.0-2.0","EF267AB9DC6A4FD0A96BEBCCE110ACBC","EF267AB9DC6A4FD0A96BEBCCE110ACBC","469e3c1f-cd75-4055-a97b-87081e13eacc","9076ac92-be42-43a2-9634-8b67c7fe93a7","{""num_scrambled_semantic"":""8"",""num_scrambled_causal"":""4"",""num_scrambled_schematic"":""4"",""participantId"":""EF267AB9DC6A4FD0A96BEBCCE110ACBC"",""assignmentId"":""469e3c1f-cd75-4055-a97b-87081e13eacc"",""projectId"":""9076ac92-be42-43a2-9634-8b67c7fe93a7""}","https://test12345.live/?num_scrambled_semantic=8&num_scrambled_causal=4&num_scrambled_schematic=4&participantId=EF267AB9DC6A4FD0A96BEBCCE110ACBC&assignmentId=469e3c1f-cd75-4055-a97b-87081e13eacc&projectId=9076ac92-be42-43a2-9634-8b67c7fe93a7","EF267AB9DC6A4FD0A96BEBCCE110ACBC-2025-05-22-21-16-58","","null","","[]","null","",""
"","","","","","image-button-response","12","187357","0.0-6.0-1.0-0.1","EF267AB9DC6A4FD0A96BEBCCE110ACBC","EF267AB9DC6A4FD0A96BEBCCE110ACBC","469e3c1f-cd75-4055-a97b-87081e13eacc","9076ac92-be42-43a2-9634-8b67c7fe93a7","{""num_scrambled_semantic"":""8"",""num_scrambled_causal"":""4"",""num_scrambled_schematic"":""4"",""participantId"":""EF267AB9DC6A4FD0A96BEBCCE110ACBC"",""assignmentId"":""469e3c1f-cd75-4055-a97b-87081e13eacc"",""projectId"":""9076ac92-be42-43a2-9634-8b67c7fe93a7""}","https://test12345.live/?num_scrambled_semantic=8&num_scrambled_causal=4&num_scrambled_schematic=4&participantId=EF267AB9DC6A4FD0A96BEBCCE110ACBC&assignmentId=469e3c1f-cd75-4055-a97b-87081e13eacc&projectId=9076ac92-be42-43a2-9634-8b67c7fe93a7","EF267AB9DC6A4FD0A96BEBCCE110ACBC-2025-05-22-21-16-58","","null","","images/instructions/movie_2.png","null","",""
"","","","","","image-button-response","13","191370","0.0-6.0-1.0-1.1","EF267AB9DC6A4FD0A96BEBCCE110ACBC","EF267AB9DC6A4FD0A96BEBCCE110ACBC","469e3c1f-cd75-4055-a97b-87081e13eacc","9076ac92-be42-43a2-9634-8b67c7fe93a7","{""num_scrambled_semantic"":""8"",""num_scrambled_causal"":""4"",""num_scrambled_schematic"":""4"",""participantId"":""EF267AB9DC6A4FD0A96BEBCCE110ACBC"",""assignmentId"":""469e3c1f-cd75-4055-a97b-87081e13eacc"",""projectId"":""9076ac92-be42-43a2-9634-8b67c7fe93a7""}","https://test12345.live/?num_scrambled_semantic=8&num_scrambled_causal=4&num_scrambled_schematic=4&participantId=EF267AB9DC6A4FD0A96BEBCCE110ACBC&assignmentId=469e3c1f-cd75-4055-a97b-87081e13eacc&projectId=9076ac92-be42-43a2-9634-8b67c7fe93a7","EF267AB9DC6A4FD0A96BEBCCE110ACBC-2025-05-22-21-16-58","","null","","images/instructions/movie_2.png","null","",""
"","","","","","image-button-response","14","193173","0.0-6.0-1.0-2.1","EF267AB9DC6A4FD0A96BEBCCE110ACBC","EF267AB9DC6A4FD0A96BEBCCE110ACBC","469e3c1f-cd75-4055-a97b-87081e13eacc","9076ac92-be42-43a2-9634-8b67c7fe93a7","{""num_scrambled_semantic"":""8"",""num_scrambled_causal"":""4"",""num_scrambled_schematic"":""4"",""participantId"":""EF267AB9DC6A4FD0A96BEBCCE110ACBC"",""assignmentId"":""469e3c1f-cd75-4055-a97b-87081e13eacc"",""projectId"":""9076ac92-be42-43a2-9634-8b67c7fe93a7""}","https://test12345.live/?num_scrambled_semantic=8&num_scrambled_causal=4&num_scrambled_schematic=4&participantId=EF267AB9DC6A4FD0A96BEBCCE110ACBC&assignmentId=469e3c1f-cd75-4055-a97b-87081e13eacc&projectId=9076ac92-be42-43a2-9634-8b67c7fe93a7","EF267AB9DC6A4FD0A96BEBCCE110ACBC-2025-05-22-21-16-58","","null","","[]","null","",""
"","","","","","image-button-response","15","197686","0.0-6.0-1.0-0.2","EF267AB9DC6A4FD0A96BEBCCE110ACBC","EF267AB9DC6A4FD0A96BEBCCE110ACBC","469e3c1f-cd75-4055-a97b-87081e13eacc","9076ac92-be42-43a2-9634-8b67c7fe93a7","{""num_scrambled_semantic"":""8"",""num_scrambled_causal"":""4"",""num_scrambled_schematic"":""4"",""participantId"":""EF267AB9DC6A4FD0A96BEBCCE110ACBC"",""assignmentId"":""469e3c1f-cd75-4055-a97b-87081e13eacc"",""projectId"":""9076ac92-be42-43a2-9634-8b67c7fe93a7""}","https://test12345.live/?num_scrambled_semantic=8&num_scrambled_causal=4&num_scrambled_schematic=4&participantId=EF267AB9DC6A4FD0A96BEBCCE110ACBC&assignmentId=469e3c1f-cd75-4055-a97b-87081e13eacc&projectId=9076ac92-be42-43a2-9634-8b67c7fe93a7","EF267AB9DC6A4FD0A96BEBCCE110ACBC-2025-05-22-21-16-58","","null","","images/instructions/movie_3.png","null","",""
"","","","","","image-button-response","16","199584","0.0-6.0-1.0-1.2","EF267AB9DC6A4FD0A96BEBCCE110ACBC","EF267AB9DC6A4FD0A96BEBCCE110ACBC","469e3c1f-cd75-4055-a97b-87081e13eacc","9076ac92-be42-43a2-9634-8b67c7fe93a7","{""num_scrambled_semantic"":""8"",""num_scrambled_causal"":""4"",""num_scrambled_schematic"":""4"",""participantId"":""EF267AB9DC6A4FD0A96BEBCCE110ACBC"",""assignmentId"":""469e3c1f-cd75-4055-a97b-87081e13eacc"",""projectId"":""9076ac92-be42-43a2-9634-8b67c7fe93a7""}","https://test12345.live/?num_scrambled_semantic=8&num_scrambled_causal=4&num_scrambled_schematic=4&participantId=EF267AB9DC6A4FD0A96BEBCCE110ACBC&assignmentId=469e3c1f-cd75-4055-a97b-87081e13eacc&projectId=9076ac92-be42-43a2-9634-8b67c7fe93a7","EF267AB9DC6A4FD0A96BEBCCE110ACBC-2025-05-22-21-16-58","","1895","","images/instructions/movie_3.png","0","",""
"","","","","","image-button-response","17","201396","0.0-6.0-1.0-2.2","EF267AB9DC6A4FD0A96BEBCCE110ACBC","EF267AB9DC6A4FD0A96BEBCCE110ACBC","469e3c1f-cd75-4055-a97b-87081e13eacc","9076ac92-be42-43a2-9634-8b67c7fe93a7","{""num_scrambled_semantic"":""8"",""num_scrambled_causal"":""4"",""num_scrambled_schematic"":""4"",""participantId"":""EF267AB9DC6A4FD0A96BEBCCE110ACBC"",""assignmentId"":""469e3c1f-cd75-4055-a97b-87081e13eacc"",""projectId"":""9076ac92-be42-43a2-9634-8b67c7fe93a7""}","https://test12345.live/?num_scrambled_semantic=8&num_scrambled_causal=4&num_scrambled_schematic=4&participantId=EF267AB9DC6A4FD0A96BEBCCE110ACBC&assignmentId=469e3c1f-cd75-4055-a97b-87081e13eacc&projectId=9076ac92-be42-43a2-9634-8b67c7fe93a7","EF267AB9DC6A4FD0A96BEBCCE110ACBC-2025-05-22-21-16-58","","null","","[]","null","",""
"","","","","","image-button-response","18","205905","0.0-6.0-1.0-0.3","EF267AB9DC6A4FD0A96BEBCCE110ACBC","EF267AB9DC6A4FD0A96BEBCCE110ACBC","469e3c1f-cd75-4055-a97b-87081e13eacc","9076ac92-be42-43a2-9634-8b67c7fe93a7","{""num_scrambled_semantic"":""8"",""num_scrambled_causal"":""4"",""num_scrambled_schematic"":""4"",""participantId"":""EF267AB9DC6A4FD0A96BEBCCE110ACBC"",""assignmentId"":""469e3c1f-cd75-4055-a97b-87081e13eacc"",""projectId"":""9076ac92-be42-43a2-9634-8b67c7fe93a7""}","https://test12345.live/?num_scrambled_semantic=8&num_scrambled_causal=4&num_scrambled_schematic=4&participantId=EF267AB9DC6A4FD0A96BEBCCE110ACBC&assignmentId=469e3c1f-cd75-4055-a97b-87081e13eacc&projectId=9076ac92-be42-43a2-9634-8b67c7fe93a7","EF267AB9DC6A4FD0A96BEBCCE110ACBC-2025-05-22-21-16-58","","null","","images/instructions/movie_4.png","null","",""
"","","","","","image-button-response","19","207827","0.0-6.0-1.0-1.3","EF267AB9DC6A4FD0A96BEBCCE110ACBC","EF267AB9DC6A4FD0A96BEBCCE110ACBC","469e3c1f-cd75-4055-a97b-87081e13eacc","9076ac92-be42-43a2-9634-8b67c7fe93a7","{""num_scrambled_semantic"":""8"",""num_scrambled_causal"":""4"",""num_scrambled_schematic"":""4"",""participantId"":""EF267AB9DC6A4FD0A96BEBCCE110ACBC"",""assignmentId"":""469e3c1f-cd75-4055-a97b-87081e13eacc"",""projectId"":""9076ac92-be42-43a2-9634-8b67c7fe93a7""}","https://test12345.live/?num_scrambled_semantic=8&num_scrambled_causal=4&num_scrambled_schematic=4&participantId=EF267AB9DC6A4FD0A96BEBCCE110ACBC&assignmentId=469e3c1f-cd75-4055-a97b-87081e13eacc&projectId=9076ac92-be42-43a2-9634-8b67c7fe93a7","EF267AB9DC6A4FD0A96BEBCCE110ACBC-2025-05-22-21-16-58","","1919","","images/instructions/movie_4.png","0","",""
"","","","","","image-button-response","20","209633","0.0-6.0-1.0-2.3","EF267AB9DC6A4FD0A96BEBCCE110ACBC","EF267AB9DC6A4FD0A96BEBCCE110ACBC","469e3c1f-cd75-4055-a97b-87081e13eacc","9076ac92-be42-43a2-9634-8b67c7fe93a7","{""num_scrambled_semantic"":""8"",""num_scrambled_causal"":""4"",""num_scrambled_schematic"":""4"",""participantId"":""EF267AB9DC6A4FD0A96BEBCCE110ACBC"",""assignmentId"":""469e3c1f-cd75-4055-a97b-87081e13eacc"",""projectId"":""9076ac92-be42-43a2-9634-8b67c7fe93a7""}","https://test12345.live/?num_scrambled_semantic=8&num_scrambled_causal=4&num_scrambled_schematic=4&participantId=EF267AB9DC6A4FD0A96BEBCCE110ACBC&assignmentId=469e3c1f-cd75-4055-a97b-87081e13eacc&projectId=9076ac92-be42-43a2-9634-8b67c7fe93a7","EF267AB9DC6A4FD0A96BEBCCE110ACBC-2025-05-22-21-16-58","","null","","[]","null","",""
"","","","","","instructions","21","224690","0.0-7.0","EF267AB9DC6A4FD0A96BEBCCE110ACBC","EF267AB9DC6A4FD0A96BEBCCE110ACBC","469e3c1f-cd75-4055-a97b-87081e13eacc","9076ac92-be42-43a2-9634-8b67c7fe93a7","{""num_scrambled_semantic"":""8"",""num_scrambled_causal"":""4"",""num_scrambled_schematic"":""4"",""participantId"":""EF267AB9DC6A4FD0A96BEBCCE110ACBC"",""assignmentId"":""469e3c1f-cd75-4055-a97b-87081e13eacc"",""projectId"":""9076ac92-be42-43a2-9634-8b67c7fe93a7""}","https://test12345.live/?num_scrambled_semantic=8&num_scrambled_causal=4&num_scrambled_schematic=4&participantId=EF267AB9DC6A4FD0A96BEBCCE110ACBC&assignmentId=469e3c1f-cd75-4055-a97b-87081e13eacc&projectId=9076ac92-be42-43a2-9634-8b67c7fe93a7","EF267AB9DC6A4FD0A96BEBCCE110ACBC-2025-05-22-21-16-58","[{""page_index"":0,""viewing_time"":12757},{""page_index"":1,""viewing_time"":2299}]","15056","","","","",""
"","","","","","html-audio-response","22","262347","0.0-8.0","EF267AB9DC6A4FD0A96BEBCCE110ACBC","EF267AB9DC6A4FD0A96BEBCCE110ACBC","469e3c1f-cd75-4055-a97b-87081e13eacc","9076ac92-be42-43a2-9634-8b67c7fe93a7","{""num_scrambled_semantic"":""8"",""num_scrambled_causal"":""4"",""num_scrambled_schematic"":""4"",""participantId"":""EF267AB9DC6A4FD0A96BEBCCE110ACBC"",""assignmentId"":""469e3c1f-cd75-4055-a97b-87081e13eacc"",""projectId"":""9076ac92-be42-43a2-9634-8b67c7fe93a7""}","https://test12345.live/?num_scrambled_semantic=8&num_scrambled_causal=4&num_scrambled_schematic=4&participantId=EF267AB9DC6A4FD0A96BEBCCE110ACBC&assignmentId=469e3c1f-cd75-4055-a97b-87081e13eacc&projectId=9076ac92-be42-43a2-9634-8b67c7fe93a7","EF267AB9DC6A4FD0A96BEBCCE110ACBC-2025-05-22-21-16-58","","6916","","[""<span style=\""color: red; font-size: 24px\""> NOW RECORDING</span><p>Please say out loud all the images you saw in the exact order you saw them. Try to recall as many images as you can, but remember: getting the order right is more important than the number of images you recall.</p>""]","","5",""
"","","","","","instructions","23","265515","0.0-9.0","EF267AB9DC6A4FD0A96BEBCCE110ACBC","EF267AB9DC6A4FD0A96BEBCCE110ACBC","469e3c1f-cd75-4055-a97b-87081e13eacc","9076ac92-be42-43a2-9634-8b67c7fe93a7","{""num_scrambled_semantic"":""8"",""num_scrambled_causal"":""4"",""num_scrambled_schematic"":""4"",""participantId"":""EF267AB9DC6A4FD0A96BEBCCE110ACBC"",""assignmentId"":""469e3c1f-cd75-4055-a97b-87081e13eacc"",""projectId"":""9076ac92-be42-43a2-9634-8b67c7fe93a7""}","https://test12345.live/?num_scrambled_semantic=8&num_scrambled_causal=4&num_scrambled_schematic=4&participantId=EF267AB9DC6A4FD0A96BEBCCE110ACBC&assignmentId=469e3c1f-cd75-4055-a97b-87081e13eacc&projectId=9076ac92-be42-43a2-9634-8b67c7fe93a7","EF267AB9DC6A4FD0A96BEBCCE110ACBC-2025-05-22-21-16-58","[{""page_index"":0,""viewing_time"":3160}]","3161","","","","",""
"","","","","","image-button-response","24","271522","0.0-10.0-0.0","EF267AB9DC6A4FD0A96BEBCCE110ACBC","EF267AB9DC6A4FD0A96BEBCCE110ACBC","469e3c1f-cd75-4055-a97b-87081e13eacc","9076ac92-be42-43a2-9634-8b67c7fe93a7","{""num_scrambled_semantic"":""8"",""num_scrambled_causal"":""4"",""num_scrambled_schematic"":""4"",""participantId"":""EF267AB9DC6A4FD0A96BEBCCE110ACBC"",""assignmentId"":""469e3c1f-cd75-4055-a97b-87081e13eacc"",""projectId"":""9076ac92-be42-43a2-9634-8b67c7fe93a7""}","https://test12345.live/?num_scrambled_semantic=8&num_scrambled_causal=4&num_scrambled_schematic=4&participantId=EF267AB9DC6A4FD0A96BEBCCE110ACBC&assignmentId=469e3c1f-cd75-4055-a97b-87081e13eacc&projectId=9076ac92-be42-43a2-9634-8b67c7fe93a7","EF267AB9DC6A4FD0A96BEBCCE110ACBC-2025-05-22-21-16-58","","null","","images/schematic_sequence/interview_scheme/interview_scheme_0.png","null","",""
"","","","","","image-button-response","25","276031","0.0-10.0-1.0-0.0","EF267AB9DC6A4FD0A96BEBCCE110ACBC","EF267AB9DC6A4FD0A96BEBCCE110ACBC","469e3c1f-cd75-4055-a97b-87081e13eacc","9076ac92-be42-43a2-9634-8b67c7fe93a7","{""num_scrambled_semantic"":""8"",""num_scrambled_causal"":""4"",""num_scrambled_schematic"":""4"",""participantId"":""EF267AB9DC6A4FD0A96BEBCCE110ACBC"",""assignmentId"":""469e3c1f-cd75-4055-a97b-87081e13eacc"",""projectId"":""9076ac92-be42-43a2-9634-8b67c7fe93a7""}","https://test12345.live/?num_scrambled_semantic=8&num_scrambled_causal=4&num_scrambled_schematic=4&participantId=EF267AB9DC6A4FD0A96BEBCCE110ACBC&assignmentId=469e3c1f-cd75-4055-a97b-87081e13eacc&projectId=9076ac92-be42-43a2-9634-8b67c7fe93a7","EF267AB9DC6A4FD0A96BEBCCE110ACBC-2025-05-22-21-16-58","","null","","images/schematic_sequence/interview_scheme/interview_scheme_1.png","null","",""
"","","","","","image-button-response","26","278407","0.0-10.0-1.0-1.0","EF267AB9DC6A4FD0A96BEBCCE110ACBC","EF267AB9DC6A4FD0A96BEBCCE110ACBC","469e3c1f-cd75-4055-a97b-87081e13eacc","9076ac92-be42-43a2-9634-8b67c7fe93a7","{""num_scrambled_semantic"":""8"",""num_scrambled_causal"":""4"",""num_scrambled_schematic"":""4"",""participantId"":""EF267AB9DC6A4FD0A96BEBCCE110ACBC"",""assignmentId"":""469e3c1f-cd75-4055-a97b-87081e13eacc"",""projectId"":""9076ac92-be42-43a2-9634-8b67c7fe93a7""}","https://test12345.live/?num_scrambled_semantic=8&num_scrambled_causal=4&num_scrambled_schematic=4&participantId=EF267AB9DC6A4FD0A96BEBCCE110ACBC&assignmentId=469e3c1f-cd75-4055-a97b-87081e13eacc&projectId=9076ac92-be42-43a2-9634-8b67c7fe93a7","EF267AB9DC6A4FD0A96BEBCCE110ACBC-2025-05-22-21-16-58","","2372","","images/schematic_sequence/interview_scheme/interview_scheme_1.png","1","",""
"","","","","","image-button-response","27","280222","0.0-10.0-1.0-2.0","EF267AB9DC6A4FD0A96BEBCCE110ACBC","EF267AB9DC6A4FD0A96BEBCCE110ACBC","469e3c1f-cd75-4055-a97b-87081e13eacc","9076ac92-be42-43a2-9634-8b67c7fe93a7","{""num_scrambled_semantic"":""8"",""num_scrambled_causal"":""4"",""num_scrambled_schematic"":""4"",""participantId"":""EF267AB9DC6A4FD0A96BEBCCE110ACBC"",""assignmentId"":""469e3c1f-cd75-4055-a97b-87081e13eacc"",""projectId"":""9076ac92-be42-43a2-9634-8b67c7fe93a7""}","https://test12345.live/?num_scrambled_semantic=8&num_scrambled_causal=4&num_scrambled_schematic=4&participantId=EF267AB9DC6A4FD0A96BEBCCE110ACBC&assignmentId=469e3c1f-cd75-4055-a97b-87081e13eacc&projectId=9076ac92-be42-43a2-9634-8b67c7fe93a7","EF267AB9DC6A4FD0A96BEBCCE110ACBC-2025-05-22-21-16-58","","null","","[]","null","",""
"","","","","","image-button-response","28","284732","0.0-10.0-1.0-0.1","EF267AB9DC6A4FD0A96BEBCCE110ACBC","EF267AB9DC6A4FD0A96BEBCCE110ACBC","469e3c1f-cd75-4055-a97b-87081e13eacc","9076ac92-be42-43a2-9634-8b67c7fe93a7","{""num_scrambled_semantic"":""8"",""num_scrambled_causal"":""4"",""num_scrambled_schematic"":""4"",""participantId"":""EF267AB9DC6A4FD0A96BEBCCE110ACBC"",""assignmentId"":""469e3c1f-cd75-4055-a97b-87081e13eacc"",""projectId"":""9076ac92-be42-43a2-9634-8b67c7fe93a7""}","https://test12345.live/?num_scrambled_semantic=8&num_scrambled_causal=4&num_scrambled_schematic=4&participantId=EF267AB9DC6A4FD0A96BEBCCE110ACBC&assignmentId=469e3c1f-cd75-4055-a97b-87081e13eacc&projectId=9076ac92-be42-43a2-9634-8b67c7fe93a7","EF267AB9DC6A4FD0A96BEBCCE110ACBC-2025-05-22-21-16-58","","null","","images/schematic_sequence/interview_scheme/interview_scheme_2.png","null","",""
"","","","","","image-button-response","29","287726","0.0-10.0-1.0-1.1","EF267AB9DC6A4FD0A96BEBCCE110ACBC","EF267AB9DC6A4FD0A96BEBCCE110ACBC","469e3c1f-cd75-4055-a97b-87081e13eacc","9076ac92-be42-43a2-9634-8b67c7fe93a7","{""num_scrambled_semantic"":""8"",""num_scrambled_causal"":""4"",""num_scrambled_schematic"":""4"",""participantId"":""EF267AB9DC6A4FD0A96BEBCCE110ACBC"",""assignmentId"":""469e3c1f-cd75-4055-a97b-87081e13eacc"",""projectId"":""9076ac92-be42-43a2-9634-8b67c7fe93a7""}","https://test12345.live/?num_scrambled_semantic=8&num_scrambled_causal=4&num_scrambled_schematic=4&participantId=EF267AB9DC6A4FD0A96BEBCCE110ACBC&assignmentId=469e3c1f-cd75-4055-a97b-87081e13eacc&projectId=9076ac92-be42-43a2-9634-8b67c7fe93a7","EF267AB9DC6A4FD0A96BEBCCE110ACBC-2025-05-22-21-16-58","","2991","","images/schematic_sequence/interview_scheme/interview_scheme_2.png","0","",""
"","","","","","image-button-response","30","289533","0.0-10.0-1.0-2.1","EF267AB9DC6A4FD0A96BEBCCE110ACBC","EF267AB9DC6A4FD0A96BEBCCE110ACBC","469e3c1f-cd75-4055-a97b-87081e13eacc","9076ac92-be42-43a2-9634-8b67c7fe93a7","{""num_scrambled_semantic"":""8"",""num_scrambled_causal"":""4"",""num_scrambled_schematic"":""4"",""participantId"":""EF267AB9DC6A4FD0A96BEBCCE110ACBC"",""assignmentId"":""469e3c1f-cd75-4055-a97b-87081e13eacc"",""projectId"":""9076ac92-be42-43a2-9634-8b67c7fe93a7""}","https://test12345.live/?num_scrambled_semantic=8&num_scrambled_causal=4&num_scrambled_schematic=4&participantId=EF267AB9DC6A4FD0A96BEBCCE110ACBC&assignmentId=469e3c1f-cd75-4055-a97b-87081e13eacc&projectId=9076ac92-be42-43a2-9634-8b67c7fe93a7","EF267AB9DC6A4FD0A96BEBCCE110ACBC-2025-05-22-21-16-58","","null","","[]","null","",""
"","","","","","image-button-response","31","294046","0.0-10.0-1.0-0.2","EF267AB9DC6A4FD0A96BEBCCE110ACBC","EF267AB9DC6A4FD0A96BEBCCE110ACBC","469e3c1f-cd75-4055-a97b-87081e13eacc","9076ac92-be42-43a2-9634-8b67c7fe93a7","{""num_scrambled_semantic"":""8"",""num_scrambled_causal"":""4"",""num_scrambled_schematic"":""4"",""participantId"":""EF267AB9DC6A4FD0A96BEBCCE110ACBC"",""assignmentId"":""469e3c1f-cd75-4055-a97b-87081e13eacc"",""projectId"":""9076ac92-be42-43a2-9634-8b67c7fe93a7""}","https://test12345.live/?num_scrambled_semantic=8&num_scrambled_causal=4&num_scrambled_schematic=4&participantId=EF267AB9DC6A4FD0A96BEBCCE110ACBC&assignmentId=469e3c1f-cd75-4055-a97b-87081e13eacc&projectId=9076ac92-be42-43a2-9634-8b67c7fe93a7","EF267AB9DC6A4FD0A96BEBCCE110ACBC-2025-05-22-21-16-58","","null","","images/schematic_sequence/interview_scheme/interview_scheme_3.png","null","",""
"","","","","","image-button-response","32","296373","0.0-10.0-1.0-1.2","EF267AB9DC6A4FD0A96BEBCCE110ACBC","EF267AB9DC6A4FD0A96BEBCCE110ACBC","469e3c1f-cd75-4055-a97b-87081e13eacc","9076ac92-be42-43a2-9634-8b67c7fe93a7","{""num_scrambled_semantic"":""8"",""num_scrambled_causal"":""4"",""num_scrambled_schematic"":""4"",""participantId"":""EF267AB9DC6A4FD0A96BEBCCE110ACBC"",""assignmentId"":""469e3c1f-cd75-4055-a97b-87081e13eacc"",""projectId"":""9076ac92-be42-43a2-9634-8b67c7fe93a7""}","https://test12345.live/?num_scrambled_semantic=8&num_scrambled_causal=4&num_scrambled_schematic=4&participantId=EF267AB9DC6A4FD0A96BEBCCE110ACBC&assignmentId=469e3c1f-cd75-4055-a97b-87081e13eacc&projectId=9076ac92-be42-43a2-9634-8b67c7fe93a7","EF267AB9DC6A4FD0A96BEBCCE110ACBC-2025-05-22-21-16-58","","2325","","images/schematic_sequence/interview_scheme/interview_scheme_3.png","1","",""
"","","","","","image-button-response","33","298183","0.0-10.0-1.0-2.2","EF267AB9DC6A4FD0A96BEBCCE110ACBC","EF267AB9DC6A4FD0A96BEBCCE110ACBC","469e3c1f-cd75-4055-a97b-87081e13eacc","9076ac92-be42-43a2-9634-8b67c7fe93a7","{""num_scrambled_semantic"":""8"",""num_scrambled_causal"":""4"",""num_scrambled_schematic"":""4"",""participantId"":""EF267AB9DC6A4FD0A96BEBCCE110ACBC"",""assignmentId"":""469e3c1f-cd75-4055-a97b-87081e13eacc"",""projectId"":""9076ac92-be42-43a2-9634-8b67c7fe93a7""}","https://test12345.live/?num_scrambled_semantic=8&num_scrambled_causal=4&num_scrambled_schematic=4&participantId=EF267AB9DC6A4FD0A96BEBCCE110ACBC&assignmentId=469e3c1f-cd75-4055-a97b-87081e13eacc&projectId=9076ac92-be42-43a2-9634-8b67c7fe93a7","EF267AB9DC6A4FD0A96BEBCCE110ACBC-2025-05-22-21-16-58","","null","","[]","null","",""
"","","","","","image-button-response","34","302693","0.0-10.0-1.0-0.3","EF267AB9DC6A4FD0A96BEBCCE110ACBC","EF267AB9DC6A4FD0A96BEBCCE110ACBC","469e3c1f-cd75-4055-a97b-87081e13eacc","9076ac92-be42-43a2-9634-8b67c7fe93a7","{""num_scrambled_semantic"":""8"",""num_scrambled_causal"":""4"",""num_scrambled_schematic"":""4"",""participantId"":""EF267AB9DC6A4FD0A96BEBCCE110ACBC"",""assignmentId"":""469e3c1f-cd75-4055-a97b-87081e13eacc"",""projectId"":""9076ac92-be42-43a2-9634-8b67c7fe93a7""}","https://test12345.live/?num_scrambled_semantic=8&num_scrambled_causal=4&num_scrambled_schematic=4&participantId=EF267AB9DC6A4FD0A96BEBCCE110ACBC&assignmentId=469e3c1f-cd75-4055-a97b-87081e13eacc&projectId=9076ac92-be42-43a2-9634-8b67c7fe93a7","EF267AB9DC6A4FD0A96BEBCCE110ACBC-2025-05-22-21-16-58","","null","","images/schematic_sequence/interview_scheme/interview_scheme_4.png","null","",""
"","","","","","image-button-response","35","304764","0.0-10.0-1.0-1.3","EF267AB9DC6A4FD0A96BEBCCE110ACBC","EF267AB9DC6A4FD0A96BEBCCE110ACBC","469e3c1f-cd75-4055-a97b-87081e13eacc","9076ac92-be42-43a2-9634-8b67c7fe93a7","{""num_scrambled_semantic"":""8"",""num_scrambled_causal"":""4"",""num_scrambled_schematic"":""4"",""participantId"":""EF267AB9DC6A4FD0A96BEBCCE110ACBC"",""assignmentId"":""469e3c1f-cd75-4055-a97b-87081e13eacc"",""projectId"":""9076ac92-be42-43a2-9634-8b67c7fe93a7""}","https://test12345.live/?num_scrambled_semantic=8&num_scrambled_causal=4&num_scrambled_schematic=4&participantId=EF267AB9DC6A4FD0A96BEBCCE110ACBC&assignmentId=469e3c1f-cd75-4055-a97b-87081e13eacc&projectId=9076ac92-be42-43a2-9634-8b67c7fe93a7","EF267AB9DC6A4FD0A96BEBCCE110ACBC-2025-05-22-21-16-58","","2067","","images/schematic_sequence/interview_scheme/interview_scheme_4.png","1","",""
"","","","","","image-button-response","36","306575","0.0-10.0-1.0-2.3","EF267AB9DC6A4FD0A96BEBCCE110ACBC","EF267AB9DC6A4FD0A96BEBCCE110ACBC","469e3c1f-cd75-4055-a97b-87081e13eacc","9076ac92-be42-43a2-9634-8b67c7fe93a7","{""num_scrambled_semantic"":""8"",""num_scrambled_causal"":""4"",""num_scrambled_schematic"":""4"",""participantId"":""EF267AB9DC6A4FD0A96BEBCCE110ACBC"",""assignmentId"":""469e3c1f-cd75-4055-a97b-87081e13eacc"",""projectId"":""9076ac92-be42-43a2-9634-8b67c7fe93a7""}","https://test12345.live/?num_scrambled_semantic=8&num_scrambled_causal=4&num_scrambled_schematic=4&participantId=EF267AB9DC6A4FD0A96BEBCCE110ACBC&assignmentId=469e3c1f-cd75-4055-a97b-87081e13eacc&projectId=9076ac92-be42-43a2-9634-8b67c7fe93a7","EF267AB9DC6A4FD0A96BEBCCE110ACBC-2025-05-22-21-16-58","","null","","[]","null","",""
"","","","","","image-button-response","37","311085","0.0-10.0-1.0-0.4","EF267AB9DC6A4FD0A96BEBCCE110ACBC","EF267AB9DC6A4FD0A96BEBCCE110ACBC","469e3c1f-cd75-4055-a97b-87081e13eacc","9076ac92-be42-43a2-9634-8b67c7fe93a7","{""num_scrambled_semantic"":""8"",""num_scrambled_causal"":""4"",""num_scrambled_schematic"":""4"",""participantId"":""EF267AB9DC6A4FD0A96BEBCCE110ACBC"",""assignmentId"":""469e3c1f-cd75-4055-a97b-87081e13eacc"",""projectId"":""9076ac92-be42-43a2-9634-8b67c7fe93a7""}","https://test12345.live/?num_scrambled_semantic=8&num_scrambled_causal=4&num_scrambled_schematic=4&participantId=EF267AB9DC6A4FD0A96BEBCCE110ACBC&assignmentId=469e3c1f-cd75-4055-a97b-87081e13eacc&projectId=9076ac92-be42-43a2-9634-8b67c7fe93a7","EF267AB9DC6A4FD0A96BEBCCE110ACBC-2025-05-22-21-16-58","","null","","images/schematic_sequence/interview_scheme/interview_scheme_5.png","null","",""
"","","","","","image-button-response","38","312581","0.0-10.0-1.0-1.4","EF267AB9DC6A4FD0A96BEBCCE110ACBC","EF267AB9DC6A4FD0A96BEBCCE110ACBC","469e3c1f-cd75-4055-a97b-87081e13eacc","9076ac92-be42-43a2-9634-8b67c7fe93a7","{""num_scrambled_semantic"":""8"",""num_scrambled_causal"":""4"",""num_scrambled_schematic"":""4"",""participantId"":""EF267AB9DC6A4FD0A96BEBCCE110ACBC"",""assignmentId"":""469e3c1f-cd75-4055-a97b-87081e13eacc"",""projectId"":""9076ac92-be42-43a2-9634-8b67c7fe93a7""}","https://test12345.live/?num_scrambled_semantic=8&num_scrambled_causal=4&num_scrambled_schematic=4&participantId=EF267AB9DC6A4FD0A96BEBCCE110ACBC&assignmentId=469e3c1f-cd75-4055-a97b-87081e13eacc&projectId=9076ac92-be42-43a2-9634-8b67c7fe93a7","EF267AB9DC6A4FD0A96BEBCCE110ACBC-2025-05-22-21-16-58","","1492","","images/schematic_sequence/interview_scheme/interview_scheme_5.png","0","",""
"","","","","","image-button-response","39","314390","0.0-10.0-1.0-2.4","EF267AB9DC6A4FD0A96BEBCCE110ACBC","EF267AB9DC6A4FD0A96BEBCCE110ACBC","469e3c1f-cd75-4055-a97b-87081e13eacc","9076ac92-be42-43a2-9634-8b67c7fe93a7","{""num_scrambled_semantic"":""8"",""num_scrambled_causal"":""4"",""num_scrambled_schematic"":""4"",""participantId"":""EF267AB9DC6A4FD0A96BEBCCE110ACBC"",""assignmentId"":""469e3c1f-cd75-4055-a97b-87081e13eacc"",""projectId"":""9076ac92-be42-43a2-9634-8b67c7fe93a7""}","https://test12345.live/?num_scrambled_semantic=8&num_scrambled_causal=4&num_scrambled_schematic=4&participantId=EF267AB9DC6A4FD0A96BEBCCE110ACBC&assignmentId=469e3c1f-cd75-4055-a97b-87081e13eacc&projectId=9076ac92-be42-43a2-9634-8b67c7fe93a7","EF267AB9DC6A4FD0A96BEBCCE110ACBC-2025-05-22-21-16-58","","null","","[]","null","",""
"","","","","","image-button-response","40","318893","0.0-10.0-1.0-0.5","EF267AB9DC6A4FD0A96BEBCCE110ACBC","EF267AB9DC6A4FD0A96BEBCCE110ACBC","469e3c1f-cd75-4055-a97b-87081e13eacc","9076ac92-be42-43a2-9634-8b67c7fe93a7","{""num_scrambled_semantic"":""8"",""num_scrambled_causal"":""4"",""num_scrambled_schematic"":""4"",""participantId"":""EF267AB9DC6A4FD0A96BEBCCE110ACBC"",""assignmentId"":""469e3c1f-cd75-4055-a97b-87081e13eacc"",""projectId"":""9076ac92-be42-43a2-9634-8b67c7fe93a7""}","https://test12345.live/?num_scrambled_semantic=8&num_scrambled_causal=4&num_scrambled_schematic=4&participantId=EF267AB9DC6A4FD0A96BEBCCE110ACBC&assignmentId=469e3c1f-cd75-4055-a97b-87081e13eacc&projectId=9076ac92-be42-43a2-9634-8b67c7fe93a7","EF267AB9DC6A4FD0A96BEBCCE110ACBC-2025-05-22-21-16-58","","null","","images/schematic_sequence/interview_scheme/interview_scheme_6.png","null","",""
"","","","","","image-button-response","41","320408","0.0-10.0-1.0-1.5","EF267AB9DC6A4FD0A96BEBCCE110ACBC","EF267AB9DC6A4FD0A96BEBCCE110ACBC","469e3c1f-cd75-4055-a97b-87081e13eacc","9076ac92-be42-43a2-9634-8b67c7fe93a7","{""num_scrambled_semantic"":""8"",""num_scrambled_causal"":""4"",""num_scrambled_schematic"":""4"",""participantId"":""EF267AB9DC6A4FD0A96BEBCCE110ACBC"",""assignmentId"":""469e3c1f-cd75-4055-a97b-87081e13eacc"",""projectId"":""9076ac92-be42-43a2-9634-8b67c7fe93a7""}","https://test12345.live/?num_scrambled_semantic=8&num_scrambled_causal=4&num_scrambled_schematic=4&participantId=EF267AB9DC6A4FD0A96BEBCCE110ACBC&assignmentId=469e3c1f-cd75-4055-a97b-87081e13eacc&projectId=9076ac92-be42-43a2-9634-8b67c7fe93a7","EF267AB9DC6A4FD0A96BEBCCE110ACBC-2025-05-22-21-16-58","","1511","","images/schematic_sequence/interview_scheme/interview_scheme_6.png","0","",""
"","","","","","image-button-response","42","322211","0.0-10.0-1.0-2.5","EF267AB9DC6A4FD0A96BEBCCE110ACBC","EF267AB9DC6A4FD0A96BEBCCE110ACBC","469e3c1f-cd75-4055-a97b-87081e13eacc","9076ac92-be42-43a2-9634-8b67c7fe93a7","{""num_scrambled_semantic"":""8"",""num_scrambled_causal"":""4"",""num_scrambled_schematic"":""4"",""participantId"":""EF267AB9DC6A4FD0A96BEBCCE110ACBC"",""assignmentId"":""469e3c1f-cd75-4055-a97b-87081e13eacc"",""projectId"":""9076ac92-be42-43a2-9634-8b67c7fe93a7""}","https://test12345.live/?num_scrambled_semantic=8&num_scrambled_causal=4&num_scrambled_schematic=4&participantId=EF267AB9DC6A4FD0A96BEBCCE110ACBC&assignmentId=469e3c1f-cd75-4055-a97b-87081e13eacc&projectId=9076ac92-be42-43a2-9634-8b67c7fe93a7","EF267AB9DC6A4FD0A96BEBCCE110ACBC-2025-05-22-21-16-58","","null","","[]","null","",""
"","","","","","image-button-response","43","326719","0.0-10.0-1.0-0.6","EF267AB9DC6A4FD0A96BEBCCE110ACBC","EF267AB9DC6A4FD0A96BEBCCE110ACBC","469e3c1f-cd75-4055-a97b-87081e13eacc","9076ac92-be42-43a2-9634-8b67c7fe93a7","{""num_scrambled_semantic"":""8"",""num_scrambled_causal"":""4"",""num_scrambled_schematic"":""4"",""participantId"":""EF267AB9DC6A4FD0A96BEBCCE110ACBC"",""assignmentId"":""469e3c1f-cd75-4055-a97b-87081e13eacc"",""projectId"":""9076ac92-be42-43a2-9634-8b67c7fe93a7""}","https://test12345.live/?num_scrambled_semantic=8&num_scrambled_causal=4&num_scrambled_schematic=4&participantId=EF267AB9DC6A4FD0A96BEBCCE110ACBC&assignmentId=469e3c1f-cd75-4055-a97b-87081e13eacc&projectId=9076ac92-be42-43a2-9634-8b67c7fe93a7","EF267AB9DC6A4FD0A96BEBCCE110ACBC-2025-05-22-21-16-58","","null","","images/schematic_sequence/interview_scheme/interview_scheme_7.png","null","",""
"","","","","","image-button-response","44","330157","0.0-10.0-1.0-1.6","EF267AB9DC6A4FD0A96BEBCCE110ACBC","EF267AB9DC6A4FD0A96BEBCCE110ACBC","469e3c1f-cd75-4055-a97b-87081e13eacc","9076ac92-be42-43a2-9634-8b67c7fe93a7","{""num_scrambled_semantic"":""8"",""num_scrambled_causal"":""4"",""num_scrambled_schematic"":""4"",""participantId"":""EF267AB9DC6A4FD0A96BEBCCE110ACBC"",""assignmentId"":""469e3c1f-cd75-4055-a97b-87081e13eacc"",""projectId"":""9076ac92-be42-43a2-9634-8b67c7fe93a7""}","https://test12345.live/?num_scrambled_semantic=8&num_scrambled_causal=4&num_scrambled_schematic=4&participantId=EF267AB9DC6A4FD0A96BEBCCE110ACBC&assignmentId=469e3c1f-cd75-4055-a97b-87081e13eacc&projectId=9076ac92-be42-43a2-9634-8b67c7fe93a7","EF267AB9DC6A4FD0A96BEBCCE110ACBC-2025-05-22-21-16-58","","3435","","images/schematic_sequence/interview_scheme/interview_scheme_7.png","0","",""
"","","","","","image-button-response","45","331970","0.0-10.0-1.0-2.6","EF267AB9DC6A4FD0A96BEBCCE110ACBC","EF267AB9DC6A4FD0A96BEBCCE110ACBC","469e3c1f-cd75-4055-a97b-87081e13eacc","9076ac92-be42-43a2-9634-8b67c7fe93a7","{""num_scrambled_semantic"":""8"",""num_scrambled_causal"":""4"",""num_scrambled_schematic"":""4"",""participantId"":""EF267AB9DC6A4FD0A96BEBCCE110ACBC"",""assignmentId"":""469e3c1f-cd75-4055-a97b-87081e13eacc"",""projectId"":""9076ac92-be42-43a2-9634-8b67c7fe93a7""}","https://test12345.live/?num_scrambled_semantic=8&num_scrambled_causal=4&num_scrambled_schematic=4&participantId=EF267AB9DC6A4FD0A96BEBCCE110ACBC&assignmentId=469e3c1f-cd75-4055-a97b-87081e13eacc&projectId=9076ac92-be42-43a2-9634-8b67c7fe93a7","EF267AB9DC6A4FD0A96BEBCCE110ACBC-2025-05-22-21-16-58","","null","","[]","null","",""
"","","","","","image-button-response","46","336480","0.0-10.0-1.0-0.7","EF267AB9DC6A4FD0A96BEBCCE110ACBC","EF267AB9DC6A4FD0A96BEBCCE110ACBC","469e3c1f-cd75-4055-a97b-87081e13eacc","9076ac92-be42-43a2-9634-8b67c7fe93a7","{""num_scrambled_semantic"":""8"",""num_scrambled_causal"":""4"",""num_scrambled_schematic"":""4"",""participantId"":""EF267AB9DC6A4FD0A96BEBCCE110ACBC"",""assignmentId"":""469e3c1f-cd75-4055-a97b-87081e13eacc"",""projectId"":""9076ac92-be42-43a2-9634-8b67c7fe93a7""}","https://test12345.live/?num_scrambled_semantic=8&num_scrambled_causal=4&num_scrambled_schematic=4&participantId=EF267AB9DC6A4FD0A96BEBCCE110ACBC&assignmentId=469e3c1f-cd75-4055-a97b-87081e13eacc&projectId=9076ac92-be42-43a2-9634-8b67c7fe93a7","EF267AB9DC6A4FD0A96BEBCCE110ACBC-2025-05-22-21-16-58","","null","","images/schematic_sequence/interview_scheme/interview_scheme_8.png","null","",""
"","","","","","image-button-response","47","338279","0.0-10.0-1.0-1.7","EF267AB9DC6A4FD0A96BEBCCE110ACBC","EF267AB9DC6A4FD0A96BEBCCE110ACBC","469e3c1f-cd75-4055-a97b-87081e13eacc","9076ac92-be42-43a2-9634-8b67c7fe93a7","{""num_scrambled_semantic"":""8"",""num_scrambled_causal"":""4"",""num_scrambled_schematic"":""4"",""participantId"":""EF267AB9DC6A4FD0A96BEBCCE110ACBC"",""assignmentId"":""469e3c1f-cd75-4055-a97b-87081e13eacc"",""projectId"":""9076ac92-be42-43a2-9634-8b67c7fe93a7""}","https://test12345.live/?num_scrambled_semantic=8&num_scrambled_causal=4&num_scrambled_schematic=4&participantId=EF267AB9DC6A4FD0A96BEBCCE110ACBC&assignmentId=469e3c1f-cd75-4055-a97b-87081e13eacc&projectId=9076ac92-be42-43a2-9634-8b67c7fe93a7","EF267AB9DC6A4FD0A96BEBCCE110ACBC-2025-05-22-21-16-58","","1796","","images/schematic_sequence/interview_scheme/interview_scheme_8.png","0","",""
"","","","","","image-button-response","48","340095","0.0-10.0-1.0-2.7","EF267AB9DC6A4FD0A96BEBCCE110ACBC","EF267AB9DC6A4FD0A96BEBCCE110ACBC","469e3c1f-cd75-4055-a97b-87081e13eacc","9076ac92-be42-43a2-9634-8b67c7fe93a7","{""num_scrambled_semantic"":""8"",""num_scrambled_causal"":""4"",""num_scrambled_schematic"":""4"",""participantId"":""EF267AB9DC6A4FD0A96BEBCCE110ACBC"",""assignmentId"":""469e3c1f-cd75-4055-a97b-87081e13eacc"",""projectId"":""9076ac92-be42-43a2-9634-8b67c7fe93a7""}","https://test12345.live/?num_scrambled_semantic=8&num_scrambled_causal=4&num_scrambled_schematic=4&participantId=EF267AB9DC6A4FD0A96BEBCCE110ACBC&assignmentId=469e3c1f-cd75-4055-a97b-87081e13eacc&projectId=9076ac92-be42-43a2-9634-8b67c7fe93a7","EF267AB9DC6A4FD0A96BEBCCE110ACBC-2025-05-22-21-16-58","","null","","[]","null","",""
"","","","","","image-button-response","49","344611","0.0-10.0-1.0-0.8","EF267AB9DC6A4FD0A96BEBCCE110ACBC","EF267AB9DC6A4FD0A96BEBCCE110ACBC","469e3c1f-cd75-4055-a97b-87081e13eacc","9076ac92-be42-43a2-9634-8b67c7fe93a7","{""num_scrambled_semantic"":""8"",""num_scrambled_causal"":""4"",""num_scrambled_schematic"":""4"",""participantId"":""EF267AB9DC6A4FD0A96BEBCCE110ACBC"",""assignmentId"":""469e3c1f-cd75-4055-a97b-87081e13eacc"",""projectId"":""9076ac92-be42-43a2-9634-8b67c7fe93a7""}","https://test12345.live/?num_scrambled_semantic=8&num_scrambled_causal=4&num_scrambled_schematic=4&participantId=EF267AB9DC6A4FD0A96BEBCCE110ACBC&assignmentId=469e3c1f-cd75-4055-a97b-87081e13eacc&projectId=9076ac92-be42-43a2-9634-8b67c7fe93a7","EF267AB9DC6A4FD0A96BEBCCE110ACBC-2025-05-22-21-16-58","","null","","images/schematic_sequence/interview_scheme/interview_scheme_9.png","null","",""
"","","","","","image-button-response","50","345998","0.0-10.0-1.0-1.8","EF267AB9DC6A4FD0A96BEBCCE110ACBC","EF267AB9DC6A4FD0A96BEBCCE110ACBC","469e3c1f-cd75-4055-a97b-87081e13eacc","9076ac92-be42-43a2-9634-8b67c7fe93a7","{""num_scrambled_semantic"":""8"",""num_scrambled_causal"":""4"",""num_scrambled_schematic"":""4"",""participantId"":""EF267AB9DC6A4FD0A96BEBCCE110ACBC"",""assignmentId"":""469e3c1f-cd75-4055-a97b-87081e13eacc"",""projectId"":""9076ac92-be42-43a2-9634-8b67c7fe93a7""}","https://test12345.live/?num_scrambled_semantic=8&num_scrambled_causal=4&num_scrambled_schematic=4&participantId=EF267AB9DC6A4FD0A96BEBCCE110ACBC&assignmentId=469e3c1f-cd75-4055-a97b-87081e13eacc&projectId=9076ac92-be42-43a2-9634-8b67c7fe93a7","EF267AB9DC6A4FD0A96BEBCCE110ACBC-2025-05-22-21-16-58","","1384","","images/schematic_sequence/interview_scheme/interview_scheme_9.png","0","",""
"","","","","","image-button-response","51","347814","0.0-10.0-1.0-2.8","EF267AB9DC6A4FD0A96BEBCCE110ACBC","EF267AB9DC6A4FD0A96BEBCCE110ACBC","469e3c1f-cd75-4055-a97b-87081e13eacc","9076ac92-be42-43a2-9634-8b67c7fe93a7","{""num_scrambled_semantic"":""8"",""num_scrambled_causal"":""4"",""num_scrambled_schematic"":""4"",""participantId"":""EF267AB9DC6A4FD0A96BEBCCE110ACBC"",""assignmentId"":""469e3c1f-cd75-4055-a97b-87081e13eacc"",""projectId"":""9076ac92-be42-43a2-9634-8b67c7fe93a7""}","https://test12345.live/?num_scrambled_semantic=8&num_scrambled_causal=4&num_scrambled_schematic=4&participantId=EF267AB9DC6A4FD0A96BEBCCE110ACBC&assignmentId=469e3c1f-cd75-4055-a97b-87081e13eacc&projectId=9076ac92-be42-43a2-9634-8b67c7fe93a7","EF267AB9DC6A4FD0A96BEBCCE110ACBC-2025-05-22-21-16-58","","null","","[]","null","",""
"","","","","","image-button-response","52","352330","0.0-10.0-1.0-0.9","EF267AB9DC6A4FD0A96BEBCCE110ACBC","EF267AB9DC6A4FD0A96BEBCCE110ACBC","469e3c1f-cd75-4055-a97b-87081e13eacc","9076ac92-be42-43a2-9634-8b67c7fe93a7","{""num_scrambled_semantic"":""8"",""num_scrambled_causal"":""4"",""num_scrambled_schematic"":""4"",""participantId"":""EF267AB9DC6A4FD0A96BEBCCE110ACBC"",""assignmentId"":""469e3c1f-cd75-4055-a97b-87081e13eacc"",""projectId"":""9076ac92-be42-43a2-9634-8b67c7fe93a7""}","https://test12345.live/?num_scrambled_semantic=8&num_scrambled_causal=4&num_scrambled_schematic=4&participantId=EF267AB9DC6A4FD0A96BEBCCE110ACBC&assignmentId=469e3c1f-cd75-4055-a97b-87081e13eacc&projectId=9076ac92-be42-43a2-9634-8b67c7fe93a7","EF267AB9DC6A4FD0A96BEBCCE110ACBC-2025-05-22-21-16-58","","null","","images/schematic_sequence/interview_scheme/interview_scheme_ten.png","null","",""
"","","","","","image-button-response","53","354499","0.0-10.0-1.0-1.9","EF267AB9DC6A4FD0A96BEBCCE110ACBC","EF267AB9DC6A4FD0A96BEBCCE110ACBC","469e3c1f-cd75-4055-a97b-87081e13eacc","9076ac92-be42-43a2-9634-8b67c7fe93a7","{""num_scrambled_semantic"":""8"",""num_scrambled_causal"":""4"",""num_scrambled_schematic"":""4"",""participantId"":""EF267AB9DC6A4FD0A96BEBCCE110ACBC"",""assignmentId"":""469e3c1f-cd75-4055-a97b-87081e13eacc"",""projectId"":""9076ac92-be42-43a2-9634-8b67c7fe93a7""}","https://test12345.live/?num_scrambled_semantic=8&num_scrambled_causal=4&num_scrambled_schematic=4&participantId=EF267AB9DC6A4FD0A96BEBCCE110ACBC&assignmentId=469e3c1f-cd75-4055-a97b-87081e13eacc&projectId=9076ac92-be42-43a2-9634-8b67c7fe93a7","EF267AB9DC6A4FD0A96BEBCCE110ACBC-2025-05-22-21-16-58","","2166","","images/schematic_sequence/interview_scheme/interview_scheme_ten.png","0","",""
"","","","","","image-button-response","54","356308","0.0-10.0-1.0-2.9","EF267AB9DC6A4FD0A96BEBCCE110ACBC","EF267AB9DC6A4FD0A96BEBCCE110ACBC","469e3c1f-cd75-4055-a97b-87081e13eacc","9076ac92-be42-43a2-9634-8b67c7fe93a7","{""num_scrambled_semantic"":""8"",""num_scrambled_causal"":""4"",""num_scrambled_schematic"":""4"",""participantId"":""EF267AB9DC6A4FD0A96BEBCCE110ACBC"",""assignmentId"":""469e3c1f-cd75-4055-a97b-87081e13eacc"",""projectId"":""9076ac92-be42-43a2-9634-8b67c7fe93a7""}","https://test12345.live/?num_scrambled_semantic=8&num_scrambled_causal=4&num_scrambled_schematic=4&participantId=EF267AB9DC6A4FD0A96BEBCCE110ACBC&assignmentId=469e3c1f-cd75-4055-a97b-87081e13eacc&projectId=9076ac92-be42-43a2-9634-8b67c7fe93a7","EF267AB9DC6A4FD0A96BEBCCE110ACBC-2025-05-22-21-16-58","","null","","[]","null","",""
"","","","","","html-audio-response","55","466532","0.0-11.0","EF267AB9DC6A4FD0A96BEBCCE110ACBC","EF267AB9DC6A4FD0A96BEBCCE110ACBC","469e3c1f-cd75-4055-a97b-87081e13eacc","9076ac92-be42-43a2-9634-8b67c7fe93a7","{""num_scrambled_semantic"":""8"",""num_scrambled_causal"":""4"",""num_scrambled_schematic"":""4"",""participantId"":""EF267AB9DC6A4FD0A96BEBCCE110ACBC"",""assignmentId"":""469e3c1f-cd75-4055-a97b-87081e13eacc"",""projectId"":""9076ac92-be42-43a2-9634-8b67c7fe93a7""}","https://test12345.live/?num_scrambled_semantic=8&num_scrambled_causal=4&num_scrambled_schematic=4&participantId=EF267AB9DC6A4FD0A96BEBCCE110ACBC&assignmentId=469e3c1f-cd75-4055-a97b-87081e13eacc&projectId=9076ac92-be42-43a2-9634-8b67c7fe93a7","EF267AB9DC6A4FD0A96BEBCCE110ACBC-2025-05-22-21-16-58","","3517","","[""<span style=\""color: red; font-size: 24px\""> NOW RECORDING</span><p>Please say out loud all the images you saw, in the exact order you saw them. Try to recall as many images as you can, but remember: getting the order right is more important than the number of images you recall.</p>""]","","5","interview_scheme"
"","","","","","image-button-response","56","472555","0.0-12.0-0.0","EF267AB9DC6A4FD0A96BEBCCE110ACBC","EF267AB9DC6A4FD0A96BEBCCE110ACBC","469e3c1f-cd75-4055-a97b-87081e13eacc","9076ac92-be42-43a2-9634-8b67c7fe93a7","{""num_scrambled_semantic"":""8"",""num_scrambled_causal"":""4"",""num_scrambled_schematic"":""4"",""participantId"":""EF267AB9DC6A4FD0A96BEBCCE110ACBC"",""assignmentId"":""469e3c1f-cd75-4055-a97b-87081e13eacc"",""projectId"":""9076ac92-be42-43a2-9634-8b67c7fe93a7""}","https://test12345.live/?num_scrambled_semantic=8&num_scrambled_causal=4&num_scrambled_schematic=4&participantId=EF267AB9DC6A4FD0A96BEBCCE110ACBC&assignmentId=469e3c1f-cd75-4055-a97b-87081e13eacc&projectId=9076ac92-be42-43a2-9634-8b67c7fe93a7","EF267AB9DC6A4FD0A96BEBCCE110ACBC-2025-05-22-21-16-58","","null","","images/causal_sequence/coin_causal/coin_causal_0.png","null","",""
"","","","","","image-button-response","57","477063","0.0-12.0-1.0-0.0","EF267AB9DC6A4FD0A96BEBCCE110ACBC","EF267AB9DC6A4FD0A96BEBCCE110ACBC","469e3c1f-cd75-4055-a97b-87081e13eacc","9076ac92-be42-43a2-9634-8b67c7fe93a7","{""num_scrambled_semantic"":""8"",""num_scrambled_causal"":""4"",""num_scrambled_schematic"":""4"",""participantId"":""EF267AB9DC6A4FD0A96BEBCCE110ACBC"",""assignmentId"":""469e3c1f-cd75-4055-a97b-87081e13eacc"",""projectId"":""9076ac92-be42-43a2-9634-8b67c7fe93a7""}","https://test12345.live/?num_scrambled_semantic=8&num_scrambled_causal=4&num_scrambled_schematic=4&participantId=EF267AB9DC6A4FD0A96BEBCCE110ACBC&assignmentId=469e3c1f-cd75-4055-a97b-87081e13eacc&projectId=9076ac92-be42-43a2-9634-8b67c7fe93a7","EF267AB9DC6A4FD0A96BEBCCE110ACBC-2025-05-22-21-16-58","","null","","images/causal_sequence/coin_causal/coin_causal_9.png","null","",""
"","","","","","image-button-response","58","479941","0.0-12.0-1.0-1.0","EF267AB9DC6A4FD0A96BEBCCE110ACBC","EF267AB9DC6A4FD0A96BEBCCE110ACBC","469e3c1f-cd75-4055-a97b-87081e13eacc","9076ac92-be42-43a2-9634-8b67c7fe93a7","{""num_scrambled_semantic"":""8"",""num_scrambled_causal"":""4"",""num_scrambled_schematic"":""4"",""participantId"":""EF267AB9DC6A4FD0A96BEBCCE110ACBC"",""assignmentId"":""469e3c1f-cd75-4055-a97b-87081e13eacc"",""projectId"":""9076ac92-be42-43a2-9634-8b67c7fe93a7""}","https://test12345.live/?num_scrambled_semantic=8&num_scrambled_causal=4&num_scrambled_schematic=4&participantId=EF267AB9DC6A4FD0A96BEBCCE110ACBC&assignmentId=469e3c1f-cd75-4055-a97b-87081e13eacc&projectId=9076ac92-be42-43a2-9634-8b67c7fe93a7","EF267AB9DC6A4FD0A96BEBCCE110ACBC-2025-05-22-21-16-58","","2875","","images/causal_sequence/coin_causal/coin_causal_9.png","0","",""
"","","","","","image-button-response","59","481747","0.0-12.0-1.0-2.0","EF267AB9DC6A4FD0A96BEBCCE110ACBC","EF267AB9DC6A4FD0A96BEBCCE110ACBC","469e3c1f-cd75-4055-a97b-87081e13eacc","9076ac92-be42-43a2-9634-8b67c7fe93a7","{""num_scrambled_semantic"":""8"",""num_scrambled_causal"":""4"",""num_scrambled_schematic"":""4"",""participantId"":""EF267AB9DC6A4FD0A96BEBCCE110ACBC"",""assignmentId"":""469e3c1f-cd75-4055-a97b-87081e13eacc"",""projectId"":""9076ac92-be42-43a2-9634-8b67c7fe93a7""}","https://test12345.live/?num_scrambled_semantic=8&num_scrambled_causal=4&num_scrambled_schematic=4&participantId=EF267AB9DC6A4FD0A96BEBCCE110ACBC&assignmentId=469e3c1f-cd75-4055-a97b-87081e13eacc&projectId=9076ac92-be42-43a2-9634-8b67c7fe93a7","EF267AB9DC6A4FD0A96BEBCCE110ACBC-2025-05-22-21-16-58","","null","","[]","null","",""
"","","","","","image-button-response","60","486260","0.0-12.0-1.0-0.1","EF267AB9DC6A4FD0A96BEBCCE110ACBC","EF267AB9DC6A4FD0A96BEBCCE110ACBC","469e3c1f-cd75-4055-a97b-87081e13eacc","9076ac92-be42-43a2-9634-8b67c7fe93a7","{""num_scrambled_semantic"":""8"",""num_scrambled_causal"":""4"",""num_scrambled_schematic"":""4"",""participantId"":""EF267AB9DC6A4FD0A96BEBCCE110ACBC"",""assignmentId"":""469e3c1f-cd75-4055-a97b-87081e13eacc"",""projectId"":""9076ac92-be42-43a2-9634-8b67c7fe93a7""}","https://test12345.live/?num_scrambled_semantic=8&num_scrambled_causal=4&num_scrambled_schematic=4&participantId=EF267AB9DC6A4FD0A96BEBCCE110ACBC&assignmentId=469e3c1f-cd75-4055-a97b-87081e13eacc&projectId=9076ac92-be42-43a2-9634-8b67c7fe93a7","EF267AB9DC6A4FD0A96BEBCCE110ACBC-2025-05-22-21-16-58","","null","","images/causal_sequence/coin_causal/coin_causal_5.png","null","",""
"","","","","","image-button-response","61","488445","0.0-12.0-1.0-1.1","EF267AB9DC6A4FD0A96BEBCCE110ACBC","EF267AB9DC6A4FD0A96BEBCCE110ACBC","469e3c1f-cd75-4055-a97b-87081e13eacc","9076ac92-be42-43a2-9634-8b67c7fe93a7","{""num_scrambled_semantic"":""8"",""num_scrambled_causal"":""4"",""num_scrambled_schematic"":""4"",""participantId"":""EF267AB9DC6A4FD0A96BEBCCE110ACBC"",""assignmentId"":""469e3c1f-cd75-4055-a97b-87081e13eacc"",""projectId"":""9076ac92-be42-43a2-9634-8b67c7fe93a7""}","https://test12345.live/?num_scrambled_semantic=8&num_scrambled_causal=4&num_scrambled_schematic=4&participantId=EF267AB9DC6A4FD0A96BEBCCE110ACBC&assignmentId=469e3c1f-cd75-4055-a97b-87081e13eacc&projectId=9076ac92-be42-43a2-9634-8b67c7fe93a7","EF267AB9DC6A4FD0A96BEBCCE110ACBC-2025-05-22-21-16-58","","2181","","images/causal_sequence/coin_causal/coin_causal_5.png","0","",""
"","","","","","image-button-response","62","490253","0.0-12.0-1.0-2.1","EF267AB9DC6A4FD0A96BEBCCE110ACBC","EF267AB9DC6A4FD0A96BEBCCE110ACBC","469e3c1f-cd75-4055-a97b-87081e13eacc","9076ac92-be42-43a2-9634-8b67c7fe93a7","{""num_scrambled_semantic"":""8"",""num_scrambled_causal"":""4"",""num_scrambled_schematic"":""4"",""participantId"":""EF267AB9DC6A4FD0A96BEBCCE110ACBC"",""assignmentId"":""469e3c1f-cd75-4055-a97b-87081e13eacc"",""projectId"":""9076ac92-be42-43a2-9634-8b67c7fe93a7""}","https://test12345.live/?num_scrambled_semantic=8&num_scrambled_causal=4&num_scrambled_schematic=4&participantId=EF267AB9DC6A4FD0A96BEBCCE110ACBC&assignmentId=469e3c1f-cd75-4055-a97b-87081e13eacc&projectId=9076ac92-be42-43a2-9634-8b67c7fe93a7","EF267AB9DC6A4FD0A96BEBCCE110ACBC-2025-05-22-21-16-58","","null","","[]","null","",""
"","","","","","image-button-response","63","494768","0.0-12.0-1.0-0.2","EF267AB9DC6A4FD0A96BEBCCE110ACBC","EF267AB9DC6A4FD0A96BEBCCE110ACBC","469e3c1f-cd75-4055-a97b-87081e13eacc","9076ac92-be42-43a2-9634-8b67c7fe93a7","{""num_scrambled_semantic"":""8"",""num_scrambled_causal"":""4"",""num_scrambled_schematic"":""4"",""participantId"":""EF267AB9DC6A4FD0A96BEBCCE110ACBC"",""assignmentId"":""469e3c1f-cd75-4055-a97b-87081e13eacc"",""projectId"":""9076ac92-be42-43a2-9634-8b67c7fe93a7""}","https://test12345.live/?num_scrambled_semantic=8&num_scrambled_causal=4&num_scrambled_schematic=4&participantId=EF267AB9DC6A4FD0A96BEBCCE110ACBC&assignmentId=469e3c1f-cd75-4055-a97b-87081e13eacc&projectId=9076ac92-be42-43a2-9634-8b67c7fe93a7","EF267AB9DC6A4FD0A96BEBCCE110ACBC-2025-05-22-21-16-58","","null","","images/causal_sequence/coin_causal/coin_causal_3.png","null","",""
"","","","","","image-button-response","64","496875","0.0-12.0-1.0-1.2","EF267AB9DC6A4FD0A96BEBCCE110ACBC","EF267AB9DC6A4FD0A96BEBCCE110ACBC","469e3c1f-cd75-4055-a97b-87081e13eacc","9076ac92-be42-43a2-9634-8b67c7fe93a7","{""num_scrambled_semantic"":""8"",""num_scrambled_causal"":""4"",""num_scrambled_schematic"":""4"",""participantId"":""EF267AB9DC6A4FD0A96BEBCCE110ACBC"",""assignmentId"":""469e3c1f-cd75-4055-a97b-87081e13eacc"",""projectId"":""9076ac92-be42-43a2-9634-8b67c7fe93a7""}","https://test12345.live/?num_scrambled_semantic=8&num_scrambled_causal=4&num_scrambled_schematic=4&participantId=EF267AB9DC6A4FD0A96BEBCCE110ACBC&assignmentId=469e3c1f-cd75-4055-a97b-87081e13eacc&projectId=9076ac92-be42-43a2-9634-8b67c7fe93a7","EF267AB9DC6A4FD0A96BEBCCE110ACBC-2025-05-22-21-16-58","","2104","","images/causal_sequence/coin_causal/coin_causal_3.png","0","",""
"","","","","","image-button-response","65","498690","0.0-12.0-1.0-2.2","EF267AB9DC6A4FD0A96BEBCCE110ACBC","EF267AB9DC6A4FD0A96BEBCCE110ACBC","469e3c1f-cd75-4055-a97b-87081e13eacc","9076ac92-be42-43a2-9634-8b67c7fe93a7","{""num_scrambled_semantic"":""8"",""num_scrambled_causal"":""4"",""num_scrambled_schematic"":""4"",""participantId"":""EF267AB9DC6A4FD0A96BEBCCE110ACBC"",""assignmentId"":""469e3c1f-cd75-4055-a97b-87081e13eacc"",""projectId"":""9076ac92-be42-43a2-9634-8b67c7fe93a7""}","https://test12345.live/?num_scrambled_semantic=8&num_scrambled_causal=4&num_scrambled_schematic=4&participantId=EF267AB9DC6A4FD0A96BEBCCE110ACBC&assignmentId=469e3c1f-cd75-4055-a97b-87081e13eacc&projectId=9076ac92-be42-43a2-9634-8b67c7fe93a7","EF267AB9DC6A4FD0A96BEBCCE110ACBC-2025-05-22-21-16-58","","null","","[]","null","",""
"","","","","","image-button-response","66","503204","0.0-12.0-1.0-0.3","EF267AB9DC6A4FD0A96BEBCCE110ACBC","EF267AB9DC6A4FD0A96BEBCCE110ACBC","469e3c1f-cd75-4055-a97b-87081e13eacc","9076ac92-be42-43a2-9634-8b67c7fe93a7","{""num_scrambled_semantic"":""8"",""num_scrambled_causal"":""4"",""num_scrambled_schematic"":""4"",""participantId"":""EF267AB9DC6A4FD0A96BEBCCE110ACBC"",""assignmentId"":""469e3c1f-cd75-4055-a97b-87081e13eacc"",""projectId"":""9076ac92-be42-43a2-9634-8b67c7fe93a7""}","https://test12345.live/?num_scrambled_semantic=8&num_scrambled_causal=4&num_scrambled_schematic=4&participantId=EF267AB9DC6A4FD0A96BEBCCE110ACBC&assignmentId=469e3c1f-cd75-4055-a97b-87081e13eacc&projectId=9076ac92-be42-43a2-9634-8b67c7fe93a7","EF267AB9DC6A4FD0A96BEBCCE110ACBC-2025-05-22-21-16-58","","null","","images/causal_sequence/coin_causal/coin_causal_7.png","null","",""
"","","","","","image-button-response","67","504743","0.0-12.0-1.0-1.3","EF267AB9DC6A4FD0A96BEBCCE110ACBC","EF267AB9DC6A4FD0A96BEBCCE110ACBC","469e3c1f-cd75-4055-a97b-87081e13eacc","9076ac92-be42-43a2-9634-8b67c7fe93a7","{""num_scrambled_semantic"":""8"",""num_scrambled_causal"":""4"",""num_scrambled_schematic"":""4"",""participantId"":""EF267AB9DC6A4FD0A96BEBCCE110ACBC"",""assignmentId"":""469e3c1f-cd75-4055-a97b-87081e13eacc"",""projectId"":""9076ac92-be42-43a2-9634-8b67c7fe93a7""}","https://test12345.live/?num_scrambled_semantic=8&num_scrambled_causal=4&num_scrambled_schematic=4&participantId=EF267AB9DC6A4FD0A96BEBCCE110ACBC&assignmentId=469e3c1f-cd75-4055-a97b-87081e13eacc&projectId=9076ac92-be42-43a2-9634-8b67c7fe93a7","EF267AB9DC6A4FD0A96BEBCCE110ACBC-2025-05-22-21-16-58","","1536","","images/causal_sequence/coin_causal/coin_causal_7.png","0","",""
"","","","","","image-button-response","68","506554","0.0-12.0-1.0-2.3","EF267AB9DC6A4FD0A96BEBCCE110ACBC","EF267AB9DC6A4FD0A96BEBCCE110ACBC","469e3c1f-cd75-4055-a97b-87081e13eacc","9076ac92-be42-43a2-9634-8b67c7fe93a7","{""num_scrambled_semantic"":""8"",""num_scrambled_causal"":""4"",""num_scrambled_schematic"":""4"",""participantId"":""EF267AB9DC6A4FD0A96BEBCCE110ACBC"",""assignmentId"":""469e3c1f-cd75-4055-a97b-87081e13eacc"",""projectId"":""9076ac92-be42-43a2-9634-8b67c7fe93a7""}","https://test12345.live/?num_scrambled_semantic=8&num_scrambled_causal=4&num_scrambled_schematic=4&participantId=EF267AB9DC6A4FD0A96BEBCCE110ACBC&assignmentId=469e3c1f-cd75-4055-a97b-87081e13eacc&projectId=9076ac92-be42-43a2-9634-8b67c7fe93a7","EF267AB9DC6A4FD0A96BEBCCE110ACBC-2025-05-22-21-16-58","","null","","[]","null","",""
"","","","","","image-button-response","69","511072","0.0-12.0-1.0-0.4","EF267AB9DC6A4FD0A96BEBCCE110ACBC","EF267AB9DC6A4FD0A96BEBCCE110ACBC","469e3c1f-cd75-4055-a97b-87081e13eacc","9076ac92-be42-43a2-9634-8b67c7fe93a7","{""num_scrambled_semantic"":""8"",""num_scrambled_causal"":""4"",""num_scrambled_schematic"":""4"",""participantId"":""EF267AB9DC6A4FD0A96BEBCCE110ACBC"",""assignmentId"":""469e3c1f-cd75-4055-a97b-87081e13eacc"",""projectId"":""9076ac92-be42-43a2-9634-8b67c7fe93a7""}","https://test12345.live/?num_scrambled_semantic=8&num_scrambled_causal=4&num_scrambled_schematic=4&participantId=EF267AB9DC6A4FD0A96BEBCCE110ACBC&assignmentId=469e3c1f-cd75-4055-a97b-87081e13eacc&projectId=9076ac92-be42-43a2-9634-8b67c7fe93a7","EF267AB9DC6A4FD0A96BEBCCE110ACBC-2025-05-22-21-16-58","","null","","images/causal_sequence/coin_causal/coin_causal_6.png","null","",""
"","","","","","image-button-response","70","512366","0.0-12.0-1.0-1.4","EF267AB9DC6A4FD0A96BEBCCE110ACBC","EF267AB9DC6A4FD0A96BEBCCE110ACBC","469e3c1f-cd75-4055-a97b-87081e13eacc","9076ac92-be42-43a2-9634-8b67c7fe93a7","{""num_scrambled_semantic"":""8"",""num_scrambled_causal"":""4"",""num_scrambled_schematic"":""4"",""participantId"":""EF267AB9DC6A4FD0A96BEBCCE110ACBC"",""assignmentId"":""469e3c1f-cd75-4055-a97b-87081e13eacc"",""projectId"":""9076ac92-be42-43a2-9634-8b67c7fe93a7""}","https://test12345.live/?num_scrambled_semantic=8&num_scrambled_causal=4&num_scrambled_schematic=4&participantId=EF267AB9DC6A4FD0A96BEBCCE110ACBC&assignmentId=469e3c1f-cd75-4055-a97b-87081e13eacc&projectId=9076ac92-be42-43a2-9634-8b67c7fe93a7","EF267AB9DC6A4FD0A96BEBCCE110ACBC-2025-05-22-21-16-58","","1291","","images/causal_sequence/coin_causal/coin_causal_6.png","0","",""
"","","","","","image-button-response","71","514178","0.0-12.0-1.0-2.4","EF267AB9DC6A4FD0A96BEBCCE110ACBC","EF267AB9DC6A4FD0A96BEBCCE110ACBC","469e3c1f-cd75-4055-a97b-87081e13eacc","9076ac92-be42-43a2-9634-8b67c7fe93a7","{""num_scrambled_semantic"":""8"",""num_scrambled_causal"":""4"",""num_scrambled_schematic"":""4"",""participantId"":""EF267AB9DC6A4FD0A96BEBCCE110ACBC"",""assignmentId"":""469e3c1f-cd75-4055-a97b-87081e13eacc"",""projectId"":""9076ac92-be42-43a2-9634-8b67c7fe93a7""}","https://test12345.live/?num_scrambled_semantic=8&num_scrambled_causal=4&num_scrambled_schematic=4&participantId=EF267AB9DC6A4FD0A96BEBCCE110ACBC&assignmentId=469e3c1f-cd75-4055-a97b-87081e13eacc&projectId=9076ac92-be42-43a2-9634-8b67c7fe93a7","EF267AB9DC6A4FD0A96BEBCCE110ACBC-2025-05-22-21-16-58","","null","","[]","null","",""
"","","","","","image-button-response","72","518688","0.0-12.0-1.0-0.5","EF267AB9DC6A4FD0A96BEBCCE110ACBC","EF267AB9DC6A4FD0A96BEBCCE110ACBC","469e3c1f-cd75-4055-a97b-87081e13eacc","9076ac92-be42-43a2-9634-8b67c7fe93a7","{""num_scrambled_semantic"":""8"",""num_scrambled_causal"":""4"",""num_scrambled_schematic"":""4"",""participantId"":""EF267AB9DC6A4FD0A96BEBCCE110ACBC"",""assignmentId"":""469e3c1f-cd75-4055-a97b-87081e13eacc"",""projectId"":""9076ac92-be42-43a2-9634-8b67c7fe93a7""}","https://test12345.live/?num_scrambled_semantic=8&num_scrambled_causal=4&num_scrambled_schematic=4&participantId=EF267AB9DC6A4FD0A96BEBCCE110ACBC&assignmentId=469e3c1f-cd75-4055-a97b-87081e13eacc&projectId=9076ac92-be42-43a2-9634-8b67c7fe93a7","EF267AB9DC6A4FD0A96BEBCCE110ACBC-2025-05-22-21-16-58","","null","","images/causal_sequence/coin_causal/coin_causal_8.png","null","",""
"","","","","","image-button-response","73","520292","0.0-12.0-1.0-1.5","EF267AB9DC6A4FD0A96BEBCCE110ACBC","EF267AB9DC6A4FD0A96BEBCCE110ACBC","469e3c1f-cd75-4055-a97b-87081e13eacc","9076ac92-be42-43a2-9634-8b67c7fe93a7","{""num_scrambled_semantic"":""8"",""num_scrambled_causal"":""4"",""num_scrambled_schematic"":""4"",""participantId"":""EF267AB9DC6A4FD0A96BEBCCE110ACBC"",""assignmentId"":""469e3c1f-cd75-4055-a97b-87081e13eacc"",""projectId"":""9076ac92-be42-43a2-9634-8b67c7fe93a7""}","https://test12345.live/?num_scrambled_semantic=8&num_scrambled_causal=4&num_scrambled_schematic=4&participantId=EF267AB9DC6A4FD0A96BEBCCE110ACBC&assignmentId=469e3c1f-cd75-4055-a97b-87081e13eacc&projectId=9076ac92-be42-43a2-9634-8b67c7fe93a7","EF267AB9DC6A4FD0A96BEBCCE110ACBC-2025-05-22-21-16-58","","1601","","images/causal_sequence/coin_causal/coin_causal_8.png","0","",""
"","","","","","image-button-response","74","522103","0.0-12.0-1.0-2.5","EF267AB9DC6A4FD0A96BEBCCE110ACBC","EF267AB9DC6A4FD0A96BEBCCE110ACBC","469e3c1f-cd75-4055-a97b-87081e13eacc","9076ac92-be42-43a2-9634-8b67c7fe93a7","{""num_scrambled_semantic"":""8"",""num_scrambled_causal"":""4"",""num_scrambled_schematic"":""4"",""participantId"":""EF267AB9DC6A4FD0A96BEBCCE110ACBC"",""assignmentId"":""469e3c1f-cd75-4055-a97b-87081e13eacc"",""projectId"":""9076ac92-be42-43a2-9634-8b67c7fe93a7""}","https://test12345.live/?num_scrambled_semantic=8&num_scrambled_causal=4&num_scrambled_schematic=4&participantId=EF267AB9DC6A4FD0A96BEBCCE110ACBC&assignmentId=469e3c1f-cd75-4055-a97b-87081e13eacc&projectId=9076ac92-be42-43a2-9634-8b67c7fe93a7","EF267AB9DC6A4FD0A96BEBCCE110ACBC-2025-05-22-21-16-58","","null","","[]","null","",""
"","","","","","image-button-response","75","526618","0.0-12.0-1.0-0.6","EF267AB9DC6A4FD0A96BEBCCE110ACBC","EF267AB9DC6A4FD0A96BEBCCE110ACBC","469e3c1f-cd75-4055-a97b-87081e13eacc","9076ac92-be42-43a2-9634-8b67c7fe93a7","{""num_scrambled_semantic"":""8"",""num_scrambled_causal"":""4"",""num_scrambled_schematic"":""4"",""participantId"":""EF267AB9DC6A4FD0A96BEBCCE110ACBC"",""assignmentId"":""469e3c1f-cd75-4055-a97b-87081e13eacc"",""projectId"":""9076ac92-be42-43a2-9634-8b67c7fe93a7""}","https://test12345.live/?num_scrambled_semantic=8&num_scrambled_causal=4&num_scrambled_schematic=4&participantId=EF267AB9DC6A4FD0A96BEBCCE110ACBC&assignmentId=469e3c1f-cd75-4055-a97b-87081e13eacc&projectId=9076ac92-be42-43a2-9634-8b67c7fe93a7","EF267AB9DC6A4FD0A96BEBCCE110ACBC-2025-05-22-21-16-58","","null","","images/causal_sequence/coin_causal/coin_causal_1.png","null","",""
"","","","","","image-button-response","76","528540","0.0-12.0-1.0-1.6","EF267AB9DC6A4FD0A96BEBCCE110ACBC","EF267AB9DC6A4FD0A96BEBCCE110ACBC","469e3c1f-cd75-4055-a97b-87081e13eacc","9076ac92-be42-43a2-9634-8b67c7fe93a7","{""num_scrambled_semantic"":""8"",""num_scrambled_causal"":""4"",""num_scrambled_schematic"":""4"",""participantId"":""EF267AB9DC6A4FD0A96BEBCCE110ACBC"",""assignmentId"":""469e3c1f-cd75-4055-a97b-87081e13eacc"",""projectId"":""9076ac92-be42-43a2-9634-8b67c7fe93a7""}","https://test12345.live/?num_scrambled_semantic=8&num_scrambled_causal=4&num_scrambled_schematic=4&participantId=EF267AB9DC6A4FD0A96BEBCCE110ACBC&assignmentId=469e3c1f-cd75-4055-a97b-87081e13eacc&projectId=9076ac92-be42-43a2-9634-8b67c7fe93a7","EF267AB9DC6A4FD0A96BEBCCE110ACBC-2025-05-22-21-16-58","","1918","","images/causal_sequence/coin_causal/coin_causal_1.png","0","",""
"","","","","","image-button-response","77","530345","0.0-12.0-1.0-2.6","EF267AB9DC6A4FD0A96BEBCCE110ACBC","EF267AB9DC6A4FD0A96BEBCCE110ACBC","469e3c1f-cd75-4055-a97b-87081e13eacc","9076ac92-be42-43a2-9634-8b67c7fe93a7","{""num_scrambled_semantic"":""8"",""num_scrambled_causal"":""4"",""num_scrambled_schematic"":""4"",""participantId"":""EF267AB9DC6A4FD0A96BEBCCE110ACBC"",""assignmentId"":""469e3c1f-cd75-4055-a97b-87081e13eacc"",""projectId"":""9076ac92-be42-43a2-9634-8b67c7fe93a7""}","https://test12345.live/?num_scrambled_semantic=8&num_scrambled_causal=4&num_scrambled_schematic=4&participantId=EF267AB9DC6A4FD0A96BEBCCE110ACBC&assignmentId=469e3c1f-cd75-4055-a97b-87081e13eacc&projectId=9076ac92-be42-43a2-9634-8b67c7fe93a7","EF267AB9DC6A4FD0A96BEBCCE110ACBC-2025-05-22-21-16-58","","null","","[]","null","",""
"","","","","","image-button-response","78","534855","0.0-12.0-1.0-0.7","EF267AB9DC6A4FD0A96BEBCCE110ACBC","EF267AB9DC6A4FD0A96BEBCCE110ACBC","469e3c1f-cd75-4055-a97b-87081e13eacc","9076ac92-be42-43a2-9634-8b67c7fe93a7","{""num_scrambled_semantic"":""8"",""num_scrambled_causal"":""4"",""num_scrambled_schematic"":""4"",""participantId"":""EF267AB9DC6A4FD0A96BEBCCE110ACBC"",""assignmentId"":""469e3c1f-cd75-4055-a97b-87081e13eacc"",""projectId"":""9076ac92-be42-43a2-9634-8b67c7fe93a7""}","https://test12345.live/?num_scrambled_semantic=8&num_scrambled_causal=4&num_scrambled_schematic=4&participantId=EF267AB9DC6A4FD0A96BEBCCE110ACBC&assignmentId=469e3c1f-cd75-4055-a97b-87081e13eacc&projectId=9076ac92-be42-43a2-9634-8b67c7fe93a7","EF267AB9DC6A4FD0A96BEBCCE110ACBC-2025-05-22-21-16-58","","null","","images/causal_sequence/coin_causal/coin_causal_2.png","null","",""
"","","","","","image-button-response","79","537019","0.0-12.0-1.0-1.7","EF267AB9DC6A4FD0A96BEBCCE110ACBC","EF267AB9DC6A4FD0A96BEBCCE110ACBC","469e3c1f-cd75-4055-a97b-87081e13eacc","9076ac92-be42-43a2-9634-8b67c7fe93a7","{""num_scrambled_semantic"":""8"",""num_scrambled_causal"":""4"",""num_scrambled_schematic"":""4"",""participantId"":""EF267AB9DC6A4FD0A96BEBCCE110ACBC"",""assignmentId"":""469e3c1f-cd75-4055-a97b-87081e13eacc"",""projectId"":""9076ac92-be42-43a2-9634-8b67c7fe93a7""}","https://test12345.live/?num_scrambled_semantic=8&num_scrambled_causal=4&num_scrambled_schematic=4&participantId=EF267AB9DC6A4FD0A96BEBCCE110ACBC&assignmentId=469e3c1f-cd75-4055-a97b-87081e13eacc&projectId=9076ac92-be42-43a2-9634-8b67c7fe93a7","EF267AB9DC6A4FD0A96BEBCCE110ACBC-2025-05-22-21-16-58","","2160","","images/causal_sequence/coin_causal/coin_causal_2.png","0","",""
"","","","","","image-button-response","80","538825","0.0-12.0-1.0-2.7","EF267AB9DC6A4FD0A96BEBCCE110ACBC","EF267AB9DC6A4FD0A96BEBCCE110ACBC","469e3c1f-cd75-4055-a97b-87081e13eacc","9076ac92-be42-43a2-9634-8b67c7fe93a7","{""num_scrambled_semantic"":""8"",""num_scrambled_causal"":""4"",""num_scrambled_schematic"":""4"",""participantId"":""EF267AB9DC6A4FD0A96BEBCCE110ACBC"",""assignmentId"":""469e3c1f-cd75-4055-a97b-87081e13eacc"",""projectId"":""9076ac92-be42-43a2-9634-8b67c7fe93a7""}","https://test12345.live/?num_scrambled_semantic=8&num_scrambled_causal=4&num_scrambled_schematic=4&participantId=EF267AB9DC6A4FD0A96BEBCCE110ACBC&assignmentId=469e3c1f-cd75-4055-a97b-87081e13eacc&projectId=9076ac92-be42-43a2-9634-8b67c7fe93a7","EF267AB9DC6A4FD0A96BEBCCE110ACBC-2025-05-22-21-16-58","","null","","[]","null","",""
"","","","","","image-button-response","81","543336","0.0-12.0-1.0-0.8","EF267AB9DC6A4FD0A96BEBCCE110ACBC","EF267AB9DC6A4FD0A96BEBCCE110ACBC","469e3c1f-cd75-4055-a97b-87081e13eacc","9076ac92-be42-43a2-9634-8b67c7fe93a7","{""num_scrambled_semantic"":""8"",""num_scrambled_causal"":""4"",""num_scrambled_schematic"":""4"",""participantId"":""EF267AB9DC6A4FD0A96BEBCCE110ACBC"",""assignmentId"":""469e3c1f-cd75-4055-a97b-87081e13eacc"",""projectId"":""9076ac92-be42-43a2-9634-8b67c7fe93a7""}","https://test12345.live/?num_scrambled_semantic=8&num_scrambled_causal=4&num_scrambled_schematic=4&participantId=EF267AB9DC6A4FD0A96BEBCCE110ACBC&assignmentId=469e3c1f-cd75-4055-a97b-87081e13eacc&projectId=9076ac92-be42-43a2-9634-8b67c7fe93a7","EF267AB9DC6A4FD0A96BEBCCE110ACBC-2025-05-22-21-16-58","","null","","images/causal_sequence/coin_causal/coin_causal_ten.png","null","",""
"","","","","","image-button-response","82","545841","0.0-12.0-1.0-1.8","EF267AB9DC6A4FD0A96BEBCCE110ACBC","EF267AB9DC6A4FD0A96BEBCCE110ACBC","469e3c1f-cd75-4055-a97b-87081e13eacc","9076ac92-be42-43a2-9634-8b67c7fe93a7","{""num_scrambled_semantic"":""8"",""num_scrambled_causal"":""4"",""num_scrambled_schematic"":""4"",""participantId"":""EF267AB9DC6A4FD0A96BEBCCE110ACBC"",""assignmentId"":""469e3c1f-cd75-4055-a97b-87081e13eacc"",""projectId"":""9076ac92-be42-43a2-9634-8b67c7fe93a7""}","https://test12345.live/?num_scrambled_semantic=8&num_scrambled_causal=4&num_scrambled_schematic=4&participantId=EF267AB9DC6A4FD0A96BEBCCE110ACBC&assignmentId=469e3c1f-cd75-4055-a97b-87081e13eacc&projectId=9076ac92-be42-43a2-9634-8b67c7fe93a7","EF267AB9DC6A4FD0A96BEBCCE110ACBC-2025-05-22-21-16-58","","2502","","images/causal_sequence/coin_causal/coin_causal_ten.png","0","",""
"","","","","","image-button-response","83","547645","0.0-12.0-1.0-2.8","EF267AB9DC6A4FD0A96BEBCCE110ACBC","EF267AB9DC6A4FD0A96BEBCCE110ACBC","469e3c1f-cd75-4055-a97b-87081e13eacc","9076ac92-be42-43a2-9634-8b67c7fe93a7","{""num_scrambled_semantic"":""8"",""num_scrambled_causal"":""4"",""num_scrambled_schematic"":""4"",""participantId"":""EF267AB9DC6A4FD0A96BEBCCE110ACBC"",""assignmentId"":""469e3c1f-cd75-4055-a97b-87081e13eacc"",""projectId"":""9076ac92-be42-43a2-9634-8b67c7fe93a7""}","https://test12345.live/?num_scrambled_semantic=8&num_scrambled_causal=4&num_scrambled_schematic=4&participantId=EF267AB9DC6A4FD0A96BEBCCE110ACBC&assignmentId=469e3c1f-cd75-4055-a97b-87081e13eacc&projectId=9076ac92-be42-43a2-9634-8b67c7fe93a7","EF267AB9DC6A4FD0A96BEBCCE110ACBC-2025-05-22-21-16-58","","null","","[]","null","",""
"","","","","","image-button-response","84","552156","0.0-12.0-1.0-0.9","EF267AB9DC6A4FD0A96BEBCCE110ACBC","EF267AB9DC6A4FD0A96BEBCCE110ACBC","469e3c1f-cd75-4055-a97b-87081e13eacc","9076ac92-be42-43a2-9634-8b67c7fe93a7","{""num_scrambled_semantic"":""8"",""num_scrambled_causal"":""4"",""num_scrambled_schematic"":""4"",""participantId"":""EF267AB9DC6A4FD0A96BEBCCE110ACBC"",""assignmentId"":""469e3c1f-cd75-4055-a97b-87081e13eacc"",""projectId"":""9076ac92-be42-43a2-9634-8b67c7fe93a7""}","https://test12345.live/?num_scrambled_semantic=8&num_scrambled_causal=4&num_scrambled_schematic=4&participantId=EF267AB9DC6A4FD0A96BEBCCE110ACBC&assignmentId=469e3c1f-cd75-4055-a97b-87081e13eacc&projectId=9076ac92-be42-43a2-9634-8b67c7fe93a7","EF267AB9DC6A4FD0A96BEBCCE110ACBC-2025-05-22-21-16-58","","null","","images/causal_sequence/coin_causal/coin_causal_4.png","null","",""
"","","","","","image-button-response","85","554652","0.0-12.0-1.0-1.9","EF267AB9DC6A4FD0A96BEBCCE110ACBC","EF267AB9DC6A4FD0A96BEBCCE110ACBC","469e3c1f-cd75-4055-a97b-87081e13eacc","9076ac92-be42-43a2-9634-8b67c7fe93a7","{""num_scrambled_semantic"":""8"",""num_scrambled_causal"":""4"",""num_scrambled_schematic"":""4"",""participantId"":""EF267AB9DC6A4FD0A96BEBCCE110ACBC"",""assignmentId"":""469e3c1f-cd75-4055-a97b-87081e13eacc"",""projectId"":""9076ac92-be42-43a2-9634-8b67c7fe93a7""}","https://test12345.live/?num_scrambled_semantic=8&num_scrambled_causal=4&num_scrambled_schematic=4&participantId=EF267AB9DC6A4FD0A96BEBCCE110ACBC&assignmentId=469e3c1f-cd75-4055-a97b-87081e13eacc&projectId=9076ac92-be42-43a2-9634-8b67c7fe93a7","EF267AB9DC6A4FD0A96BEBCCE110ACBC-2025-05-22-21-16-58","","2492","","images/causal_sequence/coin_causal/coin_causal_4.png","0","",""
"","","","","","image-button-response","86","556455","0.0-12.0-1.0-2.9","EF267AB9DC6A4FD0A96BEBCCE110ACBC","EF267AB9DC6A4FD0A96BEBCCE110ACBC","469e3c1f-cd75-4055-a97b-87081e13eacc","9076ac92-be42-43a2-9634-8b67c7fe93a7","{""num_scrambled_semantic"":""8"",""num_scrambled_causal"":""4"",""num_scrambled_schematic"":""4"",""participantId"":""EF267AB9DC6A4FD0A96BEBCCE110ACBC"",""assignmentId"":""469e3c1f-cd75-4055-a97b-87081e13eacc"",""projectId"":""9076ac92-be42-43a2-9634-8b67c7fe93a7""}","https://test12345.live/?num_scrambled_semantic=8&num_scrambled_causal=4&num_scrambled_schematic=4&participantId=EF267AB9DC6A4FD0A96BEBCCE110ACBC&assignmentId=469e3c1f-cd75-4055-a97b-87081e13eacc&projectId=9076ac92-be42-43a2-9634-8b67c7fe93a7","EF267AB9DC6A4FD0A96BEBCCE110ACBC-2025-05-22-21-16-58","","null","","[]","null","",""
"","","","","","html-audio-response","87","622789","0.0-13.0","EF267AB9DC6A4FD0A96BEBCCE110ACBC","EF267AB9DC6A4FD0A96BEBCCE110ACBC","469e3c1f-cd75-4055-a97b-87081e13eacc","9076ac92-be42-43a2-9634-8b67c7fe93a7","{""num_scrambled_semantic"":""8"",""num_scrambled_causal"":""4"",""num_scrambled_schematic"":""4"",""participantId"":""EF267AB9DC6A4FD0A96BEBCCE110ACBC"",""assignmentId"":""469e3c1f-cd75-4055-a97b-87081e13eacc"",""projectId"":""9076ac92-be42-43a2-9634-8b67c7fe93a7""}","https://test12345.live/?num_scrambled_semantic=8&num_scrambled_causal=4&num_scrambled_schematic=4&participantId=EF267AB9DC6A4FD0A96BEBCCE110ACBC&assignmentId=469e3c1f-cd75-4055-a97b-87081e13eacc&projectId=9076ac92-be42-43a2-9634-8b67c7fe93a7","EF267AB9DC6A4FD0A96BEBCCE110ACBC-2025-05-22-21-16-58","","3604","","[""<span style=\""color: red; font-size: 24px\""> NOW RECORDING</span><p>Please say out loud all the images you saw, in the exact order you saw them. Try to recall as many images as you can, but remember: getting the order right is more important than the number of images you recall.</p>""]","","3","coin_causal"
"","","","","","image-button-response","88","628807","0.0-14.0-0.0","EF267AB9DC6A4FD0A96BEBCCE110ACBC","EF267AB9DC6A4FD0A96BEBCCE110ACBC","469e3c1f-cd75-4055-a97b-87081e13eacc","9076ac92-be42-43a2-9634-8b67c7fe93a7","{""num_scrambled_semantic"":""8"",""num_scrambled_causal"":""4"",""num_scrambled_schematic"":""4"",""participantId"":""EF267AB9DC6A4FD0A96BEBCCE110ACBC"",""assignmentId"":""469e3c1f-cd75-4055-a97b-87081e13eacc"",""projectId"":""9076ac92-be42-43a2-9634-8b67c7fe93a7""}","https://test12345.live/?num_scrambled_semantic=8&num_scrambled_causal=4&num_scrambled_schematic=4&participantId=EF267AB9DC6A4FD0A96BEBCCE110ACBC&assignmentId=469e3c1f-cd75-4055-a97b-87081e13eacc&projectId=9076ac92-be42-43a2-9634-8b67c7fe93a7","EF267AB9DC6A4FD0A96BEBCCE110ACBC-2025-05-22-21-16-58","","null","","images/semantic_sequence/housework_semantic/housework_semantic_0.png","null","",""
"","","","","","image-button-response","89","633313","0.0-14.0-1.0-0.0","EF267AB9DC6A4FD0A96BEBCCE110ACBC","EF267AB9DC6A4FD0A96BEBCCE110ACBC","469e3c1f-cd75-4055-a97b-87081e13eacc","9076ac92-be42-43a2-9634-8b67c7fe93a7","{""num_scrambled_semantic"":""8"",""num_scrambled_causal"":""4"",""num_scrambled_schematic"":""4"",""participantId"":""EF267AB9DC6A4FD0A96BEBCCE110ACBC"",""assignmentId"":""469e3c1f-cd75-4055-a97b-87081e13eacc"",""projectId"":""9076ac92-be42-43a2-9634-8b67c7fe93a7""}","https://test12345.live/?num_scrambled_semantic=8&num_scrambled_causal=4&num_scrambled_schematic=4&participantId=EF267AB9DC6A4FD0A96BEBCCE110ACBC&assignmentId=469e3c1f-cd75-4055-a97b-87081e13eacc&projectId=9076ac92-be42-43a2-9634-8b67c7fe93a7","EF267AB9DC6A4FD0A96BEBCCE110ACBC-2025-05-22-21-16-58","","null","","images/semantic_sequence/housework_semantic/housework_semantic_1.png","null","",""
"","","","","","image-button-response","90","636579","0.0-14.0-1.0-1.0","EF267AB9DC6A4FD0A96BEBCCE110ACBC","EF267AB9DC6A4FD0A96BEBCCE110ACBC","469e3c1f-cd75-4055-a97b-87081e13eacc","9076ac92-be42-43a2-9634-8b67c7fe93a7","{""num_scrambled_semantic"":""8"",""num_scrambled_causal"":""4"",""num_scrambled_schematic"":""4"",""participantId"":""EF267AB9DC6A4FD0A96BEBCCE110ACBC"",""assignmentId"":""469e3c1f-cd75-4055-a97b-87081e13eacc"",""projectId"":""9076ac92-be42-43a2-9634-8b67c7fe93a7""}","https://test12345.live/?num_scrambled_semantic=8&num_scrambled_causal=4&num_scrambled_schematic=4&participantId=EF267AB9DC6A4FD0A96BEBCCE110ACBC&assignmentId=469e3c1f-cd75-4055-a97b-87081e13eacc&projectId=9076ac92-be42-43a2-9634-8b67c7fe93a7","EF267AB9DC6A4FD0A96BEBCCE110ACBC-2025-05-22-21-16-58","","3245","","images/semantic_sequence/housework_semantic/housework_semantic_1.png","0","",""
"","","","","","image-button-response","91","638391","0.0-14.0-1.0-2.0","EF267AB9DC6A4FD0A96BEBCCE110ACBC","EF267AB9DC6A4FD0A96BEBCCE110ACBC","469e3c1f-cd75-4055-a97b-87081e13eacc","9076ac92-be42-43a2-9634-8b67c7fe93a7","{""num_scrambled_semantic"":""8"",""num_scrambled_causal"":""4"",""num_scrambled_schematic"":""4"",""participantId"":""EF267AB9DC6A4FD0A96BEBCCE110ACBC"",""assignmentId"":""469e3c1f-cd75-4055-a97b-87081e13eacc"",""projectId"":""9076ac92-be42-43a2-9634-8b67c7fe93a7""}","https://test12345.live/?num_scrambled_semantic=8&num_scrambled_causal=4&num_scrambled_schematic=4&participantId=EF267AB9DC6A4FD0A96BEBCCE110ACBC&assignmentId=469e3c1f-cd75-4055-a97b-87081e13eacc&projectId=9076ac92-be42-43a2-9634-8b67c7fe93a7","EF267AB9DC6A4FD0A96BEBCCE110ACBC-2025-05-22-21-16-58","","null","","[]","null","",""
"","","","","","image-button-response","92","642908","0.0-14.0-1.0-0.1","EF267AB9DC6A4FD0A96BEBCCE110ACBC","EF267AB9DC6A4FD0A96BEBCCE110ACBC","469e3c1f-cd75-4055-a97b-87081e13eacc","9076ac92-be42-43a2-9634-8b67c7fe93a7","{""num_scrambled_semantic"":""8"",""num_scrambled_causal"":""4"",""num_scrambled_schematic"":""4"",""participantId"":""EF267AB9DC6A4FD0A96BEBCCE110ACBC"",""assignmentId"":""469e3c1f-cd75-4055-a97b-87081e13eacc"",""projectId"":""9076ac92-be42-43a2-9634-8b67c7fe93a7""}","https://test12345.live/?num_scrambled_semantic=8&num_scrambled_causal=4&num_scrambled_schematic=4&participantId=EF267AB9DC6A4FD0A96BEBCCE110ACBC&assignmentId=469e3c1f-cd75-4055-a97b-87081e13eacc&projectId=9076ac92-be42-43a2-9634-8b67c7fe93a7","EF267AB9DC6A4FD0A96BEBCCE110ACBC-2025-05-22-21-16-58","","null","","images/semantic_sequence/housework_semantic/housework_semantic_2.png","null","",""
"","","","","","image-button-response","93","645377","0.0-14.0-1.0-1.1","EF267AB9DC6A4FD0A96BEBCCE110ACBC","EF267AB9DC6A4FD0A96BEBCCE110ACBC","469e3c1f-cd75-4055-a97b-87081e13eacc","9076ac92-be42-43a2-9634-8b67c7fe93a7","{""num_scrambled_semantic"":""8"",""num_scrambled_causal"":""4"",""num_scrambled_schematic"":""4"",""participantId"":""EF267AB9DC6A4FD0A96BEBCCE110ACBC"",""assignmentId"":""469e3c1f-cd75-4055-a97b-87081e13eacc"",""projectId"":""9076ac92-be42-43a2-9634-8b67c7fe93a7""}","https://test12345.live/?num_scrambled_semantic=8&num_scrambled_causal=4&num_scrambled_schematic=4&participantId=EF267AB9DC6A4FD0A96BEBCCE110ACBC&assignmentId=469e3c1f-cd75-4055-a97b-87081e13eacc&projectId=9076ac92-be42-43a2-9634-8b67c7fe93a7","EF267AB9DC6A4FD0A96BEBCCE110ACBC-2025-05-22-21-16-58","","2466","","images/semantic_sequence/housework_semantic/housework_semantic_2.png","0","",""
"","","","","","image-button-response","94","647184","0.0-14.0-1.0-2.1","EF267AB9DC6A4FD0A96BEBCCE110ACBC","EF267AB9DC6A4FD0A96BEBCCE110ACBC","469e3c1f-cd75-4055-a97b-87081e13eacc","9076ac92-be42-43a2-9634-8b67c7fe93a7","{""num_scrambled_semantic"":""8"",""num_scrambled_causal"":""4"",""num_scrambled_schematic"":""4"",""participantId"":""EF267AB9DC6A4FD0A96BEBCCE110ACBC"",""assignmentId"":""469e3c1f-cd75-4055-a97b-87081e13eacc"",""projectId"":""9076ac92-be42-43a2-9634-8b67c7fe93a7""}","https://test12345.live/?num_scrambled_semantic=8&num_scrambled_causal=4&num_scrambled_schematic=4&participantId=EF267AB9DC6A4FD0A96BEBCCE110ACBC&assignmentId=469e3c1f-cd75-4055-a97b-87081e13eacc&projectId=9076ac92-be42-43a2-9634-8b67c7fe93a7","EF267AB9DC6A4FD0A96BEBCCE110ACBC-2025-05-22-21-16-58","","null","","[]","null","",""
"","","","","","image-button-response","95","651698","0.0-14.0-1.0-0.2","EF267AB9DC6A4FD0A96BEBCCE110ACBC","EF267AB9DC6A4FD0A96BEBCCE110ACBC","469e3c1f-cd75-4055-a97b-87081e13eacc","9076ac92-be42-43a2-9634-8b67c7fe93a7","{""num_scrambled_semantic"":""8"",""num_scrambled_causal"":""4"",""num_scrambled_schematic"":""4"",""participantId"":""EF267AB9DC6A4FD0A96BEBCCE110ACBC"",""assignmentId"":""469e3c1f-cd75-4055-a97b-87081e13eacc"",""projectId"":""9076ac92-be42-43a2-9634-8b67c7fe93a7""}","https://test12345.live/?num_scrambled_semantic=8&num_scrambled_causal=4&num_scrambled_schematic=4&participantId=EF267AB9DC6A4FD0A96BEBCCE110ACBC&assignmentId=469e3c1f-cd75-4055-a97b-87081e13eacc&projectId=9076ac92-be42-43a2-9634-8b67c7fe93a7","EF267AB9DC6A4FD0A96BEBCCE110ACBC-2025-05-22-21-16-58","","null","","images/semantic_sequence/housework_semantic/housework_semantic_3.png","null","",""
"","","","","","image-button-response","96","655707","0.0-14.0-1.0-1.2","EF267AB9DC6A4FD0A96BEBCCE110ACBC","EF267AB9DC6A4FD0A96BEBCCE110ACBC","469e3c1f-cd75-4055-a97b-87081e13eacc","9076ac92-be42-43a2-9634-8b67c7fe93a7","{""num_scrambled_semantic"":""8"",""num_scrambled_causal"":""4"",""num_scrambled_schematic"":""4"",""participantId"":""EF267AB9DC6A4FD0A96BEBCCE110ACBC"",""assignmentId"":""469e3c1f-cd75-4055-a97b-87081e13eacc"",""projectId"":""9076ac92-be42-43a2-9634-8b67c7fe93a7""}","https://test12345.live/?num_scrambled_semantic=8&num_scrambled_causal=4&num_scrambled_schematic=4&participantId=EF267AB9DC6A4FD0A96BEBCCE110ACBC&assignmentId=469e3c1f-cd75-4055-a97b-87081e13eacc&projectId=9076ac92-be42-43a2-9634-8b67c7fe93a7","EF267AB9DC6A4FD0A96BEBCCE110ACBC-2025-05-22-21-16-58","","null","","images/semantic_sequence/housework_semantic/housework_semantic_3.png","null","",""
"","","","","","image-button-response","97","657513","0.0-14.0-1.0-2.2","EF267AB9DC6A4FD0A96BEBCCE110ACBC","EF267AB9DC6A4FD0A96BEBCCE110ACBC","469e3c1f-cd75-4055-a97b-87081e13eacc","9076ac92-be42-43a2-9634-8b67c7fe93a7","{""num_scrambled_semantic"":""8"",""num_scrambled_causal"":""4"",""num_scrambled_schematic"":""4"",""participantId"":""EF267AB9DC6A4FD0A96BEBCCE110ACBC"",""assignmentId"":""469e3c1f-cd75-4055-a97b-87081e13eacc"",""projectId"":""9076ac92-be42-43a2-9634-8b67c7fe93a7""}","https://test12345.live/?num_scrambled_semantic=8&num_scrambled_causal=4&num_scrambled_schematic=4&participantId=EF267AB9DC6A4FD0A96BEBCCE110ACBC&assignmentId=469e3c1f-cd75-4055-a97b-87081e13eacc&projectId=9076ac92-be42-43a2-9634-8b67c7fe93a7","EF267AB9DC6A4FD0A96BEBCCE110ACBC-2025-05-22-21-16-58","","null","","[]","null","",""
"","","","","","image-button-response","98","662024","0.0-14.0-1.0-0.3","EF267AB9DC6A4FD0A96BEBCCE110ACBC","EF267AB9DC6A4FD0A96BEBCCE110ACBC","469e3c1f-cd75-4055-a97b-87081e13eacc","9076ac92-be42-43a2-9634-8b67c7fe93a7","{""num_scrambled_semantic"":""8"",""num_scrambled_causal"":""4"",""num_scrambled_schematic"":""4"",""participantId"":""EF267AB9DC6A4FD0A96BEBCCE110ACBC"",""assignmentId"":""469e3c1f-cd75-4055-a97b-87081e13eacc"",""projectId"":""9076ac92-be42-43a2-9634-8b67c7fe93a7""}","https://test12345.live/?num_scrambled_semantic=8&num_scrambled_causal=4&num_scrambled_schematic=4&participantId=EF267AB9DC6A4FD0A96BEBCCE110ACBC&assignmentId=469e3c1f-cd75-4055-a97b-87081e13eacc&projectId=9076ac92-be42-43a2-9634-8b67c7fe93a7","EF267AB9DC6A4FD0A96BEBCCE110ACBC-2025-05-22-21-16-58","","null","","images/semantic_sequence/housework_semantic/housework_semantic_4.png","null","",""
"","","","","","image-button-response","99","664540","0.0-14.0-1.0-1.3","EF267AB9DC6A4FD0A96BEBCCE110ACBC","EF267AB9DC6A4FD0A96BEBCCE110ACBC","469e3c1f-cd75-4055-a97b-87081e13eacc","9076ac92-be42-43a2-9634-8b67c7fe93a7","{""num_scrambled_semantic"":""8"",""num_scrambled_causal"":""4"",""num_scrambled_schematic"":""4"",""participantId"":""EF267AB9DC6A4FD0A96BEBCCE110ACBC"",""assignmentId"":""469e3c1f-cd75-4055-a97b-87081e13eacc"",""projectId"":""9076ac92-be42-43a2-9634-8b67c7fe93a7""}","https://test12345.live/?num_scrambled_semantic=8&num_scrambled_causal=4&num_scrambled_schematic=4&participantId=EF267AB9DC6A4FD0A96BEBCCE110ACBC&assignmentId=469e3c1f-cd75-4055-a97b-87081e13eacc&projectId=9076ac92-be42-43a2-9634-8b67c7fe93a7","EF267AB9DC6A4FD0A96BEBCCE110ACBC-2025-05-22-21-16-58","","2513","","images/semantic_sequence/housework_semantic/housework_semantic_4.png","0","",""
"","","","","","image-button-response","100","666356","0.0-14.0-1.0-2.3","EF267AB9DC6A4FD0A96BEBCCE110ACBC","EF267AB9DC6A4FD0A96BEBCCE110ACBC","469e3c1f-cd75-4055-a97b-87081e13eacc","9076ac92-be42-43a2-9634-8b67c7fe93a7","{""num_scrambled_semantic"":""8"",""num_scrambled_causal"":""4"",""num_scrambled_schematic"":""4"",""participantId"":""EF267AB9DC6A4FD0A96BEBCCE110ACBC"",""assignmentId"":""469e3c1f-cd75-4055-a97b-87081e13eacc"",""projectId"":""9076ac92-be42-43a2-9634-8b67c7fe93a7""}","https://test12345.live/?num_scrambled_semantic=8&num_scrambled_causal=4&num_scrambled_schematic=4&participantId=EF267AB9DC6A4FD0A96BEBCCE110ACBC&assignmentId=469e3c1f-cd75-4055-a97b-87081e13eacc&projectId=9076ac92-be42-43a2-9634-8b67c7fe93a7","EF267AB9DC6A4FD0A96BEBCCE110ACBC-2025-05-22-21-16-58","","null","","[]","null","",""
"","","","","","image-button-response","101","670859","0.0-14.0-1.0-0.4","EF267AB9DC6A4FD0A96BEBCCE110ACBC","EF267AB9DC6A4FD0A96BEBCCE110ACBC","469e3c1f-cd75-4055-a97b-87081e13eacc","9076ac92-be42-43a2-9634-8b67c7fe93a7","{""num_scrambled_semantic"":""8"",""num_scrambled_causal"":""4"",""num_scrambled_schematic"":""4"",""participantId"":""EF267AB9DC6A4FD0A96BEBCCE110ACBC"",""assignmentId"":""469e3c1f-cd75-4055-a97b-87081e13eacc"",""projectId"":""9076ac92-be42-43a2-9634-8b67c7fe93a7""}","https://test12345.live/?num_scrambled_semantic=8&num_scrambled_causal=4&num_scrambled_schematic=4&participantId=EF267AB9DC6A4FD0A96BEBCCE110ACBC&assignmentId=469e3c1f-cd75-4055-a97b-87081e13eacc&projectId=9076ac92-be42-43a2-9634-8b67c7fe93a7","EF267AB9DC6A4FD0A96BEBCCE110ACBC-2025-05-22-21-16-58","","null","","images/semantic_sequence/housework_semantic/housework_semantic_5.png","null","",""
"","","","","","image-button-response","102","672213","0.0-14.0-1.0-1.4","EF267AB9DC6A4FD0A96BEBCCE110ACBC","EF267AB9DC6A4FD0A96BEBCCE110ACBC","469e3c1f-cd75-4055-a97b-87081e13eacc","9076ac92-be42-43a2-9634-8b67c7fe93a7","{""num_scrambled_semantic"":""8"",""num_scrambled_causal"":""4"",""num_scrambled_schematic"":""4"",""participantId"":""EF267AB9DC6A4FD0A96BEBCCE110ACBC"",""assignmentId"":""469e3c1f-cd75-4055-a97b-87081e13eacc"",""projectId"":""9076ac92-be42-43a2-9634-8b67c7fe93a7""}","https://test12345.live/?num_scrambled_semantic=8&num_scrambled_causal=4&num_scrambled_schematic=4&participantId=EF267AB9DC6A4FD0A96BEBCCE110ACBC&assignmentId=469e3c1f-cd75-4055-a97b-87081e13eacc&projectId=9076ac92-be42-43a2-9634-8b67c7fe93a7","EF267AB9DC6A4FD0A96BEBCCE110ACBC-2025-05-22-21-16-58","","1351","","images/semantic_sequence/housework_semantic/housework_semantic_5.png","0","",""
"","","","","","image-button-response","103","674023","0.0-14.0-1.0-2.4","EF267AB9DC6A4FD0A96BEBCCE110ACBC","EF267AB9DC6A4FD0A96BEBCCE110ACBC","469e3c1f-cd75-4055-a97b-87081e13eacc","9076ac92-be42-43a2-9634-8b67c7fe93a7","{""num_scrambled_semantic"":""8"",""num_scrambled_causal"":""4"",""num_scrambled_schematic"":""4"",""participantId"":""EF267AB9DC6A4FD0A96BEBCCE110ACBC"",""assignmentId"":""469e3c1f-cd75-4055-a97b-87081e13eacc"",""projectId"":""9076ac92-be42-43a2-9634-8b67c7fe93a7""}","https://test12345.live/?num_scrambled_semantic=8&num_scrambled_causal=4&num_scrambled_schematic=4&participantId=EF267AB9DC6A4FD0A96BEBCCE110ACBC&assignmentId=469e3c1f-cd75-4055-a97b-87081e13eacc&projectId=9076ac92-be42-43a2-9634-8b67c7fe93a7","EF267AB9DC6A4FD0A96BEBCCE110ACBC-2025-05-22-21-16-58","","null","","[]","null","",""
"","","","","","image-button-response","104","678539","0.0-14.0-1.0-0.5","EF267AB9DC6A4FD0A96BEBCCE110ACBC","EF267AB9DC6A4FD0A96BEBCCE110ACBC","469e3c1f-cd75-4055-a97b-87081e13eacc","9076ac92-be42-43a2-9634-8b67c7fe93a7","{""num_scrambled_semantic"":""8"",""num_scrambled_causal"":""4"",""num_scrambled_schematic"":""4"",""participantId"":""EF267AB9DC6A4FD0A96BEBCCE110ACBC"",""assignmentId"":""469e3c1f-cd75-4055-a97b-87081e13eacc"",""projectId"":""9076ac92-be42-43a2-9634-8b67c7fe93a7""}","https://test12345.live/?num_scrambled_semantic=8&num_scrambled_causal=4&num_scrambled_schematic=4&participantId=EF267AB9DC6A4FD0A96BEBCCE110ACBC&assignmentId=469e3c1f-cd75-4055-a97b-87081e13eacc&projectId=9076ac92-be42-43a2-9634-8b67c7fe93a7","EF267AB9DC6A4FD0A96BEBCCE110ACBC-2025-05-22-21-16-58","","null","","images/semantic_sequence/housework_semantic/housework_semantic_6.png","null","",""
"","","","","","image-button-response","105","679996","0.0-14.0-1.0-1.5","EF267AB9DC6A4FD0A96BEBCCE110ACBC","EF267AB9DC6A4FD0A96BEBCCE110ACBC","469e3c1f-cd75-4055-a97b-87081e13eacc","9076ac92-be42-43a2-9634-8b67c7fe93a7","{""num_scrambled_semantic"":""8"",""num_scrambled_causal"":""4"",""num_scrambled_schematic"":""4"",""participantId"":""EF267AB9DC6A4FD0A96BEBCCE110ACBC"",""assignmentId"":""469e3c1f-cd75-4055-a97b-87081e13eacc"",""projectId"":""9076ac92-be42-43a2-9634-8b67c7fe93a7""}","https://test12345.live/?num_scrambled_semantic=8&num_scrambled_causal=4&num_scrambled_schematic=4&participantId=EF267AB9DC6A4FD0A96BEBCCE110ACBC&assignmentId=469e3c1f-cd75-4055-a97b-87081e13eacc&projectId=9076ac92-be42-43a2-9634-8b67c7fe93a7","EF267AB9DC6A4FD0A96BEBCCE110ACBC-2025-05-22-21-16-58","","1454","","images/semantic_sequence/housework_semantic/housework_semantic_6.png","0","",""
"","","","","","image-button-response","106","681806","0.0-14.0-1.0-2.5","EF267AB9DC6A4FD0A96BEBCCE110ACBC","EF267AB9DC6A4FD0A96BEBCCE110ACBC","469e3c1f-cd75-4055-a97b-87081e13eacc","9076ac92-be42-43a2-9634-8b67c7fe93a7","{""num_scrambled_semantic"":""8"",""num_scrambled_causal"":""4"",""num_scrambled_schematic"":""4"",""participantId"":""EF267AB9DC6A4FD0A96BEBCCE110ACBC"",""assignmentId"":""469e3c1f-cd75-4055-a97b-87081e13eacc"",""projectId"":""9076ac92-be42-43a2-9634-8b67c7fe93a7""}","https://test12345.live/?num_scrambled_semantic=8&num_scrambled_causal=4&num_scrambled_schematic=4&participantId=EF267AB9DC6A4FD0A96BEBCCE110ACBC&assignmentId=469e3c1f-cd75-4055-a97b-87081e13eacc&projectId=9076ac92-be42-43a2-9634-8b67c7fe93a7","EF267AB9DC6A4FD0A96BEBCCE110ACBC-2025-05-22-21-16-58","","null","","[]","null","",""
"","","","","","image-button-response","107","686316","0.0-14.0-1.0-0.6","EF267AB9DC6A4FD0A96BEBCCE110ACBC","EF267AB9DC6A4FD0A96BEBCCE110ACBC","469e3c1f-cd75-4055-a97b-87081e13eacc","9076ac92-be42-43a2-9634-8b67c7fe93a7","{""num_scrambled_semantic"":""8"",""num_scrambled_causal"":""4"",""num_scrambled_schematic"":""4"",""participantId"":""EF267AB9DC6A4FD0A96BEBCCE110ACBC"",""assignmentId"":""469e3c1f-cd75-4055-a97b-87081e13eacc"",""projectId"":""9076ac92-be42-43a2-9634-8b67c7fe93a7""}","https://test12345.live/?num_scrambled_semantic=8&num_scrambled_causal=4&num_scrambled_schematic=4&participantId=EF267AB9DC6A4FD0A96BEBCCE110ACBC&assignmentId=469e3c1f-cd75-4055-a97b-87081e13eacc&projectId=9076ac92-be42-43a2-9634-8b67c7fe93a7","EF267AB9DC6A4FD0A96BEBCCE110ACBC-2025-05-22-21-16-58","","null","","images/semantic_sequence/housework_semantic/housework_semantic_7.png","null","",""
"","","","","","image-button-response","108","688036","0.0-14.0-1.0-1.6","EF267AB9DC6A4FD0A96BEBCCE110ACBC","EF267AB9DC6A4FD0A96BEBCCE110ACBC","469e3c1f-cd75-4055-a97b-87081e13eacc","9076ac92-be42-43a2-9634-8b67c7fe93a7","{""num_scrambled_semantic"":""8"",""num_scrambled_causal"":""4"",""num_scrambled_schematic"":""4"",""participantId"":""EF267AB9DC6A4FD0A96BEBCCE110ACBC"",""assignmentId"":""469e3c1f-cd75-4055-a97b-87081e13eacc"",""projectId"":""9076ac92-be42-43a2-9634-8b67c7fe93a7""}","https://test12345.live/?num_scrambled_semantic=8&num_scrambled_causal=4&num_scrambled_schematic=4&participantId=EF267AB9DC6A4FD0A96BEBCCE110ACBC&assignmentId=469e3c1f-cd75-4055-a97b-87081e13eacc&projectId=9076ac92-be42-43a2-9634-8b67c7fe93a7","EF267AB9DC6A4FD0A96BEBCCE110ACBC-2025-05-22-21-16-58","","1716","","images/semantic_sequence/housework_semantic/housework_semantic_7.png","0","",""
"","","","","","image-button-response","109","689840","0.0-14.0-1.0-2.6","EF267AB9DC6A4FD0A96BEBCCE110ACBC","EF267AB9DC6A4FD0A96BEBCCE110ACBC","469e3c1f-cd75-4055-a97b-87081e13eacc","9076ac92-be42-43a2-9634-8b67c7fe93a7","{""num_scrambled_semantic"":""8"",""num_scrambled_causal"":""4"",""num_scrambled_schematic"":""4"",""participantId"":""EF267AB9DC6A4FD0A96BEBCCE110ACBC"",""assignmentId"":""469e3c1f-cd75-4055-a97b-87081e13eacc"",""projectId"":""9076ac92-be42-43a2-9634-8b67c7fe93a7""}","https://test12345.live/?num_scrambled_semantic=8&num_scrambled_causal=4&num_scrambled_schematic=4&participantId=EF267AB9DC6A4FD0A96BEBCCE110ACBC&assignmentId=469e3c1f-cd75-4055-a97b-87081e13eacc&projectId=9076ac92-be42-43a2-9634-8b67c7fe93a7","EF267AB9DC6A4FD0A96BEBCCE110ACBC-2025-05-22-21-16-58","","null","","[]","null","",""
"","","","","","image-button-response","110","694351","0.0-14.0-1.0-0.7","EF267AB9DC6A4FD0A96BEBCCE110ACBC","EF267AB9DC6A4FD0A96BEBCCE110ACBC","469e3c1f-cd75-4055-a97b-87081e13eacc","9076ac92-be42-43a2-9634-8b67c7fe93a7","{""num_scrambled_semantic"":""8"",""num_scrambled_causal"":""4"",""num_scrambled_schematic"":""4"",""participantId"":""EF267AB9DC6A4FD0A96BEBCCE110ACBC"",""assignmentId"":""469e3c1f-cd75-4055-a97b-87081e13eacc"",""projectId"":""9076ac92-be42-43a2-9634-8b67c7fe93a7""}","https://test12345.live/?num_scrambled_semantic=8&num_scrambled_causal=4&num_scrambled_schematic=4&participantId=EF267AB9DC6A4FD0A96BEBCCE110ACBC&assignmentId=469e3c1f-cd75-4055-a97b-87081e13eacc&projectId=9076ac92-be42-43a2-9634-8b67c7fe93a7","EF267AB9DC6A4FD0A96BEBCCE110ACBC-2025-05-22-21-16-58","","null","","images/semantic_sequence/housework_semantic/housework_semantic_8.png","null","",""
"","","","","","image-button-response","111","696615","0.0-14.0-1.0-1.7","EF267AB9DC6A4FD0A96BEBCCE110ACBC","EF267AB9DC6A4FD0A96BEBCCE110ACBC","469e3c1f-cd75-4055-a97b-87081e13eacc","9076ac92-be42-43a2-9634-8b67c7fe93a7","{""num_scrambled_semantic"":""8"",""num_scrambled_causal"":""4"",""num_scrambled_schematic"":""4"",""participantId"":""EF267AB9DC6A4FD0A96BEBCCE110ACBC"",""assignmentId"":""469e3c1f-cd75-4055-a97b-87081e13eacc"",""projectId"":""9076ac92-be42-43a2-9634-8b67c7fe93a7""}","https://test12345.live/?num_scrambled_semantic=8&num_scrambled_causal=4&num_scrambled_schematic=4&participantId=EF267AB9DC6A4FD0A96BEBCCE110ACBC&assignmentId=469e3c1f-cd75-4055-a97b-87081e13eacc&projectId=9076ac92-be42-43a2-9634-8b67c7fe93a7","EF267AB9DC6A4FD0A96BEBCCE110ACBC-2025-05-22-21-16-58","","2261","","images/semantic_sequence/housework_semantic/housework_semantic_8.png","0","",""
"","","","","","image-button-response","112","698420","0.0-14.0-1.0-2.7","EF267AB9DC6A4FD0A96BEBCCE110ACBC","EF267AB9DC6A4FD0A96BEBCCE110ACBC","469e3c1f-cd75-4055-a97b-87081e13eacc","9076ac92-be42-43a2-9634-8b67c7fe93a7","{""num_scrambled_semantic"":""8"",""num_scrambled_causal"":""4"",""num_scrambled_schematic"":""4"",""participantId"":""EF267AB9DC6A4FD0A96BEBCCE110ACBC"",""assignmentId"":""469e3c1f-cd75-4055-a97b-87081e13eacc"",""projectId"":""9076ac92-be42-43a2-9634-8b67c7fe93a7""}","https://test12345.live/?num_scrambled_semantic=8&num_scrambled_causal=4&num_scrambled_schematic=4&participantId=EF267AB9DC6A4FD0A96BEBCCE110ACBC&assignmentId=469e3c1f-cd75-4055-a97b-87081e13eacc&projectId=9076ac92-be42-43a2-9634-8b67c7fe93a7","EF267AB9DC6A4FD0A96BEBCCE110ACBC-2025-05-22-21-16-58","","null","","[]","null","",""
"","","","","","image-button-response","113","702933","0.0-14.0-1.0-0.8","EF267AB9DC6A4FD0A96BEBCCE110ACBC","EF267AB9DC6A4FD0A96BEBCCE110ACBC","469e3c1f-cd75-4055-a97b-87081e13eacc","9076ac92-be42-43a2-9634-8b67c7fe93a7","{""num_scrambled_semantic"":""8"",""num_scrambled_causal"":""4"",""num_scrambled_schematic"":""4"",""participantId"":""EF267AB9DC6A4FD0A96BEBCCE110ACBC"",""assignmentId"":""469e3c1f-cd75-4055-a97b-87081e13eacc"",""projectId"":""9076ac92-be42-43a2-9634-8b67c7fe93a7""}","https://test12345.live/?num_scrambled_semantic=8&num_scrambled_causal=4&num_scrambled_schematic=4&participantId=EF267AB9DC6A4FD0A96BEBCCE110ACBC&assignmentId=469e3c1f-cd75-4055-a97b-87081e13eacc&projectId=9076ac92-be42-43a2-9634-8b67c7fe93a7","EF267AB9DC6A4FD0A96BEBCCE110ACBC-2025-05-22-21-16-58","","null","","images/semantic_sequence/housework_semantic/housework_semantic_9.png","null","",""
"","","","","","image-button-response","114","705008","0.0-14.0-1.0-1.8","EF267AB9DC6A4FD0A96BEBCCE110ACBC","EF267AB9DC6A4FD0A96BEBCCE110ACBC","469e3c1f-cd75-4055-a97b-87081e13eacc","9076ac92-be42-43a2-9634-8b67c7fe93a7","{""num_scrambled_semantic"":""8"",""num_scrambled_causal"":""4"",""num_scrambled_schematic"":""4"",""participantId"":""EF267AB9DC6A4FD0A96BEBCCE110ACBC"",""assignmentId"":""469e3c1f-cd75-4055-a97b-87081e13eacc"",""projectId"":""9076ac92-be42-43a2-9634-8b67c7fe93a7""}","https://test12345.live/?num_scrambled_semantic=8&num_scrambled_causal=4&num_scrambled_schematic=4&participantId=EF267AB9DC6A4FD0A96BEBCCE110ACBC&assignmentId=469e3c1f-cd75-4055-a97b-87081e13eacc&projectId=9076ac92-be42-43a2-9634-8b67c7fe93a7","EF267AB9DC6A4FD0A96BEBCCE110ACBC-2025-05-22-21-16-58","","2072","","images/semantic_sequence/housework_semantic/housework_semantic_9.png","0","",""
