"success","timeout","failed_images","failed_audio","failed_video","trial_type","trial_index","time_elapsed","internal_node_id","subject","subject_id","study_id","session_id","urlvar","current_url","audio_id","view_history","rt","device_id","stimulus","response","estimated_stimulus_onset","seq_name"
"true","false","[]","[]","[]","preload","0","7035","0.0-0.0","F06A59E8AFF849D4B650DF8B8B09CA94","F06A59E8AFF849D4B650DF8B8B09CA94","0198ee45-4f77-7f85-afd1-d7c3c2bb50d9","0198ee3c-27ac-7803-a9ea-f3b4ad4ad678","{""num_scrambled_semantic"":""8"",""num_scrambled_causal"":""4"",""num_scrambled_schematic"":""4"",""participantId"":""F06A59E8AFF849D4B650DF8B8B09CA94"",""assignmentId"":""0198ee45-4f77-7f85-afd1-d7c3c2bb50d9"",""projectId"":""0198ee3c-27ac-7803-a9ea-f3b4ad4ad678""}","https://test12345.live/?num_scrambled_semantic=8&num_scrambled_causal=4&num_scrambled_schematic=4&participantId=F06A59E8AFF849D4B650DF8B8B09CA94&assignmentId=0198ee45-4f77-7f85-afd1-d7c3c2bb50d9&projectId=0198ee3c-27ac-7803-a9ea-f3b4ad4ad678","F06A59E8AFF849D4B650DF8B8B09CA94-2025-08-28-02-37-41","","","","","","",""
"","","","","","instructions","1","76714","0.0-1.0","F06A59E8AFF849D4B650DF8B8B09CA94","F06A59E8AFF849D4B650DF8B8B09CA94","0198ee45-4f77-7f85-afd1-d7c3c2bb50d9","0198ee3c-27ac-7803-a9ea-f3b4ad4ad678","{""num_scrambled_semantic"":""8"",""num_scrambled_causal"":""4"",""num_scrambled_schematic"":""4"",""participantId"":""F06A59E8AFF849D4B650DF8B8B09CA94"",""assignmentId"":""0198ee45-4f77-7f85-afd1-d7c3c2bb50d9"",""projectId"":""0198ee3c-27ac-7803-a9ea-f3b4ad4ad678""}","https://test12345.live/?num_scrambled_semantic=8&num_scrambled_causal=4&num_scrambled_schematic=4&participantId=F06A59E8AFF849D4B650DF8B8B09CA94&assignmentId=0198ee45-4f77-7f85-afd1-d7c3c2bb50d9&projectId=0198ee3c-27ac-7803-a9ea-f3b4ad4ad678","F06A59E8AFF849D4B650DF8B8B09CA94-2025-08-28-02-37-41","[{""page_index"":0,""viewing_time"":69679}]","69679","","","","",""
"","","","","","instructions","2","89105","0.0-2.0","F06A59E8AFF849D4B650DF8B8B09CA94","F06A59E8AFF849D4B650DF8B8B09CA94","0198ee45-4f77-7f85-afd1-d7c3c2bb50d9","0198ee3c-27ac-7803-a9ea-f3b4ad4ad678","{""num_scrambled_semantic"":""8"",""num_scrambled_causal"":""4"",""num_scrambled_schematic"":""4"",""participantId"":""F06A59E8AFF849D4B650DF8B8B09CA94"",""assignmentId"":""0198ee45-4f77-7f85-afd1-d7c3c2bb50d9"",""projectId"":""0198ee3c-27ac-7803-a9ea-f3b4ad4ad678""}","https://test12345.live/?num_scrambled_semantic=8&num_scrambled_causal=4&num_scrambled_schematic=4&participantId=F06A59E8AFF849D4B650DF8B8B09CA94&assignmentId=0198ee45-4f77-7f85-afd1-d7c3c2bb50d9&projectId=0198ee3c-27ac-7803-a9ea-f3b4ad4ad678","F06A59E8AFF849D4B650DF8B8B09CA94-2025-08-28-02-37-41","[{""page_index"":0,""viewing_time"":12391}]","12391","","","","",""
"true","","","","","fullscreen","3","92057","0.0-3.0","F06A59E8AFF849D4B650DF8B8B09CA94","F06A59E8AFF849D4B650DF8B8B09CA94","0198ee45-4f77-7f85-afd1-d7c3c2bb50d9","0198ee3c-27ac-7803-a9ea-f3b4ad4ad678","{""num_scrambled_semantic"":""8"",""num_scrambled_causal"":""4"",""num_scrambled_schematic"":""4"",""participantId"":""F06A59E8AFF849D4B650DF8B8B09CA94"",""assignmentId"":""0198ee45-4f77-7f85-afd1-d7c3c2bb50d9"",""projectId"":""0198ee3c-27ac-7803-a9ea-f3b4ad4ad678""}","https://test12345.live/?num_scrambled_semantic=8&num_scrambled_causal=4&num_scrambled_schematic=4&participantId=F06A59E8AFF849D4B650DF8B8B09CA94&assignmentId=0198ee45-4f77-7f85-afd1-d7c3c2bb50d9&projectId=0198ee3c-27ac-7803-a9ea-f3b4ad4ad678","F06A59E8AFF849D4B650DF8B8B09CA94-2025-08-28-02-37-41","","1949","","","","",""
"","","","","","initialize-microphone","4","101813","0.0-4.0-0.0","F06A59E8AFF849D4B650DF8B8B09CA94","F06A59E8AFF849D4B650DF8B8B09CA94","0198ee45-4f77-7f85-afd1-d7c3c2bb50d9","0198ee3c-27ac-7803-a9ea-f3b4ad4ad678","{""num_scrambled_semantic"":""8"",""num_scrambled_causal"":""4"",""num_scrambled_schematic"":""4"",""participantId"":""F06A59E8AFF849D4B650DF8B8B09CA94"",""assignmentId"":""0198ee45-4f77-7f85-afd1-d7c3c2bb50d9"",""projectId"":""0198ee3c-27ac-7803-a9ea-f3b4ad4ad678""}","https://test12345.live/?num_scrambled_semantic=8&num_scrambled_causal=4&num_scrambled_schematic=4&participantId=F06A59E8AFF849D4B650DF8B8B09CA94&assignmentId=0198ee45-4f77-7f85-afd1-d7c3c2bb50d9&projectId=0198ee3c-27ac-7803-a9ea-f3b4ad4ad678","F06A59E8AFF849D4B650DF8B8B09CA94-2025-08-28-02-37-41","","","0ab668469db74786ab621f6fc3dd6b96b07aa4f408cfe1ea6855d02508fefc8b","","","",""
"","","","","","html-audio-response","5","114889","0.0-4.0-1.0","F06A59E8AFF849D4B650DF8B8B09CA94","F06A59E8AFF849D4B650DF8B8B09CA94","0198ee45-4f77-7f85-afd1-d7c3c2bb50d9","0198ee3c-27ac-7803-a9ea-f3b4ad4ad678","{""num_scrambled_semantic"":""8"",""num_scrambled_causal"":""4"",""num_scrambled_schematic"":""4"",""participantId"":""F06A59E8AFF849D4B650DF8B8B09CA94"",""assignmentId"":""0198ee45-4f77-7f85-afd1-d7c3c2bb50d9"",""projectId"":""0198ee3c-27ac-7803-a9ea-f3b4ad4ad678""}","https://test12345.live/?num_scrambled_semantic=8&num_scrambled_causal=4&num_scrambled_schematic=4&participantId=F06A59E8AFF849D4B650DF8B8B09CA94&assignmentId=0198ee45-4f77-7f85-afd1-d7c3c2bb50d9&projectId=0198ee3c-27ac-7803-a9ea-f3b4ad4ad678","F06A59E8AFF849D4B650DF8B8B09CA94-2025-08-28-02-37-41","","4338","","<span style=""color: red; font-size: 24px""> NOW RECORDING</span>
        <p>Please test Microphone</p>","","2",""
"","","","","","html-button-response","6","116525","0.0-4.0-2.0","F06A59E8AFF849D4B650DF8B8B09CA94","F06A59E8AFF849D4B650DF8B8B09CA94","0198ee45-4f77-7f85-afd1-d7c3c2bb50d9","0198ee3c-27ac-7803-a9ea-f3b4ad4ad678","{""num_scrambled_semantic"":""8"",""num_scrambled_causal"":""4"",""num_scrambled_schematic"":""4"",""participantId"":""F06A59E8AFF849D4B650DF8B8B09CA94"",""assignmentId"":""0198ee45-4f77-7f85-afd1-d7c3c2bb50d9"",""projectId"":""0198ee3c-27ac-7803-a9ea-f3b4ad4ad678""}","https://test12345.live/?num_scrambled_semantic=8&num_scrambled_causal=4&num_scrambled_schematic=4&participantId=F06A59E8AFF849D4B650DF8B8B09CA94&assignmentId=0198ee45-4f77-7f85-afd1-d7c3c2bb50d9&projectId=0198ee3c-27ac-7803-a9ea-f3b4ad4ad678","F06A59E8AFF849D4B650DF8B8B09CA94-2025-08-28-02-37-41","","1635","","<p style=""font-size:48px; color:red;"">Is Microphone OK?</p>","1","",""
"","","","","","instructions","7","131676","0.0-5.0","F06A59E8AFF849D4B650DF8B8B09CA94","F06A59E8AFF849D4B650DF8B8B09CA94","0198ee45-4f77-7f85-afd1-d7c3c2bb50d9","0198ee3c-27ac-7803-a9ea-f3b4ad4ad678","{""num_scrambled_semantic"":""8"",""num_scrambled_causal"":""4"",""num_scrambled_schematic"":""4"",""participantId"":""F06A59E8AFF849D4B650DF8B8B09CA94"",""assignmentId"":""0198ee45-4f77-7f85-afd1-d7c3c2bb50d9"",""projectId"":""0198ee3c-27ac-7803-a9ea-f3b4ad4ad678""}","https://test12345.live/?num_scrambled_semantic=8&num_scrambled_causal=4&num_scrambled_schematic=4&participantId=F06A59E8AFF849D4B650DF8B8B09CA94&assignmentId=0198ee45-4f77-7f85-afd1-d7c3c2bb50d9&projectId=0198ee3c-27ac-7803-a9ea-f3b4ad4ad678","F06A59E8AFF849D4B650DF8B8B09CA94-2025-08-28-02-37-41","[{""page_index"":0,""viewing_time"":4276},{""page_index"":1,""viewing_time"":10875}]","15151","","","","",""
"","","","","","image-button-response","8","137683","0.0-6.0-0.0","F06A59E8AFF849D4B650DF8B8B09CA94","F06A59E8AFF849D4B650DF8B8B09CA94","0198ee45-4f77-7f85-afd1-d7c3c2bb50d9","0198ee3c-27ac-7803-a9ea-f3b4ad4ad678","{""num_scrambled_semantic"":""8"",""num_scrambled_causal"":""4"",""num_scrambled_schematic"":""4"",""participantId"":""F06A59E8AFF849D4B650DF8B8B09CA94"",""assignmentId"":""0198ee45-4f77-7f85-afd1-d7c3c2bb50d9"",""projectId"":""0198ee3c-27ac-7803-a9ea-f3b4ad4ad678""}","https://test12345.live/?num_scrambled_semantic=8&num_scrambled_causal=4&num_scrambled_schematic=4&participantId=F06A59E8AFF849D4B650DF8B8B09CA94&assignmentId=0198ee45-4f77-7f85-afd1-d7c3c2bb50d9&projectId=0198ee3c-27ac-7803-a9ea-f3b4ad4ad678","F06A59E8AFF849D4B650DF8B8B09CA94-2025-08-28-02-37-41","","null","","images/instructions/movie_0.png","null","",""
"","","","","","image-button-response","9","142186","0.0-6.0-1.0-0.0","F06A59E8AFF849D4B650DF8B8B09CA94","F06A59E8AFF849D4B650DF8B8B09CA94","0198ee45-4f77-7f85-afd1-d7c3c2bb50d9","0198ee3c-27ac-7803-a9ea-f3b4ad4ad678","{""num_scrambled_semantic"":""8"",""num_scrambled_causal"":""4"",""num_scrambled_schematic"":""4"",""participantId"":""F06A59E8AFF849D4B650DF8B8B09CA94"",""assignmentId"":""0198ee45-4f77-7f85-afd1-d7c3c2bb50d9"",""projectId"":""0198ee3c-27ac-7803-a9ea-f3b4ad4ad678""}","https://test12345.live/?num_scrambled_semantic=8&num_scrambled_causal=4&num_scrambled_schematic=4&participantId=F06A59E8AFF849D4B650DF8B8B09CA94&assignmentId=0198ee45-4f77-7f85-afd1-d7c3c2bb50d9&projectId=0198ee3c-27ac-7803-a9ea-f3b4ad4ad678","F06A59E8AFF849D4B650DF8B8B09CA94-2025-08-28-02-37-41","","null","","images/instructions/movie_1.png","null","",""
"","","","","","image-button-response","10","145325","0.0-6.0-1.0-1.0","F06A59E8AFF849D4B650DF8B8B09CA94","F06A59E8AFF849D4B650DF8B8B09CA94","0198ee45-4f77-7f85-afd1-d7c3c2bb50d9","0198ee3c-27ac-7803-a9ea-f3b4ad4ad678","{""num_scrambled_semantic"":""8"",""num_scrambled_causal"":""4"",""num_scrambled_schematic"":""4"",""participantId"":""F06A59E8AFF849D4B650DF8B8B09CA94"",""assignmentId"":""0198ee45-4f77-7f85-afd1-d7c3c2bb50d9"",""projectId"":""0198ee3c-27ac-7803-a9ea-f3b4ad4ad678""}","https://test12345.live/?num_scrambled_semantic=8&num_scrambled_causal=4&num_scrambled_schematic=4&participantId=F06A59E8AFF849D4B650DF8B8B09CA94&assignmentId=0198ee45-4f77-7f85-afd1-d7c3c2bb50d9&projectId=0198ee3c-27ac-7803-a9ea-f3b4ad4ad678","F06A59E8AFF849D4B650DF8B8B09CA94-2025-08-28-02-37-41","","3137","","images/instructions/movie_1.png","0","",""
"","","","","","image-button-response","11","147127","0.0-6.0-1.0-2.0","F06A59E8AFF849D4B650DF8B8B09CA94","F06A59E8AFF849D4B650DF8B8B09CA94","0198ee45-4f77-7f85-afd1-d7c3c2bb50d9","0198ee3c-27ac-7803-a9ea-f3b4ad4ad678","{""num_scrambled_semantic"":""8"",""num_scrambled_causal"":""4"",""num_scrambled_schematic"":""4"",""participantId"":""F06A59E8AFF849D4B650DF8B8B09CA94"",""assignmentId"":""0198ee45-4f77-7f85-afd1-d7c3c2bb50d9"",""projectId"":""0198ee3c-27ac-7803-a9ea-f3b4ad4ad678""}","https://test12345.live/?num_scrambled_semantic=8&num_scrambled_causal=4&num_scrambled_schematic=4&participantId=F06A59E8AFF849D4B650DF8B8B09CA94&assignmentId=0198ee45-4f77-7f85-afd1-d7c3c2bb50d9&projectId=0198ee3c-27ac-7803-a9ea-f3b4ad4ad678","F06A59E8AFF849D4B650DF8B8B09CA94-2025-08-28-02-37-41","","null","","[]","null","",""
"","","","","","image-button-response","12","151629","0.0-6.0-1.0-0.1","F06A59E8AFF849D4B650DF8B8B09CA94","F06A59E8AFF849D4B650DF8B8B09CA94","0198ee45-4f77-7f85-afd1-d7c3c2bb50d9","0198ee3c-27ac-7803-a9ea-f3b4ad4ad678","{""num_scrambled_semantic"":""8"",""num_scrambled_causal"":""4"",""num_scrambled_schematic"":""4"",""participantId"":""F06A59E8AFF849D4B650DF8B8B09CA94"",""assignmentId"":""0198ee45-4f77-7f85-afd1-d7c3c2bb50d9"",""projectId"":""0198ee3c-27ac-7803-a9ea-f3b4ad4ad678""}","https://test12345.live/?num_scrambled_semantic=8&num_scrambled_causal=4&num_scrambled_schematic=4&participantId=F06A59E8AFF849D4B650DF8B8B09CA94&assignmentId=0198ee45-4f77-7f85-afd1-d7c3c2bb50d9&projectId=0198ee3c-27ac-7803-a9ea-f3b4ad4ad678","F06A59E8AFF849D4B650DF8B8B09CA94-2025-08-28-02-37-41","","null","","images/instructions/movie_2.png","null","",""
"","","","","","image-button-response","13","153442","0.0-6.0-1.0-1.1","F06A59E8AFF849D4B650DF8B8B09CA94","F06A59E8AFF849D4B650DF8B8B09CA94","0198ee45-4f77-7f85-afd1-d7c3c2bb50d9","0198ee3c-27ac-7803-a9ea-f3b4ad4ad678","{""num_scrambled_semantic"":""8"",""num_scrambled_causal"":""4"",""num_scrambled_schematic"":""4"",""participantId"":""F06A59E8AFF849D4B650DF8B8B09CA94"",""assignmentId"":""0198ee45-4f77-7f85-afd1-d7c3c2bb50d9"",""projectId"":""0198ee3c-27ac-7803-a9ea-f3b4ad4ad678""}","https://test12345.live/?num_scrambled_semantic=8&num_scrambled_causal=4&num_scrambled_schematic=4&participantId=F06A59E8AFF849D4B650DF8B8B09CA94&assignmentId=0198ee45-4f77-7f85-afd1-d7c3c2bb50d9&projectId=0198ee3c-27ac-7803-a9ea-f3b4ad4ad678","F06A59E8AFF849D4B650DF8B8B09CA94-2025-08-28-02-37-41","","1810","","images/instructions/movie_2.png","0","",""
"","","","","","image-button-response","14","155245","0.0-6.0-1.0-2.1","F06A59E8AFF849D4B650DF8B8B09CA94","F06A59E8AFF849D4B650DF8B8B09CA94","0198ee45-4f77-7f85-afd1-d7c3c2bb50d9","0198ee3c-27ac-7803-a9ea-f3b4ad4ad678","{""num_scrambled_semantic"":""8"",""num_scrambled_causal"":""4"",""num_scrambled_schematic"":""4"",""participantId"":""F06A59E8AFF849D4B650DF8B8B09CA94"",""assignmentId"":""0198ee45-4f77-7f85-afd1-d7c3c2bb50d9"",""projectId"":""0198ee3c-27ac-7803-a9ea-f3b4ad4ad678""}","https://test12345.live/?num_scrambled_semantic=8&num_scrambled_causal=4&num_scrambled_schematic=4&participantId=F06A59E8AFF849D4B650DF8B8B09CA94&assignmentId=0198ee45-4f77-7f85-afd1-d7c3c2bb50d9&projectId=0198ee3c-27ac-7803-a9ea-f3b4ad4ad678","F06A59E8AFF849D4B650DF8B8B09CA94-2025-08-28-02-37-41","","null","","[]","null","",""
"","","","","","image-button-response","15","159749","0.0-6.0-1.0-0.2","F06A59E8AFF849D4B650DF8B8B09CA94","F06A59E8AFF849D4B650DF8B8B09CA94","0198ee45-4f77-7f85-afd1-d7c3c2bb50d9","0198ee3c-27ac-7803-a9ea-f3b4ad4ad678","{""num_scrambled_semantic"":""8"",""num_scrambled_causal"":""4"",""num_scrambled_schematic"":""4"",""participantId"":""F06A59E8AFF849D4B650DF8B8B09CA94"",""assignmentId"":""0198ee45-4f77-7f85-afd1-d7c3c2bb50d9"",""projectId"":""0198ee3c-27ac-7803-a9ea-f3b4ad4ad678""}","https://test12345.live/?num_scrambled_semantic=8&num_scrambled_causal=4&num_scrambled_schematic=4&participantId=F06A59E8AFF849D4B650DF8B8B09CA94&assignmentId=0198ee45-4f77-7f85-afd1-d7c3c2bb50d9&projectId=0198ee3c-27ac-7803-a9ea-f3b4ad4ad678","F06A59E8AFF849D4B650DF8B8B09CA94-2025-08-28-02-37-41","","null","","images/instructions/movie_3.png","null","",""
"","","","","","image-button-response","16","160810","0.0-6.0-1.0-1.2","F06A59E8AFF849D4B650DF8B8B09CA94","F06A59E8AFF849D4B650DF8B8B09CA94","0198ee45-4f77-7f85-afd1-d7c3c2bb50d9","0198ee3c-27ac-7803-a9ea-f3b4ad4ad678","{""num_scrambled_semantic"":""8"",""num_scrambled_causal"":""4"",""num_scrambled_schematic"":""4"",""participantId"":""F06A59E8AFF849D4B650DF8B8B09CA94"",""assignmentId"":""0198ee45-4f77-7f85-afd1-d7c3c2bb50d9"",""projectId"":""0198ee3c-27ac-7803-a9ea-f3b4ad4ad678""}","https://test12345.live/?num_scrambled_semantic=8&num_scrambled_causal=4&num_scrambled_schematic=4&participantId=F06A59E8AFF849D4B650DF8B8B09CA94&assignmentId=0198ee45-4f77-7f85-afd1-d7c3c2bb50d9&projectId=0198ee3c-27ac-7803-a9ea-f3b4ad4ad678","F06A59E8AFF849D4B650DF8B8B09CA94-2025-08-28-02-37-41","","1058","","images/instructions/movie_3.png","0","",""
"","","","","","image-button-response","17","162616","0.0-6.0-1.0-2.2","F06A59E8AFF849D4B650DF8B8B09CA94","F06A59E8AFF849D4B650DF8B8B09CA94","0198ee45-4f77-7f85-afd1-d7c3c2bb50d9","0198ee3c-27ac-7803-a9ea-f3b4ad4ad678","{""num_scrambled_semantic"":""8"",""num_scrambled_causal"":""4"",""num_scrambled_schematic"":""4"",""participantId"":""F06A59E8AFF849D4B650DF8B8B09CA94"",""assignmentId"":""0198ee45-4f77-7f85-afd1-d7c3c2bb50d9"",""projectId"":""0198ee3c-27ac-7803-a9ea-f3b4ad4ad678""}","https://test12345.live/?num_scrambled_semantic=8&num_scrambled_causal=4&num_scrambled_schematic=4&participantId=F06A59E8AFF849D4B650DF8B8B09CA94&assignmentId=0198ee45-4f77-7f85-afd1-d7c3c2bb50d9&projectId=0198ee3c-27ac-7803-a9ea-f3b4ad4ad678","F06A59E8AFF849D4B650DF8B8B09CA94-2025-08-28-02-37-41","","null","","[]","null","",""
"","","","","","image-button-response","18","167121","0.0-6.0-1.0-0.3","F06A59E8AFF849D4B650DF8B8B09CA94","F06A59E8AFF849D4B650DF8B8B09CA94","0198ee45-4f77-7f85-afd1-d7c3c2bb50d9","0198ee3c-27ac-7803-a9ea-f3b4ad4ad678","{""num_scrambled_semantic"":""8"",""num_scrambled_causal"":""4"",""num_scrambled_schematic"":""4"",""participantId"":""F06A59E8AFF849D4B650DF8B8B09CA94"",""assignmentId"":""0198ee45-4f77-7f85-afd1-d7c3c2bb50d9"",""projectId"":""0198ee3c-27ac-7803-a9ea-f3b4ad4ad678""}","https://test12345.live/?num_scrambled_semantic=8&num_scrambled_causal=4&num_scrambled_schematic=4&participantId=F06A59E8AFF849D4B650DF8B8B09CA94&assignmentId=0198ee45-4f77-7f85-afd1-d7c3c2bb50d9&projectId=0198ee3c-27ac-7803-a9ea-f3b4ad4ad678","F06A59E8AFF849D4B650DF8B8B09CA94-2025-08-28-02-37-41","","null","","images/instructions/movie_4.png","null","",""
"","","","","","image-button-response","19","167993","0.0-6.0-1.0-1.3","F06A59E8AFF849D4B650DF8B8B09CA94","F06A59E8AFF849D4B650DF8B8B09CA94","0198ee45-4f77-7f85-afd1-d7c3c2bb50d9","0198ee3c-27ac-7803-a9ea-f3b4ad4ad678","{""num_scrambled_semantic"":""8"",""num_scrambled_causal"":""4"",""num_scrambled_schematic"":""4"",""participantId"":""F06A59E8AFF849D4B650DF8B8B09CA94"",""assignmentId"":""0198ee45-4f77-7f85-afd1-d7c3c2bb50d9"",""projectId"":""0198ee3c-27ac-7803-a9ea-f3b4ad4ad678""}","https://test12345.live/?num_scrambled_semantic=8&num_scrambled_causal=4&num_scrambled_schematic=4&participantId=F06A59E8AFF849D4B650DF8B8B09CA94&assignmentId=0198ee45-4f77-7f85-afd1-d7c3c2bb50d9&projectId=0198ee3c-27ac-7803-a9ea-f3b4ad4ad678","F06A59E8AFF849D4B650DF8B8B09CA94-2025-08-28-02-37-41","","870","","images/instructions/movie_4.png","0","",""
"","","","","","image-button-response","20","169797","0.0-6.0-1.0-2.3","F06A59E8AFF849D4B650DF8B8B09CA94","F06A59E8AFF849D4B650DF8B8B09CA94","0198ee45-4f77-7f85-afd1-d7c3c2bb50d9","0198ee3c-27ac-7803-a9ea-f3b4ad4ad678","{""num_scrambled_semantic"":""8"",""num_scrambled_causal"":""4"",""num_scrambled_schematic"":""4"",""participantId"":""F06A59E8AFF849D4B650DF8B8B09CA94"",""assignmentId"":""0198ee45-4f77-7f85-afd1-d7c3c2bb50d9"",""projectId"":""0198ee3c-27ac-7803-a9ea-f3b4ad4ad678""}","https://test12345.live/?num_scrambled_semantic=8&num_scrambled_causal=4&num_scrambled_schematic=4&participantId=F06A59E8AFF849D4B650DF8B8B09CA94&assignmentId=0198ee45-4f77-7f85-afd1-d7c3c2bb50d9&projectId=0198ee3c-27ac-7803-a9ea-f3b4ad4ad678","F06A59E8AFF849D4B650DF8B8B09CA94-2025-08-28-02-37-41","","null","","[]","null","",""
"","","","","","instructions","21","211388","0.0-7.0","F06A59E8AFF849D4B650DF8B8B09CA94","F06A59E8AFF849D4B650DF8B8B09CA94","0198ee45-4f77-7f85-afd1-d7c3c2bb50d9","0198ee3c-27ac-7803-a9ea-f3b4ad4ad678","{""num_scrambled_semantic"":""8"",""num_scrambled_causal"":""4"",""num_scrambled_schematic"":""4"",""participantId"":""F06A59E8AFF849D4B650DF8B8B09CA94"",""assignmentId"":""0198ee45-4f77-7f85-afd1-d7c3c2bb50d9"",""projectId"":""0198ee3c-27ac-7803-a9ea-f3b4ad4ad678""}","https://test12345.live/?num_scrambled_semantic=8&num_scrambled_causal=4&num_scrambled_schematic=4&participantId=F06A59E8AFF849D4B650DF8B8B09CA94&assignmentId=0198ee45-4f77-7f85-afd1-d7c3c2bb50d9&projectId=0198ee3c-27ac-7803-a9ea-f3b4ad4ad678","F06A59E8AFF849D4B650DF8B8B09CA94-2025-08-28-02-37-41","[{""page_index"":0,""viewing_time"":41591}]","41591","","","","",""
"","","","","","html-audio-response","22","252698","0.0-8.0","F06A59E8AFF849D4B650DF8B8B09CA94","F06A59E8AFF849D4B650DF8B8B09CA94","0198ee45-4f77-7f85-afd1-d7c3c2bb50d9","0198ee3c-27ac-7803-a9ea-f3b4ad4ad678","{""num_scrambled_semantic"":""8"",""num_scrambled_causal"":""4"",""num_scrambled_schematic"":""4"",""participantId"":""F06A59E8AFF849D4B650DF8B8B09CA94"",""assignmentId"":""0198ee45-4f77-7f85-afd1-d7c3c2bb50d9"",""projectId"":""0198ee3c-27ac-7803-a9ea-f3b4ad4ad678""}","https://test12345.live/?num_scrambled_semantic=8&num_scrambled_causal=4&num_scrambled_schematic=4&participantId=F06A59E8AFF849D4B650DF8B8B09CA94&assignmentId=0198ee45-4f77-7f85-afd1-d7c3c2bb50d9&projectId=0198ee3c-27ac-7803-a9ea-f3b4ad4ad678","F06A59E8AFF849D4B650DF8B8B09CA94-2025-08-28-02-37-41","","19922","","[""<span style=\""color: red; font-size: 24px\""> NOW RECORDING</span><p>Please say out loud all the images you saw, in the order of the story they create. Try to recall the sequence of events as they appeared in the story, not necessarily the order they were presented on the screen.</p>""]","","2",""
"","","","","","instructions","23","255023","0.0-9.0","F06A59E8AFF849D4B650DF8B8B09CA94","F06A59E8AFF849D4B650DF8B8B09CA94","0198ee45-4f77-7f85-afd1-d7c3c2bb50d9","0198ee3c-27ac-7803-a9ea-f3b4ad4ad678","{""num_scrambled_semantic"":""8"",""num_scrambled_causal"":""4"",""num_scrambled_schematic"":""4"",""participantId"":""F06A59E8AFF849D4B650DF8B8B09CA94"",""assignmentId"":""0198ee45-4f77-7f85-afd1-d7c3c2bb50d9"",""projectId"":""0198ee3c-27ac-7803-a9ea-f3b4ad4ad678""}","https://test12345.live/?num_scrambled_semantic=8&num_scrambled_causal=4&num_scrambled_schematic=4&participantId=F06A59E8AFF849D4B650DF8B8B09CA94&assignmentId=0198ee45-4f77-7f85-afd1-d7c3c2bb50d9&projectId=0198ee3c-27ac-7803-a9ea-f3b4ad4ad678","F06A59E8AFF849D4B650DF8B8B09CA94-2025-08-28-02-37-41","[{""page_index"":0,""viewing_time"":2317}]","2317","","","","",""
"","","","","","image-button-response","24","261029","0.0-10.0-0.0","F06A59E8AFF849D4B650DF8B8B09CA94","F06A59E8AFF849D4B650DF8B8B09CA94","0198ee45-4f77-7f85-afd1-d7c3c2bb50d9","0198ee3c-27ac-7803-a9ea-f3b4ad4ad678","{""num_scrambled_semantic"":""8"",""num_scrambled_causal"":""4"",""num_scrambled_schematic"":""4"",""participantId"":""F06A59E8AFF849D4B650DF8B8B09CA94"",""assignmentId"":""0198ee45-4f77-7f85-afd1-d7c3c2bb50d9"",""projectId"":""0198ee3c-27ac-7803-a9ea-f3b4ad4ad678""}","https://test12345.live/?num_scrambled_semantic=8&num_scrambled_causal=4&num_scrambled_schematic=4&participantId=F06A59E8AFF849D4B650DF8B8B09CA94&assignmentId=0198ee45-4f77-7f85-afd1-d7c3c2bb50d9&projectId=0198ee3c-27ac-7803-a9ea-f3b4ad4ad678","F06A59E8AFF849D4B650DF8B8B09CA94-2025-08-28-02-37-41","","null","","images/semantic_sequence/visiting_cities_semantic/visiting_cities_semantic_0.png","null","",""
"","","","","","image-button-response","25","265534","0.0-10.0-1.0-0.0","F06A59E8AFF849D4B650DF8B8B09CA94","F06A59E8AFF849D4B650DF8B8B09CA94","0198ee45-4f77-7f85-afd1-d7c3c2bb50d9","0198ee3c-27ac-7803-a9ea-f3b4ad4ad678","{""num_scrambled_semantic"":""8"",""num_scrambled_causal"":""4"",""num_scrambled_schematic"":""4"",""participantId"":""F06A59E8AFF849D4B650DF8B8B09CA94"",""assignmentId"":""0198ee45-4f77-7f85-afd1-d7c3c2bb50d9"",""projectId"":""0198ee3c-27ac-7803-a9ea-f3b4ad4ad678""}","https://test12345.live/?num_scrambled_semantic=8&num_scrambled_causal=4&num_scrambled_schematic=4&participantId=F06A59E8AFF849D4B650DF8B8B09CA94&assignmentId=0198ee45-4f77-7f85-afd1-d7c3c2bb50d9&projectId=0198ee3c-27ac-7803-a9ea-f3b4ad4ad678","F06A59E8AFF849D4B650DF8B8B09CA94-2025-08-28-02-37-41","","null","","images/semantic_sequence/visiting_cities_semantic/visiting_cities_semantic_2.png","null","",""
"","","","","","image-button-response","26","267294","0.0-10.0-1.0-1.0","F06A59E8AFF849D4B650DF8B8B09CA94","F06A59E8AFF849D4B650DF8B8B09CA94","0198ee45-4f77-7f85-afd1-d7c3c2bb50d9","0198ee3c-27ac-7803-a9ea-f3b4ad4ad678","{""num_scrambled_semantic"":""8"",""num_scrambled_causal"":""4"",""num_scrambled_schematic"":""4"",""participantId"":""F06A59E8AFF849D4B650DF8B8B09CA94"",""assignmentId"":""0198ee45-4f77-7f85-afd1-d7c3c2bb50d9"",""projectId"":""0198ee3c-27ac-7803-a9ea-f3b4ad4ad678""}","https://test12345.live/?num_scrambled_semantic=8&num_scrambled_causal=4&num_scrambled_schematic=4&participantId=F06A59E8AFF849D4B650DF8B8B09CA94&assignmentId=0198ee45-4f77-7f85-afd1-d7c3c2bb50d9&projectId=0198ee3c-27ac-7803-a9ea-f3b4ad4ad678","F06A59E8AFF849D4B650DF8B8B09CA94-2025-08-28-02-37-41","","1757","","images/semantic_sequence/visiting_cities_semantic/visiting_cities_semantic_2.png","1","",""
"","","","","","image-button-response","27","269096","0.0-10.0-1.0-2.0","F06A59E8AFF849D4B650DF8B8B09CA94","F06A59E8AFF849D4B650DF8B8B09CA94","0198ee45-4f77-7f85-afd1-d7c3c2bb50d9","0198ee3c-27ac-7803-a9ea-f3b4ad4ad678","{""num_scrambled_semantic"":""8"",""num_scrambled_causal"":""4"",""num_scrambled_schematic"":""4"",""participantId"":""F06A59E8AFF849D4B650DF8B8B09CA94"",""assignmentId"":""0198ee45-4f77-7f85-afd1-d7c3c2bb50d9"",""projectId"":""0198ee3c-27ac-7803-a9ea-f3b4ad4ad678""}","https://test12345.live/?num_scrambled_semantic=8&num_scrambled_causal=4&num_scrambled_schematic=4&participantId=F06A59E8AFF849D4B650DF8B8B09CA94&assignmentId=0198ee45-4f77-7f85-afd1-d7c3c2bb50d9&projectId=0198ee3c-27ac-7803-a9ea-f3b4ad4ad678","F06A59E8AFF849D4B650DF8B8B09CA94-2025-08-28-02-37-41","","null","","[]","null","",""
"","","","","","image-button-response","28","273601","0.0-10.0-1.0-0.1","F06A59E8AFF849D4B650DF8B8B09CA94","F06A59E8AFF849D4B650DF8B8B09CA94","0198ee45-4f77-7f85-afd1-d7c3c2bb50d9","0198ee3c-27ac-7803-a9ea-f3b4ad4ad678","{""num_scrambled_semantic"":""8"",""num_scrambled_causal"":""4"",""num_scrambled_schematic"":""4"",""participantId"":""F06A59E8AFF849D4B650DF8B8B09CA94"",""assignmentId"":""0198ee45-4f77-7f85-afd1-d7c3c2bb50d9"",""projectId"":""0198ee3c-27ac-7803-a9ea-f3b4ad4ad678""}","https://test12345.live/?num_scrambled_semantic=8&num_scrambled_causal=4&num_scrambled_schematic=4&participantId=F06A59E8AFF849D4B650DF8B8B09CA94&assignmentId=0198ee45-4f77-7f85-afd1-d7c3c2bb50d9&projectId=0198ee3c-27ac-7803-a9ea-f3b4ad4ad678","F06A59E8AFF849D4B650DF8B8B09CA94-2025-08-28-02-37-41","","null","","images/semantic_sequence/visiting_cities_semantic/visiting_cities_semantic_5.png","null","",""
"","","","","","image-button-response","29","276373","0.0-10.0-1.0-1.1","F06A59E8AFF849D4B650DF8B8B09CA94","F06A59E8AFF849D4B650DF8B8B09CA94","0198ee45-4f77-7f85-afd1-d7c3c2bb50d9","0198ee3c-27ac-7803-a9ea-f3b4ad4ad678","{""num_scrambled_semantic"":""8"",""num_scrambled_causal"":""4"",""num_scrambled_schematic"":""4"",""participantId"":""F06A59E8AFF849D4B650DF8B8B09CA94"",""assignmentId"":""0198ee45-4f77-7f85-afd1-d7c3c2bb50d9"",""projectId"":""0198ee3c-27ac-7803-a9ea-f3b4ad4ad678""}","https://test12345.live/?num_scrambled_semantic=8&num_scrambled_causal=4&num_scrambled_schematic=4&participantId=F06A59E8AFF849D4B650DF8B8B09CA94&assignmentId=0198ee45-4f77-7f85-afd1-d7c3c2bb50d9&projectId=0198ee3c-27ac-7803-a9ea-f3b4ad4ad678","F06A59E8AFF849D4B650DF8B8B09CA94-2025-08-28-02-37-41","","2770","","images/semantic_sequence/visiting_cities_semantic/visiting_cities_semantic_5.png","1","",""
"","","","","","image-button-response","30","278179","0.0-10.0-1.0-2.1","F06A59E8AFF849D4B650DF8B8B09CA94","F06A59E8AFF849D4B650DF8B8B09CA94","0198ee45-4f77-7f85-afd1-d7c3c2bb50d9","0198ee3c-27ac-7803-a9ea-f3b4ad4ad678","{""num_scrambled_semantic"":""8"",""num_scrambled_causal"":""4"",""num_scrambled_schematic"":""4"",""participantId"":""F06A59E8AFF849D4B650DF8B8B09CA94"",""assignmentId"":""0198ee45-4f77-7f85-afd1-d7c3c2bb50d9"",""projectId"":""0198ee3c-27ac-7803-a9ea-f3b4ad4ad678""}","https://test12345.live/?num_scrambled_semantic=8&num_scrambled_causal=4&num_scrambled_schematic=4&participantId=F06A59E8AFF849D4B650DF8B8B09CA94&assignmentId=0198ee45-4f77-7f85-afd1-d7c3c2bb50d9&projectId=0198ee3c-27ac-7803-a9ea-f3b4ad4ad678","F06A59E8AFF849D4B650DF8B8B09CA94-2025-08-28-02-37-41","","null","","[]","null","",""
"","","","","","image-button-response","31","282683","0.0-10.0-1.0-0.2","F06A59E8AFF849D4B650DF8B8B09CA94","F06A59E8AFF849D4B650DF8B8B09CA94","0198ee45-4f77-7f85-afd1-d7c3c2bb50d9","0198ee3c-27ac-7803-a9ea-f3b4ad4ad678","{""num_scrambled_semantic"":""8"",""num_scrambled_causal"":""4"",""num_scrambled_schematic"":""4"",""participantId"":""F06A59E8AFF849D4B650DF8B8B09CA94"",""assignmentId"":""0198ee45-4f77-7f85-afd1-d7c3c2bb50d9"",""projectId"":""0198ee3c-27ac-7803-a9ea-f3b4ad4ad678""}","https://test12345.live/?num_scrambled_semantic=8&num_scrambled_causal=4&num_scrambled_schematic=4&participantId=F06A59E8AFF849D4B650DF8B8B09CA94&assignmentId=0198ee45-4f77-7f85-afd1-d7c3c2bb50d9&projectId=0198ee3c-27ac-7803-a9ea-f3b4ad4ad678","F06A59E8AFF849D4B650DF8B8B09CA94-2025-08-28-02-37-41","","null","","images/semantic_sequence/visiting_cities_semantic/visiting_cities_semantic_ten.png","null","",""
"","","","","","image-button-response","32","286685","0.0-10.0-1.0-1.2","F06A59E8AFF849D4B650DF8B8B09CA94","F06A59E8AFF849D4B650DF8B8B09CA94","0198ee45-4f77-7f85-afd1-d7c3c2bb50d9","0198ee3c-27ac-7803-a9ea-f3b4ad4ad678","{""num_scrambled_semantic"":""8"",""num_scrambled_causal"":""4"",""num_scrambled_schematic"":""4"",""participantId"":""F06A59E8AFF849D4B650DF8B8B09CA94"",""assignmentId"":""0198ee45-4f77-7f85-afd1-d7c3c2bb50d9"",""projectId"":""0198ee3c-27ac-7803-a9ea-f3b4ad4ad678""}","https://test12345.live/?num_scrambled_semantic=8&num_scrambled_causal=4&num_scrambled_schematic=4&participantId=F06A59E8AFF849D4B650DF8B8B09CA94&assignmentId=0198ee45-4f77-7f85-afd1-d7c3c2bb50d9&projectId=0198ee3c-27ac-7803-a9ea-f3b4ad4ad678","F06A59E8AFF849D4B650DF8B8B09CA94-2025-08-28-02-37-41","","null","","images/semantic_sequence/visiting_cities_semantic/visiting_cities_semantic_ten.png","null","",""
"","","","","","image-button-response","33","288491","0.0-10.0-1.0-2.2","F06A59E8AFF849D4B650DF8B8B09CA94","F06A59E8AFF849D4B650DF8B8B09CA94","0198ee45-4f77-7f85-afd1-d7c3c2bb50d9","0198ee3c-27ac-7803-a9ea-f3b4ad4ad678","{""num_scrambled_semantic"":""8"",""num_scrambled_causal"":""4"",""num_scrambled_schematic"":""4"",""participantId"":""F06A59E8AFF849D4B650DF8B8B09CA94"",""assignmentId"":""0198ee45-4f77-7f85-afd1-d7c3c2bb50d9"",""projectId"":""0198ee3c-27ac-7803-a9ea-f3b4ad4ad678""}","https://test12345.live/?num_scrambled_semantic=8&num_scrambled_causal=4&num_scrambled_schematic=4&participantId=F06A59E8AFF849D4B650DF8B8B09CA94&assignmentId=0198ee45-4f77-7f85-afd1-d7c3c2bb50d9&projectId=0198ee3c-27ac-7803-a9ea-f3b4ad4ad678","F06A59E8AFF849D4B650DF8B8B09CA94-2025-08-28-02-37-41","","null","","[]","null","",""
"","","","","","image-button-response","34","292995","0.0-10.0-1.0-0.3","F06A59E8AFF849D4B650DF8B8B09CA94","F06A59E8AFF849D4B650DF8B8B09CA94","0198ee45-4f77-7f85-afd1-d7c3c2bb50d9","0198ee3c-27ac-7803-a9ea-f3b4ad4ad678","{""num_scrambled_semantic"":""8"",""num_scrambled_causal"":""4"",""num_scrambled_schematic"":""4"",""participantId"":""F06A59E8AFF849D4B650DF8B8B09CA94"",""assignmentId"":""0198ee45-4f77-7f85-afd1-d7c3c2bb50d9"",""projectId"":""0198ee3c-27ac-7803-a9ea-f3b4ad4ad678""}","https://test12345.live/?num_scrambled_semantic=8&num_scrambled_causal=4&num_scrambled_schematic=4&participantId=F06A59E8AFF849D4B650DF8B8B09CA94&assignmentId=0198ee45-4f77-7f85-afd1-d7c3c2bb50d9&projectId=0198ee3c-27ac-7803-a9ea-f3b4ad4ad678","F06A59E8AFF849D4B650DF8B8B09CA94-2025-08-28-02-37-41","","null","","images/semantic_sequence/visiting_cities_semantic/visiting_cities_semantic_6.png","null","",""
"","","","","","image-button-response","35","295616","0.0-10.0-1.0-1.3","F06A59E8AFF849D4B650DF8B8B09CA94","F06A59E8AFF849D4B650DF8B8B09CA94","0198ee45-4f77-7f85-afd1-d7c3c2bb50d9","0198ee3c-27ac-7803-a9ea-f3b4ad4ad678","{""num_scrambled_semantic"":""8"",""num_scrambled_causal"":""4"",""num_scrambled_schematic"":""4"",""participantId"":""F06A59E8AFF849D4B650DF8B8B09CA94"",""assignmentId"":""0198ee45-4f77-7f85-afd1-d7c3c2bb50d9"",""projectId"":""0198ee3c-27ac-7803-a9ea-f3b4ad4ad678""}","https://test12345.live/?num_scrambled_semantic=8&num_scrambled_causal=4&num_scrambled_schematic=4&participantId=F06A59E8AFF849D4B650DF8B8B09CA94&assignmentId=0198ee45-4f77-7f85-afd1-d7c3c2bb50d9&projectId=0198ee3c-27ac-7803-a9ea-f3b4ad4ad678","F06A59E8AFF849D4B650DF8B8B09CA94-2025-08-28-02-37-41","","2620","","images/semantic_sequence/visiting_cities_semantic/visiting_cities_semantic_6.png","1","",""
"","","","","","image-button-response","36","297421","0.0-10.0-1.0-2.3","F06A59E8AFF849D4B650DF8B8B09CA94","F06A59E8AFF849D4B650DF8B8B09CA94","0198ee45-4f77-7f85-afd1-d7c3c2bb50d9","0198ee3c-27ac-7803-a9ea-f3b4ad4ad678","{""num_scrambled_semantic"":""8"",""num_scrambled_causal"":""4"",""num_scrambled_schematic"":""4"",""participantId"":""F06A59E8AFF849D4B650DF8B8B09CA94"",""assignmentId"":""0198ee45-4f77-7f85-afd1-d7c3c2bb50d9"",""projectId"":""0198ee3c-27ac-7803-a9ea-f3b4ad4ad678""}","https://test12345.live/?num_scrambled_semantic=8&num_scrambled_causal=4&num_scrambled_schematic=4&participantId=F06A59E8AFF849D4B650DF8B8B09CA94&assignmentId=0198ee45-4f77-7f85-afd1-d7c3c2bb50d9&projectId=0198ee3c-27ac-7803-a9ea-f3b4ad4ad678","F06A59E8AFF849D4B650DF8B8B09CA94-2025-08-28-02-37-41","","null","","[]","null","",""
"","","","","","image-button-response","37","301925","0.0-10.0-1.0-0.4","F06A59E8AFF849D4B650DF8B8B09CA94","F06A59E8AFF849D4B650DF8B8B09CA94","0198ee45-4f77-7f85-afd1-d7c3c2bb50d9","0198ee3c-27ac-7803-a9ea-f3b4ad4ad678","{""num_scrambled_semantic"":""8"",""num_scrambled_causal"":""4"",""num_scrambled_schematic"":""4"",""participantId"":""F06A59E8AFF849D4B650DF8B8B09CA94"",""assignmentId"":""0198ee45-4f77-7f85-afd1-d7c3c2bb50d9"",""projectId"":""0198ee3c-27ac-7803-a9ea-f3b4ad4ad678""}","https://test12345.live/?num_scrambled_semantic=8&num_scrambled_causal=4&num_scrambled_schematic=4&participantId=F06A59E8AFF849D4B650DF8B8B09CA94&assignmentId=0198ee45-4f77-7f85-afd1-d7c3c2bb50d9&projectId=0198ee3c-27ac-7803-a9ea-f3b4ad4ad678","F06A59E8AFF849D4B650DF8B8B09CA94-2025-08-28-02-37-41","","null","","images/semantic_sequence/visiting_cities_semantic/visiting_cities_semantic_4.png","null","",""
"","","","","","image-button-response","38","303701","0.0-10.0-1.0-1.4","F06A59E8AFF849D4B650DF8B8B09CA94","F06A59E8AFF849D4B650DF8B8B09CA94","0198ee45-4f77-7f85-afd1-d7c3c2bb50d9","0198ee3c-27ac-7803-a9ea-f3b4ad4ad678","{""num_scrambled_semantic"":""8"",""num_scrambled_causal"":""4"",""num_scrambled_schematic"":""4"",""participantId"":""F06A59E8AFF849D4B650DF8B8B09CA94"",""assignmentId"":""0198ee45-4f77-7f85-afd1-d7c3c2bb50d9"",""projectId"":""0198ee3c-27ac-7803-a9ea-f3b4ad4ad678""}","https://test12345.live/?num_scrambled_semantic=8&num_scrambled_causal=4&num_scrambled_schematic=4&participantId=F06A59E8AFF849D4B650DF8B8B09CA94&assignmentId=0198ee45-4f77-7f85-afd1-d7c3c2bb50d9&projectId=0198ee3c-27ac-7803-a9ea-f3b4ad4ad678","F06A59E8AFF849D4B650DF8B8B09CA94-2025-08-28-02-37-41","","1774","","images/semantic_sequence/visiting_cities_semantic/visiting_cities_semantic_4.png","1","",""
"","","","","","image-button-response","39","305506","0.0-10.0-1.0-2.4","F06A59E8AFF849D4B650DF8B8B09CA94","F06A59E8AFF849D4B650DF8B8B09CA94","0198ee45-4f77-7f85-afd1-d7c3c2bb50d9","0198ee3c-27ac-7803-a9ea-f3b4ad4ad678","{""num_scrambled_semantic"":""8"",""num_scrambled_causal"":""4"",""num_scrambled_schematic"":""4"",""participantId"":""F06A59E8AFF849D4B650DF8B8B09CA94"",""assignmentId"":""0198ee45-4f77-7f85-afd1-d7c3c2bb50d9"",""projectId"":""0198ee3c-27ac-7803-a9ea-f3b4ad4ad678""}","https://test12345.live/?num_scrambled_semantic=8&num_scrambled_causal=4&num_scrambled_schematic=4&participantId=F06A59E8AFF849D4B650DF8B8B09CA94&assignmentId=0198ee45-4f77-7f85-afd1-d7c3c2bb50d9&projectId=0198ee3c-27ac-7803-a9ea-f3b4ad4ad678","F06A59E8AFF849D4B650DF8B8B09CA94-2025-08-28-02-37-41","","null","","[]","null","",""
"","","","","","image-button-response","40","310008","0.0-10.0-1.0-0.5","F06A59E8AFF849D4B650DF8B8B09CA94","F06A59E8AFF849D4B650DF8B8B09CA94","0198ee45-4f77-7f85-afd1-d7c3c2bb50d9","0198ee3c-27ac-7803-a9ea-f3b4ad4ad678","{""num_scrambled_semantic"":""8"",""num_scrambled_causal"":""4"",""num_scrambled_schematic"":""4"",""participantId"":""F06A59E8AFF849D4B650DF8B8B09CA94"",""assignmentId"":""0198ee45-4f77-7f85-afd1-d7c3c2bb50d9"",""projectId"":""0198ee3c-27ac-7803-a9ea-f3b4ad4ad678""}","https://test12345.live/?num_scrambled_semantic=8&num_scrambled_causal=4&num_scrambled_schematic=4&participantId=F06A59E8AFF849D4B650DF8B8B09CA94&assignmentId=0198ee45-4f77-7f85-afd1-d7c3c2bb50d9&projectId=0198ee3c-27ac-7803-a9ea-f3b4ad4ad678","F06A59E8AFF849D4B650DF8B8B09CA94-2025-08-28-02-37-41","","null","","images/semantic_sequence/visiting_cities_semantic/visiting_cities_semantic_7.png","null","",""
"","","","","","image-button-response","41","311997","0.0-10.0-1.0-1.5","F06A59E8AFF849D4B650DF8B8B09CA94","F06A59E8AFF849D4B650DF8B8B09CA94","0198ee45-4f77-7f85-afd1-d7c3c2bb50d9","0198ee3c-27ac-7803-a9ea-f3b4ad4ad678","{""num_scrambled_semantic"":""8"",""num_scrambled_causal"":""4"",""num_scrambled_schematic"":""4"",""participantId"":""F06A59E8AFF849D4B650DF8B8B09CA94"",""assignmentId"":""0198ee45-4f77-7f85-afd1-d7c3c2bb50d9"",""projectId"":""0198ee3c-27ac-7803-a9ea-f3b4ad4ad678""}","https://test12345.live/?num_scrambled_semantic=8&num_scrambled_causal=4&num_scrambled_schematic=4&participantId=F06A59E8AFF849D4B650DF8B8B09CA94&assignmentId=0198ee45-4f77-7f85-afd1-d7c3c2bb50d9&projectId=0198ee3c-27ac-7803-a9ea-f3b4ad4ad678","F06A59E8AFF849D4B650DF8B8B09CA94-2025-08-28-02-37-41","","1987","","images/semantic_sequence/visiting_cities_semantic/visiting_cities_semantic_7.png","1","",""
"","","","","","image-button-response","42","313803","0.0-10.0-1.0-2.5","F06A59E8AFF849D4B650DF8B8B09CA94","F06A59E8AFF849D4B650DF8B8B09CA94","0198ee45-4f77-7f85-afd1-d7c3c2bb50d9","0198ee3c-27ac-7803-a9ea-f3b4ad4ad678","{""num_scrambled_semantic"":""8"",""num_scrambled_causal"":""4"",""num_scrambled_schematic"":""4"",""participantId"":""F06A59E8AFF849D4B650DF8B8B09CA94"",""assignmentId"":""0198ee45-4f77-7f85-afd1-d7c3c2bb50d9"",""projectId"":""0198ee3c-27ac-7803-a9ea-f3b4ad4ad678""}","https://test12345.live/?num_scrambled_semantic=8&num_scrambled_causal=4&num_scrambled_schematic=4&participantId=F06A59E8AFF849D4B650DF8B8B09CA94&assignmentId=0198ee45-4f77-7f85-afd1-d7c3c2bb50d9&projectId=0198ee3c-27ac-7803-a9ea-f3b4ad4ad678","F06A59E8AFF849D4B650DF8B8B09CA94-2025-08-28-02-37-41","","null","","[]","null","",""
"","","","","","image-button-response","43","318306","0.0-10.0-1.0-0.6","F06A59E8AFF849D4B650DF8B8B09CA94","F06A59E8AFF849D4B650DF8B8B09CA94","0198ee45-4f77-7f85-afd1-d7c3c2bb50d9","0198ee3c-27ac-7803-a9ea-f3b4ad4ad678","{""num_scrambled_semantic"":""8"",""num_scrambled_causal"":""4"",""num_scrambled_schematic"":""4"",""participantId"":""F06A59E8AFF849D4B650DF8B8B09CA94"",""assignmentId"":""0198ee45-4f77-7f85-afd1-d7c3c2bb50d9"",""projectId"":""0198ee3c-27ac-7803-a9ea-f3b4ad4ad678""}","https://test12345.live/?num_scrambled_semantic=8&num_scrambled_causal=4&num_scrambled_schematic=4&participantId=F06A59E8AFF849D4B650DF8B8B09CA94&assignmentId=0198ee45-4f77-7f85-afd1-d7c3c2bb50d9&projectId=0198ee3c-27ac-7803-a9ea-f3b4ad4ad678","F06A59E8AFF849D4B650DF8B8B09CA94-2025-08-28-02-37-41","","null","","images/semantic_sequence/visiting_cities_semantic/visiting_cities_semantic_8.png","null","",""
"","","","","","image-button-response","44","319058","0.0-10.0-1.0-1.6","F06A59E8AFF849D4B650DF8B8B09CA94","F06A59E8AFF849D4B650DF8B8B09CA94","0198ee45-4f77-7f85-afd1-d7c3c2bb50d9","0198ee3c-27ac-7803-a9ea-f3b4ad4ad678","{""num_scrambled_semantic"":""8"",""num_scrambled_causal"":""4"",""num_scrambled_schematic"":""4"",""participantId"":""F06A59E8AFF849D4B650DF8B8B09CA94"",""assignmentId"":""0198ee45-4f77-7f85-afd1-d7c3c2bb50d9"",""projectId"":""0198ee3c-27ac-7803-a9ea-f3b4ad4ad678""}","https://test12345.live/?num_scrambled_semantic=8&num_scrambled_causal=4&num_scrambled_schematic=4&participantId=F06A59E8AFF849D4B650DF8B8B09CA94&assignmentId=0198ee45-4f77-7f85-afd1-d7c3c2bb50d9&projectId=0198ee3c-27ac-7803-a9ea-f3b4ad4ad678","F06A59E8AFF849D4B650DF8B8B09CA94-2025-08-28-02-37-41","","750","","images/semantic_sequence/visiting_cities_semantic/visiting_cities_semantic_8.png","1","",""
"","","","","","image-button-response","45","320863","0.0-10.0-1.0-2.6","F06A59E8AFF849D4B650DF8B8B09CA94","F06A59E8AFF849D4B650DF8B8B09CA94","0198ee45-4f77-7f85-afd1-d7c3c2bb50d9","0198ee3c-27ac-7803-a9ea-f3b4ad4ad678","{""num_scrambled_semantic"":""8"",""num_scrambled_causal"":""4"",""num_scrambled_schematic"":""4"",""participantId"":""F06A59E8AFF849D4B650DF8B8B09CA94"",""assignmentId"":""0198ee45-4f77-7f85-afd1-d7c3c2bb50d9"",""projectId"":""0198ee3c-27ac-7803-a9ea-f3b4ad4ad678""}","https://test12345.live/?num_scrambled_semantic=8&num_scrambled_causal=4&num_scrambled_schematic=4&participantId=F06A59E8AFF849D4B650DF8B8B09CA94&assignmentId=0198ee45-4f77-7f85-afd1-d7c3c2bb50d9&projectId=0198ee3c-27ac-7803-a9ea-f3b4ad4ad678","F06A59E8AFF849D4B650DF8B8B09CA94-2025-08-28-02-37-41","","null","","[]","null","",""
"","","","","","image-button-response","46","325367","0.0-10.0-1.0-0.7","F06A59E8AFF849D4B650DF8B8B09CA94","F06A59E8AFF849D4B650DF8B8B09CA94","0198ee45-4f77-7f85-afd1-d7c3c2bb50d9","0198ee3c-27ac-7803-a9ea-f3b4ad4ad678","{""num_scrambled_semantic"":""8"",""num_scrambled_causal"":""4"",""num_scrambled_schematic"":""4"",""participantId"":""F06A59E8AFF849D4B650DF8B8B09CA94"",""assignmentId"":""0198ee45-4f77-7f85-afd1-d7c3c2bb50d9"",""projectId"":""0198ee3c-27ac-7803-a9ea-f3b4ad4ad678""}","https://test12345.live/?num_scrambled_semantic=8&num_scrambled_causal=4&num_scrambled_schematic=4&participantId=F06A59E8AFF849D4B650DF8B8B09CA94&assignmentId=0198ee45-4f77-7f85-afd1-d7c3c2bb50d9&projectId=0198ee3c-27ac-7803-a9ea-f3b4ad4ad678","F06A59E8AFF849D4B650DF8B8B09CA94-2025-08-28-02-37-41","","null","","images/semantic_sequence/visiting_cities_semantic/visiting_cities_semantic_1.png","null","",""
"","","","","","image-button-response","47","325960","0.0-10.0-1.0-1.7","F06A59E8AFF849D4B650DF8B8B09CA94","F06A59E8AFF849D4B650DF8B8B09CA94","0198ee45-4f77-7f85-afd1-d7c3c2bb50d9","0198ee3c-27ac-7803-a9ea-f3b4ad4ad678","{""num_scrambled_semantic"":""8"",""num_scrambled_causal"":""4"",""num_scrambled_schematic"":""4"",""participantId"":""F06A59E8AFF849D4B650DF8B8B09CA94"",""assignmentId"":""0198ee45-4f77-7f85-afd1-d7c3c2bb50d9"",""projectId"":""0198ee3c-27ac-7803-a9ea-f3b4ad4ad678""}","https://test12345.live/?num_scrambled_semantic=8&num_scrambled_causal=4&num_scrambled_schematic=4&participantId=F06A59E8AFF849D4B650DF8B8B09CA94&assignmentId=0198ee45-4f77-7f85-afd1-d7c3c2bb50d9&projectId=0198ee3c-27ac-7803-a9ea-f3b4ad4ad678","F06A59E8AFF849D4B650DF8B8B09CA94-2025-08-28-02-37-41","","591","","images/semantic_sequence/visiting_cities_semantic/visiting_cities_semantic_1.png","1","",""
"","","","","","image-button-response","48","327766","0.0-10.0-1.0-2.7","F06A59E8AFF849D4B650DF8B8B09CA94","F06A59E8AFF849D4B650DF8B8B09CA94","0198ee45-4f77-7f85-afd1-d7c3c2bb50d9","0198ee3c-27ac-7803-a9ea-f3b4ad4ad678","{""num_scrambled_semantic"":""8"",""num_scrambled_causal"":""4"",""num_scrambled_schematic"":""4"",""participantId"":""F06A59E8AFF849D4B650DF8B8B09CA94"",""assignmentId"":""0198ee45-4f77-7f85-afd1-d7c3c2bb50d9"",""projectId"":""0198ee3c-27ac-7803-a9ea-f3b4ad4ad678""}","https://test12345.live/?num_scrambled_semantic=8&num_scrambled_causal=4&num_scrambled_schematic=4&participantId=F06A59E8AFF849D4B650DF8B8B09CA94&assignmentId=0198ee45-4f77-7f85-afd1-d7c3c2bb50d9&projectId=0198ee3c-27ac-7803-a9ea-f3b4ad4ad678","F06A59E8AFF849D4B650DF8B8B09CA94-2025-08-28-02-37-41","","null","","[]","null","",""
"","","","","","image-button-response","49","332271","0.0-10.0-1.0-0.8","F06A59E8AFF849D4B650DF8B8B09CA94","F06A59E8AFF849D4B650DF8B8B09CA94","0198ee45-4f77-7f85-afd1-d7c3c2bb50d9","0198ee3c-27ac-7803-a9ea-f3b4ad4ad678","{""num_scrambled_semantic"":""8"",""num_scrambled_causal"":""4"",""num_scrambled_schematic"":""4"",""participantId"":""F06A59E8AFF849D4B650DF8B8B09CA94"",""assignmentId"":""0198ee45-4f77-7f85-afd1-d7c3c2bb50d9"",""projectId"":""0198ee3c-27ac-7803-a9ea-f3b4ad4ad678""}","https://test12345.live/?num_scrambled_semantic=8&num_scrambled_causal=4&num_scrambled_schematic=4&participantId=F06A59E8AFF849D4B650DF8B8B09CA94&assignmentId=0198ee45-4f77-7f85-afd1-d7c3c2bb50d9&projectId=0198ee3c-27ac-7803-a9ea-f3b4ad4ad678","F06A59E8AFF849D4B650DF8B8B09CA94-2025-08-28-02-37-41","","null","","images/semantic_sequence/visiting_cities_semantic/visiting_cities_semantic_9.png","null","",""
"","","","","","image-button-response","50","333460","0.0-10.0-1.0-1.8","F06A59E8AFF849D4B650DF8B8B09CA94","F06A59E8AFF849D4B650DF8B8B09CA94","0198ee45-4f77-7f85-afd1-d7c3c2bb50d9","0198ee3c-27ac-7803-a9ea-f3b4ad4ad678","{""num_scrambled_semantic"":""8"",""num_scrambled_causal"":""4"",""num_scrambled_schematic"":""4"",""participantId"":""F06A59E8AFF849D4B650DF8B8B09CA94"",""assignmentId"":""0198ee45-4f77-7f85-afd1-d7c3c2bb50d9"",""projectId"":""0198ee3c-27ac-7803-a9ea-f3b4ad4ad678""}","https://test12345.live/?num_scrambled_semantic=8&num_scrambled_causal=4&num_scrambled_schematic=4&participantId=F06A59E8AFF849D4B650DF8B8B09CA94&assignmentId=0198ee45-4f77-7f85-afd1-d7c3c2bb50d9&projectId=0198ee3c-27ac-7803-a9ea-f3b4ad4ad678","F06A59E8AFF849D4B650DF8B8B09CA94-2025-08-28-02-37-41","","1187","","images/semantic_sequence/visiting_cities_semantic/visiting_cities_semantic_9.png","1","",""
"","","","","","image-button-response","51","335263","0.0-10.0-1.0-2.8","F06A59E8AFF849D4B650DF8B8B09CA94","F06A59E8AFF849D4B650DF8B8B09CA94","0198ee45-4f77-7f85-afd1-d7c3c2bb50d9","0198ee3c-27ac-7803-a9ea-f3b4ad4ad678","{""num_scrambled_semantic"":""8"",""num_scrambled_causal"":""4"",""num_scrambled_schematic"":""4"",""participantId"":""F06A59E8AFF849D4B650DF8B8B09CA94"",""assignmentId"":""0198ee45-4f77-7f85-afd1-d7c3c2bb50d9"",""projectId"":""0198ee3c-27ac-7803-a9ea-f3b4ad4ad678""}","https://test12345.live/?num_scrambled_semantic=8&num_scrambled_causal=4&num_scrambled_schematic=4&participantId=F06A59E8AFF849D4B650DF8B8B09CA94&assignmentId=0198ee45-4f77-7f85-afd1-d7c3c2bb50d9&projectId=0198ee3c-27ac-7803-a9ea-f3b4ad4ad678","F06A59E8AFF849D4B650DF8B8B09CA94-2025-08-28-02-37-41","","null","","[]","null","",""
"","","","","","image-button-response","52","339765","0.0-10.0-1.0-0.9","F06A59E8AFF849D4B650DF8B8B09CA94","F06A59E8AFF849D4B650DF8B8B09CA94","0198ee45-4f77-7f85-afd1-d7c3c2bb50d9","0198ee3c-27ac-7803-a9ea-f3b4ad4ad678","{""num_scrambled_semantic"":""8"",""num_scrambled_causal"":""4"",""num_scrambled_schematic"":""4"",""participantId"":""F06A59E8AFF849D4B650DF8B8B09CA94"",""assignmentId"":""0198ee45-4f77-7f85-afd1-d7c3c2bb50d9"",""projectId"":""0198ee3c-27ac-7803-a9ea-f3b4ad4ad678""}","https://test12345.live/?num_scrambled_semantic=8&num_scrambled_causal=4&num_scrambled_schematic=4&participantId=F06A59E8AFF849D4B650DF8B8B09CA94&assignmentId=0198ee45-4f77-7f85-afd1-d7c3c2bb50d9&projectId=0198ee3c-27ac-7803-a9ea-f3b4ad4ad678","F06A59E8AFF849D4B650DF8B8B09CA94-2025-08-28-02-37-41","","null","","images/semantic_sequence/visiting_cities_semantic/visiting_cities_semantic_3.png","null","",""
"","","","","","image-button-response","53","341187","0.0-10.0-1.0-1.9","F06A59E8AFF849D4B650DF8B8B09CA94","F06A59E8AFF849D4B650DF8B8B09CA94","0198ee45-4f77-7f85-afd1-d7c3c2bb50d9","0198ee3c-27ac-7803-a9ea-f3b4ad4ad678","{""num_scrambled_semantic"":""8"",""num_scrambled_causal"":""4"",""num_scrambled_schematic"":""4"",""participantId"":""F06A59E8AFF849D4B650DF8B8B09CA94"",""assignmentId"":""0198ee45-4f77-7f85-afd1-d7c3c2bb50d9"",""projectId"":""0198ee3c-27ac-7803-a9ea-f3b4ad4ad678""}","https://test12345.live/?num_scrambled_semantic=8&num_scrambled_causal=4&num_scrambled_schematic=4&participantId=F06A59E8AFF849D4B650DF8B8B09CA94&assignmentId=0198ee45-4f77-7f85-afd1-d7c3c2bb50d9&projectId=0198ee3c-27ac-7803-a9ea-f3b4ad4ad678","F06A59E8AFF849D4B650DF8B8B09CA94-2025-08-28-02-37-41","","1420","","images/semantic_sequence/visiting_cities_semantic/visiting_cities_semantic_3.png","1","",""
"","","","","","image-button-response","54","342990","0.0-10.0-1.0-2.9","F06A59E8AFF849D4B650DF8B8B09CA94","F06A59E8AFF849D4B650DF8B8B09CA94","0198ee45-4f77-7f85-afd1-d7c3c2bb50d9","0198ee3c-27ac-7803-a9ea-f3b4ad4ad678","{""num_scrambled_semantic"":""8"",""num_scrambled_causal"":""4"",""num_scrambled_schematic"":""4"",""participantId"":""F06A59E8AFF849D4B650DF8B8B09CA94"",""assignmentId"":""0198ee45-4f77-7f85-afd1-d7c3c2bb50d9"",""projectId"":""0198ee3c-27ac-7803-a9ea-f3b4ad4ad678""}","https://test12345.live/?num_scrambled_semantic=8&num_scrambled_causal=4&num_scrambled_schematic=4&participantId=F06A59E8AFF849D4B650DF8B8B09CA94&assignmentId=0198ee45-4f77-7f85-afd1-d7c3c2bb50d9&projectId=0198ee3c-27ac-7803-a9ea-f3b4ad4ad678","F06A59E8AFF849D4B650DF8B8B09CA94-2025-08-28-02-37-41","","null","","[]","null","",""
"","","","","","html-audio-response","55","430902","0.0-11.0","F06A59E8AFF849D4B650DF8B8B09CA94","F06A59E8AFF849D4B650DF8B8B09CA94","0198ee45-4f77-7f85-afd1-d7c3c2bb50d9","0198ee3c-27ac-7803-a9ea-f3b4ad4ad678","{""num_scrambled_semantic"":""8"",""num_scrambled_causal"":""4"",""num_scrambled_schematic"":""4"",""participantId"":""F06A59E8AFF849D4B650DF8B8B09CA94"",""assignmentId"":""0198ee45-4f77-7f85-afd1-d7c3c2bb50d9"",""projectId"":""0198ee3c-27ac-7803-a9ea-f3b4ad4ad678""}","https://test12345.live/?num_scrambled_semantic=8&num_scrambled_causal=4&num_scrambled_schematic=4&participantId=F06A59E8AFF849D4B650DF8B8B09CA94&assignmentId=0198ee45-4f77-7f85-afd1-d7c3c2bb50d9&projectId=0198ee3c-27ac-7803-a9ea-f3b4ad4ad678","F06A59E8AFF849D4B650DF8B8B09CA94-2025-08-28-02-37-41","","20355","","[""<span style=\""color: red; font-size: 24px\""> NOW RECORDING</span><p>Please say out loud all the images you saw, in the order of the story they create. Try to recall the sequence of events as they appeared in the story, not necessarily the order they were presented on the screen.</p>""]","","2","visiting_cities_semantic"
"","","","","","image-button-response","56","436912","0.0-12.0-0.0","F06A59E8AFF849D4B650DF8B8B09CA94","F06A59E8AFF849D4B650DF8B8B09CA94","0198ee45-4f77-7f85-afd1-d7c3c2bb50d9","0198ee3c-27ac-7803-a9ea-f3b4ad4ad678","{""num_scrambled_semantic"":""8"",""num_scrambled_causal"":""4"",""num_scrambled_schematic"":""4"",""participantId"":""F06A59E8AFF849D4B650DF8B8B09CA94"",""assignmentId"":""0198ee45-4f77-7f85-afd1-d7c3c2bb50d9"",""projectId"":""0198ee3c-27ac-7803-a9ea-f3b4ad4ad678""}","https://test12345.live/?num_scrambled_semantic=8&num_scrambled_causal=4&num_scrambled_schematic=4&participantId=F06A59E8AFF849D4B650DF8B8B09CA94&assignmentId=0198ee45-4f77-7f85-afd1-d7c3c2bb50d9&projectId=0198ee3c-27ac-7803-a9ea-f3b4ad4ad678","F06A59E8AFF849D4B650DF8B8B09CA94-2025-08-28-02-37-41","","null","","images/semantic_sequence/using_technology_semantic/using_technology_semantic_0.png","null","",""
"","","","","","image-button-response","57","441413","0.0-12.0-1.0-0.0","F06A59E8AFF849D4B650DF8B8B09CA94","F06A59E8AFF849D4B650DF8B8B09CA94","0198ee45-4f77-7f85-afd1-d7c3c2bb50d9","0198ee3c-27ac-7803-a9ea-f3b4ad4ad678","{""num_scrambled_semantic"":""8"",""num_scrambled_causal"":""4"",""num_scrambled_schematic"":""4"",""participantId"":""F06A59E8AFF849D4B650DF8B8B09CA94"",""assignmentId"":""0198ee45-4f77-7f85-afd1-d7c3c2bb50d9"",""projectId"":""0198ee3c-27ac-7803-a9ea-f3b4ad4ad678""}","https://test12345.live/?num_scrambled_semantic=8&num_scrambled_causal=4&num_scrambled_schematic=4&participantId=F06A59E8AFF849D4B650DF8B8B09CA94&assignmentId=0198ee45-4f77-7f85-afd1-d7c3c2bb50d9&projectId=0198ee3c-27ac-7803-a9ea-f3b4ad4ad678","F06A59E8AFF849D4B650DF8B8B09CA94-2025-08-28-02-37-41","","null","","images/semantic_sequence/using_technology_semantic/using_technology_semantic_3.png","null","",""
"","","","","","image-button-response","58","443800","0.0-12.0-1.0-1.0","F06A59E8AFF849D4B650DF8B8B09CA94","F06A59E8AFF849D4B650DF8B8B09CA94","0198ee45-4f77-7f85-afd1-d7c3c2bb50d9","0198ee3c-27ac-7803-a9ea-f3b4ad4ad678","{""num_scrambled_semantic"":""8"",""num_scrambled_causal"":""4"",""num_scrambled_schematic"":""4"",""participantId"":""F06A59E8AFF849D4B650DF8B8B09CA94"",""assignmentId"":""0198ee45-4f77-7f85-afd1-d7c3c2bb50d9"",""projectId"":""0198ee3c-27ac-7803-a9ea-f3b4ad4ad678""}","https://test12345.live/?num_scrambled_semantic=8&num_scrambled_causal=4&num_scrambled_schematic=4&participantId=F06A59E8AFF849D4B650DF8B8B09CA94&assignmentId=0198ee45-4f77-7f85-afd1-d7c3c2bb50d9&projectId=0198ee3c-27ac-7803-a9ea-f3b4ad4ad678","F06A59E8AFF849D4B650DF8B8B09CA94-2025-08-28-02-37-41","","2386","","images/semantic_sequence/using_technology_semantic/using_technology_semantic_3.png","0","",""
"","","","","","image-button-response","59","445603","0.0-12.0-1.0-2.0","F06A59E8AFF849D4B650DF8B8B09CA94","F06A59E8AFF849D4B650DF8B8B09CA94","0198ee45-4f77-7f85-afd1-d7c3c2bb50d9","0198ee3c-27ac-7803-a9ea-f3b4ad4ad678","{""num_scrambled_semantic"":""8"",""num_scrambled_causal"":""4"",""num_scrambled_schematic"":""4"",""participantId"":""F06A59E8AFF849D4B650DF8B8B09CA94"",""assignmentId"":""0198ee45-4f77-7f85-afd1-d7c3c2bb50d9"",""projectId"":""0198ee3c-27ac-7803-a9ea-f3b4ad4ad678""}","https://test12345.live/?num_scrambled_semantic=8&num_scrambled_causal=4&num_scrambled_schematic=4&participantId=F06A59E8AFF849D4B650DF8B8B09CA94&assignmentId=0198ee45-4f77-7f85-afd1-d7c3c2bb50d9&projectId=0198ee3c-27ac-7803-a9ea-f3b4ad4ad678","F06A59E8AFF849D4B650DF8B8B09CA94-2025-08-28-02-37-41","","null","","[]","null","",""
"","","","","","image-button-response","60","450107","0.0-12.0-1.0-0.1","F06A59E8AFF849D4B650DF8B8B09CA94","F06A59E8AFF849D4B650DF8B8B09CA94","0198ee45-4f77-7f85-afd1-d7c3c2bb50d9","0198ee3c-27ac-7803-a9ea-f3b4ad4ad678","{""num_scrambled_semantic"":""8"",""num_scrambled_causal"":""4"",""num_scrambled_schematic"":""4"",""participantId"":""F06A59E8AFF849D4B650DF8B8B09CA94"",""assignmentId"":""0198ee45-4f77-7f85-afd1-d7c3c2bb50d9"",""projectId"":""0198ee3c-27ac-7803-a9ea-f3b4ad4ad678""}","https://test12345.live/?num_scrambled_semantic=8&num_scrambled_causal=4&num_scrambled_schematic=4&participantId=F06A59E8AFF849D4B650DF8B8B09CA94&assignmentId=0198ee45-4f77-7f85-afd1-d7c3c2bb50d9&projectId=0198ee3c-27ac-7803-a9ea-f3b4ad4ad678","F06A59E8AFF849D4B650DF8B8B09CA94-2025-08-28-02-37-41","","null","","images/semantic_sequence/using_technology_semantic/using_technology_semantic_4.png","null","",""
"","","","","","image-button-response","61","451301","0.0-12.0-1.0-1.1","F06A59E8AFF849D4B650DF8B8B09CA94","F06A59E8AFF849D4B650DF8B8B09CA94","0198ee45-4f77-7f85-afd1-d7c3c2bb50d9","0198ee3c-27ac-7803-a9ea-f3b4ad4ad678","{""num_scrambled_semantic"":""8"",""num_scrambled_causal"":""4"",""num_scrambled_schematic"":""4"",""participantId"":""F06A59E8AFF849D4B650DF8B8B09CA94"",""assignmentId"":""0198ee45-4f77-7f85-afd1-d7c3c2bb50d9"",""projectId"":""0198ee3c-27ac-7803-a9ea-f3b4ad4ad678""}","https://test12345.live/?num_scrambled_semantic=8&num_scrambled_causal=4&num_scrambled_schematic=4&participantId=F06A59E8AFF849D4B650DF8B8B09CA94&assignmentId=0198ee45-4f77-7f85-afd1-d7c3c2bb50d9&projectId=0198ee3c-27ac-7803-a9ea-f3b4ad4ad678","F06A59E8AFF849D4B650DF8B8B09CA94-2025-08-28-02-37-41","","1193","","images/semantic_sequence/using_technology_semantic/using_technology_semantic_4.png","0","",""
"","","","","","image-button-response","62","453106","0.0-12.0-1.0-2.1","F06A59E8AFF849D4B650DF8B8B09CA94","F06A59E8AFF849D4B650DF8B8B09CA94","0198ee45-4f77-7f85-afd1-d7c3c2bb50d9","0198ee3c-27ac-7803-a9ea-f3b4ad4ad678","{""num_scrambled_semantic"":""8"",""num_scrambled_causal"":""4"",""num_scrambled_schematic"":""4"",""participantId"":""F06A59E8AFF849D4B650DF8B8B09CA94"",""assignmentId"":""0198ee45-4f77-7f85-afd1-d7c3c2bb50d9"",""projectId"":""0198ee3c-27ac-7803-a9ea-f3b4ad4ad678""}","https://test12345.live/?num_scrambled_semantic=8&num_scrambled_causal=4&num_scrambled_schematic=4&participantId=F06A59E8AFF849D4B650DF8B8B09CA94&assignmentId=0198ee45-4f77-7f85-afd1-d7c3c2bb50d9&projectId=0198ee3c-27ac-7803-a9ea-f3b4ad4ad678","F06A59E8AFF849D4B650DF8B8B09CA94-2025-08-28-02-37-41","","null","","[]","null","",""
"","","","","","image-button-response","63","457611","0.0-12.0-1.0-0.2","F06A59E8AFF849D4B650DF8B8B09CA94","F06A59E8AFF849D4B650DF8B8B09CA94","0198ee45-4f77-7f85-afd1-d7c3c2bb50d9","0198ee3c-27ac-7803-a9ea-f3b4ad4ad678","{""num_scrambled_semantic"":""8"",""num_scrambled_causal"":""4"",""num_scrambled_schematic"":""4"",""participantId"":""F06A59E8AFF849D4B650DF8B8B09CA94"",""assignmentId"":""0198ee45-4f77-7f85-afd1-d7c3c2bb50d9"",""projectId"":""0198ee3c-27ac-7803-a9ea-f3b4ad4ad678""}","https://test12345.live/?num_scrambled_semantic=8&num_scrambled_causal=4&num_scrambled_schematic=4&participantId=F06A59E8AFF849D4B650DF8B8B09CA94&assignmentId=0198ee45-4f77-7f85-afd1-d7c3c2bb50d9&projectId=0198ee3c-27ac-7803-a9ea-f3b4ad4ad678","F06A59E8AFF849D4B650DF8B8B09CA94-2025-08-28-02-37-41","","null","","images/semantic_sequence/using_technology_semantic/using_technology_semantic_5.png","null","",""
"","","","","","image-button-response","64","458349","0.0-12.0-1.0-1.2","F06A59E8AFF849D4B650DF8B8B09CA94","F06A59E8AFF849D4B650DF8B8B09CA94","0198ee45-4f77-7f85-afd1-d7c3c2bb50d9","0198ee3c-27ac-7803-a9ea-f3b4ad4ad678","{""num_scrambled_semantic"":""8"",""num_scrambled_causal"":""4"",""num_scrambled_schematic"":""4"",""participantId"":""F06A59E8AFF849D4B650DF8B8B09CA94"",""assignmentId"":""0198ee45-4f77-7f85-afd1-d7c3c2bb50d9"",""projectId"":""0198ee3c-27ac-7803-a9ea-f3b4ad4ad678""}","https://test12345.live/?num_scrambled_semantic=8&num_scrambled_causal=4&num_scrambled_schematic=4&participantId=F06A59E8AFF849D4B650DF8B8B09CA94&assignmentId=0198ee45-4f77-7f85-afd1-d7c3c2bb50d9&projectId=0198ee3c-27ac-7803-a9ea-f3b4ad4ad678","F06A59E8AFF849D4B650DF8B8B09CA94-2025-08-28-02-37-41","","736","","images/semantic_sequence/using_technology_semantic/using_technology_semantic_5.png","0","",""
"","","","","","image-button-response","65","460152","0.0-12.0-1.0-2.2","F06A59E8AFF849D4B650DF8B8B09CA94","F06A59E8AFF849D4B650DF8B8B09CA94","0198ee45-4f77-7f85-afd1-d7c3c2bb50d9","0198ee3c-27ac-7803-a9ea-f3b4ad4ad678","{""num_scrambled_semantic"":""8"",""num_scrambled_causal"":""4"",""num_scrambled_schematic"":""4"",""participantId"":""F06A59E8AFF849D4B650DF8B8B09CA94"",""assignmentId"":""0198ee45-4f77-7f85-afd1-d7c3c2bb50d9"",""projectId"":""0198ee3c-27ac-7803-a9ea-f3b4ad4ad678""}","https://test12345.live/?num_scrambled_semantic=8&num_scrambled_causal=4&num_scrambled_schematic=4&participantId=F06A59E8AFF849D4B650DF8B8B09CA94&assignmentId=0198ee45-4f77-7f85-afd1-d7c3c2bb50d9&projectId=0198ee3c-27ac-7803-a9ea-f3b4ad4ad678","F06A59E8AFF849D4B650DF8B8B09CA94-2025-08-28-02-37-41","","null","","[]","null","",""
"","","","","","image-button-response","66","464656","0.0-12.0-1.0-0.3","F06A59E8AFF849D4B650DF8B8B09CA94","F06A59E8AFF849D4B650DF8B8B09CA94","0198ee45-4f77-7f85-afd1-d7c3c2bb50d9","0198ee3c-27ac-7803-a9ea-f3b4ad4ad678","{""num_scrambled_semantic"":""8"",""num_scrambled_causal"":""4"",""num_scrambled_schematic"":""4"",""participantId"":""F06A59E8AFF849D4B650DF8B8B09CA94"",""assignmentId"":""0198ee45-4f77-7f85-afd1-d7c3c2bb50d9"",""projectId"":""0198ee3c-27ac-7803-a9ea-f3b4ad4ad678""}","https://test12345.live/?num_scrambled_semantic=8&num_scrambled_causal=4&num_scrambled_schematic=4&participantId=F06A59E8AFF849D4B650DF8B8B09CA94&assignmentId=0198ee45-4f77-7f85-afd1-d7c3c2bb50d9&projectId=0198ee3c-27ac-7803-a9ea-f3b4ad4ad678","F06A59E8AFF849D4B650DF8B8B09CA94-2025-08-28-02-37-41","","null","","images/semantic_sequence/using_technology_semantic/using_technology_semantic_2.png","null","",""
"","","","","","image-button-response","67","465250","0.0-12.0-1.0-1.3","F06A59E8AFF849D4B650DF8B8B09CA94","F06A59E8AFF849D4B650DF8B8B09CA94","0198ee45-4f77-7f85-afd1-d7c3c2bb50d9","0198ee3c-27ac-7803-a9ea-f3b4ad4ad678","{""num_scrambled_semantic"":""8"",""num_scrambled_causal"":""4"",""num_scrambled_schematic"":""4"",""participantId"":""F06A59E8AFF849D4B650DF8B8B09CA94"",""assignmentId"":""0198ee45-4f77-7f85-afd1-d7c3c2bb50d9"",""projectId"":""0198ee3c-27ac-7803-a9ea-f3b4ad4ad678""}","https://test12345.live/?num_scrambled_semantic=8&num_scrambled_causal=4&num_scrambled_schematic=4&participantId=F06A59E8AFF849D4B650DF8B8B09CA94&assignmentId=0198ee45-4f77-7f85-afd1-d7c3c2bb50d9&projectId=0198ee3c-27ac-7803-a9ea-f3b4ad4ad678","F06A59E8AFF849D4B650DF8B8B09CA94-2025-08-28-02-37-41","","593","","images/semantic_sequence/using_technology_semantic/using_technology_semantic_2.png","0","",""
"","","","","","image-button-response","68","467055","0.0-12.0-1.0-2.3","F06A59E8AFF849D4B650DF8B8B09CA94","F06A59E8AFF849D4B650DF8B8B09CA94","0198ee45-4f77-7f85-afd1-d7c3c2bb50d9","0198ee3c-27ac-7803-a9ea-f3b4ad4ad678","{""num_scrambled_semantic"":""8"",""num_scrambled_causal"":""4"",""num_scrambled_schematic"":""4"",""participantId"":""F06A59E8AFF849D4B650DF8B8B09CA94"",""assignmentId"":""0198ee45-4f77-7f85-afd1-d7c3c2bb50d9"",""projectId"":""0198ee3c-27ac-7803-a9ea-f3b4ad4ad678""}","https://test12345.live/?num_scrambled_semantic=8&num_scrambled_causal=4&num_scrambled_schematic=4&participantId=F06A59E8AFF849D4B650DF8B8B09CA94&assignmentId=0198ee45-4f77-7f85-afd1-d7c3c2bb50d9&projectId=0198ee3c-27ac-7803-a9ea-f3b4ad4ad678","F06A59E8AFF849D4B650DF8B8B09CA94-2025-08-28-02-37-41","","null","","[]","null","",""
"","","","","","image-button-response","69","471560","0.0-12.0-1.0-0.4","F06A59E8AFF849D4B650DF8B8B09CA94","F06A59E8AFF849D4B650DF8B8B09CA94","0198ee45-4f77-7f85-afd1-d7c3c2bb50d9","0198ee3c-27ac-7803-a9ea-f3b4ad4ad678","{""num_scrambled_semantic"":""8"",""num_scrambled_causal"":""4"",""num_scrambled_schematic"":""4"",""participantId"":""F06A59E8AFF849D4B650DF8B8B09CA94"",""assignmentId"":""0198ee45-4f77-7f85-afd1-d7c3c2bb50d9"",""projectId"":""0198ee3c-27ac-7803-a9ea-f3b4ad4ad678""}","https://test12345.live/?num_scrambled_semantic=8&num_scrambled_causal=4&num_scrambled_schematic=4&participantId=F06A59E8AFF849D4B650DF8B8B09CA94&assignmentId=0198ee45-4f77-7f85-afd1-d7c3c2bb50d9&projectId=0198ee3c-27ac-7803-a9ea-f3b4ad4ad678","F06A59E8AFF849D4B650DF8B8B09CA94-2025-08-28-02-37-41","","null","","images/semantic_sequence/using_technology_semantic/using_technology_semantic_8.png","null","",""
"","","","","","image-button-response","70","472014","0.0-12.0-1.0-1.4","F06A59E8AFF849D4B650DF8B8B09CA94","F06A59E8AFF849D4B650DF8B8B09CA94","0198ee45-4f77-7f85-afd1-d7c3c2bb50d9","0198ee3c-27ac-7803-a9ea-f3b4ad4ad678","{""num_scrambled_semantic"":""8"",""num_scrambled_causal"":""4"",""num_scrambled_schematic"":""4"",""participantId"":""F06A59E8AFF849D4B650DF8B8B09CA94"",""assignmentId"":""0198ee45-4f77-7f85-afd1-d7c3c2bb50d9"",""projectId"":""0198ee3c-27ac-7803-a9ea-f3b4ad4ad678""}","https://test12345.live/?num_scrambled_semantic=8&num_scrambled_causal=4&num_scrambled_schematic=4&participantId=F06A59E8AFF849D4B650DF8B8B09CA94&assignmentId=0198ee45-4f77-7f85-afd1-d7c3c2bb50d9&projectId=0198ee3c-27ac-7803-a9ea-f3b4ad4ad678","F06A59E8AFF849D4B650DF8B8B09CA94-2025-08-28-02-37-41","","452","","images/semantic_sequence/using_technology_semantic/using_technology_semantic_8.png","0","",""
"","","","","","image-button-response","71","473820","0.0-12.0-1.0-2.4","F06A59E8AFF849D4B650DF8B8B09CA94","F06A59E8AFF849D4B650DF8B8B09CA94","0198ee45-4f77-7f85-afd1-d7c3c2bb50d9","0198ee3c-27ac-7803-a9ea-f3b4ad4ad678","{""num_scrambled_semantic"":""8"",""num_scrambled_causal"":""4"",""num_scrambled_schematic"":""4"",""participantId"":""F06A59E8AFF849D4B650DF8B8B09CA94"",""assignmentId"":""0198ee45-4f77-7f85-afd1-d7c3c2bb50d9"",""projectId"":""0198ee3c-27ac-7803-a9ea-f3b4ad4ad678""}","https://test12345.live/?num_scrambled_semantic=8&num_scrambled_causal=4&num_scrambled_schematic=4&participantId=F06A59E8AFF849D4B650DF8B8B09CA94&assignmentId=0198ee45-4f77-7f85-afd1-d7c3c2bb50d9&projectId=0198ee3c-27ac-7803-a9ea-f3b4ad4ad678","F06A59E8AFF849D4B650DF8B8B09CA94-2025-08-28-02-37-41","","null","","[]","null","",""
"","","","","","image-button-response","72","478325","0.0-12.0-1.0-0.5","F06A59E8AFF849D4B650DF8B8B09CA94","F06A59E8AFF849D4B650DF8B8B09CA94","0198ee45-4f77-7f85-afd1-d7c3c2bb50d9","0198ee3c-27ac-7803-a9ea-f3b4ad4ad678","{""num_scrambled_semantic"":""8"",""num_scrambled_causal"":""4"",""num_scrambled_schematic"":""4"",""participantId"":""F06A59E8AFF849D4B650DF8B8B09CA94"",""assignmentId"":""0198ee45-4f77-7f85-afd1-d7c3c2bb50d9"",""projectId"":""0198ee3c-27ac-7803-a9ea-f3b4ad4ad678""}","https://test12345.live/?num_scrambled_semantic=8&num_scrambled_causal=4&num_scrambled_schematic=4&participantId=F06A59E8AFF849D4B650DF8B8B09CA94&assignmentId=0198ee45-4f77-7f85-afd1-d7c3c2bb50d9&projectId=0198ee3c-27ac-7803-a9ea-f3b4ad4ad678","F06A59E8AFF849D4B650DF8B8B09CA94-2025-08-28-02-37-41","","null","","images/semantic_sequence/using_technology_semantic/using_technology_semantic_7.png","null","",""
"","","","","","image-button-response","73","478959","0.0-12.0-1.0-1.5","F06A59E8AFF849D4B650DF8B8B09CA94","F06A59E8AFF849D4B650DF8B8B09CA94","0198ee45-4f77-7f85-afd1-d7c3c2bb50d9","0198ee3c-27ac-7803-a9ea-f3b4ad4ad678","{""num_scrambled_semantic"":""8"",""num_scrambled_causal"":""4"",""num_scrambled_schematic"":""4"",""participantId"":""F06A59E8AFF849D4B650DF8B8B09CA94"",""assignmentId"":""0198ee45-4f77-7f85-afd1-d7c3c2bb50d9"",""projectId"":""0198ee3c-27ac-7803-a9ea-f3b4ad4ad678""}","https://test12345.live/?num_scrambled_semantic=8&num_scrambled_causal=4&num_scrambled_schematic=4&participantId=F06A59E8AFF849D4B650DF8B8B09CA94&assignmentId=0198ee45-4f77-7f85-afd1-d7c3c2bb50d9&projectId=0198ee3c-27ac-7803-a9ea-f3b4ad4ad678","F06A59E8AFF849D4B650DF8B8B09CA94-2025-08-28-02-37-41","","633","","images/semantic_sequence/using_technology_semantic/using_technology_semantic_7.png","0","",""
"","","","","","image-button-response","74","480765","0.0-12.0-1.0-2.5","F06A59E8AFF849D4B650DF8B8B09CA94","F06A59E8AFF849D4B650DF8B8B09CA94","0198ee45-4f77-7f85-afd1-d7c3c2bb50d9","0198ee3c-27ac-7803-a9ea-f3b4ad4ad678","{""num_scrambled_semantic"":""8"",""num_scrambled_causal"":""4"",""num_scrambled_schematic"":""4"",""participantId"":""F06A59E8AFF849D4B650DF8B8B09CA94"",""assignmentId"":""0198ee45-4f77-7f85-afd1-d7c3c2bb50d9"",""projectId"":""0198ee3c-27ac-7803-a9ea-f3b4ad4ad678""}","https://test12345.live/?num_scrambled_semantic=8&num_scrambled_causal=4&num_scrambled_schematic=4&participantId=F06A59E8AFF849D4B650DF8B8B09CA94&assignmentId=0198ee45-4f77-7f85-afd1-d7c3c2bb50d9&projectId=0198ee3c-27ac-7803-a9ea-f3b4ad4ad678","F06A59E8AFF849D4B650DF8B8B09CA94-2025-08-28-02-37-41","","null","","[]","null","",""
"","","","","","image-button-response","75","485271","0.0-12.0-1.0-0.6","F06A59E8AFF849D4B650DF8B8B09CA94","F06A59E8AFF849D4B650DF8B8B09CA94","0198ee45-4f77-7f85-afd1-d7c3c2bb50d9","0198ee3c-27ac-7803-a9ea-f3b4ad4ad678","{""num_scrambled_semantic"":""8"",""num_scrambled_causal"":""4"",""num_scrambled_schematic"":""4"",""participantId"":""F06A59E8AFF849D4B650DF8B8B09CA94"",""assignmentId"":""0198ee45-4f77-7f85-afd1-d7c3c2bb50d9"",""projectId"":""0198ee3c-27ac-7803-a9ea-f3b4ad4ad678""}","https://test12345.live/?num_scrambled_semantic=8&num_scrambled_causal=4&num_scrambled_schematic=4&participantId=F06A59E8AFF849D4B650DF8B8B09CA94&assignmentId=0198ee45-4f77-7f85-afd1-d7c3c2bb50d9&projectId=0198ee3c-27ac-7803-a9ea-f3b4ad4ad678","F06A59E8AFF849D4B650DF8B8B09CA94-2025-08-28-02-37-41","","null","","images/semantic_sequence/using_technology_semantic/using_technology_semantic_9.png","null","",""
"","","","","","image-button-response","76","486114","0.0-12.0-1.0-1.6","F06A59E8AFF849D4B650DF8B8B09CA94","F06A59E8AFF849D4B650DF8B8B09CA94","0198ee45-4f77-7f85-afd1-d7c3c2bb50d9","0198ee3c-27ac-7803-a9ea-f3b4ad4ad678","{""num_scrambled_semantic"":""8"",""num_scrambled_causal"":""4"",""num_scrambled_schematic"":""4"",""participantId"":""F06A59E8AFF849D4B650DF8B8B09CA94"",""assignmentId"":""0198ee45-4f77-7f85-afd1-d7c3c2bb50d9"",""projectId"":""0198ee3c-27ac-7803-a9ea-f3b4ad4ad678""}","https://test12345.live/?num_scrambled_semantic=8&num_scrambled_causal=4&num_scrambled_schematic=4&participantId=F06A59E8AFF849D4B650DF8B8B09CA94&assignmentId=0198ee45-4f77-7f85-afd1-d7c3c2bb50d9&projectId=0198ee3c-27ac-7803-a9ea-f3b4ad4ad678","F06A59E8AFF849D4B650DF8B8B09CA94-2025-08-28-02-37-41","","843","","images/semantic_sequence/using_technology_semantic/using_technology_semantic_9.png","0","",""
"","","","","","image-button-response","77","487920","0.0-12.0-1.0-2.6","F06A59E8AFF849D4B650DF8B8B09CA94","F06A59E8AFF849D4B650DF8B8B09CA94","0198ee45-4f77-7f85-afd1-d7c3c2bb50d9","0198ee3c-27ac-7803-a9ea-f3b4ad4ad678","{""num_scrambled_semantic"":""8"",""num_scrambled_causal"":""4"",""num_scrambled_schematic"":""4"",""participantId"":""F06A59E8AFF849D4B650DF8B8B09CA94"",""assignmentId"":""0198ee45-4f77-7f85-afd1-d7c3c2bb50d9"",""projectId"":""0198ee3c-27ac-7803-a9ea-f3b4ad4ad678""}","https://test12345.live/?num_scrambled_semantic=8&num_scrambled_causal=4&num_scrambled_schematic=4&participantId=F06A59E8AFF849D4B650DF8B8B09CA94&assignmentId=0198ee45-4f77-7f85-afd1-d7c3c2bb50d9&projectId=0198ee3c-27ac-7803-a9ea-f3b4ad4ad678","F06A59E8AFF849D4B650DF8B8B09CA94-2025-08-28-02-37-41","","null","","[]","null","",""
"","","","","","image-button-response","78","492425","0.0-12.0-1.0-0.7","F06A59E8AFF849D4B650DF8B8B09CA94","F06A59E8AFF849D4B650DF8B8B09CA94","0198ee45-4f77-7f85-afd1-d7c3c2bb50d9","0198ee3c-27ac-7803-a9ea-f3b4ad4ad678","{""num_scrambled_semantic"":""8"",""num_scrambled_causal"":""4"",""num_scrambled_schematic"":""4"",""participantId"":""F06A59E8AFF849D4B650DF8B8B09CA94"",""assignmentId"":""0198ee45-4f77-7f85-afd1-d7c3c2bb50d9"",""projectId"":""0198ee3c-27ac-7803-a9ea-f3b4ad4ad678""}","https://test12345.live/?num_scrambled_semantic=8&num_scrambled_causal=4&num_scrambled_schematic=4&participantId=F06A59E8AFF849D4B650DF8B8B09CA94&assignmentId=0198ee45-4f77-7f85-afd1-d7c3c2bb50d9&projectId=0198ee3c-27ac-7803-a9ea-f3b4ad4ad678","F06A59E8AFF849D4B650DF8B8B09CA94-2025-08-28-02-37-41","","null","","images/semantic_sequence/using_technology_semantic/using_technology_semantic_1.png","null","",""
"","","","","","image-button-response","79","492984","0.0-12.0-1.0-1.7","F06A59E8AFF849D4B650DF8B8B09CA94","F06A59E8AFF849D4B650DF8B8B09CA94","0198ee45-4f77-7f85-afd1-d7c3c2bb50d9","0198ee3c-27ac-7803-a9ea-f3b4ad4ad678","{""num_scrambled_semantic"":""8"",""num_scrambled_causal"":""4"",""num_scrambled_schematic"":""4"",""participantId"":""F06A59E8AFF849D4B650DF8B8B09CA94"",""assignmentId"":""0198ee45-4f77-7f85-afd1-d7c3c2bb50d9"",""projectId"":""0198ee3c-27ac-7803-a9ea-f3b4ad4ad678""}","https://test12345.live/?num_scrambled_semantic=8&num_scrambled_causal=4&num_scrambled_schematic=4&participantId=F06A59E8AFF849D4B650DF8B8B09CA94&assignmentId=0198ee45-4f77-7f85-afd1-d7c3c2bb50d9&projectId=0198ee3c-27ac-7803-a9ea-f3b4ad4ad678","F06A59E8AFF849D4B650DF8B8B09CA94-2025-08-28-02-37-41","","559","","images/semantic_sequence/using_technology_semantic/using_technology_semantic_1.png","0","",""
"","","","","","image-button-response","80","494790","0.0-12.0-1.0-2.7","F06A59E8AFF849D4B650DF8B8B09CA94","F06A59E8AFF849D4B650DF8B8B09CA94","0198ee45-4f77-7f85-afd1-d7c3c2bb50d9","0198ee3c-27ac-7803-a9ea-f3b4ad4ad678","{""num_scrambled_semantic"":""8"",""num_scrambled_causal"":""4"",""num_scrambled_schematic"":""4"",""participantId"":""F06A59E8AFF849D4B650DF8B8B09CA94"",""assignmentId"":""0198ee45-4f77-7f85-afd1-d7c3c2bb50d9"",""projectId"":""0198ee3c-27ac-7803-a9ea-f3b4ad4ad678""}","https://test12345.live/?num_scrambled_semantic=8&num_scrambled_causal=4&num_scrambled_schematic=4&participantId=F06A59E8AFF849D4B650DF8B8B09CA94&assignmentId=0198ee45-4f77-7f85-afd1-d7c3c2bb50d9&projectId=0198ee3c-27ac-7803-a9ea-f3b4ad4ad678","F06A59E8AFF849D4B650DF8B8B09CA94-2025-08-28-02-37-41","","null","","[]","null","",""
"","","","","","image-button-response","81","499295","0.0-12.0-1.0-0.8","F06A59E8AFF849D4B650DF8B8B09CA94","F06A59E8AFF849D4B650DF8B8B09CA94","0198ee45-4f77-7f85-afd1-d7c3c2bb50d9","0198ee3c-27ac-7803-a9ea-f3b4ad4ad678","{""num_scrambled_semantic"":""8"",""num_scrambled_causal"":""4"",""num_scrambled_schematic"":""4"",""participantId"":""F06A59E8AFF849D4B650DF8B8B09CA94"",""assignmentId"":""0198ee45-4f77-7f85-afd1-d7c3c2bb50d9"",""projectId"":""0198ee3c-27ac-7803-a9ea-f3b4ad4ad678""}","https://test12345.live/?num_scrambled_semantic=8&num_scrambled_causal=4&num_scrambled_schematic=4&participantId=F06A59E8AFF849D4B650DF8B8B09CA94&assignmentId=0198ee45-4f77-7f85-afd1-d7c3c2bb50d9&projectId=0198ee3c-27ac-7803-a9ea-f3b4ad4ad678","F06A59E8AFF849D4B650DF8B8B09CA94-2025-08-28-02-37-41","","null","","images/semantic_sequence/using_technology_semantic/using_technology_semantic_ten.png","null","",""
"","","","","","image-button-response","82","500257","0.0-12.0-1.0-1.8","F06A59E8AFF849D4B650DF8B8B09CA94","F06A59E8AFF849D4B650DF8B8B09CA94","0198ee45-4f77-7f85-afd1-d7c3c2bb50d9","0198ee3c-27ac-7803-a9ea-f3b4ad4ad678","{""num_scrambled_semantic"":""8"",""num_scrambled_causal"":""4"",""num_scrambled_schematic"":""4"",""participantId"":""F06A59E8AFF849D4B650DF8B8B09CA94"",""assignmentId"":""0198ee45-4f77-7f85-afd1-d7c3c2bb50d9"",""projectId"":""0198ee3c-27ac-7803-a9ea-f3b4ad4ad678""}","https://test12345.live/?num_scrambled_semantic=8&num_scrambled_causal=4&num_scrambled_schematic=4&participantId=F06A59E8AFF849D4B650DF8B8B09CA94&assignmentId=0198ee45-4f77-7f85-afd1-d7c3c2bb50d9&projectId=0198ee3c-27ac-7803-a9ea-f3b4ad4ad678","F06A59E8AFF849D4B650DF8B8B09CA94-2025-08-28-02-37-41","","962","","images/semantic_sequence/using_technology_semantic/using_technology_semantic_ten.png","0","",""
"","","","","","image-button-response","83","502063","0.0-12.0-1.0-2.8","F06A59E8AFF849D4B650DF8B8B09CA94","F06A59E8AFF849D4B650DF8B8B09CA94","0198ee45-4f77-7f85-afd1-d7c3c2bb50d9","0198ee3c-27ac-7803-a9ea-f3b4ad4ad678","{""num_scrambled_semantic"":""8"",""num_scrambled_causal"":""4"",""num_scrambled_schematic"":""4"",""participantId"":""F06A59E8AFF849D4B650DF8B8B09CA94"",""assignmentId"":""0198ee45-4f77-7f85-afd1-d7c3c2bb50d9"",""projectId"":""0198ee3c-27ac-7803-a9ea-f3b4ad4ad678""}","https://test12345.live/?num_scrambled_semantic=8&num_scrambled_causal=4&num_scrambled_schematic=4&participantId=F06A59E8AFF849D4B650DF8B8B09CA94&assignmentId=0198ee45-4f77-7f85-afd1-d7c3c2bb50d9&projectId=0198ee3c-27ac-7803-a9ea-f3b4ad4ad678","F06A59E8AFF849D4B650DF8B8B09CA94-2025-08-28-02-37-41","","null","","[]","null","",""
"","","","","","image-button-response","84","506567","0.0-12.0-1.0-0.9","F06A59E8AFF849D4B650DF8B8B09CA94","F06A59E8AFF849D4B650DF8B8B09CA94","0198ee45-4f77-7f85-afd1-d7c3c2bb50d9","0198ee3c-27ac-7803-a9ea-f3b4ad4ad678","{""num_scrambled_semantic"":""8"",""num_scrambled_causal"":""4"",""num_scrambled_schematic"":""4"",""participantId"":""F06A59E8AFF849D4B650DF8B8B09CA94"",""assignmentId"":""0198ee45-4f77-7f85-afd1-d7c3c2bb50d9"",""projectId"":""0198ee3c-27ac-7803-a9ea-f3b4ad4ad678""}","https://test12345.live/?num_scrambled_semantic=8&num_scrambled_causal=4&num_scrambled_schematic=4&participantId=F06A59E8AFF849D4B650DF8B8B09CA94&assignmentId=0198ee45-4f77-7f85-afd1-d7c3c2bb50d9&projectId=0198ee3c-27ac-7803-a9ea-f3b4ad4ad678","F06A59E8AFF849D4B650DF8B8B09CA94-2025-08-28-02-37-41","","null","","images/semantic_sequence/using_technology_semantic/using_technology_semantic_6.png","null","",""
"","","","","","image-button-response","85","507422","0.0-12.0-1.0-1.9","F06A59E8AFF849D4B650DF8B8B09CA94","F06A59E8AFF849D4B650DF8B8B09CA94","0198ee45-4f77-7f85-afd1-d7c3c2bb50d9","0198ee3c-27ac-7803-a9ea-f3b4ad4ad678","{""num_scrambled_semantic"":""8"",""num_scrambled_causal"":""4"",""num_scrambled_schematic"":""4"",""participantId"":""F06A59E8AFF849D4B650DF8B8B09CA94"",""assignmentId"":""0198ee45-4f77-7f85-afd1-d7c3c2bb50d9"",""projectId"":""0198ee3c-27ac-7803-a9ea-f3b4ad4ad678""}","https://test12345.live/?num_scrambled_semantic=8&num_scrambled_causal=4&num_scrambled_schematic=4&participantId=F06A59E8AFF849D4B650DF8B8B09CA94&assignmentId=0198ee45-4f77-7f85-afd1-d7c3c2bb50d9&projectId=0198ee3c-27ac-7803-a9ea-f3b4ad4ad678","F06A59E8AFF849D4B650DF8B8B09CA94-2025-08-28-02-37-41","","854","","images/semantic_sequence/using_technology_semantic/using_technology_semantic_6.png","0","",""
"","","","","","image-button-response","86","509227","0.0-12.0-1.0-2.9","F06A59E8AFF849D4B650DF8B8B09CA94","F06A59E8AFF849D4B650DF8B8B09CA94","0198ee45-4f77-7f85-afd1-d7c3c2bb50d9","0198ee3c-27ac-7803-a9ea-f3b4ad4ad678","{""num_scrambled_semantic"":""8"",""num_scrambled_causal"":""4"",""num_scrambled_schematic"":""4"",""participantId"":""F06A59E8AFF849D4B650DF8B8B09CA94"",""assignmentId"":""0198ee45-4f77-7f85-afd1-d7c3c2bb50d9"",""projectId"":""0198ee3c-27ac-7803-a9ea-f3b4ad4ad678""}","https://test12345.live/?num_scrambled_semantic=8&num_scrambled_causal=4&num_scrambled_schematic=4&participantId=F06A59E8AFF849D4B650DF8B8B09CA94&assignmentId=0198ee45-4f77-7f85-afd1-d7c3c2bb50d9&projectId=0198ee3c-27ac-7803-a9ea-f3b4ad4ad678","F06A59E8AFF849D4B650DF8B8B09CA94-2025-08-28-02-37-41","","null","","[]","null","",""
"","","","","","html-audio-response","87","638157","0.0-13.0","F06A59E8AFF849D4B650DF8B8B09CA94","F06A59E8AFF849D4B650DF8B8B09CA94","0198ee45-4f77-7f85-afd1-d7c3c2bb50d9","0198ee3c-27ac-7803-a9ea-f3b4ad4ad678","{""num_scrambled_semantic"":""8"",""num_scrambled_causal"":""4"",""num_scrambled_schematic"":""4"",""participantId"":""F06A59E8AFF849D4B650DF8B8B09CA94"",""assignmentId"":""0198ee45-4f77-7f85-afd1-d7c3c2bb50d9"",""projectId"":""0198ee3c-27ac-7803-a9ea-f3b4ad4ad678""}","https://test12345.live/?num_scrambled_semantic=8&num_scrambled_causal=4&num_scrambled_schematic=4&participantId=F06A59E8AFF849D4B650DF8B8B09CA94&assignmentId=0198ee45-4f77-7f85-afd1-d7c3c2bb50d9&projectId=0198ee3c-27ac-7803-a9ea-f3b4ad4ad678","F06A59E8AFF849D4B650DF8B8B09CA94-2025-08-28-02-37-41","","15485","","[""<span style=\""color: red; font-size: 24px\""> NOW RECORDING</span><p>Please say out loud all the images you saw, in the order of the story they create. Try to recall the sequence of events as they appeared in the story, not necessarily the order they were presented on the screen.</p>""]","","2","using_technology_semantic"
"","","","","","image-button-response","88","644172","0.0-14.0-0.0","F06A59E8AFF849D4B650DF8B8B09CA94","F06A59E8AFF849D4B650DF8B8B09CA94","0198ee45-4f77-7f85-afd1-d7c3c2bb50d9","0198ee3c-27ac-7803-a9ea-f3b4ad4ad678","{""num_scrambled_semantic"":""8"",""num_scrambled_causal"":""4"",""num_scrambled_schematic"":""4"",""participantId"":""F06A59E8AFF849D4B650DF8B8B09CA94"",""assignmentId"":""0198ee45-4f77-7f85-afd1-d7c3c2bb50d9"",""projectId"":""0198ee3c-27ac-7803-a9ea-f3b4ad4ad678""}","https://test12345.live/?num_scrambled_semantic=8&num_scrambled_causal=4&num_scrambled_schematic=4&participantId=F06A59E8AFF849D4B650DF8B8B09CA94&assignmentId=0198ee45-4f77-7f85-afd1-d7c3c2bb50d9&projectId=0198ee3c-27ac-7803-a9ea-f3b4ad4ad678","F06A59E8AFF849D4B650DF8B8B09CA94-2025-08-28-02-37-41","","null","","images/semantic_sequence/physical_activity_semantic/physical_activity_semantic_0.png","null","",""
"","","","","","image-button-response","89","648678","0.0-14.0-1.0-0.0","F06A59E8AFF849D4B650DF8B8B09CA94","F06A59E8AFF849D4B650DF8B8B09CA94","0198ee45-4f77-7f85-afd1-d7c3c2bb50d9","0198ee3c-27ac-7803-a9ea-f3b4ad4ad678","{""num_scrambled_semantic"":""8"",""num_scrambled_causal"":""4"",""num_scrambled_schematic"":""4"",""participantId"":""F06A59E8AFF849D4B650DF8B8B09CA94"",""assignmentId"":""0198ee45-4f77-7f85-afd1-d7c3c2bb50d9"",""projectId"":""0198ee3c-27ac-7803-a9ea-f3b4ad4ad678""}","https://test12345.live/?num_scrambled_semantic=8&num_scrambled_causal=4&num_scrambled_schematic=4&participantId=F06A59E8AFF849D4B650DF8B8B09CA94&assignmentId=0198ee45-4f77-7f85-afd1-d7c3c2bb50d9&projectId=0198ee3c-27ac-7803-a9ea-f3b4ad4ad678","F06A59E8AFF849D4B650DF8B8B09CA94-2025-08-28-02-37-41","","null","","images/semantic_sequence/physical_activity_semantic/physical_activity_semantic_6.png","null","",""
"","","","","","image-button-response","90","651567","0.0-14.0-1.0-1.0","F06A59E8AFF849D4B650DF8B8B09CA94","F06A59E8AFF849D4B650DF8B8B09CA94","0198ee45-4f77-7f85-afd1-d7c3c2bb50d9","0198ee3c-27ac-7803-a9ea-f3b4ad4ad678","{""num_scrambled_semantic"":""8"",""num_scrambled_causal"":""4"",""num_scrambled_schematic"":""4"",""participantId"":""F06A59E8AFF849D4B650DF8B8B09CA94"",""assignmentId"":""0198ee45-4f77-7f85-afd1-d7c3c2bb50d9"",""projectId"":""0198ee3c-27ac-7803-a9ea-f3b4ad4ad678""}","https://test12345.live/?num_scrambled_semantic=8&num_scrambled_causal=4&num_scrambled_schematic=4&participantId=F06A59E8AFF849D4B650DF8B8B09CA94&assignmentId=0198ee45-4f77-7f85-afd1-d7c3c2bb50d9&projectId=0198ee3c-27ac-7803-a9ea-f3b4ad4ad678","F06A59E8AFF849D4B650DF8B8B09CA94-2025-08-28-02-37-41","","2888","","images/semantic_sequence/physical_activity_semantic/physical_activity_semantic_6.png","0","",""
"","","","","","image-button-response","91","653373","0.0-14.0-1.0-2.0","F06A59E8AFF849D4B650DF8B8B09CA94","F06A59E8AFF849D4B650DF8B8B09CA94","0198ee45-4f77-7f85-afd1-d7c3c2bb50d9","0198ee3c-27ac-7803-a9ea-f3b4ad4ad678","{""num_scrambled_semantic"":""8"",""num_scrambled_causal"":""4"",""num_scrambled_schematic"":""4"",""participantId"":""F06A59E8AFF849D4B650DF8B8B09CA94"",""assignmentId"":""0198ee45-4f77-7f85-afd1-d7c3c2bb50d9"",""projectId"":""0198ee3c-27ac-7803-a9ea-f3b4ad4ad678""}","https://test12345.live/?num_scrambled_semantic=8&num_scrambled_causal=4&num_scrambled_schematic=4&participantId=F06A59E8AFF849D4B650DF8B8B09CA94&assignmentId=0198ee45-4f77-7f85-afd1-d7c3c2bb50d9&projectId=0198ee3c-27ac-7803-a9ea-f3b4ad4ad678","F06A59E8AFF849D4B650DF8B8B09CA94-2025-08-28-02-37-41","","null","","[]","null","",""
"","","","","","image-button-response","92","657875","0.0-14.0-1.0-0.1","F06A59E8AFF849D4B650DF8B8B09CA94","F06A59E8AFF849D4B650DF8B8B09CA94","0198ee45-4f77-7f85-afd1-d7c3c2bb50d9","0198ee3c-27ac-7803-a9ea-f3b4ad4ad678","{""num_scrambled_semantic"":""8"",""num_scrambled_causal"":""4"",""num_scrambled_schematic"":""4"",""participantId"":""F06A59E8AFF849D4B650DF8B8B09CA94"",""assignmentId"":""0198ee45-4f77-7f85-afd1-d7c3c2bb50d9"",""projectId"":""0198ee3c-27ac-7803-a9ea-f3b4ad4ad678""}","https://test12345.live/?num_scrambled_semantic=8&num_scrambled_causal=4&num_scrambled_schematic=4&participantId=F06A59E8AFF849D4B650DF8B8B09CA94&assignmentId=0198ee45-4f77-7f85-afd1-d7c3c2bb50d9&projectId=0198ee3c-27ac-7803-a9ea-f3b4ad4ad678","F06A59E8AFF849D4B650DF8B8B09CA94-2025-08-28-02-37-41","","null","","images/semantic_sequence/physical_activity_semantic/physical_activity_semantic_7.png","null","",""
"","","","","","image-button-response","93","658844","0.0-14.0-1.0-1.1","F06A59E8AFF849D4B650DF8B8B09CA94","F06A59E8AFF849D4B650DF8B8B09CA94","0198ee45-4f77-7f85-afd1-d7c3c2bb50d9","0198ee3c-27ac-7803-a9ea-f3b4ad4ad678","{""num_scrambled_semantic"":""8"",""num_scrambled_causal"":""4"",""num_scrambled_schematic"":""4"",""participantId"":""F06A59E8AFF849D4B650DF8B8B09CA94"",""assignmentId"":""0198ee45-4f77-7f85-afd1-d7c3c2bb50d9"",""projectId"":""0198ee3c-27ac-7803-a9ea-f3b4ad4ad678""}","https://test12345.live/?num_scrambled_semantic=8&num_scrambled_causal=4&num_scrambled_schematic=4&participantId=F06A59E8AFF849D4B650DF8B8B09CA94&assignmentId=0198ee45-4f77-7f85-afd1-d7c3c2bb50d9&projectId=0198ee3c-27ac-7803-a9ea-f3b4ad4ad678","F06A59E8AFF849D4B650DF8B8B09CA94-2025-08-28-02-37-41","","968","","images/semantic_sequence/physical_activity_semantic/physical_activity_semantic_7.png","0","",""
"","","","","","image-button-response","94","660650","0.0-14.0-1.0-2.1","F06A59E8AFF849D4B650DF8B8B09CA94","F06A59E8AFF849D4B650DF8B8B09CA94","0198ee45-4f77-7f85-afd1-d7c3c2bb50d9","0198ee3c-27ac-7803-a9ea-f3b4ad4ad678","{""num_scrambled_semantic"":""8"",""num_scrambled_causal"":""4"",""num_scrambled_schematic"":""4"",""participantId"":""F06A59E8AFF849D4B650DF8B8B09CA94"",""assignmentId"":""0198ee45-4f77-7f85-afd1-d7c3c2bb50d9"",""projectId"":""0198ee3c-27ac-7803-a9ea-f3b4ad4ad678""}","https://test12345.live/?num_scrambled_semantic=8&num_scrambled_causal=4&num_scrambled_schematic=4&participantId=F06A59E8AFF849D4B650DF8B8B09CA94&assignmentId=0198ee45-4f77-7f85-afd1-d7c3c2bb50d9&projectId=0198ee3c-27ac-7803-a9ea-f3b4ad4ad678","F06A59E8AFF849D4B650DF8B8B09CA94-2025-08-28-02-37-41","","null","","[]","null","",""
"","","","","","image-button-response","95","665155","0.0-14.0-1.0-0.2","F06A59E8AFF849D4B650DF8B8B09CA94","F06A59E8AFF849D4B650DF8B8B09CA94","0198ee45-4f77-7f85-afd1-d7c3c2bb50d9","0198ee3c-27ac-7803-a9ea-f3b4ad4ad678","{""num_scrambled_semantic"":""8"",""num_scrambled_causal"":""4"",""num_scrambled_schematic"":""4"",""participantId"":""F06A59E8AFF849D4B650DF8B8B09CA94"",""assignmentId"":""0198ee45-4f77-7f85-afd1-d7c3c2bb50d9"",""projectId"":""0198ee3c-27ac-7803-a9ea-f3b4ad4ad678""}","https://test12345.live/?num_scrambled_semantic=8&num_scrambled_causal=4&num_scrambled_schematic=4&participantId=F06A59E8AFF849D4B650DF8B8B09CA94&assignmentId=0198ee45-4f77-7f85-afd1-d7c3c2bb50d9&projectId=0198ee3c-27ac-7803-a9ea-f3b4ad4ad678","F06A59E8AFF849D4B650DF8B8B09CA94-2025-08-28-02-37-41","","null","","images/semantic_sequence/physical_activity_semantic/physical_activity_semantic_3.png","null","",""
"","","","","","image-button-response","96","665983","0.0-14.0-1.0-1.2","F06A59E8AFF849D4B650DF8B8B09CA94","F06A59E8AFF849D4B650DF8B8B09CA94","0198ee45-4f77-7f85-afd1-d7c3c2bb50d9","0198ee3c-27ac-7803-a9ea-f3b4ad4ad678","{""num_scrambled_semantic"":""8"",""num_scrambled_causal"":""4"",""num_scrambled_schematic"":""4"",""participantId"":""F06A59E8AFF849D4B650DF8B8B09CA94"",""assignmentId"":""0198ee45-4f77-7f85-afd1-d7c3c2bb50d9"",""projectId"":""0198ee3c-27ac-7803-a9ea-f3b4ad4ad678""}","https://test12345.live/?num_scrambled_semantic=8&num_scrambled_causal=4&num_scrambled_schematic=4&participantId=F06A59E8AFF849D4B650DF8B8B09CA94&assignmentId=0198ee45-4f77-7f85-afd1-d7c3c2bb50d9&projectId=0198ee3c-27ac-7803-a9ea-f3b4ad4ad678","F06A59E8AFF849D4B650DF8B8B09CA94-2025-08-28-02-37-41","","826","","images/semantic_sequence/physical_activity_semantic/physical_activity_semantic_3.png","0","",""
"","","","","","image-button-response","97","667785","0.0-14.0-1.0-2.2","F06A59E8AFF849D4B650DF8B8B09CA94","F06A59E8AFF849D4B650DF8B8B09CA94","0198ee45-4f77-7f85-afd1-d7c3c2bb50d9","0198ee3c-27ac-7803-a9ea-f3b4ad4ad678","{""num_scrambled_semantic"":""8"",""num_scrambled_causal"":""4"",""num_scrambled_schematic"":""4"",""participantId"":""F06A59E8AFF849D4B650DF8B8B09CA94"",""assignmentId"":""0198ee45-4f77-7f85-afd1-d7c3c2bb50d9"",""projectId"":""0198ee3c-27ac-7803-a9ea-f3b4ad4ad678""}","https://test12345.live/?num_scrambled_semantic=8&num_scrambled_causal=4&num_scrambled_schematic=4&participantId=F06A59E8AFF849D4B650DF8B8B09CA94&assignmentId=0198ee45-4f77-7f85-afd1-d7c3c2bb50d9&projectId=0198ee3c-27ac-7803-a9ea-f3b4ad4ad678","F06A59E8AFF849D4B650DF8B8B09CA94-2025-08-28-02-37-41","","null","","[]","null","",""
"","","","","","image-button-response","98","672290","0.0-14.0-1.0-0.3","F06A59E8AFF849D4B650DF8B8B09CA94","F06A59E8AFF849D4B650DF8B8B09CA94","0198ee45-4f77-7f85-afd1-d7c3c2bb50d9","0198ee3c-27ac-7803-a9ea-f3b4ad4ad678","{""num_scrambled_semantic"":""8"",""num_scrambled_causal"":""4"",""num_scrambled_schematic"":""4"",""participantId"":""F06A59E8AFF849D4B650DF8B8B09CA94"",""assignmentId"":""0198ee45-4f77-7f85-afd1-d7c3c2bb50d9"",""projectId"":""0198ee3c-27ac-7803-a9ea-f3b4ad4ad678""}","https://test12345.live/?num_scrambled_semantic=8&num_scrambled_causal=4&num_scrambled_schematic=4&participantId=F06A59E8AFF849D4B650DF8B8B09CA94&assignmentId=0198ee45-4f77-7f85-afd1-d7c3c2bb50d9&projectId=0198ee3c-27ac-7803-a9ea-f3b4ad4ad678","F06A59E8AFF849D4B650DF8B8B09CA94-2025-08-28-02-37-41","","null","","images/semantic_sequence/physical_activity_semantic/physical_activity_semantic_ten.png","null","",""
"","","","","","image-button-response","99","673048","0.0-14.0-1.0-1.3","F06A59E8AFF849D4B650DF8B8B09CA94","F06A59E8AFF849D4B650DF8B8B09CA94","0198ee45-4f77-7f85-afd1-d7c3c2bb50d9","0198ee3c-27ac-7803-a9ea-f3b4ad4ad678","{""num_scrambled_semantic"":""8"",""num_scrambled_causal"":""4"",""num_scrambled_schematic"":""4"",""participantId"":""F06A59E8AFF849D4B650DF8B8B09CA94"",""assignmentId"":""0198ee45-4f77-7f85-afd1-d7c3c2bb50d9"",""projectId"":""0198ee3c-27ac-7803-a9ea-f3b4ad4ad678""}","https://test12345.live/?num_scrambled_semantic=8&num_scrambled_causal=4&num_scrambled_schematic=4&participantId=F06A59E8AFF849D4B650DF8B8B09CA94&assignmentId=0198ee45-4f77-7f85-afd1-d7c3c2bb50d9&projectId=0198ee3c-27ac-7803-a9ea-f3b4ad4ad678","F06A59E8AFF849D4B650DF8B8B09CA94-2025-08-28-02-37-41","","756","","images/semantic_sequence/physical_activity_semantic/physical_activity_semantic_ten.png","0","",""
"","","","","","image-button-response","100","674851","0.0-14.0-1.0-2.3","F06A59E8AFF849D4B650DF8B8B09CA94","F06A59E8AFF849D4B650DF8B8B09CA94","0198ee45-4f77-7f85-afd1-d7c3c2bb50d9","0198ee3c-27ac-7803-a9ea-f3b4ad4ad678","{""num_scrambled_semantic"":""8"",""num_scrambled_causal"":""4"",""num_scrambled_schematic"":""4"",""participantId"":""F06A59E8AFF849D4B650DF8B8B09CA94"",""assignmentId"":""0198ee45-4f77-7f85-afd1-d7c3c2bb50d9"",""projectId"":""0198ee3c-27ac-7803-a9ea-f3b4ad4ad678""}","https://test12345.live/?num_scrambled_semantic=8&num_scrambled_causal=4&num_scrambled_schematic=4&participantId=F06A59E8AFF849D4B650DF8B8B09CA94&assignmentId=0198ee45-4f77-7f85-afd1-d7c3c2bb50d9&projectId=0198ee3c-27ac-7803-a9ea-f3b4ad4ad678","F06A59E8AFF849D4B650DF8B8B09CA94-2025-08-28-02-37-41","","null","","[]","null","",""
"","","","","","image-button-response","101","679357","0.0-14.0-1.0-0.4","F06A59E8AFF849D4B650DF8B8B09CA94","F06A59E8AFF849D4B650DF8B8B09CA94","0198ee45-4f77-7f85-afd1-d7c3c2bb50d9","0198ee3c-27ac-7803-a9ea-f3b4ad4ad678","{""num_scrambled_semantic"":""8"",""num_scrambled_causal"":""4"",""num_scrambled_schematic"":""4"",""participantId"":""F06A59E8AFF849D4B650DF8B8B09CA94"",""assignmentId"":""0198ee45-4f77-7f85-afd1-d7c3c2bb50d9"",""projectId"":""0198ee3c-27ac-7803-a9ea-f3b4ad4ad678""}","https://test12345.live/?num_scrambled_semantic=8&num_scrambled_causal=4&num_scrambled_schematic=4&participantId=F06A59E8AFF849D4B650DF8B8B09CA94&assignmentId=0198ee45-4f77-7f85-afd1-d7c3c2bb50d9&projectId=0198ee3c-27ac-7803-a9ea-f3b4ad4ad678","F06A59E8AFF849D4B650DF8B8B09CA94-2025-08-28-02-37-41","","null","","images/semantic_sequence/physical_activity_semantic/physical_activity_semantic_2.png","null","",""
"","","","","","image-button-response","102","680097","0.0-14.0-1.0-1.4","F06A59E8AFF849D4B650DF8B8B09CA94","F06A59E8AFF849D4B650DF8B8B09CA94","0198ee45-4f77-7f85-afd1-d7c3c2bb50d9","0198ee3c-27ac-7803-a9ea-f3b4ad4ad678","{""num_scrambled_semantic"":""8"",""num_scrambled_causal"":""4"",""num_scrambled_schematic"":""4"",""participantId"":""F06A59E8AFF849D4B650DF8B8B09CA94"",""assignmentId"":""0198ee45-4f77-7f85-afd1-d7c3c2bb50d9"",""projectId"":""0198ee3c-27ac-7803-a9ea-f3b4ad4ad678""}","https://test12345.live/?num_scrambled_semantic=8&num_scrambled_causal=4&num_scrambled_schematic=4&participantId=F06A59E8AFF849D4B650DF8B8B09CA94&assignmentId=0198ee45-4f77-7f85-afd1-d7c3c2bb50d9&projectId=0198ee3c-27ac-7803-a9ea-f3b4ad4ad678","F06A59E8AFF849D4B650DF8B8B09CA94-2025-08-28-02-37-41","","738","","images/semantic_sequence/physical_activity_semantic/physical_activity_semantic_2.png","0","",""
"","","","","","image-button-response","103","681901","0.0-14.0-1.0-2.4","F06A59E8AFF849D4B650DF8B8B09CA94","F06A59E8AFF849D4B650DF8B8B09CA94","0198ee45-4f77-7f85-afd1-d7c3c2bb50d9","0198ee3c-27ac-7803-a9ea-f3b4ad4ad678","{""num_scrambled_semantic"":""8"",""num_scrambled_causal"":""4"",""num_scrambled_schematic"":""4"",""participantId"":""F06A59E8AFF849D4B650DF8B8B09CA94"",""assignmentId"":""0198ee45-4f77-7f85-afd1-d7c3c2bb50d9"",""projectId"":""0198ee3c-27ac-7803-a9ea-f3b4ad4ad678""}","https://test12345.live/?num_scrambled_semantic=8&num_scrambled_causal=4&num_scrambled_schematic=4&participantId=F06A59E8AFF849D4B650DF8B8B09CA94&assignmentId=0198ee45-4f77-7f85-afd1-d7c3c2bb50d9&projectId=0198ee3c-27ac-7803-a9ea-f3b4ad4ad678","F06A59E8AFF849D4B650DF8B8B09CA94-2025-08-28-02-37-41","","null","","[]","null","",""
"","","","","","image-button-response","104","686403","0.0-14.0-1.0-0.5","F06A59E8AFF849D4B650DF8B8B09CA94","F06A59E8AFF849D4B650DF8B8B09CA94","0198ee45-4f77-7f85-afd1-d7c3c2bb50d9","0198ee3c-27ac-7803-a9ea-f3b4ad4ad678","{""num_scrambled_semantic"":""8"",""num_scrambled_causal"":""4"",""num_scrambled_schematic"":""4"",""participantId"":""F06A59E8AFF849D4B650DF8B8B09CA94"",""assignmentId"":""0198ee45-4f77-7f85-afd1-d7c3c2bb50d9"",""projectId"":""0198ee3c-27ac-7803-a9ea-f3b4ad4ad678""}","https://test12345.live/?num_scrambled_semantic=8&num_scrambled_causal=4&num_scrambled_schematic=4&participantId=F06A59E8AFF849D4B650DF8B8B09CA94&assignmentId=0198ee45-4f77-7f85-afd1-d7c3c2bb50d9&projectId=0198ee3c-27ac-7803-a9ea-f3b4ad4ad678","F06A59E8AFF849D4B650DF8B8B09CA94-2025-08-28-02-37-41","","null","","images/semantic_sequence/physical_activity_semantic/physical_activity_semantic_1.png","null","",""
"","","","","","image-button-response","105","687059","0.0-14.0-1.0-1.5","F06A59E8AFF849D4B650DF8B8B09CA94","F06A59E8AFF849D4B650DF8B8B09CA94","0198ee45-4f77-7f85-afd1-d7c3c2bb50d9","0198ee3c-27ac-7803-a9ea-f3b4ad4ad678","{""num_scrambled_semantic"":""8"",""num_scrambled_causal"":""4"",""num_scrambled_schematic"":""4"",""participantId"":""F06A59E8AFF849D4B650DF8B8B09CA94"",""assignmentId"":""0198ee45-4f77-7f85-afd1-d7c3c2bb50d9"",""projectId"":""0198ee3c-27ac-7803-a9ea-f3b4ad4ad678""}","https://test12345.live/?num_scrambled_semantic=8&num_scrambled_causal=4&num_scrambled_schematic=4&participantId=F06A59E8AFF849D4B650DF8B8B09CA94&assignmentId=0198ee45-4f77-7f85-afd1-d7c3c2bb50d9&projectId=0198ee3c-27ac-7803-a9ea-f3b4ad4ad678","F06A59E8AFF849D4B650DF8B8B09CA94-2025-08-28-02-37-41","","654","","images/semantic_sequence/physical_activity_semantic/physical_activity_semantic_1.png","0","",""
"","","","","","image-button-response","106","688864","0.0-14.0-1.0-2.5","F06A59E8AFF849D4B650DF8B8B09CA94","F06A59E8AFF849D4B650DF8B8B09CA94","0198ee45-4f77-7f85-afd1-d7c3c2bb50d9","0198ee3c-27ac-7803-a9ea-f3b4ad4ad678","{""num_scrambled_semantic"":""8"",""num_scrambled_causal"":""4"",""num_scrambled_schematic"":""4"",""participantId"":""F06A59E8AFF849D4B650DF8B8B09CA94"",""assignmentId"":""0198ee45-4f77-7f85-afd1-d7c3c2bb50d9"",""projectId"":""0198ee3c-27ac-7803-a9ea-f3b4ad4ad678""}","https://test12345.live/?num_scrambled_semantic=8&num_scrambled_causal=4&num_scrambled_schematic=4&participantId=F06A59E8AFF849D4B650DF8B8B09CA94&assignmentId=0198ee45-4f77-7f85-afd1-d7c3c2bb50d9&projectId=0198ee3c-27ac-7803-a9ea-f3b4ad4ad678","F06A59E8AFF849D4B650DF8B8B09CA94-2025-08-28-02-37-41","","null","","[]","null","",""
"","","","","","image-button-response","107","693371","0.0-14.0-1.0-0.6","F06A59E8AFF849D4B650DF8B8B09CA94","F06A59E8AFF849D4B650DF8B8B09CA94","0198ee45-4f77-7f85-afd1-d7c3c2bb50d9","0198ee3c-27ac-7803-a9ea-f3b4ad4ad678","{""num_scrambled_semantic"":""8"",""num_scrambled_causal"":""4"",""num_scrambled_schematic"":""4"",""participantId"":""F06A59E8AFF849D4B650DF8B8B09CA94"",""assignmentId"":""0198ee45-4f77-7f85-afd1-d7c3c2bb50d9"",""projectId"":""0198ee3c-27ac-7803-a9ea-f3b4ad4ad678""}","https://test12345.live/?num_scrambled_semantic=8&num_scrambled_causal=4&num_scrambled_schematic=4&participantId=F06A59E8AFF849D4B650DF8B8B09CA94&assignmentId=0198ee45-4f77-7f85-afd1-d7c3c2bb50d9&projectId=0198ee3c-27ac-7803-a9ea-f3b4ad4ad678","F06A59E8AFF849D4B650DF8B8B09CA94-2025-08-28-02-37-41","","null","","images/semantic_sequence/physical_activity_semantic/physical_activity_semantic_8.png","null","",""
"","","","","","image-button-response","108","693974","0.0-14.0-1.0-1.6","F06A59E8AFF849D4B650DF8B8B09CA94","F06A59E8AFF849D4B650DF8B8B09CA94","0198ee45-4f77-7f85-afd1-d7c3c2bb50d9","0198ee3c-27ac-7803-a9ea-f3b4ad4ad678","{""num_scrambled_semantic"":""8"",""num_scrambled_causal"":""4"",""num_scrambled_schematic"":""4"",""participantId"":""F06A59E8AFF849D4B650DF8B8B09CA94"",""assignmentId"":""0198ee45-4f77-7f85-afd1-d7c3c2bb50d9"",""projectId"":""0198ee3c-27ac-7803-a9ea-f3b4ad4ad678""}","https://test12345.live/?num_scrambled_semantic=8&num_scrambled_causal=4&num_scrambled_schematic=4&participantId=F06A59E8AFF849D4B650DF8B8B09CA94&assignmentId=0198ee45-4f77-7f85-afd1-d7c3c2bb50d9&projectId=0198ee3c-27ac-7803-a9ea-f3b4ad4ad678","F06A59E8AFF849D4B650DF8B8B09CA94-2025-08-28-02-37-41","","601","","images/semantic_sequence/physical_activity_semantic/physical_activity_semantic_8.png","0","",""
"","","","","","image-button-response","109","695780","0.0-14.0-1.0-2.6","F06A59E8AFF849D4B650DF8B8B09CA94","F06A59E8AFF849D4B650DF8B8B09CA94","0198ee45-4f77-7f85-afd1-d7c3c2bb50d9","0198ee3c-27ac-7803-a9ea-f3b4ad4ad678","{""num_scrambled_semantic"":""8"",""num_scrambled_causal"":""4"",""num_scrambled_schematic"":""4"",""participantId"":""F06A59E8AFF849D4B650DF8B8B09CA94"",""assignmentId"":""0198ee45-4f77-7f85-afd1-d7c3c2bb50d9"",""projectId"":""0198ee3c-27ac-7803-a9ea-f3b4ad4ad678""}","https://test12345.live/?num_scrambled_semantic=8&num_scrambled_causal=4&num_scrambled_schematic=4&participantId=F06A59E8AFF849D4B650DF8B8B09CA94&assignmentId=0198ee45-4f77-7f85-afd1-d7c3c2bb50d9&projectId=0198ee3c-27ac-7803-a9ea-f3b4ad4ad678","F06A59E8AFF849D4B650DF8B8B09CA94-2025-08-28-02-37-41","","null","","[]","null","",""
"","","","","","image-button-response","110","700283","0.0-14.0-1.0-0.7","F06A59E8AFF849D4B650DF8B8B09CA94","F06A59E8AFF849D4B650DF8B8B09CA94","0198ee45-4f77-7f85-afd1-d7c3c2bb50d9","0198ee3c-27ac-7803-a9ea-f3b4ad4ad678","{""num_scrambled_semantic"":""8"",""num_scrambled_causal"":""4"",""num_scrambled_schematic"":""4"",""participantId"":""F06A59E8AFF849D4B650DF8B8B09CA94"",""assignmentId"":""0198ee45-4f77-7f85-afd1-d7c3c2bb50d9"",""projectId"":""0198ee3c-27ac-7803-a9ea-f3b4ad4ad678""}","https://test12345.live/?num_scrambled_semantic=8&num_scrambled_causal=4&num_scrambled_schematic=4&participantId=F06A59E8AFF849D4B650DF8B8B09CA94&assignmentId=0198ee45-4f77-7f85-afd1-d7c3c2bb50d9&projectId=0198ee3c-27ac-7803-a9ea-f3b4ad4ad678","F06A59E8AFF849D4B650DF8B8B09CA94-2025-08-28-02-37-41","","null","","images/semantic_sequence/physical_activity_semantic/physical_activity_semantic_9.png","null","",""
"","","","","","image-button-response","111","701114","0.0-14.0-1.0-1.7","F06A59E8AFF849D4B650DF8B8B09CA94","F06A59E8AFF849D4B650DF8B8B09CA94","0198ee45-4f77-7f85-afd1-d7c3c2bb50d9","0198ee3c-27ac-7803-a9ea-f3b4ad4ad678","{""num_scrambled_semantic"":""8"",""num_scrambled_causal"":""4"",""num_scrambled_schematic"":""4"",""participantId"":""F06A59E8AFF849D4B650DF8B8B09CA94"",""assignmentId"":""0198ee45-4f77-7f85-afd1-d7c3c2bb50d9"",""projectId"":""0198ee3c-27ac-7803-a9ea-f3b4ad4ad678""}","https://test12345.live/?num_scrambled_semantic=8&num_scrambled_causal=4&num_scrambled_schematic=4&participantId=F06A59E8AFF849D4B650DF8B8B09CA94&assignmentId=0198ee45-4f77-7f85-afd1-d7c3c2bb50d9&projectId=0198ee3c-27ac-7803-a9ea-f3b4ad4ad678","F06A59E8AFF849D4B650DF8B8B09CA94-2025-08-28-02-37-41","","829","","images/semantic_sequence/physical_activity_semantic/physical_activity_semantic_9.png","0","",""
"","","","","","image-button-response","112","702920","0.0-14.0-1.0-2.7","F06A59E8AFF849D4B650DF8B8B09CA94","F06A59E8AFF849D4B650DF8B8B09CA94","0198ee45-4f77-7f85-afd1-d7c3c2bb50d9","0198ee3c-27ac-7803-a9ea-f3b4ad4ad678","{""num_scrambled_semantic"":""8"",""num_scrambled_causal"":""4"",""num_scrambled_schematic"":""4"",""participantId"":""F06A59E8AFF849D4B650DF8B8B09CA94"",""assignmentId"":""0198ee45-4f77-7f85-afd1-d7c3c2bb50d9"",""projectId"":""0198ee3c-27ac-7803-a9ea-f3b4ad4ad678""}","https://test12345.live/?num_scrambled_semantic=8&num_scrambled_causal=4&num_scrambled_schematic=4&participantId=F06A59E8AFF849D4B650DF8B8B09CA94&assignmentId=0198ee45-4f77-7f85-afd1-d7c3c2bb50d9&projectId=0198ee3c-27ac-7803-a9ea-f3b4ad4ad678","F06A59E8AFF849D4B650DF8B8B09CA94-2025-08-28-02-37-41","","null","","[]","null","",""
"","","","","","image-button-response","113","707422","0.0-14.0-1.0-0.8","F06A59E8AFF849D4B650DF8B8B09CA94","F06A59E8AFF849D4B650DF8B8B09CA94","0198ee45-4f77-7f85-afd1-d7c3c2bb50d9","0198ee3c-27ac-7803-a9ea-f3b4ad4ad678","{""num_scrambled_semantic"":""8"",""num_scrambled_causal"":""4"",""num_scrambled_schematic"":""4"",""participantId"":""F06A59E8AFF849D4B650DF8B8B09CA94"",""assignmentId"":""0198ee45-4f77-7f85-afd1-d7c3c2bb50d9"",""projectId"":""0198ee3c-27ac-7803-a9ea-f3b4ad4ad678""}","https://test12345.live/?num_scrambled_semantic=8&num_scrambled_causal=4&num_scrambled_schematic=4&participantId=F06A59E8AFF849D4B650DF8B8B09CA94&assignmentId=0198ee45-4f77-7f85-afd1-d7c3c2bb50d9&projectId=0198ee3c-27ac-7803-a9ea-f3b4ad4ad678","F06A59E8AFF849D4B650DF8B8B09CA94-2025-08-28-02-37-41","","null","","images/semantic_sequence/physical_activity_semantic/physical_activity_semantic_4.png","null","",""
