"success","timeout","failed_images","failed_audio","failed_video","trial_type","trial_index","time_elapsed","internal_node_id","subject","subject_id","study_id","session_id","urlvar","current_url","audio_id","view_history","rt","device_id","stimulus","response","estimated_stimulus_onset","seq_name"
"true","false","[]","[]","[]","preload","0","29660","0.0-0.0","F22A38139CA34CA380C5E1036542E2DC","F22A38139CA34CA380C5E1036542E2DC","c7870d47-5d15-4273-bbe6-f1a00e7fce29","5e631737-0fa4-44a6-b227-7ba1d7345015","{""num_scrambled_semantic"":""8"",""num_scrambled_causal"":""4"",""num_scrambled_schematic"":""4"",""participantId"":""F22A38139CA34CA380C5E1036542E2DC"",""assignmentId"":""c7870d47-5d15-4273-bbe6-f1a00e7fce29"",""projectId"":""5e631737-0fa4-44a6-b227-7ba1d7345015""}","https://test12345.live/?num_scrambled_semantic=8&num_scrambled_causal=4&num_scrambled_schematic=4&participantId=F22A38139CA34CA380C5E1036542E2DC&assignmentId=c7870d47-5d15-4273-bbe6-f1a00e7fce29&projectId=5e631737-0fa4-44a6-b227-7ba1d7345015","F22A38139CA34CA380C5E1036542E2DC-2025-05-27-18-41-01","","","","","","",""
"","","","","","instructions","1","67986","0.0-1.0","F22A38139CA34CA380C5E1036542E2DC","F22A38139CA34CA380C5E1036542E2DC","c7870d47-5d15-4273-bbe6-f1a00e7fce29","5e631737-0fa4-44a6-b227-7ba1d7345015","{""num_scrambled_semantic"":""8"",""num_scrambled_causal"":""4"",""num_scrambled_schematic"":""4"",""participantId"":""F22A38139CA34CA380C5E1036542E2DC"",""assignmentId"":""c7870d47-5d15-4273-bbe6-f1a00e7fce29"",""projectId"":""5e631737-0fa4-44a6-b227-7ba1d7345015""}","https://test12345.live/?num_scrambled_semantic=8&num_scrambled_causal=4&num_scrambled_schematic=4&participantId=F22A38139CA34CA380C5E1036542E2DC&assignmentId=c7870d47-5d15-4273-bbe6-f1a00e7fce29&projectId=5e631737-0fa4-44a6-b227-7ba1d7345015","F22A38139CA34CA380C5E1036542E2DC-2025-05-27-18-41-01","[{""page_index"":0,""viewing_time"":38324}]","38324","","","","",""
"","","","","","instructions","2","76638","0.0-2.0","F22A38139CA34CA380C5E1036542E2DC","F22A38139CA34CA380C5E1036542E2DC","c7870d47-5d15-4273-bbe6-f1a00e7fce29","5e631737-0fa4-44a6-b227-7ba1d7345015","{""num_scrambled_semantic"":""8"",""num_scrambled_causal"":""4"",""num_scrambled_schematic"":""4"",""participantId"":""F22A38139CA34CA380C5E1036542E2DC"",""assignmentId"":""c7870d47-5d15-4273-bbe6-f1a00e7fce29"",""projectId"":""5e631737-0fa4-44a6-b227-7ba1d7345015""}","https://test12345.live/?num_scrambled_semantic=8&num_scrambled_causal=4&num_scrambled_schematic=4&participantId=F22A38139CA34CA380C5E1036542E2DC&assignmentId=c7870d47-5d15-4273-bbe6-f1a00e7fce29&projectId=5e631737-0fa4-44a6-b227-7ba1d7345015","F22A38139CA34CA380C5E1036542E2DC-2025-05-27-18-41-01","[{""page_index"":0,""viewing_time"":8651}]","8651","","","","",""
"true","","","","","fullscreen","3","79232","0.0-3.0","F22A38139CA34CA380C5E1036542E2DC","F22A38139CA34CA380C5E1036542E2DC","c7870d47-5d15-4273-bbe6-f1a00e7fce29","5e631737-0fa4-44a6-b227-7ba1d7345015","{""num_scrambled_semantic"":""8"",""num_scrambled_causal"":""4"",""num_scrambled_schematic"":""4"",""participantId"":""F22A38139CA34CA380C5E1036542E2DC"",""assignmentId"":""c7870d47-5d15-4273-bbe6-f1a00e7fce29"",""projectId"":""5e631737-0fa4-44a6-b227-7ba1d7345015""}","https://test12345.live/?num_scrambled_semantic=8&num_scrambled_causal=4&num_scrambled_schematic=4&participantId=F22A38139CA34CA380C5E1036542E2DC&assignmentId=c7870d47-5d15-4273-bbe6-f1a00e7fce29&projectId=5e631737-0fa4-44a6-b227-7ba1d7345015","F22A38139CA34CA380C5E1036542E2DC-2025-05-27-18-41-01","","1589","","","","",""
"","","","","","initialize-microphone","4","86232","0.0-4.0-0.0","F22A38139CA34CA380C5E1036542E2DC","F22A38139CA34CA380C5E1036542E2DC","c7870d47-5d15-4273-bbe6-f1a00e7fce29","5e631737-0fa4-44a6-b227-7ba1d7345015","{""num_scrambled_semantic"":""8"",""num_scrambled_causal"":""4"",""num_scrambled_schematic"":""4"",""participantId"":""F22A38139CA34CA380C5E1036542E2DC"",""assignmentId"":""c7870d47-5d15-4273-bbe6-f1a00e7fce29"",""projectId"":""5e631737-0fa4-44a6-b227-7ba1d7345015""}","https://test12345.live/?num_scrambled_semantic=8&num_scrambled_causal=4&num_scrambled_schematic=4&participantId=F22A38139CA34CA380C5E1036542E2DC&assignmentId=c7870d47-5d15-4273-bbe6-f1a00e7fce29&projectId=5e631737-0fa4-44a6-b227-7ba1d7345015","F22A38139CA34CA380C5E1036542E2DC-2025-05-27-18-41-01","","","5d32bba4efabee08c472d3284afc4f4178ba36ab6429649648583eb0c3ff8311","","","",""
"","","","","","html-audio-response","5","128120","0.0-4.0-1.0","F22A38139CA34CA380C5E1036542E2DC","F22A38139CA34CA380C5E1036542E2DC","c7870d47-5d15-4273-bbe6-f1a00e7fce29","5e631737-0fa4-44a6-b227-7ba1d7345015","{""num_scrambled_semantic"":""8"",""num_scrambled_causal"":""4"",""num_scrambled_schematic"":""4"",""participantId"":""F22A38139CA34CA380C5E1036542E2DC"",""assignmentId"":""c7870d47-5d15-4273-bbe6-f1a00e7fce29"",""projectId"":""5e631737-0fa4-44a6-b227-7ba1d7345015""}","https://test12345.live/?num_scrambled_semantic=8&num_scrambled_causal=4&num_scrambled_schematic=4&participantId=F22A38139CA34CA380C5E1036542E2DC&assignmentId=c7870d47-5d15-4273-bbe6-f1a00e7fce29&projectId=5e631737-0fa4-44a6-b227-7ba1d7345015","F22A38139CA34CA380C5E1036542E2DC-2025-05-27-18-41-01","","3076","","<span style=""color: red; font-size: 24px""> NOW RECORDING</span>
        <p>Please test Microphone</p>","","16",""
"","","","","","html-button-response","6","130261","0.0-4.0-2.0","F22A38139CA34CA380C5E1036542E2DC","F22A38139CA34CA380C5E1036542E2DC","c7870d47-5d15-4273-bbe6-f1a00e7fce29","5e631737-0fa4-44a6-b227-7ba1d7345015","{""num_scrambled_semantic"":""8"",""num_scrambled_causal"":""4"",""num_scrambled_schematic"":""4"",""participantId"":""F22A38139CA34CA380C5E1036542E2DC"",""assignmentId"":""c7870d47-5d15-4273-bbe6-f1a00e7fce29"",""projectId"":""5e631737-0fa4-44a6-b227-7ba1d7345015""}","https://test12345.live/?num_scrambled_semantic=8&num_scrambled_causal=4&num_scrambled_schematic=4&participantId=F22A38139CA34CA380C5E1036542E2DC&assignmentId=c7870d47-5d15-4273-bbe6-f1a00e7fce29&projectId=5e631737-0fa4-44a6-b227-7ba1d7345015","F22A38139CA34CA380C5E1036542E2DC-2025-05-27-18-41-01","","2139","","<p style=""font-size:48px; color:red;"">Is Microphone OK?</p>","1","",""
"","","","","","instructions","7","139295","0.0-5.0","F22A38139CA34CA380C5E1036542E2DC","F22A38139CA34CA380C5E1036542E2DC","c7870d47-5d15-4273-bbe6-f1a00e7fce29","5e631737-0fa4-44a6-b227-7ba1d7345015","{""num_scrambled_semantic"":""8"",""num_scrambled_causal"":""4"",""num_scrambled_schematic"":""4"",""participantId"":""F22A38139CA34CA380C5E1036542E2DC"",""assignmentId"":""c7870d47-5d15-4273-bbe6-f1a00e7fce29"",""projectId"":""5e631737-0fa4-44a6-b227-7ba1d7345015""}","https://test12345.live/?num_scrambled_semantic=8&num_scrambled_causal=4&num_scrambled_schematic=4&participantId=F22A38139CA34CA380C5E1036542E2DC&assignmentId=c7870d47-5d15-4273-bbe6-f1a00e7fce29&projectId=5e631737-0fa4-44a6-b227-7ba1d7345015","F22A38139CA34CA380C5E1036542E2DC-2025-05-27-18-41-01","[{""page_index"":0,""viewing_time"":3367},{""page_index"":1,""viewing_time"":5666}]","9033","","","","",""
"","","","","","image-button-response","8","145306","0.0-6.0-0.0","F22A38139CA34CA380C5E1036542E2DC","F22A38139CA34CA380C5E1036542E2DC","c7870d47-5d15-4273-bbe6-f1a00e7fce29","5e631737-0fa4-44a6-b227-7ba1d7345015","{""num_scrambled_semantic"":""8"",""num_scrambled_causal"":""4"",""num_scrambled_schematic"":""4"",""participantId"":""F22A38139CA34CA380C5E1036542E2DC"",""assignmentId"":""c7870d47-5d15-4273-bbe6-f1a00e7fce29"",""projectId"":""5e631737-0fa4-44a6-b227-7ba1d7345015""}","https://test12345.live/?num_scrambled_semantic=8&num_scrambled_causal=4&num_scrambled_schematic=4&participantId=F22A38139CA34CA380C5E1036542E2DC&assignmentId=c7870d47-5d15-4273-bbe6-f1a00e7fce29&projectId=5e631737-0fa4-44a6-b227-7ba1d7345015","F22A38139CA34CA380C5E1036542E2DC-2025-05-27-18-41-01","","null","","images/instructions/movie_0.png","null","",""
"","","","","","image-button-response","9","149822","0.0-6.0-1.0-0.0","F22A38139CA34CA380C5E1036542E2DC","F22A38139CA34CA380C5E1036542E2DC","c7870d47-5d15-4273-bbe6-f1a00e7fce29","5e631737-0fa4-44a6-b227-7ba1d7345015","{""num_scrambled_semantic"":""8"",""num_scrambled_causal"":""4"",""num_scrambled_schematic"":""4"",""participantId"":""F22A38139CA34CA380C5E1036542E2DC"",""assignmentId"":""c7870d47-5d15-4273-bbe6-f1a00e7fce29"",""projectId"":""5e631737-0fa4-44a6-b227-7ba1d7345015""}","https://test12345.live/?num_scrambled_semantic=8&num_scrambled_causal=4&num_scrambled_schematic=4&participantId=F22A38139CA34CA380C5E1036542E2DC&assignmentId=c7870d47-5d15-4273-bbe6-f1a00e7fce29&projectId=5e631737-0fa4-44a6-b227-7ba1d7345015","F22A38139CA34CA380C5E1036542E2DC-2025-05-27-18-41-01","","null","","images/instructions/movie_1.png","null","",""
"","","","","","image-button-response","10","153830","0.0-6.0-1.0-1.0","F22A38139CA34CA380C5E1036542E2DC","F22A38139CA34CA380C5E1036542E2DC","c7870d47-5d15-4273-bbe6-f1a00e7fce29","5e631737-0fa4-44a6-b227-7ba1d7345015","{""num_scrambled_semantic"":""8"",""num_scrambled_causal"":""4"",""num_scrambled_schematic"":""4"",""participantId"":""F22A38139CA34CA380C5E1036542E2DC"",""assignmentId"":""c7870d47-5d15-4273-bbe6-f1a00e7fce29"",""projectId"":""5e631737-0fa4-44a6-b227-7ba1d7345015""}","https://test12345.live/?num_scrambled_semantic=8&num_scrambled_causal=4&num_scrambled_schematic=4&participantId=F22A38139CA34CA380C5E1036542E2DC&assignmentId=c7870d47-5d15-4273-bbe6-f1a00e7fce29&projectId=5e631737-0fa4-44a6-b227-7ba1d7345015","F22A38139CA34CA380C5E1036542E2DC-2025-05-27-18-41-01","","null","","images/instructions/movie_1.png","null","",""
"","","","","","image-button-response","11","155636","0.0-6.0-1.0-2.0","F22A38139CA34CA380C5E1036542E2DC","F22A38139CA34CA380C5E1036542E2DC","c7870d47-5d15-4273-bbe6-f1a00e7fce29","5e631737-0fa4-44a6-b227-7ba1d7345015","{""num_scrambled_semantic"":""8"",""num_scrambled_causal"":""4"",""num_scrambled_schematic"":""4"",""participantId"":""F22A38139CA34CA380C5E1036542E2DC"",""assignmentId"":""c7870d47-5d15-4273-bbe6-f1a00e7fce29"",""projectId"":""5e631737-0fa4-44a6-b227-7ba1d7345015""}","https://test12345.live/?num_scrambled_semantic=8&num_scrambled_causal=4&num_scrambled_schematic=4&participantId=F22A38139CA34CA380C5E1036542E2DC&assignmentId=c7870d47-5d15-4273-bbe6-f1a00e7fce29&projectId=5e631737-0fa4-44a6-b227-7ba1d7345015","F22A38139CA34CA380C5E1036542E2DC-2025-05-27-18-41-01","","null","","[]","null","",""
"","","","","","image-button-response","12","160146","0.0-6.0-1.0-0.1","F22A38139CA34CA380C5E1036542E2DC","F22A38139CA34CA380C5E1036542E2DC","c7870d47-5d15-4273-bbe6-f1a00e7fce29","5e631737-0fa4-44a6-b227-7ba1d7345015","{""num_scrambled_semantic"":""8"",""num_scrambled_causal"":""4"",""num_scrambled_schematic"":""4"",""participantId"":""F22A38139CA34CA380C5E1036542E2DC"",""assignmentId"":""c7870d47-5d15-4273-bbe6-f1a00e7fce29"",""projectId"":""5e631737-0fa4-44a6-b227-7ba1d7345015""}","https://test12345.live/?num_scrambled_semantic=8&num_scrambled_causal=4&num_scrambled_schematic=4&participantId=F22A38139CA34CA380C5E1036542E2DC&assignmentId=c7870d47-5d15-4273-bbe6-f1a00e7fce29&projectId=5e631737-0fa4-44a6-b227-7ba1d7345015","F22A38139CA34CA380C5E1036542E2DC-2025-05-27-18-41-01","","null","","images/instructions/movie_2.png","null","",""
"","","","","","image-button-response","13","161313","0.0-6.0-1.0-1.1","F22A38139CA34CA380C5E1036542E2DC","F22A38139CA34CA380C5E1036542E2DC","c7870d47-5d15-4273-bbe6-f1a00e7fce29","5e631737-0fa4-44a6-b227-7ba1d7345015","{""num_scrambled_semantic"":""8"",""num_scrambled_causal"":""4"",""num_scrambled_schematic"":""4"",""participantId"":""F22A38139CA34CA380C5E1036542E2DC"",""assignmentId"":""c7870d47-5d15-4273-bbe6-f1a00e7fce29"",""projectId"":""5e631737-0fa4-44a6-b227-7ba1d7345015""}","https://test12345.live/?num_scrambled_semantic=8&num_scrambled_causal=4&num_scrambled_schematic=4&participantId=F22A38139CA34CA380C5E1036542E2DC&assignmentId=c7870d47-5d15-4273-bbe6-f1a00e7fce29&projectId=5e631737-0fa4-44a6-b227-7ba1d7345015","F22A38139CA34CA380C5E1036542E2DC-2025-05-27-18-41-01","","1165","","images/instructions/movie_2.png","0","",""
"","","","","","image-button-response","14","163124","0.0-6.0-1.0-2.1","F22A38139CA34CA380C5E1036542E2DC","F22A38139CA34CA380C5E1036542E2DC","c7870d47-5d15-4273-bbe6-f1a00e7fce29","5e631737-0fa4-44a6-b227-7ba1d7345015","{""num_scrambled_semantic"":""8"",""num_scrambled_causal"":""4"",""num_scrambled_schematic"":""4"",""participantId"":""F22A38139CA34CA380C5E1036542E2DC"",""assignmentId"":""c7870d47-5d15-4273-bbe6-f1a00e7fce29"",""projectId"":""5e631737-0fa4-44a6-b227-7ba1d7345015""}","https://test12345.live/?num_scrambled_semantic=8&num_scrambled_causal=4&num_scrambled_schematic=4&participantId=F22A38139CA34CA380C5E1036542E2DC&assignmentId=c7870d47-5d15-4273-bbe6-f1a00e7fce29&projectId=5e631737-0fa4-44a6-b227-7ba1d7345015","F22A38139CA34CA380C5E1036542E2DC-2025-05-27-18-41-01","","null","","[]","null","",""
"","","","","","image-button-response","15","167633","0.0-6.0-1.0-0.2","F22A38139CA34CA380C5E1036542E2DC","F22A38139CA34CA380C5E1036542E2DC","c7870d47-5d15-4273-bbe6-f1a00e7fce29","5e631737-0fa4-44a6-b227-7ba1d7345015","{""num_scrambled_semantic"":""8"",""num_scrambled_causal"":""4"",""num_scrambled_schematic"":""4"",""participantId"":""F22A38139CA34CA380C5E1036542E2DC"",""assignmentId"":""c7870d47-5d15-4273-bbe6-f1a00e7fce29"",""projectId"":""5e631737-0fa4-44a6-b227-7ba1d7345015""}","https://test12345.live/?num_scrambled_semantic=8&num_scrambled_causal=4&num_scrambled_schematic=4&participantId=F22A38139CA34CA380C5E1036542E2DC&assignmentId=c7870d47-5d15-4273-bbe6-f1a00e7fce29&projectId=5e631737-0fa4-44a6-b227-7ba1d7345015","F22A38139CA34CA380C5E1036542E2DC-2025-05-27-18-41-01","","null","","images/instructions/movie_3.png","null","",""
"","","","","","image-button-response","16","168714","0.0-6.0-1.0-1.2","F22A38139CA34CA380C5E1036542E2DC","F22A38139CA34CA380C5E1036542E2DC","c7870d47-5d15-4273-bbe6-f1a00e7fce29","5e631737-0fa4-44a6-b227-7ba1d7345015","{""num_scrambled_semantic"":""8"",""num_scrambled_causal"":""4"",""num_scrambled_schematic"":""4"",""participantId"":""F22A38139CA34CA380C5E1036542E2DC"",""assignmentId"":""c7870d47-5d15-4273-bbe6-f1a00e7fce29"",""projectId"":""5e631737-0fa4-44a6-b227-7ba1d7345015""}","https://test12345.live/?num_scrambled_semantic=8&num_scrambled_causal=4&num_scrambled_schematic=4&participantId=F22A38139CA34CA380C5E1036542E2DC&assignmentId=c7870d47-5d15-4273-bbe6-f1a00e7fce29&projectId=5e631737-0fa4-44a6-b227-7ba1d7345015","F22A38139CA34CA380C5E1036542E2DC-2025-05-27-18-41-01","","1079","","images/instructions/movie_3.png","0","",""
"","","","","","image-button-response","17","170528","0.0-6.0-1.0-2.2","F22A38139CA34CA380C5E1036542E2DC","F22A38139CA34CA380C5E1036542E2DC","c7870d47-5d15-4273-bbe6-f1a00e7fce29","5e631737-0fa4-44a6-b227-7ba1d7345015","{""num_scrambled_semantic"":""8"",""num_scrambled_causal"":""4"",""num_scrambled_schematic"":""4"",""participantId"":""F22A38139CA34CA380C5E1036542E2DC"",""assignmentId"":""c7870d47-5d15-4273-bbe6-f1a00e7fce29"",""projectId"":""5e631737-0fa4-44a6-b227-7ba1d7345015""}","https://test12345.live/?num_scrambled_semantic=8&num_scrambled_causal=4&num_scrambled_schematic=4&participantId=F22A38139CA34CA380C5E1036542E2DC&assignmentId=c7870d47-5d15-4273-bbe6-f1a00e7fce29&projectId=5e631737-0fa4-44a6-b227-7ba1d7345015","F22A38139CA34CA380C5E1036542E2DC-2025-05-27-18-41-01","","null","","[]","null","",""
"","","","","","image-button-response","18","175042","0.0-6.0-1.0-0.3","F22A38139CA34CA380C5E1036542E2DC","F22A38139CA34CA380C5E1036542E2DC","c7870d47-5d15-4273-bbe6-f1a00e7fce29","5e631737-0fa4-44a6-b227-7ba1d7345015","{""num_scrambled_semantic"":""8"",""num_scrambled_causal"":""4"",""num_scrambled_schematic"":""4"",""participantId"":""F22A38139CA34CA380C5E1036542E2DC"",""assignmentId"":""c7870d47-5d15-4273-bbe6-f1a00e7fce29"",""projectId"":""5e631737-0fa4-44a6-b227-7ba1d7345015""}","https://test12345.live/?num_scrambled_semantic=8&num_scrambled_causal=4&num_scrambled_schematic=4&participantId=F22A38139CA34CA380C5E1036542E2DC&assignmentId=c7870d47-5d15-4273-bbe6-f1a00e7fce29&projectId=5e631737-0fa4-44a6-b227-7ba1d7345015","F22A38139CA34CA380C5E1036542E2DC-2025-05-27-18-41-01","","null","","images/instructions/movie_4.png","null","",""
"","","","","","image-button-response","19","176875","0.0-6.0-1.0-1.3","F22A38139CA34CA380C5E1036542E2DC","F22A38139CA34CA380C5E1036542E2DC","c7870d47-5d15-4273-bbe6-f1a00e7fce29","5e631737-0fa4-44a6-b227-7ba1d7345015","{""num_scrambled_semantic"":""8"",""num_scrambled_causal"":""4"",""num_scrambled_schematic"":""4"",""participantId"":""F22A38139CA34CA380C5E1036542E2DC"",""assignmentId"":""c7870d47-5d15-4273-bbe6-f1a00e7fce29"",""projectId"":""5e631737-0fa4-44a6-b227-7ba1d7345015""}","https://test12345.live/?num_scrambled_semantic=8&num_scrambled_causal=4&num_scrambled_schematic=4&participantId=F22A38139CA34CA380C5E1036542E2DC&assignmentId=c7870d47-5d15-4273-bbe6-f1a00e7fce29&projectId=5e631737-0fa4-44a6-b227-7ba1d7345015","F22A38139CA34CA380C5E1036542E2DC-2025-05-27-18-41-01","","1832","","images/instructions/movie_4.png","0","",""
"","","","","","image-button-response","20","178684","0.0-6.0-1.0-2.3","F22A38139CA34CA380C5E1036542E2DC","F22A38139CA34CA380C5E1036542E2DC","c7870d47-5d15-4273-bbe6-f1a00e7fce29","5e631737-0fa4-44a6-b227-7ba1d7345015","{""num_scrambled_semantic"":""8"",""num_scrambled_causal"":""4"",""num_scrambled_schematic"":""4"",""participantId"":""F22A38139CA34CA380C5E1036542E2DC"",""assignmentId"":""c7870d47-5d15-4273-bbe6-f1a00e7fce29"",""projectId"":""5e631737-0fa4-44a6-b227-7ba1d7345015""}","https://test12345.live/?num_scrambled_semantic=8&num_scrambled_causal=4&num_scrambled_schematic=4&participantId=F22A38139CA34CA380C5E1036542E2DC&assignmentId=c7870d47-5d15-4273-bbe6-f1a00e7fce29&projectId=5e631737-0fa4-44a6-b227-7ba1d7345015","F22A38139CA34CA380C5E1036542E2DC-2025-05-27-18-41-01","","null","","[]","null","",""
"","","","","","instructions","21","189851","0.0-7.0","F22A38139CA34CA380C5E1036542E2DC","F22A38139CA34CA380C5E1036542E2DC","c7870d47-5d15-4273-bbe6-f1a00e7fce29","5e631737-0fa4-44a6-b227-7ba1d7345015","{""num_scrambled_semantic"":""8"",""num_scrambled_causal"":""4"",""num_scrambled_schematic"":""4"",""participantId"":""F22A38139CA34CA380C5E1036542E2DC"",""assignmentId"":""c7870d47-5d15-4273-bbe6-f1a00e7fce29"",""projectId"":""5e631737-0fa4-44a6-b227-7ba1d7345015""}","https://test12345.live/?num_scrambled_semantic=8&num_scrambled_causal=4&num_scrambled_schematic=4&participantId=F22A38139CA34CA380C5E1036542E2DC&assignmentId=c7870d47-5d15-4273-bbe6-f1a00e7fce29&projectId=5e631737-0fa4-44a6-b227-7ba1d7345015","F22A38139CA34CA380C5E1036542E2DC-2025-05-27-18-41-01","[{""page_index"":0,""viewing_time"":8659},{""page_index"":1,""viewing_time"":2507}]","11166","","","","",""
"","","","","","html-audio-response","22","253068","0.0-8.0","F22A38139CA34CA380C5E1036542E2DC","F22A38139CA34CA380C5E1036542E2DC","c7870d47-5d15-4273-bbe6-f1a00e7fce29","5e631737-0fa4-44a6-b227-7ba1d7345015","{""num_scrambled_semantic"":""8"",""num_scrambled_causal"":""4"",""num_scrambled_schematic"":""4"",""participantId"":""F22A38139CA34CA380C5E1036542E2DC"",""assignmentId"":""c7870d47-5d15-4273-bbe6-f1a00e7fce29"",""projectId"":""5e631737-0fa4-44a6-b227-7ba1d7345015""}","https://test12345.live/?num_scrambled_semantic=8&num_scrambled_causal=4&num_scrambled_schematic=4&participantId=F22A38139CA34CA380C5E1036542E2DC&assignmentId=c7870d47-5d15-4273-bbe6-f1a00e7fce29&projectId=5e631737-0fa4-44a6-b227-7ba1d7345015","F22A38139CA34CA380C5E1036542E2DC-2025-05-27-18-41-01","","41643","","[""<span style=\""color: red; font-size: 24px\""> NOW RECORDING</span><p>Please say out loud all the images you saw in the exact order you saw them. Try to recall as many images as you can, but remember: getting the order right is more important than the number of images you recall.</p>""]","","2",""
"","","","","","instructions","23","254349","0.0-9.0","F22A38139CA34CA380C5E1036542E2DC","F22A38139CA34CA380C5E1036542E2DC","c7870d47-5d15-4273-bbe6-f1a00e7fce29","5e631737-0fa4-44a6-b227-7ba1d7345015","{""num_scrambled_semantic"":""8"",""num_scrambled_causal"":""4"",""num_scrambled_schematic"":""4"",""participantId"":""F22A38139CA34CA380C5E1036542E2DC"",""assignmentId"":""c7870d47-5d15-4273-bbe6-f1a00e7fce29"",""projectId"":""5e631737-0fa4-44a6-b227-7ba1d7345015""}","https://test12345.live/?num_scrambled_semantic=8&num_scrambled_causal=4&num_scrambled_schematic=4&participantId=F22A38139CA34CA380C5E1036542E2DC&assignmentId=c7870d47-5d15-4273-bbe6-f1a00e7fce29&projectId=5e631737-0fa4-44a6-b227-7ba1d7345015","F22A38139CA34CA380C5E1036542E2DC-2025-05-27-18-41-01","[{""page_index"":0,""viewing_time"":1271}]","1272","","","","",""
"","","","","","image-button-response","24","260362","0.0-10.0-0.0","F22A38139CA34CA380C5E1036542E2DC","F22A38139CA34CA380C5E1036542E2DC","c7870d47-5d15-4273-bbe6-f1a00e7fce29","5e631737-0fa4-44a6-b227-7ba1d7345015","{""num_scrambled_semantic"":""8"",""num_scrambled_causal"":""4"",""num_scrambled_schematic"":""4"",""participantId"":""F22A38139CA34CA380C5E1036542E2DC"",""assignmentId"":""c7870d47-5d15-4273-bbe6-f1a00e7fce29"",""projectId"":""5e631737-0fa4-44a6-b227-7ba1d7345015""}","https://test12345.live/?num_scrambled_semantic=8&num_scrambled_causal=4&num_scrambled_schematic=4&participantId=F22A38139CA34CA380C5E1036542E2DC&assignmentId=c7870d47-5d15-4273-bbe6-f1a00e7fce29&projectId=5e631737-0fa4-44a6-b227-7ba1d7345015","F22A38139CA34CA380C5E1036542E2DC-2025-05-27-18-41-01","","null","","images/semantic_sequence/market_semantic/market_semantic_0.png","null","",""
"","","","","","image-button-response","25","264868","0.0-10.0-1.0-0.0","F22A38139CA34CA380C5E1036542E2DC","F22A38139CA34CA380C5E1036542E2DC","c7870d47-5d15-4273-bbe6-f1a00e7fce29","5e631737-0fa4-44a6-b227-7ba1d7345015","{""num_scrambled_semantic"":""8"",""num_scrambled_causal"":""4"",""num_scrambled_schematic"":""4"",""participantId"":""F22A38139CA34CA380C5E1036542E2DC"",""assignmentId"":""c7870d47-5d15-4273-bbe6-f1a00e7fce29"",""projectId"":""5e631737-0fa4-44a6-b227-7ba1d7345015""}","https://test12345.live/?num_scrambled_semantic=8&num_scrambled_causal=4&num_scrambled_schematic=4&participantId=F22A38139CA34CA380C5E1036542E2DC&assignmentId=c7870d47-5d15-4273-bbe6-f1a00e7fce29&projectId=5e631737-0fa4-44a6-b227-7ba1d7345015","F22A38139CA34CA380C5E1036542E2DC-2025-05-27-18-41-01","","null","","images/semantic_sequence/market_semantic/market_semantic_4.png","null","",""
"","","","","","image-button-response","26","267638","0.0-10.0-1.0-1.0","F22A38139CA34CA380C5E1036542E2DC","F22A38139CA34CA380C5E1036542E2DC","c7870d47-5d15-4273-bbe6-f1a00e7fce29","5e631737-0fa4-44a6-b227-7ba1d7345015","{""num_scrambled_semantic"":""8"",""num_scrambled_causal"":""4"",""num_scrambled_schematic"":""4"",""participantId"":""F22A38139CA34CA380C5E1036542E2DC"",""assignmentId"":""c7870d47-5d15-4273-bbe6-f1a00e7fce29"",""projectId"":""5e631737-0fa4-44a6-b227-7ba1d7345015""}","https://test12345.live/?num_scrambled_semantic=8&num_scrambled_causal=4&num_scrambled_schematic=4&participantId=F22A38139CA34CA380C5E1036542E2DC&assignmentId=c7870d47-5d15-4273-bbe6-f1a00e7fce29&projectId=5e631737-0fa4-44a6-b227-7ba1d7345015","F22A38139CA34CA380C5E1036542E2DC-2025-05-27-18-41-01","","2768","","images/semantic_sequence/market_semantic/market_semantic_4.png","0","",""
"","","","","","image-button-response","27","269444","0.0-10.0-1.0-2.0","F22A38139CA34CA380C5E1036542E2DC","F22A38139CA34CA380C5E1036542E2DC","c7870d47-5d15-4273-bbe6-f1a00e7fce29","5e631737-0fa4-44a6-b227-7ba1d7345015","{""num_scrambled_semantic"":""8"",""num_scrambled_causal"":""4"",""num_scrambled_schematic"":""4"",""participantId"":""F22A38139CA34CA380C5E1036542E2DC"",""assignmentId"":""c7870d47-5d15-4273-bbe6-f1a00e7fce29"",""projectId"":""5e631737-0fa4-44a6-b227-7ba1d7345015""}","https://test12345.live/?num_scrambled_semantic=8&num_scrambled_causal=4&num_scrambled_schematic=4&participantId=F22A38139CA34CA380C5E1036542E2DC&assignmentId=c7870d47-5d15-4273-bbe6-f1a00e7fce29&projectId=5e631737-0fa4-44a6-b227-7ba1d7345015","F22A38139CA34CA380C5E1036542E2DC-2025-05-27-18-41-01","","null","","[]","null","",""
"","","","","","image-button-response","28","273960","0.0-10.0-1.0-0.1","F22A38139CA34CA380C5E1036542E2DC","F22A38139CA34CA380C5E1036542E2DC","c7870d47-5d15-4273-bbe6-f1a00e7fce29","5e631737-0fa4-44a6-b227-7ba1d7345015","{""num_scrambled_semantic"":""8"",""num_scrambled_causal"":""4"",""num_scrambled_schematic"":""4"",""participantId"":""F22A38139CA34CA380C5E1036542E2DC"",""assignmentId"":""c7870d47-5d15-4273-bbe6-f1a00e7fce29"",""projectId"":""5e631737-0fa4-44a6-b227-7ba1d7345015""}","https://test12345.live/?num_scrambled_semantic=8&num_scrambled_causal=4&num_scrambled_schematic=4&participantId=F22A38139CA34CA380C5E1036542E2DC&assignmentId=c7870d47-5d15-4273-bbe6-f1a00e7fce29&projectId=5e631737-0fa4-44a6-b227-7ba1d7345015","F22A38139CA34CA380C5E1036542E2DC-2025-05-27-18-41-01","","null","","images/semantic_sequence/market_semantic/market_semantic_ten.png","null","",""
"","","","","","image-button-response","29","275578","0.0-10.0-1.0-1.1","F22A38139CA34CA380C5E1036542E2DC","F22A38139CA34CA380C5E1036542E2DC","c7870d47-5d15-4273-bbe6-f1a00e7fce29","5e631737-0fa4-44a6-b227-7ba1d7345015","{""num_scrambled_semantic"":""8"",""num_scrambled_causal"":""4"",""num_scrambled_schematic"":""4"",""participantId"":""F22A38139CA34CA380C5E1036542E2DC"",""assignmentId"":""c7870d47-5d15-4273-bbe6-f1a00e7fce29"",""projectId"":""5e631737-0fa4-44a6-b227-7ba1d7345015""}","https://test12345.live/?num_scrambled_semantic=8&num_scrambled_causal=4&num_scrambled_schematic=4&participantId=F22A38139CA34CA380C5E1036542E2DC&assignmentId=c7870d47-5d15-4273-bbe6-f1a00e7fce29&projectId=5e631737-0fa4-44a6-b227-7ba1d7345015","F22A38139CA34CA380C5E1036542E2DC-2025-05-27-18-41-01","","1617","","images/semantic_sequence/market_semantic/market_semantic_ten.png","1","",""
"","","","","","image-button-response","30","277382","0.0-10.0-1.0-2.1","F22A38139CA34CA380C5E1036542E2DC","F22A38139CA34CA380C5E1036542E2DC","c7870d47-5d15-4273-bbe6-f1a00e7fce29","5e631737-0fa4-44a6-b227-7ba1d7345015","{""num_scrambled_semantic"":""8"",""num_scrambled_causal"":""4"",""num_scrambled_schematic"":""4"",""participantId"":""F22A38139CA34CA380C5E1036542E2DC"",""assignmentId"":""c7870d47-5d15-4273-bbe6-f1a00e7fce29"",""projectId"":""5e631737-0fa4-44a6-b227-7ba1d7345015""}","https://test12345.live/?num_scrambled_semantic=8&num_scrambled_causal=4&num_scrambled_schematic=4&participantId=F22A38139CA34CA380C5E1036542E2DC&assignmentId=c7870d47-5d15-4273-bbe6-f1a00e7fce29&projectId=5e631737-0fa4-44a6-b227-7ba1d7345015","F22A38139CA34CA380C5E1036542E2DC-2025-05-27-18-41-01","","null","","[]","null","",""
"","","","","","image-button-response","31","281886","0.0-10.0-1.0-0.2","F22A38139CA34CA380C5E1036542E2DC","F22A38139CA34CA380C5E1036542E2DC","c7870d47-5d15-4273-bbe6-f1a00e7fce29","5e631737-0fa4-44a6-b227-7ba1d7345015","{""num_scrambled_semantic"":""8"",""num_scrambled_causal"":""4"",""num_scrambled_schematic"":""4"",""participantId"":""F22A38139CA34CA380C5E1036542E2DC"",""assignmentId"":""c7870d47-5d15-4273-bbe6-f1a00e7fce29"",""projectId"":""5e631737-0fa4-44a6-b227-7ba1d7345015""}","https://test12345.live/?num_scrambled_semantic=8&num_scrambled_causal=4&num_scrambled_schematic=4&participantId=F22A38139CA34CA380C5E1036542E2DC&assignmentId=c7870d47-5d15-4273-bbe6-f1a00e7fce29&projectId=5e631737-0fa4-44a6-b227-7ba1d7345015","F22A38139CA34CA380C5E1036542E2DC-2025-05-27-18-41-01","","null","","images/semantic_sequence/market_semantic/market_semantic_2.png","null","",""
"","","","","","image-button-response","32","283237","0.0-10.0-1.0-1.2","F22A38139CA34CA380C5E1036542E2DC","F22A38139CA34CA380C5E1036542E2DC","c7870d47-5d15-4273-bbe6-f1a00e7fce29","5e631737-0fa4-44a6-b227-7ba1d7345015","{""num_scrambled_semantic"":""8"",""num_scrambled_causal"":""4"",""num_scrambled_schematic"":""4"",""participantId"":""F22A38139CA34CA380C5E1036542E2DC"",""assignmentId"":""c7870d47-5d15-4273-bbe6-f1a00e7fce29"",""projectId"":""5e631737-0fa4-44a6-b227-7ba1d7345015""}","https://test12345.live/?num_scrambled_semantic=8&num_scrambled_causal=4&num_scrambled_schematic=4&participantId=F22A38139CA34CA380C5E1036542E2DC&assignmentId=c7870d47-5d15-4273-bbe6-f1a00e7fce29&projectId=5e631737-0fa4-44a6-b227-7ba1d7345015","F22A38139CA34CA380C5E1036542E2DC-2025-05-27-18-41-01","","1350","","images/semantic_sequence/market_semantic/market_semantic_2.png","1","",""
"","","","","","image-button-response","33","285046","0.0-10.0-1.0-2.2","F22A38139CA34CA380C5E1036542E2DC","F22A38139CA34CA380C5E1036542E2DC","c7870d47-5d15-4273-bbe6-f1a00e7fce29","5e631737-0fa4-44a6-b227-7ba1d7345015","{""num_scrambled_semantic"":""8"",""num_scrambled_causal"":""4"",""num_scrambled_schematic"":""4"",""participantId"":""F22A38139CA34CA380C5E1036542E2DC"",""assignmentId"":""c7870d47-5d15-4273-bbe6-f1a00e7fce29"",""projectId"":""5e631737-0fa4-44a6-b227-7ba1d7345015""}","https://test12345.live/?num_scrambled_semantic=8&num_scrambled_causal=4&num_scrambled_schematic=4&participantId=F22A38139CA34CA380C5E1036542E2DC&assignmentId=c7870d47-5d15-4273-bbe6-f1a00e7fce29&projectId=5e631737-0fa4-44a6-b227-7ba1d7345015","F22A38139CA34CA380C5E1036542E2DC-2025-05-27-18-41-01","","null","","[]","null","",""
"","","","","","image-button-response","34","289560","0.0-10.0-1.0-0.3","F22A38139CA34CA380C5E1036542E2DC","F22A38139CA34CA380C5E1036542E2DC","c7870d47-5d15-4273-bbe6-f1a00e7fce29","5e631737-0fa4-44a6-b227-7ba1d7345015","{""num_scrambled_semantic"":""8"",""num_scrambled_causal"":""4"",""num_scrambled_schematic"":""4"",""participantId"":""F22A38139CA34CA380C5E1036542E2DC"",""assignmentId"":""c7870d47-5d15-4273-bbe6-f1a00e7fce29"",""projectId"":""5e631737-0fa4-44a6-b227-7ba1d7345015""}","https://test12345.live/?num_scrambled_semantic=8&num_scrambled_causal=4&num_scrambled_schematic=4&participantId=F22A38139CA34CA380C5E1036542E2DC&assignmentId=c7870d47-5d15-4273-bbe6-f1a00e7fce29&projectId=5e631737-0fa4-44a6-b227-7ba1d7345015","F22A38139CA34CA380C5E1036542E2DC-2025-05-27-18-41-01","","null","","images/semantic_sequence/market_semantic/market_semantic_8.png","null","",""
"","","","","","image-button-response","35","293162","0.0-10.0-1.0-1.3","F22A38139CA34CA380C5E1036542E2DC","F22A38139CA34CA380C5E1036542E2DC","c7870d47-5d15-4273-bbe6-f1a00e7fce29","5e631737-0fa4-44a6-b227-7ba1d7345015","{""num_scrambled_semantic"":""8"",""num_scrambled_causal"":""4"",""num_scrambled_schematic"":""4"",""participantId"":""F22A38139CA34CA380C5E1036542E2DC"",""assignmentId"":""c7870d47-5d15-4273-bbe6-f1a00e7fce29"",""projectId"":""5e631737-0fa4-44a6-b227-7ba1d7345015""}","https://test12345.live/?num_scrambled_semantic=8&num_scrambled_causal=4&num_scrambled_schematic=4&participantId=F22A38139CA34CA380C5E1036542E2DC&assignmentId=c7870d47-5d15-4273-bbe6-f1a00e7fce29&projectId=5e631737-0fa4-44a6-b227-7ba1d7345015","F22A38139CA34CA380C5E1036542E2DC-2025-05-27-18-41-01","","3600","","images/semantic_sequence/market_semantic/market_semantic_8.png","1","",""
"","","","","","image-button-response","36","294978","0.0-10.0-1.0-2.3","F22A38139CA34CA380C5E1036542E2DC","F22A38139CA34CA380C5E1036542E2DC","c7870d47-5d15-4273-bbe6-f1a00e7fce29","5e631737-0fa4-44a6-b227-7ba1d7345015","{""num_scrambled_semantic"":""8"",""num_scrambled_causal"":""4"",""num_scrambled_schematic"":""4"",""participantId"":""F22A38139CA34CA380C5E1036542E2DC"",""assignmentId"":""c7870d47-5d15-4273-bbe6-f1a00e7fce29"",""projectId"":""5e631737-0fa4-44a6-b227-7ba1d7345015""}","https://test12345.live/?num_scrambled_semantic=8&num_scrambled_causal=4&num_scrambled_schematic=4&participantId=F22A38139CA34CA380C5E1036542E2DC&assignmentId=c7870d47-5d15-4273-bbe6-f1a00e7fce29&projectId=5e631737-0fa4-44a6-b227-7ba1d7345015","F22A38139CA34CA380C5E1036542E2DC-2025-05-27-18-41-01","","null","","[]","null","",""
"","","","","","image-button-response","37","299486","0.0-10.0-1.0-0.4","F22A38139CA34CA380C5E1036542E2DC","F22A38139CA34CA380C5E1036542E2DC","c7870d47-5d15-4273-bbe6-f1a00e7fce29","5e631737-0fa4-44a6-b227-7ba1d7345015","{""num_scrambled_semantic"":""8"",""num_scrambled_causal"":""4"",""num_scrambled_schematic"":""4"",""participantId"":""F22A38139CA34CA380C5E1036542E2DC"",""assignmentId"":""c7870d47-5d15-4273-bbe6-f1a00e7fce29"",""projectId"":""5e631737-0fa4-44a6-b227-7ba1d7345015""}","https://test12345.live/?num_scrambled_semantic=8&num_scrambled_causal=4&num_scrambled_schematic=4&participantId=F22A38139CA34CA380C5E1036542E2DC&assignmentId=c7870d47-5d15-4273-bbe6-f1a00e7fce29&projectId=5e631737-0fa4-44a6-b227-7ba1d7345015","F22A38139CA34CA380C5E1036542E2DC-2025-05-27-18-41-01","","null","","images/semantic_sequence/market_semantic/market_semantic_9.png","null","",""
"","","","","","image-button-response","38","302113","0.0-10.0-1.0-1.4","F22A38139CA34CA380C5E1036542E2DC","F22A38139CA34CA380C5E1036542E2DC","c7870d47-5d15-4273-bbe6-f1a00e7fce29","5e631737-0fa4-44a6-b227-7ba1d7345015","{""num_scrambled_semantic"":""8"",""num_scrambled_causal"":""4"",""num_scrambled_schematic"":""4"",""participantId"":""F22A38139CA34CA380C5E1036542E2DC"",""assignmentId"":""c7870d47-5d15-4273-bbe6-f1a00e7fce29"",""projectId"":""5e631737-0fa4-44a6-b227-7ba1d7345015""}","https://test12345.live/?num_scrambled_semantic=8&num_scrambled_causal=4&num_scrambled_schematic=4&participantId=F22A38139CA34CA380C5E1036542E2DC&assignmentId=c7870d47-5d15-4273-bbe6-f1a00e7fce29&projectId=5e631737-0fa4-44a6-b227-7ba1d7345015","F22A38139CA34CA380C5E1036542E2DC-2025-05-27-18-41-01","","2626","","images/semantic_sequence/market_semantic/market_semantic_9.png","0","",""
"","","","","","image-button-response","39","303928","0.0-10.0-1.0-2.4","F22A38139CA34CA380C5E1036542E2DC","F22A38139CA34CA380C5E1036542E2DC","c7870d47-5d15-4273-bbe6-f1a00e7fce29","5e631737-0fa4-44a6-b227-7ba1d7345015","{""num_scrambled_semantic"":""8"",""num_scrambled_causal"":""4"",""num_scrambled_schematic"":""4"",""participantId"":""F22A38139CA34CA380C5E1036542E2DC"",""assignmentId"":""c7870d47-5d15-4273-bbe6-f1a00e7fce29"",""projectId"":""5e631737-0fa4-44a6-b227-7ba1d7345015""}","https://test12345.live/?num_scrambled_semantic=8&num_scrambled_causal=4&num_scrambled_schematic=4&participantId=F22A38139CA34CA380C5E1036542E2DC&assignmentId=c7870d47-5d15-4273-bbe6-f1a00e7fce29&projectId=5e631737-0fa4-44a6-b227-7ba1d7345015","F22A38139CA34CA380C5E1036542E2DC-2025-05-27-18-41-01","","null","","[]","null","",""
"","","","","","image-button-response","40","308431","0.0-10.0-1.0-0.5","F22A38139CA34CA380C5E1036542E2DC","F22A38139CA34CA380C5E1036542E2DC","c7870d47-5d15-4273-bbe6-f1a00e7fce29","5e631737-0fa4-44a6-b227-7ba1d7345015","{""num_scrambled_semantic"":""8"",""num_scrambled_causal"":""4"",""num_scrambled_schematic"":""4"",""participantId"":""F22A38139CA34CA380C5E1036542E2DC"",""assignmentId"":""c7870d47-5d15-4273-bbe6-f1a00e7fce29"",""projectId"":""5e631737-0fa4-44a6-b227-7ba1d7345015""}","https://test12345.live/?num_scrambled_semantic=8&num_scrambled_causal=4&num_scrambled_schematic=4&participantId=F22A38139CA34CA380C5E1036542E2DC&assignmentId=c7870d47-5d15-4273-bbe6-f1a00e7fce29&projectId=5e631737-0fa4-44a6-b227-7ba1d7345015","F22A38139CA34CA380C5E1036542E2DC-2025-05-27-18-41-01","","null","","images/semantic_sequence/market_semantic/market_semantic_6.png","null","",""
"","","","","","image-button-response","41","310808","0.0-10.0-1.0-1.5","F22A38139CA34CA380C5E1036542E2DC","F22A38139CA34CA380C5E1036542E2DC","c7870d47-5d15-4273-bbe6-f1a00e7fce29","5e631737-0fa4-44a6-b227-7ba1d7345015","{""num_scrambled_semantic"":""8"",""num_scrambled_causal"":""4"",""num_scrambled_schematic"":""4"",""participantId"":""F22A38139CA34CA380C5E1036542E2DC"",""assignmentId"":""c7870d47-5d15-4273-bbe6-f1a00e7fce29"",""projectId"":""5e631737-0fa4-44a6-b227-7ba1d7345015""}","https://test12345.live/?num_scrambled_semantic=8&num_scrambled_causal=4&num_scrambled_schematic=4&participantId=F22A38139CA34CA380C5E1036542E2DC&assignmentId=c7870d47-5d15-4273-bbe6-f1a00e7fce29&projectId=5e631737-0fa4-44a6-b227-7ba1d7345015","F22A38139CA34CA380C5E1036542E2DC-2025-05-27-18-41-01","","2375","","images/semantic_sequence/market_semantic/market_semantic_6.png","1","",""
"","","","","","image-button-response","42","312610","0.0-10.0-1.0-2.5","F22A38139CA34CA380C5E1036542E2DC","F22A38139CA34CA380C5E1036542E2DC","c7870d47-5d15-4273-bbe6-f1a00e7fce29","5e631737-0fa4-44a6-b227-7ba1d7345015","{""num_scrambled_semantic"":""8"",""num_scrambled_causal"":""4"",""num_scrambled_schematic"":""4"",""participantId"":""F22A38139CA34CA380C5E1036542E2DC"",""assignmentId"":""c7870d47-5d15-4273-bbe6-f1a00e7fce29"",""projectId"":""5e631737-0fa4-44a6-b227-7ba1d7345015""}","https://test12345.live/?num_scrambled_semantic=8&num_scrambled_causal=4&num_scrambled_schematic=4&participantId=F22A38139CA34CA380C5E1036542E2DC&assignmentId=c7870d47-5d15-4273-bbe6-f1a00e7fce29&projectId=5e631737-0fa4-44a6-b227-7ba1d7345015","F22A38139CA34CA380C5E1036542E2DC-2025-05-27-18-41-01","","null","","[]","null","",""
"","","","","","image-button-response","43","317114","0.0-10.0-1.0-0.6","F22A38139CA34CA380C5E1036542E2DC","F22A38139CA34CA380C5E1036542E2DC","c7870d47-5d15-4273-bbe6-f1a00e7fce29","5e631737-0fa4-44a6-b227-7ba1d7345015","{""num_scrambled_semantic"":""8"",""num_scrambled_causal"":""4"",""num_scrambled_schematic"":""4"",""participantId"":""F22A38139CA34CA380C5E1036542E2DC"",""assignmentId"":""c7870d47-5d15-4273-bbe6-f1a00e7fce29"",""projectId"":""5e631737-0fa4-44a6-b227-7ba1d7345015""}","https://test12345.live/?num_scrambled_semantic=8&num_scrambled_causal=4&num_scrambled_schematic=4&participantId=F22A38139CA34CA380C5E1036542E2DC&assignmentId=c7870d47-5d15-4273-bbe6-f1a00e7fce29&projectId=5e631737-0fa4-44a6-b227-7ba1d7345015","F22A38139CA34CA380C5E1036542E2DC-2025-05-27-18-41-01","","null","","images/semantic_sequence/market_semantic/market_semantic_7.png","null","",""
"","","","","","image-button-response","44","319947","0.0-10.0-1.0-1.6","F22A38139CA34CA380C5E1036542E2DC","F22A38139CA34CA380C5E1036542E2DC","c7870d47-5d15-4273-bbe6-f1a00e7fce29","5e631737-0fa4-44a6-b227-7ba1d7345015","{""num_scrambled_semantic"":""8"",""num_scrambled_causal"":""4"",""num_scrambled_schematic"":""4"",""participantId"":""F22A38139CA34CA380C5E1036542E2DC"",""assignmentId"":""c7870d47-5d15-4273-bbe6-f1a00e7fce29"",""projectId"":""5e631737-0fa4-44a6-b227-7ba1d7345015""}","https://test12345.live/?num_scrambled_semantic=8&num_scrambled_causal=4&num_scrambled_schematic=4&participantId=F22A38139CA34CA380C5E1036542E2DC&assignmentId=c7870d47-5d15-4273-bbe6-f1a00e7fce29&projectId=5e631737-0fa4-44a6-b227-7ba1d7345015","F22A38139CA34CA380C5E1036542E2DC-2025-05-27-18-41-01","","2832","","images/semantic_sequence/market_semantic/market_semantic_7.png","0","",""
"","","","","","image-button-response","45","321752","0.0-10.0-1.0-2.6","F22A38139CA34CA380C5E1036542E2DC","F22A38139CA34CA380C5E1036542E2DC","c7870d47-5d15-4273-bbe6-f1a00e7fce29","5e631737-0fa4-44a6-b227-7ba1d7345015","{""num_scrambled_semantic"":""8"",""num_scrambled_causal"":""4"",""num_scrambled_schematic"":""4"",""participantId"":""F22A38139CA34CA380C5E1036542E2DC"",""assignmentId"":""c7870d47-5d15-4273-bbe6-f1a00e7fce29"",""projectId"":""5e631737-0fa4-44a6-b227-7ba1d7345015""}","https://test12345.live/?num_scrambled_semantic=8&num_scrambled_causal=4&num_scrambled_schematic=4&participantId=F22A38139CA34CA380C5E1036542E2DC&assignmentId=c7870d47-5d15-4273-bbe6-f1a00e7fce29&projectId=5e631737-0fa4-44a6-b227-7ba1d7345015","F22A38139CA34CA380C5E1036542E2DC-2025-05-27-18-41-01","","null","","[]","null","",""
"","","","","","image-button-response","46","326266","0.0-10.0-1.0-0.7","F22A38139CA34CA380C5E1036542E2DC","F22A38139CA34CA380C5E1036542E2DC","c7870d47-5d15-4273-bbe6-f1a00e7fce29","5e631737-0fa4-44a6-b227-7ba1d7345015","{""num_scrambled_semantic"":""8"",""num_scrambled_causal"":""4"",""num_scrambled_schematic"":""4"",""participantId"":""F22A38139CA34CA380C5E1036542E2DC"",""assignmentId"":""c7870d47-5d15-4273-bbe6-f1a00e7fce29"",""projectId"":""5e631737-0fa4-44a6-b227-7ba1d7345015""}","https://test12345.live/?num_scrambled_semantic=8&num_scrambled_causal=4&num_scrambled_schematic=4&participantId=F22A38139CA34CA380C5E1036542E2DC&assignmentId=c7870d47-5d15-4273-bbe6-f1a00e7fce29&projectId=5e631737-0fa4-44a6-b227-7ba1d7345015","F22A38139CA34CA380C5E1036542E2DC-2025-05-27-18-41-01","","null","","images/semantic_sequence/market_semantic/market_semantic_5.png","null","",""
"","","","","","image-button-response","47","327976","0.0-10.0-1.0-1.7","F22A38139CA34CA380C5E1036542E2DC","F22A38139CA34CA380C5E1036542E2DC","c7870d47-5d15-4273-bbe6-f1a00e7fce29","5e631737-0fa4-44a6-b227-7ba1d7345015","{""num_scrambled_semantic"":""8"",""num_scrambled_causal"":""4"",""num_scrambled_schematic"":""4"",""participantId"":""F22A38139CA34CA380C5E1036542E2DC"",""assignmentId"":""c7870d47-5d15-4273-bbe6-f1a00e7fce29"",""projectId"":""5e631737-0fa4-44a6-b227-7ba1d7345015""}","https://test12345.live/?num_scrambled_semantic=8&num_scrambled_causal=4&num_scrambled_schematic=4&participantId=F22A38139CA34CA380C5E1036542E2DC&assignmentId=c7870d47-5d15-4273-bbe6-f1a00e7fce29&projectId=5e631737-0fa4-44a6-b227-7ba1d7345015","F22A38139CA34CA380C5E1036542E2DC-2025-05-27-18-41-01","","1709","","images/semantic_sequence/market_semantic/market_semantic_5.png","1","",""
"","","","","","image-button-response","48","329792","0.0-10.0-1.0-2.7","F22A38139CA34CA380C5E1036542E2DC","F22A38139CA34CA380C5E1036542E2DC","c7870d47-5d15-4273-bbe6-f1a00e7fce29","5e631737-0fa4-44a6-b227-7ba1d7345015","{""num_scrambled_semantic"":""8"",""num_scrambled_causal"":""4"",""num_scrambled_schematic"":""4"",""participantId"":""F22A38139CA34CA380C5E1036542E2DC"",""assignmentId"":""c7870d47-5d15-4273-bbe6-f1a00e7fce29"",""projectId"":""5e631737-0fa4-44a6-b227-7ba1d7345015""}","https://test12345.live/?num_scrambled_semantic=8&num_scrambled_causal=4&num_scrambled_schematic=4&participantId=F22A38139CA34CA380C5E1036542E2DC&assignmentId=c7870d47-5d15-4273-bbe6-f1a00e7fce29&projectId=5e631737-0fa4-44a6-b227-7ba1d7345015","F22A38139CA34CA380C5E1036542E2DC-2025-05-27-18-41-01","","null","","[]","null","",""
"","","","","","image-button-response","49","334300","0.0-10.0-1.0-0.8","F22A38139CA34CA380C5E1036542E2DC","F22A38139CA34CA380C5E1036542E2DC","c7870d47-5d15-4273-bbe6-f1a00e7fce29","5e631737-0fa4-44a6-b227-7ba1d7345015","{""num_scrambled_semantic"":""8"",""num_scrambled_causal"":""4"",""num_scrambled_schematic"":""4"",""participantId"":""F22A38139CA34CA380C5E1036542E2DC"",""assignmentId"":""c7870d47-5d15-4273-bbe6-f1a00e7fce29"",""projectId"":""5e631737-0fa4-44a6-b227-7ba1d7345015""}","https://test12345.live/?num_scrambled_semantic=8&num_scrambled_causal=4&num_scrambled_schematic=4&participantId=F22A38139CA34CA380C5E1036542E2DC&assignmentId=c7870d47-5d15-4273-bbe6-f1a00e7fce29&projectId=5e631737-0fa4-44a6-b227-7ba1d7345015","F22A38139CA34CA380C5E1036542E2DC-2025-05-27-18-41-01","","null","","images/semantic_sequence/market_semantic/market_semantic_3.png","null","",""
"","","","","","image-button-response","50","335685","0.0-10.0-1.0-1.8","F22A38139CA34CA380C5E1036542E2DC","F22A38139CA34CA380C5E1036542E2DC","c7870d47-5d15-4273-bbe6-f1a00e7fce29","5e631737-0fa4-44a6-b227-7ba1d7345015","{""num_scrambled_semantic"":""8"",""num_scrambled_causal"":""4"",""num_scrambled_schematic"":""4"",""participantId"":""F22A38139CA34CA380C5E1036542E2DC"",""assignmentId"":""c7870d47-5d15-4273-bbe6-f1a00e7fce29"",""projectId"":""5e631737-0fa4-44a6-b227-7ba1d7345015""}","https://test12345.live/?num_scrambled_semantic=8&num_scrambled_causal=4&num_scrambled_schematic=4&participantId=F22A38139CA34CA380C5E1036542E2DC&assignmentId=c7870d47-5d15-4273-bbe6-f1a00e7fce29&projectId=5e631737-0fa4-44a6-b227-7ba1d7345015","F22A38139CA34CA380C5E1036542E2DC-2025-05-27-18-41-01","","1384","","images/semantic_sequence/market_semantic/market_semantic_3.png","1","",""
"","","","","","image-button-response","51","337490","0.0-10.0-1.0-2.8","F22A38139CA34CA380C5E1036542E2DC","F22A38139CA34CA380C5E1036542E2DC","c7870d47-5d15-4273-bbe6-f1a00e7fce29","5e631737-0fa4-44a6-b227-7ba1d7345015","{""num_scrambled_semantic"":""8"",""num_scrambled_causal"":""4"",""num_scrambled_schematic"":""4"",""participantId"":""F22A38139CA34CA380C5E1036542E2DC"",""assignmentId"":""c7870d47-5d15-4273-bbe6-f1a00e7fce29"",""projectId"":""5e631737-0fa4-44a6-b227-7ba1d7345015""}","https://test12345.live/?num_scrambled_semantic=8&num_scrambled_causal=4&num_scrambled_schematic=4&participantId=F22A38139CA34CA380C5E1036542E2DC&assignmentId=c7870d47-5d15-4273-bbe6-f1a00e7fce29&projectId=5e631737-0fa4-44a6-b227-7ba1d7345015","F22A38139CA34CA380C5E1036542E2DC-2025-05-27-18-41-01","","null","","[]","null","",""
"","","","","","image-button-response","52","341994","0.0-10.0-1.0-0.9","F22A38139CA34CA380C5E1036542E2DC","F22A38139CA34CA380C5E1036542E2DC","c7870d47-5d15-4273-bbe6-f1a00e7fce29","5e631737-0fa4-44a6-b227-7ba1d7345015","{""num_scrambled_semantic"":""8"",""num_scrambled_causal"":""4"",""num_scrambled_schematic"":""4"",""participantId"":""F22A38139CA34CA380C5E1036542E2DC"",""assignmentId"":""c7870d47-5d15-4273-bbe6-f1a00e7fce29"",""projectId"":""5e631737-0fa4-44a6-b227-7ba1d7345015""}","https://test12345.live/?num_scrambled_semantic=8&num_scrambled_causal=4&num_scrambled_schematic=4&participantId=F22A38139CA34CA380C5E1036542E2DC&assignmentId=c7870d47-5d15-4273-bbe6-f1a00e7fce29&projectId=5e631737-0fa4-44a6-b227-7ba1d7345015","F22A38139CA34CA380C5E1036542E2DC-2025-05-27-18-41-01","","null","","images/semantic_sequence/market_semantic/market_semantic_1.png","null","",""
"","","","","","image-button-response","53","342874","0.0-10.0-1.0-1.9","F22A38139CA34CA380C5E1036542E2DC","F22A38139CA34CA380C5E1036542E2DC","c7870d47-5d15-4273-bbe6-f1a00e7fce29","5e631737-0fa4-44a6-b227-7ba1d7345015","{""num_scrambled_semantic"":""8"",""num_scrambled_causal"":""4"",""num_scrambled_schematic"":""4"",""participantId"":""F22A38139CA34CA380C5E1036542E2DC"",""assignmentId"":""c7870d47-5d15-4273-bbe6-f1a00e7fce29"",""projectId"":""5e631737-0fa4-44a6-b227-7ba1d7345015""}","https://test12345.live/?num_scrambled_semantic=8&num_scrambled_causal=4&num_scrambled_schematic=4&participantId=F22A38139CA34CA380C5E1036542E2DC&assignmentId=c7870d47-5d15-4273-bbe6-f1a00e7fce29&projectId=5e631737-0fa4-44a6-b227-7ba1d7345015","F22A38139CA34CA380C5E1036542E2DC-2025-05-27-18-41-01","","878","","images/semantic_sequence/market_semantic/market_semantic_1.png","1","",""
"","","","","","image-button-response","54","344688","0.0-10.0-1.0-2.9","F22A38139CA34CA380C5E1036542E2DC","F22A38139CA34CA380C5E1036542E2DC","c7870d47-5d15-4273-bbe6-f1a00e7fce29","5e631737-0fa4-44a6-b227-7ba1d7345015","{""num_scrambled_semantic"":""8"",""num_scrambled_causal"":""4"",""num_scrambled_schematic"":""4"",""participantId"":""F22A38139CA34CA380C5E1036542E2DC"",""assignmentId"":""c7870d47-5d15-4273-bbe6-f1a00e7fce29"",""projectId"":""5e631737-0fa4-44a6-b227-7ba1d7345015""}","https://test12345.live/?num_scrambled_semantic=8&num_scrambled_causal=4&num_scrambled_schematic=4&participantId=F22A38139CA34CA380C5E1036542E2DC&assignmentId=c7870d47-5d15-4273-bbe6-f1a00e7fce29&projectId=5e631737-0fa4-44a6-b227-7ba1d7345015","F22A38139CA34CA380C5E1036542E2DC-2025-05-27-18-41-01","","null","","[]","null","",""
"","","","","","html-audio-response","55","414274","0.0-11.0","F22A38139CA34CA380C5E1036542E2DC","F22A38139CA34CA380C5E1036542E2DC","c7870d47-5d15-4273-bbe6-f1a00e7fce29","5e631737-0fa4-44a6-b227-7ba1d7345015","{""num_scrambled_semantic"":""8"",""num_scrambled_causal"":""4"",""num_scrambled_schematic"":""4"",""participantId"":""F22A38139CA34CA380C5E1036542E2DC"",""assignmentId"":""c7870d47-5d15-4273-bbe6-f1a00e7fce29"",""projectId"":""5e631737-0fa4-44a6-b227-7ba1d7345015""}","https://test12345.live/?num_scrambled_semantic=8&num_scrambled_causal=4&num_scrambled_schematic=4&participantId=F22A38139CA34CA380C5E1036542E2DC&assignmentId=c7870d47-5d15-4273-bbe6-f1a00e7fce29&projectId=5e631737-0fa4-44a6-b227-7ba1d7345015","F22A38139CA34CA380C5E1036542E2DC-2025-05-27-18-41-01","","null","","[""<span style=\""color: red; font-size: 24px\""> NOW RECORDING</span><p>Please say out loud all the images you saw, in the exact order you saw them. Try to recall as many images as you can, but remember: getting the order right is more important than the number of images you recall.</p>""]","","18","market_semantic"
"","","","","","image-button-response","56","420288","0.0-12.0-0.0","F22A38139CA34CA380C5E1036542E2DC","F22A38139CA34CA380C5E1036542E2DC","c7870d47-5d15-4273-bbe6-f1a00e7fce29","5e631737-0fa4-44a6-b227-7ba1d7345015","{""num_scrambled_semantic"":""8"",""num_scrambled_causal"":""4"",""num_scrambled_schematic"":""4"",""participantId"":""F22A38139CA34CA380C5E1036542E2DC"",""assignmentId"":""c7870d47-5d15-4273-bbe6-f1a00e7fce29"",""projectId"":""5e631737-0fa4-44a6-b227-7ba1d7345015""}","https://test12345.live/?num_scrambled_semantic=8&num_scrambled_causal=4&num_scrambled_schematic=4&participantId=F22A38139CA34CA380C5E1036542E2DC&assignmentId=c7870d47-5d15-4273-bbe6-f1a00e7fce29&projectId=5e631737-0fa4-44a6-b227-7ba1d7345015","F22A38139CA34CA380C5E1036542E2DC-2025-05-27-18-41-01","","null","","images/semantic_sequence/redecorating_semantic/redecorating_semantic_0.png","null","",""
"","","","","","image-button-response","57","424800","0.0-12.0-1.0-0.0","F22A38139CA34CA380C5E1036542E2DC","F22A38139CA34CA380C5E1036542E2DC","c7870d47-5d15-4273-bbe6-f1a00e7fce29","5e631737-0fa4-44a6-b227-7ba1d7345015","{""num_scrambled_semantic"":""8"",""num_scrambled_causal"":""4"",""num_scrambled_schematic"":""4"",""participantId"":""F22A38139CA34CA380C5E1036542E2DC"",""assignmentId"":""c7870d47-5d15-4273-bbe6-f1a00e7fce29"",""projectId"":""5e631737-0fa4-44a6-b227-7ba1d7345015""}","https://test12345.live/?num_scrambled_semantic=8&num_scrambled_causal=4&num_scrambled_schematic=4&participantId=F22A38139CA34CA380C5E1036542E2DC&assignmentId=c7870d47-5d15-4273-bbe6-f1a00e7fce29&projectId=5e631737-0fa4-44a6-b227-7ba1d7345015","F22A38139CA34CA380C5E1036542E2DC-2025-05-27-18-41-01","","null","","images/semantic_sequence/redecorating_semantic/redecorating_semantic_9.png","null","",""
"","","","","","image-button-response","58","426713","0.0-12.0-1.0-1.0","F22A38139CA34CA380C5E1036542E2DC","F22A38139CA34CA380C5E1036542E2DC","c7870d47-5d15-4273-bbe6-f1a00e7fce29","5e631737-0fa4-44a6-b227-7ba1d7345015","{""num_scrambled_semantic"":""8"",""num_scrambled_causal"":""4"",""num_scrambled_schematic"":""4"",""participantId"":""F22A38139CA34CA380C5E1036542E2DC"",""assignmentId"":""c7870d47-5d15-4273-bbe6-f1a00e7fce29"",""projectId"":""5e631737-0fa4-44a6-b227-7ba1d7345015""}","https://test12345.live/?num_scrambled_semantic=8&num_scrambled_causal=4&num_scrambled_schematic=4&participantId=F22A38139CA34CA380C5E1036542E2DC&assignmentId=c7870d47-5d15-4273-bbe6-f1a00e7fce29&projectId=5e631737-0fa4-44a6-b227-7ba1d7345015","F22A38139CA34CA380C5E1036542E2DC-2025-05-27-18-41-01","","1911","","images/semantic_sequence/redecorating_semantic/redecorating_semantic_9.png","0","",""
"","","","","","image-button-response","59","428516","0.0-12.0-1.0-2.0","F22A38139CA34CA380C5E1036542E2DC","F22A38139CA34CA380C5E1036542E2DC","c7870d47-5d15-4273-bbe6-f1a00e7fce29","5e631737-0fa4-44a6-b227-7ba1d7345015","{""num_scrambled_semantic"":""8"",""num_scrambled_causal"":""4"",""num_scrambled_schematic"":""4"",""participantId"":""F22A38139CA34CA380C5E1036542E2DC"",""assignmentId"":""c7870d47-5d15-4273-bbe6-f1a00e7fce29"",""projectId"":""5e631737-0fa4-44a6-b227-7ba1d7345015""}","https://test12345.live/?num_scrambled_semantic=8&num_scrambled_causal=4&num_scrambled_schematic=4&participantId=F22A38139CA34CA380C5E1036542E2DC&assignmentId=c7870d47-5d15-4273-bbe6-f1a00e7fce29&projectId=5e631737-0fa4-44a6-b227-7ba1d7345015","F22A38139CA34CA380C5E1036542E2DC-2025-05-27-18-41-01","","null","","[]","null","",""
"","","","","","image-button-response","60","433030","0.0-12.0-1.0-0.1","F22A38139CA34CA380C5E1036542E2DC","F22A38139CA34CA380C5E1036542E2DC","c7870d47-5d15-4273-bbe6-f1a00e7fce29","5e631737-0fa4-44a6-b227-7ba1d7345015","{""num_scrambled_semantic"":""8"",""num_scrambled_causal"":""4"",""num_scrambled_schematic"":""4"",""participantId"":""F22A38139CA34CA380C5E1036542E2DC"",""assignmentId"":""c7870d47-5d15-4273-bbe6-f1a00e7fce29"",""projectId"":""5e631737-0fa4-44a6-b227-7ba1d7345015""}","https://test12345.live/?num_scrambled_semantic=8&num_scrambled_causal=4&num_scrambled_schematic=4&participantId=F22A38139CA34CA380C5E1036542E2DC&assignmentId=c7870d47-5d15-4273-bbe6-f1a00e7fce29&projectId=5e631737-0fa4-44a6-b227-7ba1d7345015","F22A38139CA34CA380C5E1036542E2DC-2025-05-27-18-41-01","","null","","images/semantic_sequence/redecorating_semantic/redecorating_semantic_3.png","null","",""
"","","","","","image-button-response","61","435539","0.0-12.0-1.0-1.1","F22A38139CA34CA380C5E1036542E2DC","F22A38139CA34CA380C5E1036542E2DC","c7870d47-5d15-4273-bbe6-f1a00e7fce29","5e631737-0fa4-44a6-b227-7ba1d7345015","{""num_scrambled_semantic"":""8"",""num_scrambled_causal"":""4"",""num_scrambled_schematic"":""4"",""participantId"":""F22A38139CA34CA380C5E1036542E2DC"",""assignmentId"":""c7870d47-5d15-4273-bbe6-f1a00e7fce29"",""projectId"":""5e631737-0fa4-44a6-b227-7ba1d7345015""}","https://test12345.live/?num_scrambled_semantic=8&num_scrambled_causal=4&num_scrambled_schematic=4&participantId=F22A38139CA34CA380C5E1036542E2DC&assignmentId=c7870d47-5d15-4273-bbe6-f1a00e7fce29&projectId=5e631737-0fa4-44a6-b227-7ba1d7345015","F22A38139CA34CA380C5E1036542E2DC-2025-05-27-18-41-01","","2508","","images/semantic_sequence/redecorating_semantic/redecorating_semantic_3.png","0","",""
"","","","","","image-button-response","62","437350","0.0-12.0-1.0-2.1","F22A38139CA34CA380C5E1036542E2DC","F22A38139CA34CA380C5E1036542E2DC","c7870d47-5d15-4273-bbe6-f1a00e7fce29","5e631737-0fa4-44a6-b227-7ba1d7345015","{""num_scrambled_semantic"":""8"",""num_scrambled_causal"":""4"",""num_scrambled_schematic"":""4"",""participantId"":""F22A38139CA34CA380C5E1036542E2DC"",""assignmentId"":""c7870d47-5d15-4273-bbe6-f1a00e7fce29"",""projectId"":""5e631737-0fa4-44a6-b227-7ba1d7345015""}","https://test12345.live/?num_scrambled_semantic=8&num_scrambled_causal=4&num_scrambled_schematic=4&participantId=F22A38139CA34CA380C5E1036542E2DC&assignmentId=c7870d47-5d15-4273-bbe6-f1a00e7fce29&projectId=5e631737-0fa4-44a6-b227-7ba1d7345015","F22A38139CA34CA380C5E1036542E2DC-2025-05-27-18-41-01","","null","","[]","null","",""
"","","","","","image-button-response","63","441868","0.0-12.0-1.0-0.2","F22A38139CA34CA380C5E1036542E2DC","F22A38139CA34CA380C5E1036542E2DC","c7870d47-5d15-4273-bbe6-f1a00e7fce29","5e631737-0fa4-44a6-b227-7ba1d7345015","{""num_scrambled_semantic"":""8"",""num_scrambled_causal"":""4"",""num_scrambled_schematic"":""4"",""participantId"":""F22A38139CA34CA380C5E1036542E2DC"",""assignmentId"":""c7870d47-5d15-4273-bbe6-f1a00e7fce29"",""projectId"":""5e631737-0fa4-44a6-b227-7ba1d7345015""}","https://test12345.live/?num_scrambled_semantic=8&num_scrambled_causal=4&num_scrambled_schematic=4&participantId=F22A38139CA34CA380C5E1036542E2DC&assignmentId=c7870d47-5d15-4273-bbe6-f1a00e7fce29&projectId=5e631737-0fa4-44a6-b227-7ba1d7345015","F22A38139CA34CA380C5E1036542E2DC-2025-05-27-18-41-01","","null","","images/semantic_sequence/redecorating_semantic/redecorating_semantic_4.png","null","",""
"","","","","","image-button-response","64","442564","0.0-12.0-1.0-1.2","F22A38139CA34CA380C5E1036542E2DC","F22A38139CA34CA380C5E1036542E2DC","c7870d47-5d15-4273-bbe6-f1a00e7fce29","5e631737-0fa4-44a6-b227-7ba1d7345015","{""num_scrambled_semantic"":""8"",""num_scrambled_causal"":""4"",""num_scrambled_schematic"":""4"",""participantId"":""F22A38139CA34CA380C5E1036542E2DC"",""assignmentId"":""c7870d47-5d15-4273-bbe6-f1a00e7fce29"",""projectId"":""5e631737-0fa4-44a6-b227-7ba1d7345015""}","https://test12345.live/?num_scrambled_semantic=8&num_scrambled_causal=4&num_scrambled_schematic=4&participantId=F22A38139CA34CA380C5E1036542E2DC&assignmentId=c7870d47-5d15-4273-bbe6-f1a00e7fce29&projectId=5e631737-0fa4-44a6-b227-7ba1d7345015","F22A38139CA34CA380C5E1036542E2DC-2025-05-27-18-41-01","","696","","images/semantic_sequence/redecorating_semantic/redecorating_semantic_4.png","0","",""
"","","","","","image-button-response","65","444370","0.0-12.0-1.0-2.2","F22A38139CA34CA380C5E1036542E2DC","F22A38139CA34CA380C5E1036542E2DC","c7870d47-5d15-4273-bbe6-f1a00e7fce29","5e631737-0fa4-44a6-b227-7ba1d7345015","{""num_scrambled_semantic"":""8"",""num_scrambled_causal"":""4"",""num_scrambled_schematic"":""4"",""participantId"":""F22A38139CA34CA380C5E1036542E2DC"",""assignmentId"":""c7870d47-5d15-4273-bbe6-f1a00e7fce29"",""projectId"":""5e631737-0fa4-44a6-b227-7ba1d7345015""}","https://test12345.live/?num_scrambled_semantic=8&num_scrambled_causal=4&num_scrambled_schematic=4&participantId=F22A38139CA34CA380C5E1036542E2DC&assignmentId=c7870d47-5d15-4273-bbe6-f1a00e7fce29&projectId=5e631737-0fa4-44a6-b227-7ba1d7345015","F22A38139CA34CA380C5E1036542E2DC-2025-05-27-18-41-01","","null","","[]","null","",""
"","","","","","image-button-response","66","448876","0.0-12.0-1.0-0.3","F22A38139CA34CA380C5E1036542E2DC","F22A38139CA34CA380C5E1036542E2DC","c7870d47-5d15-4273-bbe6-f1a00e7fce29","5e631737-0fa4-44a6-b227-7ba1d7345015","{""num_scrambled_semantic"":""8"",""num_scrambled_causal"":""4"",""num_scrambled_schematic"":""4"",""participantId"":""F22A38139CA34CA380C5E1036542E2DC"",""assignmentId"":""c7870d47-5d15-4273-bbe6-f1a00e7fce29"",""projectId"":""5e631737-0fa4-44a6-b227-7ba1d7345015""}","https://test12345.live/?num_scrambled_semantic=8&num_scrambled_causal=4&num_scrambled_schematic=4&participantId=F22A38139CA34CA380C5E1036542E2DC&assignmentId=c7870d47-5d15-4273-bbe6-f1a00e7fce29&projectId=5e631737-0fa4-44a6-b227-7ba1d7345015","F22A38139CA34CA380C5E1036542E2DC-2025-05-27-18-41-01","","null","","images/semantic_sequence/redecorating_semantic/redecorating_semantic_6.png","null","",""
"","","","","","image-button-response","67","450216","0.0-12.0-1.0-1.3","F22A38139CA34CA380C5E1036542E2DC","F22A38139CA34CA380C5E1036542E2DC","c7870d47-5d15-4273-bbe6-f1a00e7fce29","5e631737-0fa4-44a6-b227-7ba1d7345015","{""num_scrambled_semantic"":""8"",""num_scrambled_causal"":""4"",""num_scrambled_schematic"":""4"",""participantId"":""F22A38139CA34CA380C5E1036542E2DC"",""assignmentId"":""c7870d47-5d15-4273-bbe6-f1a00e7fce29"",""projectId"":""5e631737-0fa4-44a6-b227-7ba1d7345015""}","https://test12345.live/?num_scrambled_semantic=8&num_scrambled_causal=4&num_scrambled_schematic=4&participantId=F22A38139CA34CA380C5E1036542E2DC&assignmentId=c7870d47-5d15-4273-bbe6-f1a00e7fce29&projectId=5e631737-0fa4-44a6-b227-7ba1d7345015","F22A38139CA34CA380C5E1036542E2DC-2025-05-27-18-41-01","","1338","","images/semantic_sequence/redecorating_semantic/redecorating_semantic_6.png","0","",""
"","","","","","image-button-response","68","452030","0.0-12.0-1.0-2.3","F22A38139CA34CA380C5E1036542E2DC","F22A38139CA34CA380C5E1036542E2DC","c7870d47-5d15-4273-bbe6-f1a00e7fce29","5e631737-0fa4-44a6-b227-7ba1d7345015","{""num_scrambled_semantic"":""8"",""num_scrambled_causal"":""4"",""num_scrambled_schematic"":""4"",""participantId"":""F22A38139CA34CA380C5E1036542E2DC"",""assignmentId"":""c7870d47-5d15-4273-bbe6-f1a00e7fce29"",""projectId"":""5e631737-0fa4-44a6-b227-7ba1d7345015""}","https://test12345.live/?num_scrambled_semantic=8&num_scrambled_causal=4&num_scrambled_schematic=4&participantId=F22A38139CA34CA380C5E1036542E2DC&assignmentId=c7870d47-5d15-4273-bbe6-f1a00e7fce29&projectId=5e631737-0fa4-44a6-b227-7ba1d7345015","F22A38139CA34CA380C5E1036542E2DC-2025-05-27-18-41-01","","null","","[]","null","",""
"","","","","","image-button-response","69","456546","0.0-12.0-1.0-0.4","F22A38139CA34CA380C5E1036542E2DC","F22A38139CA34CA380C5E1036542E2DC","c7870d47-5d15-4273-bbe6-f1a00e7fce29","5e631737-0fa4-44a6-b227-7ba1d7345015","{""num_scrambled_semantic"":""8"",""num_scrambled_causal"":""4"",""num_scrambled_schematic"":""4"",""participantId"":""F22A38139CA34CA380C5E1036542E2DC"",""assignmentId"":""c7870d47-5d15-4273-bbe6-f1a00e7fce29"",""projectId"":""5e631737-0fa4-44a6-b227-7ba1d7345015""}","https://test12345.live/?num_scrambled_semantic=8&num_scrambled_causal=4&num_scrambled_schematic=4&participantId=F22A38139CA34CA380C5E1036542E2DC&assignmentId=c7870d47-5d15-4273-bbe6-f1a00e7fce29&projectId=5e631737-0fa4-44a6-b227-7ba1d7345015","F22A38139CA34CA380C5E1036542E2DC-2025-05-27-18-41-01","","null","","images/semantic_sequence/redecorating_semantic/redecorating_semantic_1.png","null","",""
"","","","","","image-button-response","70","457481","0.0-12.0-1.0-1.4","F22A38139CA34CA380C5E1036542E2DC","F22A38139CA34CA380C5E1036542E2DC","c7870d47-5d15-4273-bbe6-f1a00e7fce29","5e631737-0fa4-44a6-b227-7ba1d7345015","{""num_scrambled_semantic"":""8"",""num_scrambled_causal"":""4"",""num_scrambled_schematic"":""4"",""participantId"":""F22A38139CA34CA380C5E1036542E2DC"",""assignmentId"":""c7870d47-5d15-4273-bbe6-f1a00e7fce29"",""projectId"":""5e631737-0fa4-44a6-b227-7ba1d7345015""}","https://test12345.live/?num_scrambled_semantic=8&num_scrambled_causal=4&num_scrambled_schematic=4&participantId=F22A38139CA34CA380C5E1036542E2DC&assignmentId=c7870d47-5d15-4273-bbe6-f1a00e7fce29&projectId=5e631737-0fa4-44a6-b227-7ba1d7345015","F22A38139CA34CA380C5E1036542E2DC-2025-05-27-18-41-01","","933","","images/semantic_sequence/redecorating_semantic/redecorating_semantic_1.png","0","",""
"","","","","","image-button-response","71","459296","0.0-12.0-1.0-2.4","F22A38139CA34CA380C5E1036542E2DC","F22A38139CA34CA380C5E1036542E2DC","c7870d47-5d15-4273-bbe6-f1a00e7fce29","5e631737-0fa4-44a6-b227-7ba1d7345015","{""num_scrambled_semantic"":""8"",""num_scrambled_causal"":""4"",""num_scrambled_schematic"":""4"",""participantId"":""F22A38139CA34CA380C5E1036542E2DC"",""assignmentId"":""c7870d47-5d15-4273-bbe6-f1a00e7fce29"",""projectId"":""5e631737-0fa4-44a6-b227-7ba1d7345015""}","https://test12345.live/?num_scrambled_semantic=8&num_scrambled_causal=4&num_scrambled_schematic=4&participantId=F22A38139CA34CA380C5E1036542E2DC&assignmentId=c7870d47-5d15-4273-bbe6-f1a00e7fce29&projectId=5e631737-0fa4-44a6-b227-7ba1d7345015","F22A38139CA34CA380C5E1036542E2DC-2025-05-27-18-41-01","","null","","[]","null","",""
"","","","","","image-button-response","72","463798","0.0-12.0-1.0-0.5","F22A38139CA34CA380C5E1036542E2DC","F22A38139CA34CA380C5E1036542E2DC","c7870d47-5d15-4273-bbe6-f1a00e7fce29","5e631737-0fa4-44a6-b227-7ba1d7345015","{""num_scrambled_semantic"":""8"",""num_scrambled_causal"":""4"",""num_scrambled_schematic"":""4"",""participantId"":""F22A38139CA34CA380C5E1036542E2DC"",""assignmentId"":""c7870d47-5d15-4273-bbe6-f1a00e7fce29"",""projectId"":""5e631737-0fa4-44a6-b227-7ba1d7345015""}","https://test12345.live/?num_scrambled_semantic=8&num_scrambled_causal=4&num_scrambled_schematic=4&participantId=F22A38139CA34CA380C5E1036542E2DC&assignmentId=c7870d47-5d15-4273-bbe6-f1a00e7fce29&projectId=5e631737-0fa4-44a6-b227-7ba1d7345015","F22A38139CA34CA380C5E1036542E2DC-2025-05-27-18-41-01","","null","","images/semantic_sequence/redecorating_semantic/redecorating_semantic_5.png","null","",""
"","","","","","image-button-response","73","464752","0.0-12.0-1.0-1.5","F22A38139CA34CA380C5E1036542E2DC","F22A38139CA34CA380C5E1036542E2DC","c7870d47-5d15-4273-bbe6-f1a00e7fce29","5e631737-0fa4-44a6-b227-7ba1d7345015","{""num_scrambled_semantic"":""8"",""num_scrambled_causal"":""4"",""num_scrambled_schematic"":""4"",""participantId"":""F22A38139CA34CA380C5E1036542E2DC"",""assignmentId"":""c7870d47-5d15-4273-bbe6-f1a00e7fce29"",""projectId"":""5e631737-0fa4-44a6-b227-7ba1d7345015""}","https://test12345.live/?num_scrambled_semantic=8&num_scrambled_causal=4&num_scrambled_schematic=4&participantId=F22A38139CA34CA380C5E1036542E2DC&assignmentId=c7870d47-5d15-4273-bbe6-f1a00e7fce29&projectId=5e631737-0fa4-44a6-b227-7ba1d7345015","F22A38139CA34CA380C5E1036542E2DC-2025-05-27-18-41-01","","952","","images/semantic_sequence/redecorating_semantic/redecorating_semantic_5.png","0","",""
"","","","","","image-button-response","74","466562","0.0-12.0-1.0-2.5","F22A38139CA34CA380C5E1036542E2DC","F22A38139CA34CA380C5E1036542E2DC","c7870d47-5d15-4273-bbe6-f1a00e7fce29","5e631737-0fa4-44a6-b227-7ba1d7345015","{""num_scrambled_semantic"":""8"",""num_scrambled_causal"":""4"",""num_scrambled_schematic"":""4"",""participantId"":""F22A38139CA34CA380C5E1036542E2DC"",""assignmentId"":""c7870d47-5d15-4273-bbe6-f1a00e7fce29"",""projectId"":""5e631737-0fa4-44a6-b227-7ba1d7345015""}","https://test12345.live/?num_scrambled_semantic=8&num_scrambled_causal=4&num_scrambled_schematic=4&participantId=F22A38139CA34CA380C5E1036542E2DC&assignmentId=c7870d47-5d15-4273-bbe6-f1a00e7fce29&projectId=5e631737-0fa4-44a6-b227-7ba1d7345015","F22A38139CA34CA380C5E1036542E2DC-2025-05-27-18-41-01","","null","","[]","null","",""
"","","","","","image-button-response","75","471065","0.0-12.0-1.0-0.6","F22A38139CA34CA380C5E1036542E2DC","F22A38139CA34CA380C5E1036542E2DC","c7870d47-5d15-4273-bbe6-f1a00e7fce29","5e631737-0fa4-44a6-b227-7ba1d7345015","{""num_scrambled_semantic"":""8"",""num_scrambled_causal"":""4"",""num_scrambled_schematic"":""4"",""participantId"":""F22A38139CA34CA380C5E1036542E2DC"",""assignmentId"":""c7870d47-5d15-4273-bbe6-f1a00e7fce29"",""projectId"":""5e631737-0fa4-44a6-b227-7ba1d7345015""}","https://test12345.live/?num_scrambled_semantic=8&num_scrambled_causal=4&num_scrambled_schematic=4&participantId=F22A38139CA34CA380C5E1036542E2DC&assignmentId=c7870d47-5d15-4273-bbe6-f1a00e7fce29&projectId=5e631737-0fa4-44a6-b227-7ba1d7345015","F22A38139CA34CA380C5E1036542E2DC-2025-05-27-18-41-01","","null","","images/semantic_sequence/redecorating_semantic/redecorating_semantic_7.png","null","",""
"","","","","","image-button-response","76","471688","0.0-12.0-1.0-1.6","F22A38139CA34CA380C5E1036542E2DC","F22A38139CA34CA380C5E1036542E2DC","c7870d47-5d15-4273-bbe6-f1a00e7fce29","5e631737-0fa4-44a6-b227-7ba1d7345015","{""num_scrambled_semantic"":""8"",""num_scrambled_causal"":""4"",""num_scrambled_schematic"":""4"",""participantId"":""F22A38139CA34CA380C5E1036542E2DC"",""assignmentId"":""c7870d47-5d15-4273-bbe6-f1a00e7fce29"",""projectId"":""5e631737-0fa4-44a6-b227-7ba1d7345015""}","https://test12345.live/?num_scrambled_semantic=8&num_scrambled_causal=4&num_scrambled_schematic=4&participantId=F22A38139CA34CA380C5E1036542E2DC&assignmentId=c7870d47-5d15-4273-bbe6-f1a00e7fce29&projectId=5e631737-0fa4-44a6-b227-7ba1d7345015","F22A38139CA34CA380C5E1036542E2DC-2025-05-27-18-41-01","","622","","images/semantic_sequence/redecorating_semantic/redecorating_semantic_7.png","0","",""
"","","","","","image-button-response","77","473502","0.0-12.0-1.0-2.6","F22A38139CA34CA380C5E1036542E2DC","F22A38139CA34CA380C5E1036542E2DC","c7870d47-5d15-4273-bbe6-f1a00e7fce29","5e631737-0fa4-44a6-b227-7ba1d7345015","{""num_scrambled_semantic"":""8"",""num_scrambled_causal"":""4"",""num_scrambled_schematic"":""4"",""participantId"":""F22A38139CA34CA380C5E1036542E2DC"",""assignmentId"":""c7870d47-5d15-4273-bbe6-f1a00e7fce29"",""projectId"":""5e631737-0fa4-44a6-b227-7ba1d7345015""}","https://test12345.live/?num_scrambled_semantic=8&num_scrambled_causal=4&num_scrambled_schematic=4&participantId=F22A38139CA34CA380C5E1036542E2DC&assignmentId=c7870d47-5d15-4273-bbe6-f1a00e7fce29&projectId=5e631737-0fa4-44a6-b227-7ba1d7345015","F22A38139CA34CA380C5E1036542E2DC-2025-05-27-18-41-01","","null","","[]","null","",""
"","","","","","image-button-response","78","478011","0.0-12.0-1.0-0.7","F22A38139CA34CA380C5E1036542E2DC","F22A38139CA34CA380C5E1036542E2DC","c7870d47-5d15-4273-bbe6-f1a00e7fce29","5e631737-0fa4-44a6-b227-7ba1d7345015","{""num_scrambled_semantic"":""8"",""num_scrambled_causal"":""4"",""num_scrambled_schematic"":""4"",""participantId"":""F22A38139CA34CA380C5E1036542E2DC"",""assignmentId"":""c7870d47-5d15-4273-bbe6-f1a00e7fce29"",""projectId"":""5e631737-0fa4-44a6-b227-7ba1d7345015""}","https://test12345.live/?num_scrambled_semantic=8&num_scrambled_causal=4&num_scrambled_schematic=4&participantId=F22A38139CA34CA380C5E1036542E2DC&assignmentId=c7870d47-5d15-4273-bbe6-f1a00e7fce29&projectId=5e631737-0fa4-44a6-b227-7ba1d7345015","F22A38139CA34CA380C5E1036542E2DC-2025-05-27-18-41-01","","null","","images/semantic_sequence/redecorating_semantic/redecorating_semantic_ten.png","null","",""
"","","","","","image-button-response","79","478866","0.0-12.0-1.0-1.7","F22A38139CA34CA380C5E1036542E2DC","F22A38139CA34CA380C5E1036542E2DC","c7870d47-5d15-4273-bbe6-f1a00e7fce29","5e631737-0fa4-44a6-b227-7ba1d7345015","{""num_scrambled_semantic"":""8"",""num_scrambled_causal"":""4"",""num_scrambled_schematic"":""4"",""participantId"":""F22A38139CA34CA380C5E1036542E2DC"",""assignmentId"":""c7870d47-5d15-4273-bbe6-f1a00e7fce29"",""projectId"":""5e631737-0fa4-44a6-b227-7ba1d7345015""}","https://test12345.live/?num_scrambled_semantic=8&num_scrambled_causal=4&num_scrambled_schematic=4&participantId=F22A38139CA34CA380C5E1036542E2DC&assignmentId=c7870d47-5d15-4273-bbe6-f1a00e7fce29&projectId=5e631737-0fa4-44a6-b227-7ba1d7345015","F22A38139CA34CA380C5E1036542E2DC-2025-05-27-18-41-01","","855","","images/semantic_sequence/redecorating_semantic/redecorating_semantic_ten.png","0","",""
"","","","","","image-button-response","80","480676","0.0-12.0-1.0-2.7","F22A38139CA34CA380C5E1036542E2DC","F22A38139CA34CA380C5E1036542E2DC","c7870d47-5d15-4273-bbe6-f1a00e7fce29","5e631737-0fa4-44a6-b227-7ba1d7345015","{""num_scrambled_semantic"":""8"",""num_scrambled_causal"":""4"",""num_scrambled_schematic"":""4"",""participantId"":""F22A38139CA34CA380C5E1036542E2DC"",""assignmentId"":""c7870d47-5d15-4273-bbe6-f1a00e7fce29"",""projectId"":""5e631737-0fa4-44a6-b227-7ba1d7345015""}","https://test12345.live/?num_scrambled_semantic=8&num_scrambled_causal=4&num_scrambled_schematic=4&participantId=F22A38139CA34CA380C5E1036542E2DC&assignmentId=c7870d47-5d15-4273-bbe6-f1a00e7fce29&projectId=5e631737-0fa4-44a6-b227-7ba1d7345015","F22A38139CA34CA380C5E1036542E2DC-2025-05-27-18-41-01","","null","","[]","null","",""
"","","","","","image-button-response","81","485182","0.0-12.0-1.0-0.8","F22A38139CA34CA380C5E1036542E2DC","F22A38139CA34CA380C5E1036542E2DC","c7870d47-5d15-4273-bbe6-f1a00e7fce29","5e631737-0fa4-44a6-b227-7ba1d7345015","{""num_scrambled_semantic"":""8"",""num_scrambled_causal"":""4"",""num_scrambled_schematic"":""4"",""participantId"":""F22A38139CA34CA380C5E1036542E2DC"",""assignmentId"":""c7870d47-5d15-4273-bbe6-f1a00e7fce29"",""projectId"":""5e631737-0fa4-44a6-b227-7ba1d7345015""}","https://test12345.live/?num_scrambled_semantic=8&num_scrambled_causal=4&num_scrambled_schematic=4&participantId=F22A38139CA34CA380C5E1036542E2DC&assignmentId=c7870d47-5d15-4273-bbe6-f1a00e7fce29&projectId=5e631737-0fa4-44a6-b227-7ba1d7345015","F22A38139CA34CA380C5E1036542E2DC-2025-05-27-18-41-01","","null","","images/semantic_sequence/redecorating_semantic/redecorating_semantic_2.png","null","",""
"","","","","","image-button-response","82","487289","0.0-12.0-1.0-1.8","F22A38139CA34CA380C5E1036542E2DC","F22A38139CA34CA380C5E1036542E2DC","c7870d47-5d15-4273-bbe6-f1a00e7fce29","5e631737-0fa4-44a6-b227-7ba1d7345015","{""num_scrambled_semantic"":""8"",""num_scrambled_causal"":""4"",""num_scrambled_schematic"":""4"",""participantId"":""F22A38139CA34CA380C5E1036542E2DC"",""assignmentId"":""c7870d47-5d15-4273-bbe6-f1a00e7fce29"",""projectId"":""5e631737-0fa4-44a6-b227-7ba1d7345015""}","https://test12345.live/?num_scrambled_semantic=8&num_scrambled_causal=4&num_scrambled_schematic=4&participantId=F22A38139CA34CA380C5E1036542E2DC&assignmentId=c7870d47-5d15-4273-bbe6-f1a00e7fce29&projectId=5e631737-0fa4-44a6-b227-7ba1d7345015","F22A38139CA34CA380C5E1036542E2DC-2025-05-27-18-41-01","","2106","","images/semantic_sequence/redecorating_semantic/redecorating_semantic_2.png","0","",""
"","","","","","image-button-response","83","489104","0.0-12.0-1.0-2.8","F22A38139CA34CA380C5E1036542E2DC","F22A38139CA34CA380C5E1036542E2DC","c7870d47-5d15-4273-bbe6-f1a00e7fce29","5e631737-0fa4-44a6-b227-7ba1d7345015","{""num_scrambled_semantic"":""8"",""num_scrambled_causal"":""4"",""num_scrambled_schematic"":""4"",""participantId"":""F22A38139CA34CA380C5E1036542E2DC"",""assignmentId"":""c7870d47-5d15-4273-bbe6-f1a00e7fce29"",""projectId"":""5e631737-0fa4-44a6-b227-7ba1d7345015""}","https://test12345.live/?num_scrambled_semantic=8&num_scrambled_causal=4&num_scrambled_schematic=4&participantId=F22A38139CA34CA380C5E1036542E2DC&assignmentId=c7870d47-5d15-4273-bbe6-f1a00e7fce29&projectId=5e631737-0fa4-44a6-b227-7ba1d7345015","F22A38139CA34CA380C5E1036542E2DC-2025-05-27-18-41-01","","null","","[]","null","",""
"","","","","","image-button-response","84","493612","0.0-12.0-1.0-0.9","F22A38139CA34CA380C5E1036542E2DC","F22A38139CA34CA380C5E1036542E2DC","c7870d47-5d15-4273-bbe6-f1a00e7fce29","5e631737-0fa4-44a6-b227-7ba1d7345015","{""num_scrambled_semantic"":""8"",""num_scrambled_causal"":""4"",""num_scrambled_schematic"":""4"",""participantId"":""F22A38139CA34CA380C5E1036542E2DC"",""assignmentId"":""c7870d47-5d15-4273-bbe6-f1a00e7fce29"",""projectId"":""5e631737-0fa4-44a6-b227-7ba1d7345015""}","https://test12345.live/?num_scrambled_semantic=8&num_scrambled_causal=4&num_scrambled_schematic=4&participantId=F22A38139CA34CA380C5E1036542E2DC&assignmentId=c7870d47-5d15-4273-bbe6-f1a00e7fce29&projectId=5e631737-0fa4-44a6-b227-7ba1d7345015","F22A38139CA34CA380C5E1036542E2DC-2025-05-27-18-41-01","","null","","images/semantic_sequence/redecorating_semantic/redecorating_semantic_8.png","null","",""
"","","","","","image-button-response","85","495283","0.0-12.0-1.0-1.9","F22A38139CA34CA380C5E1036542E2DC","F22A38139CA34CA380C5E1036542E2DC","c7870d47-5d15-4273-bbe6-f1a00e7fce29","5e631737-0fa4-44a6-b227-7ba1d7345015","{""num_scrambled_semantic"":""8"",""num_scrambled_causal"":""4"",""num_scrambled_schematic"":""4"",""participantId"":""F22A38139CA34CA380C5E1036542E2DC"",""assignmentId"":""c7870d47-5d15-4273-bbe6-f1a00e7fce29"",""projectId"":""5e631737-0fa4-44a6-b227-7ba1d7345015""}","https://test12345.live/?num_scrambled_semantic=8&num_scrambled_causal=4&num_scrambled_schematic=4&participantId=F22A38139CA34CA380C5E1036542E2DC&assignmentId=c7870d47-5d15-4273-bbe6-f1a00e7fce29&projectId=5e631737-0fa4-44a6-b227-7ba1d7345015","F22A38139CA34CA380C5E1036542E2DC-2025-05-27-18-41-01","","1669","","images/semantic_sequence/redecorating_semantic/redecorating_semantic_8.png","0","",""
"","","","","","image-button-response","86","497098","0.0-12.0-1.0-2.9","F22A38139CA34CA380C5E1036542E2DC","F22A38139CA34CA380C5E1036542E2DC","c7870d47-5d15-4273-bbe6-f1a00e7fce29","5e631737-0fa4-44a6-b227-7ba1d7345015","{""num_scrambled_semantic"":""8"",""num_scrambled_causal"":""4"",""num_scrambled_schematic"":""4"",""participantId"":""F22A38139CA34CA380C5E1036542E2DC"",""assignmentId"":""c7870d47-5d15-4273-bbe6-f1a00e7fce29"",""projectId"":""5e631737-0fa4-44a6-b227-7ba1d7345015""}","https://test12345.live/?num_scrambled_semantic=8&num_scrambled_causal=4&num_scrambled_schematic=4&participantId=F22A38139CA34CA380C5E1036542E2DC&assignmentId=c7870d47-5d15-4273-bbe6-f1a00e7fce29&projectId=5e631737-0fa4-44a6-b227-7ba1d7345015","F22A38139CA34CA380C5E1036542E2DC-2025-05-27-18-41-01","","null","","[]","null","",""
"","","","","","html-audio-response","87","531264","0.0-13.0","F22A38139CA34CA380C5E1036542E2DC","F22A38139CA34CA380C5E1036542E2DC","c7870d47-5d15-4273-bbe6-f1a00e7fce29","5e631737-0fa4-44a6-b227-7ba1d7345015","{""num_scrambled_semantic"":""8"",""num_scrambled_causal"":""4"",""num_scrambled_schematic"":""4"",""participantId"":""F22A38139CA34CA380C5E1036542E2DC"",""assignmentId"":""c7870d47-5d15-4273-bbe6-f1a00e7fce29"",""projectId"":""5e631737-0fa4-44a6-b227-7ba1d7345015""}","https://test12345.live/?num_scrambled_semantic=8&num_scrambled_causal=4&num_scrambled_schematic=4&participantId=F22A38139CA34CA380C5E1036542E2DC&assignmentId=c7870d47-5d15-4273-bbe6-f1a00e7fce29&projectId=5e631737-0fa4-44a6-b227-7ba1d7345015","F22A38139CA34CA380C5E1036542E2DC-2025-05-27-18-41-01","","28908","","[""<span style=\""color: red; font-size: 24px\""> NOW RECORDING</span><p>Please say out loud all the images you saw, in the exact order you saw them. Try to recall as many images as you can, but remember: getting the order right is more important than the number of images you recall.</p>""]","","2","redecorating_semantic"
"","","","","","image-button-response","88","537284","0.0-14.0-0.0","F22A38139CA34CA380C5E1036542E2DC","F22A38139CA34CA380C5E1036542E2DC","c7870d47-5d15-4273-bbe6-f1a00e7fce29","5e631737-0fa4-44a6-b227-7ba1d7345015","{""num_scrambled_semantic"":""8"",""num_scrambled_causal"":""4"",""num_scrambled_schematic"":""4"",""participantId"":""F22A38139CA34CA380C5E1036542E2DC"",""assignmentId"":""c7870d47-5d15-4273-bbe6-f1a00e7fce29"",""projectId"":""5e631737-0fa4-44a6-b227-7ba1d7345015""}","https://test12345.live/?num_scrambled_semantic=8&num_scrambled_causal=4&num_scrambled_schematic=4&participantId=F22A38139CA34CA380C5E1036542E2DC&assignmentId=c7870d47-5d15-4273-bbe6-f1a00e7fce29&projectId=5e631737-0fa4-44a6-b227-7ba1d7345015","F22A38139CA34CA380C5E1036542E2DC-2025-05-27-18-41-01","","null","","images/causal_sequence/saving_a_cat_causal/saving_a_cat_causal_0.png","null","",""
"","","","","","image-button-response","89","541798","0.0-14.0-1.0-0.0","F22A38139CA34CA380C5E1036542E2DC","F22A38139CA34CA380C5E1036542E2DC","c7870d47-5d15-4273-bbe6-f1a00e7fce29","5e631737-0fa4-44a6-b227-7ba1d7345015","{""num_scrambled_semantic"":""8"",""num_scrambled_causal"":""4"",""num_scrambled_schematic"":""4"",""participantId"":""F22A38139CA34CA380C5E1036542E2DC"",""assignmentId"":""c7870d47-5d15-4273-bbe6-f1a00e7fce29"",""projectId"":""5e631737-0fa4-44a6-b227-7ba1d7345015""}","https://test12345.live/?num_scrambled_semantic=8&num_scrambled_causal=4&num_scrambled_schematic=4&participantId=F22A38139CA34CA380C5E1036542E2DC&assignmentId=c7870d47-5d15-4273-bbe6-f1a00e7fce29&projectId=5e631737-0fa4-44a6-b227-7ba1d7345015","F22A38139CA34CA380C5E1036542E2DC-2025-05-27-18-41-01","","null","","images/causal_sequence/saving_a_cat_causal/saving_a_cat_causal_9.png","null","",""
"","","","","","image-button-response","90","545812","0.0-14.0-1.0-1.0","F22A38139CA34CA380C5E1036542E2DC","F22A38139CA34CA380C5E1036542E2DC","c7870d47-5d15-4273-bbe6-f1a00e7fce29","5e631737-0fa4-44a6-b227-7ba1d7345015","{""num_scrambled_semantic"":""8"",""num_scrambled_causal"":""4"",""num_scrambled_schematic"":""4"",""participantId"":""F22A38139CA34CA380C5E1036542E2DC"",""assignmentId"":""c7870d47-5d15-4273-bbe6-f1a00e7fce29"",""projectId"":""5e631737-0fa4-44a6-b227-7ba1d7345015""}","https://test12345.live/?num_scrambled_semantic=8&num_scrambled_causal=4&num_scrambled_schematic=4&participantId=F22A38139CA34CA380C5E1036542E2DC&assignmentId=c7870d47-5d15-4273-bbe6-f1a00e7fce29&projectId=5e631737-0fa4-44a6-b227-7ba1d7345015","F22A38139CA34CA380C5E1036542E2DC-2025-05-27-18-41-01","","null","","images/causal_sequence/saving_a_cat_causal/saving_a_cat_causal_9.png","null","",""
"","","","","","image-button-response","91","547616","0.0-14.0-1.0-2.0","F22A38139CA34CA380C5E1036542E2DC","F22A38139CA34CA380C5E1036542E2DC","c7870d47-5d15-4273-bbe6-f1a00e7fce29","5e631737-0fa4-44a6-b227-7ba1d7345015","{""num_scrambled_semantic"":""8"",""num_scrambled_causal"":""4"",""num_scrambled_schematic"":""4"",""participantId"":""F22A38139CA34CA380C5E1036542E2DC"",""assignmentId"":""c7870d47-5d15-4273-bbe6-f1a00e7fce29"",""projectId"":""5e631737-0fa4-44a6-b227-7ba1d7345015""}","https://test12345.live/?num_scrambled_semantic=8&num_scrambled_causal=4&num_scrambled_schematic=4&participantId=F22A38139CA34CA380C5E1036542E2DC&assignmentId=c7870d47-5d15-4273-bbe6-f1a00e7fce29&projectId=5e631737-0fa4-44a6-b227-7ba1d7345015","F22A38139CA34CA380C5E1036542E2DC-2025-05-27-18-41-01","","null","","[]","null","",""
"","","","","","image-button-response","92","552132","0.0-14.0-1.0-0.1","F22A38139CA34CA380C5E1036542E2DC","F22A38139CA34CA380C5E1036542E2DC","c7870d47-5d15-4273-bbe6-f1a00e7fce29","5e631737-0fa4-44a6-b227-7ba1d7345015","{""num_scrambled_semantic"":""8"",""num_scrambled_causal"":""4"",""num_scrambled_schematic"":""4"",""participantId"":""F22A38139CA34CA380C5E1036542E2DC"",""assignmentId"":""c7870d47-5d15-4273-bbe6-f1a00e7fce29"",""projectId"":""5e631737-0fa4-44a6-b227-7ba1d7345015""}","https://test12345.live/?num_scrambled_semantic=8&num_scrambled_causal=4&num_scrambled_schematic=4&participantId=F22A38139CA34CA380C5E1036542E2DC&assignmentId=c7870d47-5d15-4273-bbe6-f1a00e7fce29&projectId=5e631737-0fa4-44a6-b227-7ba1d7345015","F22A38139CA34CA380C5E1036542E2DC-2025-05-27-18-41-01","","null","","images/causal_sequence/saving_a_cat_causal/saving_a_cat_causal_3.png","null","",""
"","","","","","image-button-response","93","553673","0.0-14.0-1.0-1.1","F22A38139CA34CA380C5E1036542E2DC","F22A38139CA34CA380C5E1036542E2DC","c7870d47-5d15-4273-bbe6-f1a00e7fce29","5e631737-0fa4-44a6-b227-7ba1d7345015","{""num_scrambled_semantic"":""8"",""num_scrambled_causal"":""4"",""num_scrambled_schematic"":""4"",""participantId"":""F22A38139CA34CA380C5E1036542E2DC"",""assignmentId"":""c7870d47-5d15-4273-bbe6-f1a00e7fce29"",""projectId"":""5e631737-0fa4-44a6-b227-7ba1d7345015""}","https://test12345.live/?num_scrambled_semantic=8&num_scrambled_causal=4&num_scrambled_schematic=4&participantId=F22A38139CA34CA380C5E1036542E2DC&assignmentId=c7870d47-5d15-4273-bbe6-f1a00e7fce29&projectId=5e631737-0fa4-44a6-b227-7ba1d7345015","F22A38139CA34CA380C5E1036542E2DC-2025-05-27-18-41-01","","1540","","images/causal_sequence/saving_a_cat_causal/saving_a_cat_causal_3.png","1","",""
"","","","","","image-button-response","94","555478","0.0-14.0-1.0-2.1","F22A38139CA34CA380C5E1036542E2DC","F22A38139CA34CA380C5E1036542E2DC","c7870d47-5d15-4273-bbe6-f1a00e7fce29","5e631737-0fa4-44a6-b227-7ba1d7345015","{""num_scrambled_semantic"":""8"",""num_scrambled_causal"":""4"",""num_scrambled_schematic"":""4"",""participantId"":""F22A38139CA34CA380C5E1036542E2DC"",""assignmentId"":""c7870d47-5d15-4273-bbe6-f1a00e7fce29"",""projectId"":""5e631737-0fa4-44a6-b227-7ba1d7345015""}","https://test12345.live/?num_scrambled_semantic=8&num_scrambled_causal=4&num_scrambled_schematic=4&participantId=F22A38139CA34CA380C5E1036542E2DC&assignmentId=c7870d47-5d15-4273-bbe6-f1a00e7fce29&projectId=5e631737-0fa4-44a6-b227-7ba1d7345015","F22A38139CA34CA380C5E1036542E2DC-2025-05-27-18-41-01","","null","","[]","null","",""
"","","","","","image-button-response","95","559988","0.0-14.0-1.0-0.2","F22A38139CA34CA380C5E1036542E2DC","F22A38139CA34CA380C5E1036542E2DC","c7870d47-5d15-4273-bbe6-f1a00e7fce29","5e631737-0fa4-44a6-b227-7ba1d7345015","{""num_scrambled_semantic"":""8"",""num_scrambled_causal"":""4"",""num_scrambled_schematic"":""4"",""participantId"":""F22A38139CA34CA380C5E1036542E2DC"",""assignmentId"":""c7870d47-5d15-4273-bbe6-f1a00e7fce29"",""projectId"":""5e631737-0fa4-44a6-b227-7ba1d7345015""}","https://test12345.live/?num_scrambled_semantic=8&num_scrambled_causal=4&num_scrambled_schematic=4&participantId=F22A38139CA34CA380C5E1036542E2DC&assignmentId=c7870d47-5d15-4273-bbe6-f1a00e7fce29&projectId=5e631737-0fa4-44a6-b227-7ba1d7345015","F22A38139CA34CA380C5E1036542E2DC-2025-05-27-18-41-01","","null","","images/causal_sequence/saving_a_cat_causal/saving_a_cat_causal_ten.png","null","",""
"","","","","","image-button-response","96","562025","0.0-14.0-1.0-1.2","F22A38139CA34CA380C5E1036542E2DC","F22A38139CA34CA380C5E1036542E2DC","c7870d47-5d15-4273-bbe6-f1a00e7fce29","5e631737-0fa4-44a6-b227-7ba1d7345015","{""num_scrambled_semantic"":""8"",""num_scrambled_causal"":""4"",""num_scrambled_schematic"":""4"",""participantId"":""F22A38139CA34CA380C5E1036542E2DC"",""assignmentId"":""c7870d47-5d15-4273-bbe6-f1a00e7fce29"",""projectId"":""5e631737-0fa4-44a6-b227-7ba1d7345015""}","https://test12345.live/?num_scrambled_semantic=8&num_scrambled_causal=4&num_scrambled_schematic=4&participantId=F22A38139CA34CA380C5E1036542E2DC&assignmentId=c7870d47-5d15-4273-bbe6-f1a00e7fce29&projectId=5e631737-0fa4-44a6-b227-7ba1d7345015","F22A38139CA34CA380C5E1036542E2DC-2025-05-27-18-41-01","","2036","","images/causal_sequence/saving_a_cat_causal/saving_a_cat_causal_ten.png","0","",""
"","","","","","image-button-response","97","563832","0.0-14.0-1.0-2.2","F22A38139CA34CA380C5E1036542E2DC","F22A38139CA34CA380C5E1036542E2DC","c7870d47-5d15-4273-bbe6-f1a00e7fce29","5e631737-0fa4-44a6-b227-7ba1d7345015","{""num_scrambled_semantic"":""8"",""num_scrambled_causal"":""4"",""num_scrambled_schematic"":""4"",""participantId"":""F22A38139CA34CA380C5E1036542E2DC"",""assignmentId"":""c7870d47-5d15-4273-bbe6-f1a00e7fce29"",""projectId"":""5e631737-0fa4-44a6-b227-7ba1d7345015""}","https://test12345.live/?num_scrambled_semantic=8&num_scrambled_causal=4&num_scrambled_schematic=4&participantId=F22A38139CA34CA380C5E1036542E2DC&assignmentId=c7870d47-5d15-4273-bbe6-f1a00e7fce29&projectId=5e631737-0fa4-44a6-b227-7ba1d7345015","F22A38139CA34CA380C5E1036542E2DC-2025-05-27-18-41-01","","null","","[]","null","",""
"","","","","","image-button-response","98","568335","0.0-14.0-1.0-0.3","F22A38139CA34CA380C5E1036542E2DC","F22A38139CA34CA380C5E1036542E2DC","c7870d47-5d15-4273-bbe6-f1a00e7fce29","5e631737-0fa4-44a6-b227-7ba1d7345015","{""num_scrambled_semantic"":""8"",""num_scrambled_causal"":""4"",""num_scrambled_schematic"":""4"",""participantId"":""F22A38139CA34CA380C5E1036542E2DC"",""assignmentId"":""c7870d47-5d15-4273-bbe6-f1a00e7fce29"",""projectId"":""5e631737-0fa4-44a6-b227-7ba1d7345015""}","https://test12345.live/?num_scrambled_semantic=8&num_scrambled_causal=4&num_scrambled_schematic=4&participantId=F22A38139CA34CA380C5E1036542E2DC&assignmentId=c7870d47-5d15-4273-bbe6-f1a00e7fce29&projectId=5e631737-0fa4-44a6-b227-7ba1d7345015","F22A38139CA34CA380C5E1036542E2DC-2025-05-27-18-41-01","","null","","images/causal_sequence/saving_a_cat_causal/saving_a_cat_causal_4.png","null","",""
"","","","","","image-button-response","99","569538","0.0-14.0-1.0-1.3","F22A38139CA34CA380C5E1036542E2DC","F22A38139CA34CA380C5E1036542E2DC","c7870d47-5d15-4273-bbe6-f1a00e7fce29","5e631737-0fa4-44a6-b227-7ba1d7345015","{""num_scrambled_semantic"":""8"",""num_scrambled_causal"":""4"",""num_scrambled_schematic"":""4"",""participantId"":""F22A38139CA34CA380C5E1036542E2DC"",""assignmentId"":""c7870d47-5d15-4273-bbe6-f1a00e7fce29"",""projectId"":""5e631737-0fa4-44a6-b227-7ba1d7345015""}","https://test12345.live/?num_scrambled_semantic=8&num_scrambled_causal=4&num_scrambled_schematic=4&participantId=F22A38139CA34CA380C5E1036542E2DC&assignmentId=c7870d47-5d15-4273-bbe6-f1a00e7fce29&projectId=5e631737-0fa4-44a6-b227-7ba1d7345015","F22A38139CA34CA380C5E1036542E2DC-2025-05-27-18-41-01","","1202","","images/causal_sequence/saving_a_cat_causal/saving_a_cat_causal_4.png","0","",""
"","","","","","image-button-response","100","571355","0.0-14.0-1.0-2.3","F22A38139CA34CA380C5E1036542E2DC","F22A38139CA34CA380C5E1036542E2DC","c7870d47-5d15-4273-bbe6-f1a00e7fce29","5e631737-0fa4-44a6-b227-7ba1d7345015","{""num_scrambled_semantic"":""8"",""num_scrambled_causal"":""4"",""num_scrambled_schematic"":""4"",""participantId"":""F22A38139CA34CA380C5E1036542E2DC"",""assignmentId"":""c7870d47-5d15-4273-bbe6-f1a00e7fce29"",""projectId"":""5e631737-0fa4-44a6-b227-7ba1d7345015""}","https://test12345.live/?num_scrambled_semantic=8&num_scrambled_causal=4&num_scrambled_schematic=4&participantId=F22A38139CA34CA380C5E1036542E2DC&assignmentId=c7870d47-5d15-4273-bbe6-f1a00e7fce29&projectId=5e631737-0fa4-44a6-b227-7ba1d7345015","F22A38139CA34CA380C5E1036542E2DC-2025-05-27-18-41-01","","null","","[]","null","",""
"","","","","","image-button-response","101","575866","0.0-14.0-1.0-0.4","F22A38139CA34CA380C5E1036542E2DC","F22A38139CA34CA380C5E1036542E2DC","c7870d47-5d15-4273-bbe6-f1a00e7fce29","5e631737-0fa4-44a6-b227-7ba1d7345015","{""num_scrambled_semantic"":""8"",""num_scrambled_causal"":""4"",""num_scrambled_schematic"":""4"",""participantId"":""F22A38139CA34CA380C5E1036542E2DC"",""assignmentId"":""c7870d47-5d15-4273-bbe6-f1a00e7fce29"",""projectId"":""5e631737-0fa4-44a6-b227-7ba1d7345015""}","https://test12345.live/?num_scrambled_semantic=8&num_scrambled_causal=4&num_scrambled_schematic=4&participantId=F22A38139CA34CA380C5E1036542E2DC&assignmentId=c7870d47-5d15-4273-bbe6-f1a00e7fce29&projectId=5e631737-0fa4-44a6-b227-7ba1d7345015","F22A38139CA34CA380C5E1036542E2DC-2025-05-27-18-41-01","","null","","images/causal_sequence/saving_a_cat_causal/saving_a_cat_causal_2.png","null","",""
"","","","","","image-button-response","102","577186","0.0-14.0-1.0-1.4","F22A38139CA34CA380C5E1036542E2DC","F22A38139CA34CA380C5E1036542E2DC","c7870d47-5d15-4273-bbe6-f1a00e7fce29","5e631737-0fa4-44a6-b227-7ba1d7345015","{""num_scrambled_semantic"":""8"",""num_scrambled_causal"":""4"",""num_scrambled_schematic"":""4"",""participantId"":""F22A38139CA34CA380C5E1036542E2DC"",""assignmentId"":""c7870d47-5d15-4273-bbe6-f1a00e7fce29"",""projectId"":""5e631737-0fa4-44a6-b227-7ba1d7345015""}","https://test12345.live/?num_scrambled_semantic=8&num_scrambled_causal=4&num_scrambled_schematic=4&participantId=F22A38139CA34CA380C5E1036542E2DC&assignmentId=c7870d47-5d15-4273-bbe6-f1a00e7fce29&projectId=5e631737-0fa4-44a6-b227-7ba1d7345015","F22A38139CA34CA380C5E1036542E2DC-2025-05-27-18-41-01","","1318","","images/causal_sequence/saving_a_cat_causal/saving_a_cat_causal_2.png","1","",""
"","","","","","image-button-response","103","578990","0.0-14.0-1.0-2.4","F22A38139CA34CA380C5E1036542E2DC","F22A38139CA34CA380C5E1036542E2DC","c7870d47-5d15-4273-bbe6-f1a00e7fce29","5e631737-0fa4-44a6-b227-7ba1d7345015","{""num_scrambled_semantic"":""8"",""num_scrambled_causal"":""4"",""num_scrambled_schematic"":""4"",""participantId"":""F22A38139CA34CA380C5E1036542E2DC"",""assignmentId"":""c7870d47-5d15-4273-bbe6-f1a00e7fce29"",""projectId"":""5e631737-0fa4-44a6-b227-7ba1d7345015""}","https://test12345.live/?num_scrambled_semantic=8&num_scrambled_causal=4&num_scrambled_schematic=4&participantId=F22A38139CA34CA380C5E1036542E2DC&assignmentId=c7870d47-5d15-4273-bbe6-f1a00e7fce29&projectId=5e631737-0fa4-44a6-b227-7ba1d7345015","F22A38139CA34CA380C5E1036542E2DC-2025-05-27-18-41-01","","null","","[]","null","",""
"","","","","","image-button-response","104","583502","0.0-14.0-1.0-0.5","F22A38139CA34CA380C5E1036542E2DC","F22A38139CA34CA380C5E1036542E2DC","c7870d47-5d15-4273-bbe6-f1a00e7fce29","5e631737-0fa4-44a6-b227-7ba1d7345015","{""num_scrambled_semantic"":""8"",""num_scrambled_causal"":""4"",""num_scrambled_schematic"":""4"",""participantId"":""F22A38139CA34CA380C5E1036542E2DC"",""assignmentId"":""c7870d47-5d15-4273-bbe6-f1a00e7fce29"",""projectId"":""5e631737-0fa4-44a6-b227-7ba1d7345015""}","https://test12345.live/?num_scrambled_semantic=8&num_scrambled_causal=4&num_scrambled_schematic=4&participantId=F22A38139CA34CA380C5E1036542E2DC&assignmentId=c7870d47-5d15-4273-bbe6-f1a00e7fce29&projectId=5e631737-0fa4-44a6-b227-7ba1d7345015","F22A38139CA34CA380C5E1036542E2DC-2025-05-27-18-41-01","","null","","images/causal_sequence/saving_a_cat_causal/saving_a_cat_causal_8.png","null","",""
"","","","","","image-button-response","105","586883","0.0-14.0-1.0-1.5","F22A38139CA34CA380C5E1036542E2DC","F22A38139CA34CA380C5E1036542E2DC","c7870d47-5d15-4273-bbe6-f1a00e7fce29","5e631737-0fa4-44a6-b227-7ba1d7345015","{""num_scrambled_semantic"":""8"",""num_scrambled_causal"":""4"",""num_scrambled_schematic"":""4"",""participantId"":""F22A38139CA34CA380C5E1036542E2DC"",""assignmentId"":""c7870d47-5d15-4273-bbe6-f1a00e7fce29"",""projectId"":""5e631737-0fa4-44a6-b227-7ba1d7345015""}","https://test12345.live/?num_scrambled_semantic=8&num_scrambled_causal=4&num_scrambled_schematic=4&participantId=F22A38139CA34CA380C5E1036542E2DC&assignmentId=c7870d47-5d15-4273-bbe6-f1a00e7fce29&projectId=5e631737-0fa4-44a6-b227-7ba1d7345015","F22A38139CA34CA380C5E1036542E2DC-2025-05-27-18-41-01","","3380","","images/causal_sequence/saving_a_cat_causal/saving_a_cat_causal_8.png","0","",""
"","","","","","image-button-response","106","588684","0.0-14.0-1.0-2.5","F22A38139CA34CA380C5E1036542E2DC","F22A38139CA34CA380C5E1036542E2DC","c7870d47-5d15-4273-bbe6-f1a00e7fce29","5e631737-0fa4-44a6-b227-7ba1d7345015","{""num_scrambled_semantic"":""8"",""num_scrambled_causal"":""4"",""num_scrambled_schematic"":""4"",""participantId"":""F22A38139CA34CA380C5E1036542E2DC"",""assignmentId"":""c7870d47-5d15-4273-bbe6-f1a00e7fce29"",""projectId"":""5e631737-0fa4-44a6-b227-7ba1d7345015""}","https://test12345.live/?num_scrambled_semantic=8&num_scrambled_causal=4&num_scrambled_schematic=4&participantId=F22A38139CA34CA380C5E1036542E2DC&assignmentId=c7870d47-5d15-4273-bbe6-f1a00e7fce29&projectId=5e631737-0fa4-44a6-b227-7ba1d7345015","F22A38139CA34CA380C5E1036542E2DC-2025-05-27-18-41-01","","null","","[]","null","",""
"","","","","","image-button-response","107","593192","0.0-14.0-1.0-0.6","F22A38139CA34CA380C5E1036542E2DC","F22A38139CA34CA380C5E1036542E2DC","c7870d47-5d15-4273-bbe6-f1a00e7fce29","5e631737-0fa4-44a6-b227-7ba1d7345015","{""num_scrambled_semantic"":""8"",""num_scrambled_causal"":""4"",""num_scrambled_schematic"":""4"",""participantId"":""F22A38139CA34CA380C5E1036542E2DC"",""assignmentId"":""c7870d47-5d15-4273-bbe6-f1a00e7fce29"",""projectId"":""5e631737-0fa4-44a6-b227-7ba1d7345015""}","https://test12345.live/?num_scrambled_semantic=8&num_scrambled_causal=4&num_scrambled_schematic=4&participantId=F22A38139CA34CA380C5E1036542E2DC&assignmentId=c7870d47-5d15-4273-bbe6-f1a00e7fce29&projectId=5e631737-0fa4-44a6-b227-7ba1d7345015","F22A38139CA34CA380C5E1036542E2DC-2025-05-27-18-41-01","","null","","images/causal_sequence/saving_a_cat_causal/saving_a_cat_causal_1.png","null","",""
"","","","","","image-button-response","108","594401","0.0-14.0-1.0-1.6","F22A38139CA34CA380C5E1036542E2DC","F22A38139CA34CA380C5E1036542E2DC","c7870d47-5d15-4273-bbe6-f1a00e7fce29","5e631737-0fa4-44a6-b227-7ba1d7345015","{""num_scrambled_semantic"":""8"",""num_scrambled_causal"":""4"",""num_scrambled_schematic"":""4"",""participantId"":""F22A38139CA34CA380C5E1036542E2DC"",""assignmentId"":""c7870d47-5d15-4273-bbe6-f1a00e7fce29"",""projectId"":""5e631737-0fa4-44a6-b227-7ba1d7345015""}","https://test12345.live/?num_scrambled_semantic=8&num_scrambled_causal=4&num_scrambled_schematic=4&participantId=F22A38139CA34CA380C5E1036542E2DC&assignmentId=c7870d47-5d15-4273-bbe6-f1a00e7fce29&projectId=5e631737-0fa4-44a6-b227-7ba1d7345015","F22A38139CA34CA380C5E1036542E2DC-2025-05-27-18-41-01","","1208","","images/causal_sequence/saving_a_cat_causal/saving_a_cat_causal_1.png","0","",""
"","","","","","image-button-response","109","596218","0.0-14.0-1.0-2.6","F22A38139CA34CA380C5E1036542E2DC","F22A38139CA34CA380C5E1036542E2DC","c7870d47-5d15-4273-bbe6-f1a00e7fce29","5e631737-0fa4-44a6-b227-7ba1d7345015","{""num_scrambled_semantic"":""8"",""num_scrambled_causal"":""4"",""num_scrambled_schematic"":""4"",""participantId"":""F22A38139CA34CA380C5E1036542E2DC"",""assignmentId"":""c7870d47-5d15-4273-bbe6-f1a00e7fce29"",""projectId"":""5e631737-0fa4-44a6-b227-7ba1d7345015""}","https://test12345.live/?num_scrambled_semantic=8&num_scrambled_causal=4&num_scrambled_schematic=4&participantId=F22A38139CA34CA380C5E1036542E2DC&assignmentId=c7870d47-5d15-4273-bbe6-f1a00e7fce29&projectId=5e631737-0fa4-44a6-b227-7ba1d7345015","F22A38139CA34CA380C5E1036542E2DC-2025-05-27-18-41-01","","null","","[]","null","",""
"","","","","","image-button-response","110","600726","0.0-14.0-1.0-0.7","F22A38139CA34CA380C5E1036542E2DC","F22A38139CA34CA380C5E1036542E2DC","c7870d47-5d15-4273-bbe6-f1a00e7fce29","5e631737-0fa4-44a6-b227-7ba1d7345015","{""num_scrambled_semantic"":""8"",""num_scrambled_causal"":""4"",""num_scrambled_schematic"":""4"",""participantId"":""F22A38139CA34CA380C5E1036542E2DC"",""assignmentId"":""c7870d47-5d15-4273-bbe6-f1a00e7fce29"",""projectId"":""5e631737-0fa4-44a6-b227-7ba1d7345015""}","https://test12345.live/?num_scrambled_semantic=8&num_scrambled_causal=4&num_scrambled_schematic=4&participantId=F22A38139CA34CA380C5E1036542E2DC&assignmentId=c7870d47-5d15-4273-bbe6-f1a00e7fce29&projectId=5e631737-0fa4-44a6-b227-7ba1d7345015","F22A38139CA34CA380C5E1036542E2DC-2025-05-27-18-41-01","","null","","images/causal_sequence/saving_a_cat_causal/saving_a_cat_causal_6.png","null","",""
"","","","","","image-button-response","111","603399","0.0-14.0-1.0-1.7","F22A38139CA34CA380C5E1036542E2DC","F22A38139CA34CA380C5E1036542E2DC","c7870d47-5d15-4273-bbe6-f1a00e7fce29","5e631737-0fa4-44a6-b227-7ba1d7345015","{""num_scrambled_semantic"":""8"",""num_scrambled_causal"":""4"",""num_scrambled_schematic"":""4"",""participantId"":""F22A38139CA34CA380C5E1036542E2DC"",""assignmentId"":""c7870d47-5d15-4273-bbe6-f1a00e7fce29"",""projectId"":""5e631737-0fa4-44a6-b227-7ba1d7345015""}","https://test12345.live/?num_scrambled_semantic=8&num_scrambled_causal=4&num_scrambled_schematic=4&participantId=F22A38139CA34CA380C5E1036542E2DC&assignmentId=c7870d47-5d15-4273-bbe6-f1a00e7fce29&projectId=5e631737-0fa4-44a6-b227-7ba1d7345015","F22A38139CA34CA380C5E1036542E2DC-2025-05-27-18-41-01","","2673","","images/causal_sequence/saving_a_cat_causal/saving_a_cat_causal_6.png","0","",""
"","","","","","image-button-response","112","605204","0.0-14.0-1.0-2.7","F22A38139CA34CA380C5E1036542E2DC","F22A38139CA34CA380C5E1036542E2DC","c7870d47-5d15-4273-bbe6-f1a00e7fce29","5e631737-0fa4-44a6-b227-7ba1d7345015","{""num_scrambled_semantic"":""8"",""num_scrambled_causal"":""4"",""num_scrambled_schematic"":""4"",""participantId"":""F22A38139CA34CA380C5E1036542E2DC"",""assignmentId"":""c7870d47-5d15-4273-bbe6-f1a00e7fce29"",""projectId"":""5e631737-0fa4-44a6-b227-7ba1d7345015""}","https://test12345.live/?num_scrambled_semantic=8&num_scrambled_causal=4&num_scrambled_schematic=4&participantId=F22A38139CA34CA380C5E1036542E2DC&assignmentId=c7870d47-5d15-4273-bbe6-f1a00e7fce29&projectId=5e631737-0fa4-44a6-b227-7ba1d7345015","F22A38139CA34CA380C5E1036542E2DC-2025-05-27-18-41-01","","null","","[]","null","",""
"","","","","","image-button-response","113","609706","0.0-14.0-1.0-0.8","F22A38139CA34CA380C5E1036542E2DC","F22A38139CA34CA380C5E1036542E2DC","c7870d47-5d15-4273-bbe6-f1a00e7fce29","5e631737-0fa4-44a6-b227-7ba1d7345015","{""num_scrambled_semantic"":""8"",""num_scrambled_causal"":""4"",""num_scrambled_schematic"":""4"",""participantId"":""F22A38139CA34CA380C5E1036542E2DC"",""assignmentId"":""c7870d47-5d15-4273-bbe6-f1a00e7fce29"",""projectId"":""5e631737-0fa4-44a6-b227-7ba1d7345015""}","https://test12345.live/?num_scrambled_semantic=8&num_scrambled_causal=4&num_scrambled_schematic=4&participantId=F22A38139CA34CA380C5E1036542E2DC&assignmentId=c7870d47-5d15-4273-bbe6-f1a00e7fce29&projectId=5e631737-0fa4-44a6-b227-7ba1d7345015","F22A38139CA34CA380C5E1036542E2DC-2025-05-27-18-41-01","","null","","images/causal_sequence/saving_a_cat_causal/saving_a_cat_causal_7.png","null","",""
