"success","timeout","failed_images","failed_audio","failed_video","trial_type","trial_index","time_elapsed","internal_node_id","subject","subject_id","study_id","session_id","urlvar","current_url","audio_id","view_history","rt","device_id","stimulus","response","estimated_stimulus_onset","seq_name"
"true","false","[]","[]","[]","preload","0","488","0.0-0.0","F28F21C7F66946B785FCCA3E4AEB26B2","F28F21C7F66946B785FCCA3E4AEB26B2","0198ee51-2b45-7fc3-a119-b78204308c3a","0198ee3c-27ac-7803-a9ea-f3b4ad4ad678","{""num_scrambled_semantic"":""8"",""num_scrambled_causal"":""4"",""num_scrambled_schematic"":""4"",""participantId"":""F28F21C7F66946B785FCCA3E4AEB26B2"",""assignmentId"":""0198ee51-2b45-7fc3-a119-b78204308c3a"",""projectId"":""0198ee3c-27ac-7803-a9ea-f3b4ad4ad678""}","https://test12345.live/?num_scrambled_semantic=8&num_scrambled_causal=4&num_scrambled_schematic=4&participantId=F28F21C7F66946B785FCCA3E4AEB26B2&assignmentId=0198ee51-2b45-7fc3-a119-b78204308c3a&projectId=0198ee3c-27ac-7803-a9ea-f3b4ad4ad678","F28F21C7F66946B785FCCA3E4AEB26B2-2025-08-28-02-26-13","","","","","","",""
"","","","","","instructions","1","7515","0.0-1.0","F28F21C7F66946B785FCCA3E4AEB26B2","F28F21C7F66946B785FCCA3E4AEB26B2","0198ee51-2b45-7fc3-a119-b78204308c3a","0198ee3c-27ac-7803-a9ea-f3b4ad4ad678","{""num_scrambled_semantic"":""8"",""num_scrambled_causal"":""4"",""num_scrambled_schematic"":""4"",""participantId"":""F28F21C7F66946B785FCCA3E4AEB26B2"",""assignmentId"":""0198ee51-2b45-7fc3-a119-b78204308c3a"",""projectId"":""0198ee3c-27ac-7803-a9ea-f3b4ad4ad678""}","https://test12345.live/?num_scrambled_semantic=8&num_scrambled_causal=4&num_scrambled_schematic=4&participantId=F28F21C7F66946B785FCCA3E4AEB26B2&assignmentId=0198ee51-2b45-7fc3-a119-b78204308c3a&projectId=0198ee3c-27ac-7803-a9ea-f3b4ad4ad678","F28F21C7F66946B785FCCA3E4AEB26B2-2025-08-28-02-26-13","[{""page_index"":0,""viewing_time"":7026}]","7026","","","","",""
"","","","","","instructions","2","16498","0.0-2.0","F28F21C7F66946B785FCCA3E4AEB26B2","F28F21C7F66946B785FCCA3E4AEB26B2","0198ee51-2b45-7fc3-a119-b78204308c3a","0198ee3c-27ac-7803-a9ea-f3b4ad4ad678","{""num_scrambled_semantic"":""8"",""num_scrambled_causal"":""4"",""num_scrambled_schematic"":""4"",""participantId"":""F28F21C7F66946B785FCCA3E4AEB26B2"",""assignmentId"":""0198ee51-2b45-7fc3-a119-b78204308c3a"",""projectId"":""0198ee3c-27ac-7803-a9ea-f3b4ad4ad678""}","https://test12345.live/?num_scrambled_semantic=8&num_scrambled_causal=4&num_scrambled_schematic=4&participantId=F28F21C7F66946B785FCCA3E4AEB26B2&assignmentId=0198ee51-2b45-7fc3-a119-b78204308c3a&projectId=0198ee3c-27ac-7803-a9ea-f3b4ad4ad678","F28F21C7F66946B785FCCA3E4AEB26B2-2025-08-28-02-26-13","[{""page_index"":0,""viewing_time"":8982}]","8983","","","","",""
"true","","","","","fullscreen","3","18700","0.0-3.0","F28F21C7F66946B785FCCA3E4AEB26B2","F28F21C7F66946B785FCCA3E4AEB26B2","0198ee51-2b45-7fc3-a119-b78204308c3a","0198ee3c-27ac-7803-a9ea-f3b4ad4ad678","{""num_scrambled_semantic"":""8"",""num_scrambled_causal"":""4"",""num_scrambled_schematic"":""4"",""participantId"":""F28F21C7F66946B785FCCA3E4AEB26B2"",""assignmentId"":""0198ee51-2b45-7fc3-a119-b78204308c3a"",""projectId"":""0198ee3c-27ac-7803-a9ea-f3b4ad4ad678""}","https://test12345.live/?num_scrambled_semantic=8&num_scrambled_causal=4&num_scrambled_schematic=4&participantId=F28F21C7F66946B785FCCA3E4AEB26B2&assignmentId=0198ee51-2b45-7fc3-a119-b78204308c3a&projectId=0198ee3c-27ac-7803-a9ea-f3b4ad4ad678","F28F21C7F66946B785FCCA3E4AEB26B2-2025-08-28-02-26-13","","1197","","","","",""
"","","","","","initialize-microphone","4","24505","0.0-4.0-0.0","F28F21C7F66946B785FCCA3E4AEB26B2","F28F21C7F66946B785FCCA3E4AEB26B2","0198ee51-2b45-7fc3-a119-b78204308c3a","0198ee3c-27ac-7803-a9ea-f3b4ad4ad678","{""num_scrambled_semantic"":""8"",""num_scrambled_causal"":""4"",""num_scrambled_schematic"":""4"",""participantId"":""F28F21C7F66946B785FCCA3E4AEB26B2"",""assignmentId"":""0198ee51-2b45-7fc3-a119-b78204308c3a"",""projectId"":""0198ee3c-27ac-7803-a9ea-f3b4ad4ad678""}","https://test12345.live/?num_scrambled_semantic=8&num_scrambled_causal=4&num_scrambled_schematic=4&participantId=F28F21C7F66946B785FCCA3E4AEB26B2&assignmentId=0198ee51-2b45-7fc3-a119-b78204308c3a&projectId=0198ee3c-27ac-7803-a9ea-f3b4ad4ad678","F28F21C7F66946B785FCCA3E4AEB26B2-2025-08-28-02-26-13","","","fc85c194656303da8ebded84e3e3a3f5a6a17c19fe290833c81d0e4473abbd26","","","",""
"","","","","","html-audio-response","5","38166","0.0-4.0-1.0","F28F21C7F66946B785FCCA3E4AEB26B2","F28F21C7F66946B785FCCA3E4AEB26B2","0198ee51-2b45-7fc3-a119-b78204308c3a","0198ee3c-27ac-7803-a9ea-f3b4ad4ad678","{""num_scrambled_semantic"":""8"",""num_scrambled_causal"":""4"",""num_scrambled_schematic"":""4"",""participantId"":""F28F21C7F66946B785FCCA3E4AEB26B2"",""assignmentId"":""0198ee51-2b45-7fc3-a119-b78204308c3a"",""projectId"":""0198ee3c-27ac-7803-a9ea-f3b4ad4ad678""}","https://test12345.live/?num_scrambled_semantic=8&num_scrambled_causal=4&num_scrambled_schematic=4&participantId=F28F21C7F66946B785FCCA3E4AEB26B2&assignmentId=0198ee51-2b45-7fc3-a119-b78204308c3a&projectId=0198ee3c-27ac-7803-a9ea-f3b4ad4ad678","F28F21C7F66946B785FCCA3E4AEB26B2-2025-08-28-02-26-13","","1343","","<span style=""color: red; font-size: 24px""> NOW RECORDING</span>
        <p>Please test Microphone</p>","","3",""
"","","","","","html-button-response","6","39781","0.0-4.0-2.0","F28F21C7F66946B785FCCA3E4AEB26B2","F28F21C7F66946B785FCCA3E4AEB26B2","0198ee51-2b45-7fc3-a119-b78204308c3a","0198ee3c-27ac-7803-a9ea-f3b4ad4ad678","{""num_scrambled_semantic"":""8"",""num_scrambled_causal"":""4"",""num_scrambled_schematic"":""4"",""participantId"":""F28F21C7F66946B785FCCA3E4AEB26B2"",""assignmentId"":""0198ee51-2b45-7fc3-a119-b78204308c3a"",""projectId"":""0198ee3c-27ac-7803-a9ea-f3b4ad4ad678""}","https://test12345.live/?num_scrambled_semantic=8&num_scrambled_causal=4&num_scrambled_schematic=4&participantId=F28F21C7F66946B785FCCA3E4AEB26B2&assignmentId=0198ee51-2b45-7fc3-a119-b78204308c3a&projectId=0198ee3c-27ac-7803-a9ea-f3b4ad4ad678","F28F21C7F66946B785FCCA3E4AEB26B2-2025-08-28-02-26-13","","1613","","<p style=""font-size:48px; color:red;"">Is Microphone OK?</p>","1","",""
"","","","","","instructions","7","42548","0.0-5.0","F28F21C7F66946B785FCCA3E4AEB26B2","F28F21C7F66946B785FCCA3E4AEB26B2","0198ee51-2b45-7fc3-a119-b78204308c3a","0198ee3c-27ac-7803-a9ea-f3b4ad4ad678","{""num_scrambled_semantic"":""8"",""num_scrambled_causal"":""4"",""num_scrambled_schematic"":""4"",""participantId"":""F28F21C7F66946B785FCCA3E4AEB26B2"",""assignmentId"":""0198ee51-2b45-7fc3-a119-b78204308c3a"",""projectId"":""0198ee3c-27ac-7803-a9ea-f3b4ad4ad678""}","https://test12345.live/?num_scrambled_semantic=8&num_scrambled_causal=4&num_scrambled_schematic=4&participantId=F28F21C7F66946B785FCCA3E4AEB26B2&assignmentId=0198ee51-2b45-7fc3-a119-b78204308c3a&projectId=0198ee3c-27ac-7803-a9ea-f3b4ad4ad678","F28F21C7F66946B785FCCA3E4AEB26B2-2025-08-28-02-26-13","[{""page_index"":0,""viewing_time"":1384},{""page_index"":1,""viewing_time"":1381}]","2765","","","","",""
"","","","","","image-button-response","8","48556","0.0-6.0-0.0","F28F21C7F66946B785FCCA3E4AEB26B2","F28F21C7F66946B785FCCA3E4AEB26B2","0198ee51-2b45-7fc3-a119-b78204308c3a","0198ee3c-27ac-7803-a9ea-f3b4ad4ad678","{""num_scrambled_semantic"":""8"",""num_scrambled_causal"":""4"",""num_scrambled_schematic"":""4"",""participantId"":""F28F21C7F66946B785FCCA3E4AEB26B2"",""assignmentId"":""0198ee51-2b45-7fc3-a119-b78204308c3a"",""projectId"":""0198ee3c-27ac-7803-a9ea-f3b4ad4ad678""}","https://test12345.live/?num_scrambled_semantic=8&num_scrambled_causal=4&num_scrambled_schematic=4&participantId=F28F21C7F66946B785FCCA3E4AEB26B2&assignmentId=0198ee51-2b45-7fc3-a119-b78204308c3a&projectId=0198ee3c-27ac-7803-a9ea-f3b4ad4ad678","F28F21C7F66946B785FCCA3E4AEB26B2-2025-08-28-02-26-13","","null","","images/instructions/movie_0.png","null","",""
"","","","","","image-button-response","9","53063","0.0-6.0-1.0-0.0","F28F21C7F66946B785FCCA3E4AEB26B2","F28F21C7F66946B785FCCA3E4AEB26B2","0198ee51-2b45-7fc3-a119-b78204308c3a","0198ee3c-27ac-7803-a9ea-f3b4ad4ad678","{""num_scrambled_semantic"":""8"",""num_scrambled_causal"":""4"",""num_scrambled_schematic"":""4"",""participantId"":""F28F21C7F66946B785FCCA3E4AEB26B2"",""assignmentId"":""0198ee51-2b45-7fc3-a119-b78204308c3a"",""projectId"":""0198ee3c-27ac-7803-a9ea-f3b4ad4ad678""}","https://test12345.live/?num_scrambled_semantic=8&num_scrambled_causal=4&num_scrambled_schematic=4&participantId=F28F21C7F66946B785FCCA3E4AEB26B2&assignmentId=0198ee51-2b45-7fc3-a119-b78204308c3a&projectId=0198ee3c-27ac-7803-a9ea-f3b4ad4ad678","F28F21C7F66946B785FCCA3E4AEB26B2-2025-08-28-02-26-13","","null","","images/instructions/movie_1.png","null","",""
"","","","","","image-button-response","10","57068","0.0-6.0-1.0-1.0","F28F21C7F66946B785FCCA3E4AEB26B2","F28F21C7F66946B785FCCA3E4AEB26B2","0198ee51-2b45-7fc3-a119-b78204308c3a","0198ee3c-27ac-7803-a9ea-f3b4ad4ad678","{""num_scrambled_semantic"":""8"",""num_scrambled_causal"":""4"",""num_scrambled_schematic"":""4"",""participantId"":""F28F21C7F66946B785FCCA3E4AEB26B2"",""assignmentId"":""0198ee51-2b45-7fc3-a119-b78204308c3a"",""projectId"":""0198ee3c-27ac-7803-a9ea-f3b4ad4ad678""}","https://test12345.live/?num_scrambled_semantic=8&num_scrambled_causal=4&num_scrambled_schematic=4&participantId=F28F21C7F66946B785FCCA3E4AEB26B2&assignmentId=0198ee51-2b45-7fc3-a119-b78204308c3a&projectId=0198ee3c-27ac-7803-a9ea-f3b4ad4ad678","F28F21C7F66946B785FCCA3E4AEB26B2-2025-08-28-02-26-13","","null","","images/instructions/movie_1.png","null","",""
"","","","","","image-button-response","11","58871","0.0-6.0-1.0-2.0","F28F21C7F66946B785FCCA3E4AEB26B2","F28F21C7F66946B785FCCA3E4AEB26B2","0198ee51-2b45-7fc3-a119-b78204308c3a","0198ee3c-27ac-7803-a9ea-f3b4ad4ad678","{""num_scrambled_semantic"":""8"",""num_scrambled_causal"":""4"",""num_scrambled_schematic"":""4"",""participantId"":""F28F21C7F66946B785FCCA3E4AEB26B2"",""assignmentId"":""0198ee51-2b45-7fc3-a119-b78204308c3a"",""projectId"":""0198ee3c-27ac-7803-a9ea-f3b4ad4ad678""}","https://test12345.live/?num_scrambled_semantic=8&num_scrambled_causal=4&num_scrambled_schematic=4&participantId=F28F21C7F66946B785FCCA3E4AEB26B2&assignmentId=0198ee51-2b45-7fc3-a119-b78204308c3a&projectId=0198ee3c-27ac-7803-a9ea-f3b4ad4ad678","F28F21C7F66946B785FCCA3E4AEB26B2-2025-08-28-02-26-13","","null","","[]","null","",""
"","","","","","image-button-response","12","63377","0.0-6.0-1.0-0.1","F28F21C7F66946B785FCCA3E4AEB26B2","F28F21C7F66946B785FCCA3E4AEB26B2","0198ee51-2b45-7fc3-a119-b78204308c3a","0198ee3c-27ac-7803-a9ea-f3b4ad4ad678","{""num_scrambled_semantic"":""8"",""num_scrambled_causal"":""4"",""num_scrambled_schematic"":""4"",""participantId"":""F28F21C7F66946B785FCCA3E4AEB26B2"",""assignmentId"":""0198ee51-2b45-7fc3-a119-b78204308c3a"",""projectId"":""0198ee3c-27ac-7803-a9ea-f3b4ad4ad678""}","https://test12345.live/?num_scrambled_semantic=8&num_scrambled_causal=4&num_scrambled_schematic=4&participantId=F28F21C7F66946B785FCCA3E4AEB26B2&assignmentId=0198ee51-2b45-7fc3-a119-b78204308c3a&projectId=0198ee3c-27ac-7803-a9ea-f3b4ad4ad678","F28F21C7F66946B785FCCA3E4AEB26B2-2025-08-28-02-26-13","","null","","images/instructions/movie_2.png","null","",""
"","","","","","image-button-response","13","64182","0.0-6.0-1.0-1.1","F28F21C7F66946B785FCCA3E4AEB26B2","F28F21C7F66946B785FCCA3E4AEB26B2","0198ee51-2b45-7fc3-a119-b78204308c3a","0198ee3c-27ac-7803-a9ea-f3b4ad4ad678","{""num_scrambled_semantic"":""8"",""num_scrambled_causal"":""4"",""num_scrambled_schematic"":""4"",""participantId"":""F28F21C7F66946B785FCCA3E4AEB26B2"",""assignmentId"":""0198ee51-2b45-7fc3-a119-b78204308c3a"",""projectId"":""0198ee3c-27ac-7803-a9ea-f3b4ad4ad678""}","https://test12345.live/?num_scrambled_semantic=8&num_scrambled_causal=4&num_scrambled_schematic=4&participantId=F28F21C7F66946B785FCCA3E4AEB26B2&assignmentId=0198ee51-2b45-7fc3-a119-b78204308c3a&projectId=0198ee3c-27ac-7803-a9ea-f3b4ad4ad678","F28F21C7F66946B785FCCA3E4AEB26B2-2025-08-28-02-26-13","","803","","images/instructions/movie_2.png","0","",""
"","","","","","image-button-response","14","65985","0.0-6.0-1.0-2.1","F28F21C7F66946B785FCCA3E4AEB26B2","F28F21C7F66946B785FCCA3E4AEB26B2","0198ee51-2b45-7fc3-a119-b78204308c3a","0198ee3c-27ac-7803-a9ea-f3b4ad4ad678","{""num_scrambled_semantic"":""8"",""num_scrambled_causal"":""4"",""num_scrambled_schematic"":""4"",""participantId"":""F28F21C7F66946B785FCCA3E4AEB26B2"",""assignmentId"":""0198ee51-2b45-7fc3-a119-b78204308c3a"",""projectId"":""0198ee3c-27ac-7803-a9ea-f3b4ad4ad678""}","https://test12345.live/?num_scrambled_semantic=8&num_scrambled_causal=4&num_scrambled_schematic=4&participantId=F28F21C7F66946B785FCCA3E4AEB26B2&assignmentId=0198ee51-2b45-7fc3-a119-b78204308c3a&projectId=0198ee3c-27ac-7803-a9ea-f3b4ad4ad678","F28F21C7F66946B785FCCA3E4AEB26B2-2025-08-28-02-26-13","","null","","[]","null","",""
"","","","","","image-button-response","15","70491","0.0-6.0-1.0-0.2","F28F21C7F66946B785FCCA3E4AEB26B2","F28F21C7F66946B785FCCA3E4AEB26B2","0198ee51-2b45-7fc3-a119-b78204308c3a","0198ee3c-27ac-7803-a9ea-f3b4ad4ad678","{""num_scrambled_semantic"":""8"",""num_scrambled_causal"":""4"",""num_scrambled_schematic"":""4"",""participantId"":""F28F21C7F66946B785FCCA3E4AEB26B2"",""assignmentId"":""0198ee51-2b45-7fc3-a119-b78204308c3a"",""projectId"":""0198ee3c-27ac-7803-a9ea-f3b4ad4ad678""}","https://test12345.live/?num_scrambled_semantic=8&num_scrambled_causal=4&num_scrambled_schematic=4&participantId=F28F21C7F66946B785FCCA3E4AEB26B2&assignmentId=0198ee51-2b45-7fc3-a119-b78204308c3a&projectId=0198ee3c-27ac-7803-a9ea-f3b4ad4ad678","F28F21C7F66946B785FCCA3E4AEB26B2-2025-08-28-02-26-13","","null","","images/instructions/movie_3.png","null","",""
"","","","","","image-button-response","16","71283","0.0-6.0-1.0-1.2","F28F21C7F66946B785FCCA3E4AEB26B2","F28F21C7F66946B785FCCA3E4AEB26B2","0198ee51-2b45-7fc3-a119-b78204308c3a","0198ee3c-27ac-7803-a9ea-f3b4ad4ad678","{""num_scrambled_semantic"":""8"",""num_scrambled_causal"":""4"",""num_scrambled_schematic"":""4"",""participantId"":""F28F21C7F66946B785FCCA3E4AEB26B2"",""assignmentId"":""0198ee51-2b45-7fc3-a119-b78204308c3a"",""projectId"":""0198ee3c-27ac-7803-a9ea-f3b4ad4ad678""}","https://test12345.live/?num_scrambled_semantic=8&num_scrambled_causal=4&num_scrambled_schematic=4&participantId=F28F21C7F66946B785FCCA3E4AEB26B2&assignmentId=0198ee51-2b45-7fc3-a119-b78204308c3a&projectId=0198ee3c-27ac-7803-a9ea-f3b4ad4ad678","F28F21C7F66946B785FCCA3E4AEB26B2-2025-08-28-02-26-13","","789","","images/instructions/movie_3.png","0","",""
"","","","","","image-button-response","17","73090","0.0-6.0-1.0-2.2","F28F21C7F66946B785FCCA3E4AEB26B2","F28F21C7F66946B785FCCA3E4AEB26B2","0198ee51-2b45-7fc3-a119-b78204308c3a","0198ee3c-27ac-7803-a9ea-f3b4ad4ad678","{""num_scrambled_semantic"":""8"",""num_scrambled_causal"":""4"",""num_scrambled_schematic"":""4"",""participantId"":""F28F21C7F66946B785FCCA3E4AEB26B2"",""assignmentId"":""0198ee51-2b45-7fc3-a119-b78204308c3a"",""projectId"":""0198ee3c-27ac-7803-a9ea-f3b4ad4ad678""}","https://test12345.live/?num_scrambled_semantic=8&num_scrambled_causal=4&num_scrambled_schematic=4&participantId=F28F21C7F66946B785FCCA3E4AEB26B2&assignmentId=0198ee51-2b45-7fc3-a119-b78204308c3a&projectId=0198ee3c-27ac-7803-a9ea-f3b4ad4ad678","F28F21C7F66946B785FCCA3E4AEB26B2-2025-08-28-02-26-13","","null","","[]","null","",""
"","","","","","image-button-response","18","77597","0.0-6.0-1.0-0.3","F28F21C7F66946B785FCCA3E4AEB26B2","F28F21C7F66946B785FCCA3E4AEB26B2","0198ee51-2b45-7fc3-a119-b78204308c3a","0198ee3c-27ac-7803-a9ea-f3b4ad4ad678","{""num_scrambled_semantic"":""8"",""num_scrambled_causal"":""4"",""num_scrambled_schematic"":""4"",""participantId"":""F28F21C7F66946B785FCCA3E4AEB26B2"",""assignmentId"":""0198ee51-2b45-7fc3-a119-b78204308c3a"",""projectId"":""0198ee3c-27ac-7803-a9ea-f3b4ad4ad678""}","https://test12345.live/?num_scrambled_semantic=8&num_scrambled_causal=4&num_scrambled_schematic=4&participantId=F28F21C7F66946B785FCCA3E4AEB26B2&assignmentId=0198ee51-2b45-7fc3-a119-b78204308c3a&projectId=0198ee3c-27ac-7803-a9ea-f3b4ad4ad678","F28F21C7F66946B785FCCA3E4AEB26B2-2025-08-28-02-26-13","","null","","images/instructions/movie_4.png","null","",""
"","","","","","image-button-response","19","79233","0.0-6.0-1.0-1.3","F28F21C7F66946B785FCCA3E4AEB26B2","F28F21C7F66946B785FCCA3E4AEB26B2","0198ee51-2b45-7fc3-a119-b78204308c3a","0198ee3c-27ac-7803-a9ea-f3b4ad4ad678","{""num_scrambled_semantic"":""8"",""num_scrambled_causal"":""4"",""num_scrambled_schematic"":""4"",""participantId"":""F28F21C7F66946B785FCCA3E4AEB26B2"",""assignmentId"":""0198ee51-2b45-7fc3-a119-b78204308c3a"",""projectId"":""0198ee3c-27ac-7803-a9ea-f3b4ad4ad678""}","https://test12345.live/?num_scrambled_semantic=8&num_scrambled_causal=4&num_scrambled_schematic=4&participantId=F28F21C7F66946B785FCCA3E4AEB26B2&assignmentId=0198ee51-2b45-7fc3-a119-b78204308c3a&projectId=0198ee3c-27ac-7803-a9ea-f3b4ad4ad678","F28F21C7F66946B785FCCA3E4AEB26B2-2025-08-28-02-26-13","","1633","","images/instructions/movie_4.png","0","",""
"","","","","","image-button-response","20","81039","0.0-6.0-1.0-2.3","F28F21C7F66946B785FCCA3E4AEB26B2","F28F21C7F66946B785FCCA3E4AEB26B2","0198ee51-2b45-7fc3-a119-b78204308c3a","0198ee3c-27ac-7803-a9ea-f3b4ad4ad678","{""num_scrambled_semantic"":""8"",""num_scrambled_causal"":""4"",""num_scrambled_schematic"":""4"",""participantId"":""F28F21C7F66946B785FCCA3E4AEB26B2"",""assignmentId"":""0198ee51-2b45-7fc3-a119-b78204308c3a"",""projectId"":""0198ee3c-27ac-7803-a9ea-f3b4ad4ad678""}","https://test12345.live/?num_scrambled_semantic=8&num_scrambled_causal=4&num_scrambled_schematic=4&participantId=F28F21C7F66946B785FCCA3E4AEB26B2&assignmentId=0198ee51-2b45-7fc3-a119-b78204308c3a&projectId=0198ee3c-27ac-7803-a9ea-f3b4ad4ad678","F28F21C7F66946B785FCCA3E4AEB26B2-2025-08-28-02-26-13","","null","","[]","null","",""
"","","","","","instructions","21","87082","0.0-7.0","F28F21C7F66946B785FCCA3E4AEB26B2","F28F21C7F66946B785FCCA3E4AEB26B2","0198ee51-2b45-7fc3-a119-b78204308c3a","0198ee3c-27ac-7803-a9ea-f3b4ad4ad678","{""num_scrambled_semantic"":""8"",""num_scrambled_causal"":""4"",""num_scrambled_schematic"":""4"",""participantId"":""F28F21C7F66946B785FCCA3E4AEB26B2"",""assignmentId"":""0198ee51-2b45-7fc3-a119-b78204308c3a"",""projectId"":""0198ee3c-27ac-7803-a9ea-f3b4ad4ad678""}","https://test12345.live/?num_scrambled_semantic=8&num_scrambled_causal=4&num_scrambled_schematic=4&participantId=F28F21C7F66946B785FCCA3E4AEB26B2&assignmentId=0198ee51-2b45-7fc3-a119-b78204308c3a&projectId=0198ee3c-27ac-7803-a9ea-f3b4ad4ad678","F28F21C7F66946B785FCCA3E4AEB26B2-2025-08-28-02-26-13","[{""page_index"":0,""viewing_time"":6042}]","6043","","","","",""
"","","","","","html-audio-response","22","159216","0.0-8.0","F28F21C7F66946B785FCCA3E4AEB26B2","F28F21C7F66946B785FCCA3E4AEB26B2","0198ee51-2b45-7fc3-a119-b78204308c3a","0198ee3c-27ac-7803-a9ea-f3b4ad4ad678","{""num_scrambled_semantic"":""8"",""num_scrambled_causal"":""4"",""num_scrambled_schematic"":""4"",""participantId"":""F28F21C7F66946B785FCCA3E4AEB26B2"",""assignmentId"":""0198ee51-2b45-7fc3-a119-b78204308c3a"",""projectId"":""0198ee3c-27ac-7803-a9ea-f3b4ad4ad678""}","https://test12345.live/?num_scrambled_semantic=8&num_scrambled_causal=4&num_scrambled_schematic=4&participantId=F28F21C7F66946B785FCCA3E4AEB26B2&assignmentId=0198ee51-2b45-7fc3-a119-b78204308c3a&projectId=0198ee3c-27ac-7803-a9ea-f3b4ad4ad678","F28F21C7F66946B785FCCA3E4AEB26B2-2025-08-28-02-26-13","","6525","","[""<span style=\""color: red; font-size: 24px\""> NOW RECORDING</span><p>Please say out loud all the images you saw, in the order of the story they create. Try to recall the sequence of events as they appeared in the story, not necessarily the order they were presented on the screen.</p>""]","","3",""
"","","","","","instructions","23","160182","0.0-9.0","F28F21C7F66946B785FCCA3E4AEB26B2","F28F21C7F66946B785FCCA3E4AEB26B2","0198ee51-2b45-7fc3-a119-b78204308c3a","0198ee3c-27ac-7803-a9ea-f3b4ad4ad678","{""num_scrambled_semantic"":""8"",""num_scrambled_causal"":""4"",""num_scrambled_schematic"":""4"",""participantId"":""F28F21C7F66946B785FCCA3E4AEB26B2"",""assignmentId"":""0198ee51-2b45-7fc3-a119-b78204308c3a"",""projectId"":""0198ee3c-27ac-7803-a9ea-f3b4ad4ad678""}","https://test12345.live/?num_scrambled_semantic=8&num_scrambled_causal=4&num_scrambled_schematic=4&participantId=F28F21C7F66946B785FCCA3E4AEB26B2&assignmentId=0198ee51-2b45-7fc3-a119-b78204308c3a&projectId=0198ee3c-27ac-7803-a9ea-f3b4ad4ad678","F28F21C7F66946B785FCCA3E4AEB26B2-2025-08-28-02-26-13","[{""page_index"":0,""viewing_time"":962}]","963","","","","",""
"","","","","","image-button-response","24","166190","0.0-10.0-0.0","F28F21C7F66946B785FCCA3E4AEB26B2","F28F21C7F66946B785FCCA3E4AEB26B2","0198ee51-2b45-7fc3-a119-b78204308c3a","0198ee3c-27ac-7803-a9ea-f3b4ad4ad678","{""num_scrambled_semantic"":""8"",""num_scrambled_causal"":""4"",""num_scrambled_schematic"":""4"",""participantId"":""F28F21C7F66946B785FCCA3E4AEB26B2"",""assignmentId"":""0198ee51-2b45-7fc3-a119-b78204308c3a"",""projectId"":""0198ee3c-27ac-7803-a9ea-f3b4ad4ad678""}","https://test12345.live/?num_scrambled_semantic=8&num_scrambled_causal=4&num_scrambled_schematic=4&participantId=F28F21C7F66946B785FCCA3E4AEB26B2&assignmentId=0198ee51-2b45-7fc3-a119-b78204308c3a&projectId=0198ee3c-27ac-7803-a9ea-f3b4ad4ad678","F28F21C7F66946B785FCCA3E4AEB26B2-2025-08-28-02-26-13","","null","","images/semantic_sequence/self_care_activities_semantic/self_care_activities_semantic_0.png","null","",""
"","","","","","image-button-response","25","170697","0.0-10.0-1.0-0.0","F28F21C7F66946B785FCCA3E4AEB26B2","F28F21C7F66946B785FCCA3E4AEB26B2","0198ee51-2b45-7fc3-a119-b78204308c3a","0198ee3c-27ac-7803-a9ea-f3b4ad4ad678","{""num_scrambled_semantic"":""8"",""num_scrambled_causal"":""4"",""num_scrambled_schematic"":""4"",""participantId"":""F28F21C7F66946B785FCCA3E4AEB26B2"",""assignmentId"":""0198ee51-2b45-7fc3-a119-b78204308c3a"",""projectId"":""0198ee3c-27ac-7803-a9ea-f3b4ad4ad678""}","https://test12345.live/?num_scrambled_semantic=8&num_scrambled_causal=4&num_scrambled_schematic=4&participantId=F28F21C7F66946B785FCCA3E4AEB26B2&assignmentId=0198ee51-2b45-7fc3-a119-b78204308c3a&projectId=0198ee3c-27ac-7803-a9ea-f3b4ad4ad678","F28F21C7F66946B785FCCA3E4AEB26B2-2025-08-28-02-26-13","","null","","images/semantic_sequence/self_care_activities_semantic/self_care_activities_semantic_2.png","null","",""
"","","","","","image-button-response","26","174482","0.0-10.0-1.0-1.0","F28F21C7F66946B785FCCA3E4AEB26B2","F28F21C7F66946B785FCCA3E4AEB26B2","0198ee51-2b45-7fc3-a119-b78204308c3a","0198ee3c-27ac-7803-a9ea-f3b4ad4ad678","{""num_scrambled_semantic"":""8"",""num_scrambled_causal"":""4"",""num_scrambled_schematic"":""4"",""participantId"":""F28F21C7F66946B785FCCA3E4AEB26B2"",""assignmentId"":""0198ee51-2b45-7fc3-a119-b78204308c3a"",""projectId"":""0198ee3c-27ac-7803-a9ea-f3b4ad4ad678""}","https://test12345.live/?num_scrambled_semantic=8&num_scrambled_causal=4&num_scrambled_schematic=4&participantId=F28F21C7F66946B785FCCA3E4AEB26B2&assignmentId=0198ee51-2b45-7fc3-a119-b78204308c3a&projectId=0198ee3c-27ac-7803-a9ea-f3b4ad4ad678","F28F21C7F66946B785FCCA3E4AEB26B2-2025-08-28-02-26-13","","3783","","images/semantic_sequence/self_care_activities_semantic/self_care_activities_semantic_2.png","0","",""
"","","","","","image-button-response","27","176287","0.0-10.0-1.0-2.0","F28F21C7F66946B785FCCA3E4AEB26B2","F28F21C7F66946B785FCCA3E4AEB26B2","0198ee51-2b45-7fc3-a119-b78204308c3a","0198ee3c-27ac-7803-a9ea-f3b4ad4ad678","{""num_scrambled_semantic"":""8"",""num_scrambled_causal"":""4"",""num_scrambled_schematic"":""4"",""participantId"":""F28F21C7F66946B785FCCA3E4AEB26B2"",""assignmentId"":""0198ee51-2b45-7fc3-a119-b78204308c3a"",""projectId"":""0198ee3c-27ac-7803-a9ea-f3b4ad4ad678""}","https://test12345.live/?num_scrambled_semantic=8&num_scrambled_causal=4&num_scrambled_schematic=4&participantId=F28F21C7F66946B785FCCA3E4AEB26B2&assignmentId=0198ee51-2b45-7fc3-a119-b78204308c3a&projectId=0198ee3c-27ac-7803-a9ea-f3b4ad4ad678","F28F21C7F66946B785FCCA3E4AEB26B2-2025-08-28-02-26-13","","null","","[]","null","",""
"","","","","","image-button-response","28","180792","0.0-10.0-1.0-0.1","F28F21C7F66946B785FCCA3E4AEB26B2","F28F21C7F66946B785FCCA3E4AEB26B2","0198ee51-2b45-7fc3-a119-b78204308c3a","0198ee3c-27ac-7803-a9ea-f3b4ad4ad678","{""num_scrambled_semantic"":""8"",""num_scrambled_causal"":""4"",""num_scrambled_schematic"":""4"",""participantId"":""F28F21C7F66946B785FCCA3E4AEB26B2"",""assignmentId"":""0198ee51-2b45-7fc3-a119-b78204308c3a"",""projectId"":""0198ee3c-27ac-7803-a9ea-f3b4ad4ad678""}","https://test12345.live/?num_scrambled_semantic=8&num_scrambled_causal=4&num_scrambled_schematic=4&participantId=F28F21C7F66946B785FCCA3E4AEB26B2&assignmentId=0198ee51-2b45-7fc3-a119-b78204308c3a&projectId=0198ee3c-27ac-7803-a9ea-f3b4ad4ad678","F28F21C7F66946B785FCCA3E4AEB26B2-2025-08-28-02-26-13","","null","","images/semantic_sequence/self_care_activities_semantic/self_care_activities_semantic_8.png","null","",""
"","","","","","image-button-response","29","182200","0.0-10.0-1.0-1.1","F28F21C7F66946B785FCCA3E4AEB26B2","F28F21C7F66946B785FCCA3E4AEB26B2","0198ee51-2b45-7fc3-a119-b78204308c3a","0198ee3c-27ac-7803-a9ea-f3b4ad4ad678","{""num_scrambled_semantic"":""8"",""num_scrambled_causal"":""4"",""num_scrambled_schematic"":""4"",""participantId"":""F28F21C7F66946B785FCCA3E4AEB26B2"",""assignmentId"":""0198ee51-2b45-7fc3-a119-b78204308c3a"",""projectId"":""0198ee3c-27ac-7803-a9ea-f3b4ad4ad678""}","https://test12345.live/?num_scrambled_semantic=8&num_scrambled_causal=4&num_scrambled_schematic=4&participantId=F28F21C7F66946B785FCCA3E4AEB26B2&assignmentId=0198ee51-2b45-7fc3-a119-b78204308c3a&projectId=0198ee3c-27ac-7803-a9ea-f3b4ad4ad678","F28F21C7F66946B785FCCA3E4AEB26B2-2025-08-28-02-26-13","","1405","","images/semantic_sequence/self_care_activities_semantic/self_care_activities_semantic_8.png","0","",""
"","","","","","image-button-response","30","184006","0.0-10.0-1.0-2.1","F28F21C7F66946B785FCCA3E4AEB26B2","F28F21C7F66946B785FCCA3E4AEB26B2","0198ee51-2b45-7fc3-a119-b78204308c3a","0198ee3c-27ac-7803-a9ea-f3b4ad4ad678","{""num_scrambled_semantic"":""8"",""num_scrambled_causal"":""4"",""num_scrambled_schematic"":""4"",""participantId"":""F28F21C7F66946B785FCCA3E4AEB26B2"",""assignmentId"":""0198ee51-2b45-7fc3-a119-b78204308c3a"",""projectId"":""0198ee3c-27ac-7803-a9ea-f3b4ad4ad678""}","https://test12345.live/?num_scrambled_semantic=8&num_scrambled_causal=4&num_scrambled_schematic=4&participantId=F28F21C7F66946B785FCCA3E4AEB26B2&assignmentId=0198ee51-2b45-7fc3-a119-b78204308c3a&projectId=0198ee3c-27ac-7803-a9ea-f3b4ad4ad678","F28F21C7F66946B785FCCA3E4AEB26B2-2025-08-28-02-26-13","","null","","[]","null","",""
"","","","","","image-button-response","31","188512","0.0-10.0-1.0-0.2","F28F21C7F66946B785FCCA3E4AEB26B2","F28F21C7F66946B785FCCA3E4AEB26B2","0198ee51-2b45-7fc3-a119-b78204308c3a","0198ee3c-27ac-7803-a9ea-f3b4ad4ad678","{""num_scrambled_semantic"":""8"",""num_scrambled_causal"":""4"",""num_scrambled_schematic"":""4"",""participantId"":""F28F21C7F66946B785FCCA3E4AEB26B2"",""assignmentId"":""0198ee51-2b45-7fc3-a119-b78204308c3a"",""projectId"":""0198ee3c-27ac-7803-a9ea-f3b4ad4ad678""}","https://test12345.live/?num_scrambled_semantic=8&num_scrambled_causal=4&num_scrambled_schematic=4&participantId=F28F21C7F66946B785FCCA3E4AEB26B2&assignmentId=0198ee51-2b45-7fc3-a119-b78204308c3a&projectId=0198ee3c-27ac-7803-a9ea-f3b4ad4ad678","F28F21C7F66946B785FCCA3E4AEB26B2-2025-08-28-02-26-13","","null","","images/semantic_sequence/self_care_activities_semantic/self_care_activities_semantic_9.png","null","",""
"","","","","","image-button-response","32","192520","0.0-10.0-1.0-1.2","F28F21C7F66946B785FCCA3E4AEB26B2","F28F21C7F66946B785FCCA3E4AEB26B2","0198ee51-2b45-7fc3-a119-b78204308c3a","0198ee3c-27ac-7803-a9ea-f3b4ad4ad678","{""num_scrambled_semantic"":""8"",""num_scrambled_causal"":""4"",""num_scrambled_schematic"":""4"",""participantId"":""F28F21C7F66946B785FCCA3E4AEB26B2"",""assignmentId"":""0198ee51-2b45-7fc3-a119-b78204308c3a"",""projectId"":""0198ee3c-27ac-7803-a9ea-f3b4ad4ad678""}","https://test12345.live/?num_scrambled_semantic=8&num_scrambled_causal=4&num_scrambled_schematic=4&participantId=F28F21C7F66946B785FCCA3E4AEB26B2&assignmentId=0198ee51-2b45-7fc3-a119-b78204308c3a&projectId=0198ee3c-27ac-7803-a9ea-f3b4ad4ad678","F28F21C7F66946B785FCCA3E4AEB26B2-2025-08-28-02-26-13","","null","","images/semantic_sequence/self_care_activities_semantic/self_care_activities_semantic_9.png","null","",""
"","","","","","image-button-response","33","194326","0.0-10.0-1.0-2.2","F28F21C7F66946B785FCCA3E4AEB26B2","F28F21C7F66946B785FCCA3E4AEB26B2","0198ee51-2b45-7fc3-a119-b78204308c3a","0198ee3c-27ac-7803-a9ea-f3b4ad4ad678","{""num_scrambled_semantic"":""8"",""num_scrambled_causal"":""4"",""num_scrambled_schematic"":""4"",""participantId"":""F28F21C7F66946B785FCCA3E4AEB26B2"",""assignmentId"":""0198ee51-2b45-7fc3-a119-b78204308c3a"",""projectId"":""0198ee3c-27ac-7803-a9ea-f3b4ad4ad678""}","https://test12345.live/?num_scrambled_semantic=8&num_scrambled_causal=4&num_scrambled_schematic=4&participantId=F28F21C7F66946B785FCCA3E4AEB26B2&assignmentId=0198ee51-2b45-7fc3-a119-b78204308c3a&projectId=0198ee3c-27ac-7803-a9ea-f3b4ad4ad678","F28F21C7F66946B785FCCA3E4AEB26B2-2025-08-28-02-26-13","","null","","[]","null","",""
"","","","","","image-button-response","34","198831","0.0-10.0-1.0-0.3","F28F21C7F66946B785FCCA3E4AEB26B2","F28F21C7F66946B785FCCA3E4AEB26B2","0198ee51-2b45-7fc3-a119-b78204308c3a","0198ee3c-27ac-7803-a9ea-f3b4ad4ad678","{""num_scrambled_semantic"":""8"",""num_scrambled_causal"":""4"",""num_scrambled_schematic"":""4"",""participantId"":""F28F21C7F66946B785FCCA3E4AEB26B2"",""assignmentId"":""0198ee51-2b45-7fc3-a119-b78204308c3a"",""projectId"":""0198ee3c-27ac-7803-a9ea-f3b4ad4ad678""}","https://test12345.live/?num_scrambled_semantic=8&num_scrambled_causal=4&num_scrambled_schematic=4&participantId=F28F21C7F66946B785FCCA3E4AEB26B2&assignmentId=0198ee51-2b45-7fc3-a119-b78204308c3a&projectId=0198ee3c-27ac-7803-a9ea-f3b4ad4ad678","F28F21C7F66946B785FCCA3E4AEB26B2-2025-08-28-02-26-13","","null","","images/semantic_sequence/self_care_activities_semantic/self_care_activities_semantic_6.png","null","",""
"","","","","","image-button-response","35","199950","0.0-10.0-1.0-1.3","F28F21C7F66946B785FCCA3E4AEB26B2","F28F21C7F66946B785FCCA3E4AEB26B2","0198ee51-2b45-7fc3-a119-b78204308c3a","0198ee3c-27ac-7803-a9ea-f3b4ad4ad678","{""num_scrambled_semantic"":""8"",""num_scrambled_causal"":""4"",""num_scrambled_schematic"":""4"",""participantId"":""F28F21C7F66946B785FCCA3E4AEB26B2"",""assignmentId"":""0198ee51-2b45-7fc3-a119-b78204308c3a"",""projectId"":""0198ee3c-27ac-7803-a9ea-f3b4ad4ad678""}","https://test12345.live/?num_scrambled_semantic=8&num_scrambled_causal=4&num_scrambled_schematic=4&participantId=F28F21C7F66946B785FCCA3E4AEB26B2&assignmentId=0198ee51-2b45-7fc3-a119-b78204308c3a&projectId=0198ee3c-27ac-7803-a9ea-f3b4ad4ad678","F28F21C7F66946B785FCCA3E4AEB26B2-2025-08-28-02-26-13","","1117","","images/semantic_sequence/self_care_activities_semantic/self_care_activities_semantic_6.png","1","",""
"","","","","","image-button-response","36","201755","0.0-10.0-1.0-2.3","F28F21C7F66946B785FCCA3E4AEB26B2","F28F21C7F66946B785FCCA3E4AEB26B2","0198ee51-2b45-7fc3-a119-b78204308c3a","0198ee3c-27ac-7803-a9ea-f3b4ad4ad678","{""num_scrambled_semantic"":""8"",""num_scrambled_causal"":""4"",""num_scrambled_schematic"":""4"",""participantId"":""F28F21C7F66946B785FCCA3E4AEB26B2"",""assignmentId"":""0198ee51-2b45-7fc3-a119-b78204308c3a"",""projectId"":""0198ee3c-27ac-7803-a9ea-f3b4ad4ad678""}","https://test12345.live/?num_scrambled_semantic=8&num_scrambled_causal=4&num_scrambled_schematic=4&participantId=F28F21C7F66946B785FCCA3E4AEB26B2&assignmentId=0198ee51-2b45-7fc3-a119-b78204308c3a&projectId=0198ee3c-27ac-7803-a9ea-f3b4ad4ad678","F28F21C7F66946B785FCCA3E4AEB26B2-2025-08-28-02-26-13","","null","","[]","null","",""
"","","","","","image-button-response","37","206263","0.0-10.0-1.0-0.4","F28F21C7F66946B785FCCA3E4AEB26B2","F28F21C7F66946B785FCCA3E4AEB26B2","0198ee51-2b45-7fc3-a119-b78204308c3a","0198ee3c-27ac-7803-a9ea-f3b4ad4ad678","{""num_scrambled_semantic"":""8"",""num_scrambled_causal"":""4"",""num_scrambled_schematic"":""4"",""participantId"":""F28F21C7F66946B785FCCA3E4AEB26B2"",""assignmentId"":""0198ee51-2b45-7fc3-a119-b78204308c3a"",""projectId"":""0198ee3c-27ac-7803-a9ea-f3b4ad4ad678""}","https://test12345.live/?num_scrambled_semantic=8&num_scrambled_causal=4&num_scrambled_schematic=4&participantId=F28F21C7F66946B785FCCA3E4AEB26B2&assignmentId=0198ee51-2b45-7fc3-a119-b78204308c3a&projectId=0198ee3c-27ac-7803-a9ea-f3b4ad4ad678","F28F21C7F66946B785FCCA3E4AEB26B2-2025-08-28-02-26-13","","null","","images/semantic_sequence/self_care_activities_semantic/self_care_activities_semantic_3.png","null","",""
"","","","","","image-button-response","38","207133","0.0-10.0-1.0-1.4","F28F21C7F66946B785FCCA3E4AEB26B2","F28F21C7F66946B785FCCA3E4AEB26B2","0198ee51-2b45-7fc3-a119-b78204308c3a","0198ee3c-27ac-7803-a9ea-f3b4ad4ad678","{""num_scrambled_semantic"":""8"",""num_scrambled_causal"":""4"",""num_scrambled_schematic"":""4"",""participantId"":""F28F21C7F66946B785FCCA3E4AEB26B2"",""assignmentId"":""0198ee51-2b45-7fc3-a119-b78204308c3a"",""projectId"":""0198ee3c-27ac-7803-a9ea-f3b4ad4ad678""}","https://test12345.live/?num_scrambled_semantic=8&num_scrambled_causal=4&num_scrambled_schematic=4&participantId=F28F21C7F66946B785FCCA3E4AEB26B2&assignmentId=0198ee51-2b45-7fc3-a119-b78204308c3a&projectId=0198ee3c-27ac-7803-a9ea-f3b4ad4ad678","F28F21C7F66946B785FCCA3E4AEB26B2-2025-08-28-02-26-13","","867","","images/semantic_sequence/self_care_activities_semantic/self_care_activities_semantic_3.png","0","",""
"","","","","","image-button-response","39","208940","0.0-10.0-1.0-2.4","F28F21C7F66946B785FCCA3E4AEB26B2","F28F21C7F66946B785FCCA3E4AEB26B2","0198ee51-2b45-7fc3-a119-b78204308c3a","0198ee3c-27ac-7803-a9ea-f3b4ad4ad678","{""num_scrambled_semantic"":""8"",""num_scrambled_causal"":""4"",""num_scrambled_schematic"":""4"",""participantId"":""F28F21C7F66946B785FCCA3E4AEB26B2"",""assignmentId"":""0198ee51-2b45-7fc3-a119-b78204308c3a"",""projectId"":""0198ee3c-27ac-7803-a9ea-f3b4ad4ad678""}","https://test12345.live/?num_scrambled_semantic=8&num_scrambled_causal=4&num_scrambled_schematic=4&participantId=F28F21C7F66946B785FCCA3E4AEB26B2&assignmentId=0198ee51-2b45-7fc3-a119-b78204308c3a&projectId=0198ee3c-27ac-7803-a9ea-f3b4ad4ad678","F28F21C7F66946B785FCCA3E4AEB26B2-2025-08-28-02-26-13","","null","","[]","null","",""
"","","","","","image-button-response","40","213443","0.0-10.0-1.0-0.5","F28F21C7F66946B785FCCA3E4AEB26B2","F28F21C7F66946B785FCCA3E4AEB26B2","0198ee51-2b45-7fc3-a119-b78204308c3a","0198ee3c-27ac-7803-a9ea-f3b4ad4ad678","{""num_scrambled_semantic"":""8"",""num_scrambled_causal"":""4"",""num_scrambled_schematic"":""4"",""participantId"":""F28F21C7F66946B785FCCA3E4AEB26B2"",""assignmentId"":""0198ee51-2b45-7fc3-a119-b78204308c3a"",""projectId"":""0198ee3c-27ac-7803-a9ea-f3b4ad4ad678""}","https://test12345.live/?num_scrambled_semantic=8&num_scrambled_causal=4&num_scrambled_schematic=4&participantId=F28F21C7F66946B785FCCA3E4AEB26B2&assignmentId=0198ee51-2b45-7fc3-a119-b78204308c3a&projectId=0198ee3c-27ac-7803-a9ea-f3b4ad4ad678","F28F21C7F66946B785FCCA3E4AEB26B2-2025-08-28-02-26-13","","null","","images/semantic_sequence/self_care_activities_semantic/self_care_activities_semantic_1.png","null","",""
"","","","","","image-button-response","41","214299","0.0-10.0-1.0-1.5","F28F21C7F66946B785FCCA3E4AEB26B2","F28F21C7F66946B785FCCA3E4AEB26B2","0198ee51-2b45-7fc3-a119-b78204308c3a","0198ee3c-27ac-7803-a9ea-f3b4ad4ad678","{""num_scrambled_semantic"":""8"",""num_scrambled_causal"":""4"",""num_scrambled_schematic"":""4"",""participantId"":""F28F21C7F66946B785FCCA3E4AEB26B2"",""assignmentId"":""0198ee51-2b45-7fc3-a119-b78204308c3a"",""projectId"":""0198ee3c-27ac-7803-a9ea-f3b4ad4ad678""}","https://test12345.live/?num_scrambled_semantic=8&num_scrambled_causal=4&num_scrambled_schematic=4&participantId=F28F21C7F66946B785FCCA3E4AEB26B2&assignmentId=0198ee51-2b45-7fc3-a119-b78204308c3a&projectId=0198ee3c-27ac-7803-a9ea-f3b4ad4ad678","F28F21C7F66946B785FCCA3E4AEB26B2-2025-08-28-02-26-13","","854","","images/semantic_sequence/self_care_activities_semantic/self_care_activities_semantic_1.png","0","",""
"","","","","","image-button-response","42","216105","0.0-10.0-1.0-2.5","F28F21C7F66946B785FCCA3E4AEB26B2","F28F21C7F66946B785FCCA3E4AEB26B2","0198ee51-2b45-7fc3-a119-b78204308c3a","0198ee3c-27ac-7803-a9ea-f3b4ad4ad678","{""num_scrambled_semantic"":""8"",""num_scrambled_causal"":""4"",""num_scrambled_schematic"":""4"",""participantId"":""F28F21C7F66946B785FCCA3E4AEB26B2"",""assignmentId"":""0198ee51-2b45-7fc3-a119-b78204308c3a"",""projectId"":""0198ee3c-27ac-7803-a9ea-f3b4ad4ad678""}","https://test12345.live/?num_scrambled_semantic=8&num_scrambled_causal=4&num_scrambled_schematic=4&participantId=F28F21C7F66946B785FCCA3E4AEB26B2&assignmentId=0198ee51-2b45-7fc3-a119-b78204308c3a&projectId=0198ee3c-27ac-7803-a9ea-f3b4ad4ad678","F28F21C7F66946B785FCCA3E4AEB26B2-2025-08-28-02-26-13","","null","","[]","null","",""
"","","","","","image-button-response","43","220610","0.0-10.0-1.0-0.6","F28F21C7F66946B785FCCA3E4AEB26B2","F28F21C7F66946B785FCCA3E4AEB26B2","0198ee51-2b45-7fc3-a119-b78204308c3a","0198ee3c-27ac-7803-a9ea-f3b4ad4ad678","{""num_scrambled_semantic"":""8"",""num_scrambled_causal"":""4"",""num_scrambled_schematic"":""4"",""participantId"":""F28F21C7F66946B785FCCA3E4AEB26B2"",""assignmentId"":""0198ee51-2b45-7fc3-a119-b78204308c3a"",""projectId"":""0198ee3c-27ac-7803-a9ea-f3b4ad4ad678""}","https://test12345.live/?num_scrambled_semantic=8&num_scrambled_causal=4&num_scrambled_schematic=4&participantId=F28F21C7F66946B785FCCA3E4AEB26B2&assignmentId=0198ee51-2b45-7fc3-a119-b78204308c3a&projectId=0198ee3c-27ac-7803-a9ea-f3b4ad4ad678","F28F21C7F66946B785FCCA3E4AEB26B2-2025-08-28-02-26-13","","null","","images/semantic_sequence/self_care_activities_semantic/self_care_activities_semantic_5.png","null","",""
"","","","","","image-button-response","44","222999","0.0-10.0-1.0-1.6","F28F21C7F66946B785FCCA3E4AEB26B2","F28F21C7F66946B785FCCA3E4AEB26B2","0198ee51-2b45-7fc3-a119-b78204308c3a","0198ee3c-27ac-7803-a9ea-f3b4ad4ad678","{""num_scrambled_semantic"":""8"",""num_scrambled_causal"":""4"",""num_scrambled_schematic"":""4"",""participantId"":""F28F21C7F66946B785FCCA3E4AEB26B2"",""assignmentId"":""0198ee51-2b45-7fc3-a119-b78204308c3a"",""projectId"":""0198ee3c-27ac-7803-a9ea-f3b4ad4ad678""}","https://test12345.live/?num_scrambled_semantic=8&num_scrambled_causal=4&num_scrambled_schematic=4&participantId=F28F21C7F66946B785FCCA3E4AEB26B2&assignmentId=0198ee51-2b45-7fc3-a119-b78204308c3a&projectId=0198ee3c-27ac-7803-a9ea-f3b4ad4ad678","F28F21C7F66946B785FCCA3E4AEB26B2-2025-08-28-02-26-13","","2386","","images/semantic_sequence/self_care_activities_semantic/self_care_activities_semantic_5.png","0","",""
"","","","","","image-button-response","45","224804","0.0-10.0-1.0-2.6","F28F21C7F66946B785FCCA3E4AEB26B2","F28F21C7F66946B785FCCA3E4AEB26B2","0198ee51-2b45-7fc3-a119-b78204308c3a","0198ee3c-27ac-7803-a9ea-f3b4ad4ad678","{""num_scrambled_semantic"":""8"",""num_scrambled_causal"":""4"",""num_scrambled_schematic"":""4"",""participantId"":""F28F21C7F66946B785FCCA3E4AEB26B2"",""assignmentId"":""0198ee51-2b45-7fc3-a119-b78204308c3a"",""projectId"":""0198ee3c-27ac-7803-a9ea-f3b4ad4ad678""}","https://test12345.live/?num_scrambled_semantic=8&num_scrambled_causal=4&num_scrambled_schematic=4&participantId=F28F21C7F66946B785FCCA3E4AEB26B2&assignmentId=0198ee51-2b45-7fc3-a119-b78204308c3a&projectId=0198ee3c-27ac-7803-a9ea-f3b4ad4ad678","F28F21C7F66946B785FCCA3E4AEB26B2-2025-08-28-02-26-13","","null","","[]","null","",""
"","","","","","image-button-response","46","229310","0.0-10.0-1.0-0.7","F28F21C7F66946B785FCCA3E4AEB26B2","F28F21C7F66946B785FCCA3E4AEB26B2","0198ee51-2b45-7fc3-a119-b78204308c3a","0198ee3c-27ac-7803-a9ea-f3b4ad4ad678","{""num_scrambled_semantic"":""8"",""num_scrambled_causal"":""4"",""num_scrambled_schematic"":""4"",""participantId"":""F28F21C7F66946B785FCCA3E4AEB26B2"",""assignmentId"":""0198ee51-2b45-7fc3-a119-b78204308c3a"",""projectId"":""0198ee3c-27ac-7803-a9ea-f3b4ad4ad678""}","https://test12345.live/?num_scrambled_semantic=8&num_scrambled_causal=4&num_scrambled_schematic=4&participantId=F28F21C7F66946B785FCCA3E4AEB26B2&assignmentId=0198ee51-2b45-7fc3-a119-b78204308c3a&projectId=0198ee3c-27ac-7803-a9ea-f3b4ad4ad678","F28F21C7F66946B785FCCA3E4AEB26B2-2025-08-28-02-26-13","","null","","images/semantic_sequence/self_care_activities_semantic/self_care_activities_semantic_ten.png","null","",""
"","","","","","image-button-response","47","229866","0.0-10.0-1.0-1.7","F28F21C7F66946B785FCCA3E4AEB26B2","F28F21C7F66946B785FCCA3E4AEB26B2","0198ee51-2b45-7fc3-a119-b78204308c3a","0198ee3c-27ac-7803-a9ea-f3b4ad4ad678","{""num_scrambled_semantic"":""8"",""num_scrambled_causal"":""4"",""num_scrambled_schematic"":""4"",""participantId"":""F28F21C7F66946B785FCCA3E4AEB26B2"",""assignmentId"":""0198ee51-2b45-7fc3-a119-b78204308c3a"",""projectId"":""0198ee3c-27ac-7803-a9ea-f3b4ad4ad678""}","https://test12345.live/?num_scrambled_semantic=8&num_scrambled_causal=4&num_scrambled_schematic=4&participantId=F28F21C7F66946B785FCCA3E4AEB26B2&assignmentId=0198ee51-2b45-7fc3-a119-b78204308c3a&projectId=0198ee3c-27ac-7803-a9ea-f3b4ad4ad678","F28F21C7F66946B785FCCA3E4AEB26B2-2025-08-28-02-26-13","","553","","images/semantic_sequence/self_care_activities_semantic/self_care_activities_semantic_ten.png","0","",""
"","","","","","image-button-response","48","231668","0.0-10.0-1.0-2.7","F28F21C7F66946B785FCCA3E4AEB26B2","F28F21C7F66946B785FCCA3E4AEB26B2","0198ee51-2b45-7fc3-a119-b78204308c3a","0198ee3c-27ac-7803-a9ea-f3b4ad4ad678","{""num_scrambled_semantic"":""8"",""num_scrambled_causal"":""4"",""num_scrambled_schematic"":""4"",""participantId"":""F28F21C7F66946B785FCCA3E4AEB26B2"",""assignmentId"":""0198ee51-2b45-7fc3-a119-b78204308c3a"",""projectId"":""0198ee3c-27ac-7803-a9ea-f3b4ad4ad678""}","https://test12345.live/?num_scrambled_semantic=8&num_scrambled_causal=4&num_scrambled_schematic=4&participantId=F28F21C7F66946B785FCCA3E4AEB26B2&assignmentId=0198ee51-2b45-7fc3-a119-b78204308c3a&projectId=0198ee3c-27ac-7803-a9ea-f3b4ad4ad678","F28F21C7F66946B785FCCA3E4AEB26B2-2025-08-28-02-26-13","","null","","[]","null","",""
"","","","","","image-button-response","49","236171","0.0-10.0-1.0-0.8","F28F21C7F66946B785FCCA3E4AEB26B2","F28F21C7F66946B785FCCA3E4AEB26B2","0198ee51-2b45-7fc3-a119-b78204308c3a","0198ee3c-27ac-7803-a9ea-f3b4ad4ad678","{""num_scrambled_semantic"":""8"",""num_scrambled_causal"":""4"",""num_scrambled_schematic"":""4"",""participantId"":""F28F21C7F66946B785FCCA3E4AEB26B2"",""assignmentId"":""0198ee51-2b45-7fc3-a119-b78204308c3a"",""projectId"":""0198ee3c-27ac-7803-a9ea-f3b4ad4ad678""}","https://test12345.live/?num_scrambled_semantic=8&num_scrambled_causal=4&num_scrambled_schematic=4&participantId=F28F21C7F66946B785FCCA3E4AEB26B2&assignmentId=0198ee51-2b45-7fc3-a119-b78204308c3a&projectId=0198ee3c-27ac-7803-a9ea-f3b4ad4ad678","F28F21C7F66946B785FCCA3E4AEB26B2-2025-08-28-02-26-13","","null","","images/semantic_sequence/self_care_activities_semantic/self_care_activities_semantic_7.png","null","",""
"","","","","","image-button-response","50","236716","0.0-10.0-1.0-1.8","F28F21C7F66946B785FCCA3E4AEB26B2","F28F21C7F66946B785FCCA3E4AEB26B2","0198ee51-2b45-7fc3-a119-b78204308c3a","0198ee3c-27ac-7803-a9ea-f3b4ad4ad678","{""num_scrambled_semantic"":""8"",""num_scrambled_causal"":""4"",""num_scrambled_schematic"":""4"",""participantId"":""F28F21C7F66946B785FCCA3E4AEB26B2"",""assignmentId"":""0198ee51-2b45-7fc3-a119-b78204308c3a"",""projectId"":""0198ee3c-27ac-7803-a9ea-f3b4ad4ad678""}","https://test12345.live/?num_scrambled_semantic=8&num_scrambled_causal=4&num_scrambled_schematic=4&participantId=F28F21C7F66946B785FCCA3E4AEB26B2&assignmentId=0198ee51-2b45-7fc3-a119-b78204308c3a&projectId=0198ee3c-27ac-7803-a9ea-f3b4ad4ad678","F28F21C7F66946B785FCCA3E4AEB26B2-2025-08-28-02-26-13","","542","","images/semantic_sequence/self_care_activities_semantic/self_care_activities_semantic_7.png","0","",""
"","","","","","image-button-response","51","238522","0.0-10.0-1.0-2.8","F28F21C7F66946B785FCCA3E4AEB26B2","F28F21C7F66946B785FCCA3E4AEB26B2","0198ee51-2b45-7fc3-a119-b78204308c3a","0198ee3c-27ac-7803-a9ea-f3b4ad4ad678","{""num_scrambled_semantic"":""8"",""num_scrambled_causal"":""4"",""num_scrambled_schematic"":""4"",""participantId"":""F28F21C7F66946B785FCCA3E4AEB26B2"",""assignmentId"":""0198ee51-2b45-7fc3-a119-b78204308c3a"",""projectId"":""0198ee3c-27ac-7803-a9ea-f3b4ad4ad678""}","https://test12345.live/?num_scrambled_semantic=8&num_scrambled_causal=4&num_scrambled_schematic=4&participantId=F28F21C7F66946B785FCCA3E4AEB26B2&assignmentId=0198ee51-2b45-7fc3-a119-b78204308c3a&projectId=0198ee3c-27ac-7803-a9ea-f3b4ad4ad678","F28F21C7F66946B785FCCA3E4AEB26B2-2025-08-28-02-26-13","","null","","[]","null","",""
"","","","","","image-button-response","52","243027","0.0-10.0-1.0-0.9","F28F21C7F66946B785FCCA3E4AEB26B2","F28F21C7F66946B785FCCA3E4AEB26B2","0198ee51-2b45-7fc3-a119-b78204308c3a","0198ee3c-27ac-7803-a9ea-f3b4ad4ad678","{""num_scrambled_semantic"":""8"",""num_scrambled_causal"":""4"",""num_scrambled_schematic"":""4"",""participantId"":""F28F21C7F66946B785FCCA3E4AEB26B2"",""assignmentId"":""0198ee51-2b45-7fc3-a119-b78204308c3a"",""projectId"":""0198ee3c-27ac-7803-a9ea-f3b4ad4ad678""}","https://test12345.live/?num_scrambled_semantic=8&num_scrambled_causal=4&num_scrambled_schematic=4&participantId=F28F21C7F66946B785FCCA3E4AEB26B2&assignmentId=0198ee51-2b45-7fc3-a119-b78204308c3a&projectId=0198ee3c-27ac-7803-a9ea-f3b4ad4ad678","F28F21C7F66946B785FCCA3E4AEB26B2-2025-08-28-02-26-13","","null","","images/semantic_sequence/self_care_activities_semantic/self_care_activities_semantic_4.png","null","",""
"","","","","","image-button-response","53","243583","0.0-10.0-1.0-1.9","F28F21C7F66946B785FCCA3E4AEB26B2","F28F21C7F66946B785FCCA3E4AEB26B2","0198ee51-2b45-7fc3-a119-b78204308c3a","0198ee3c-27ac-7803-a9ea-f3b4ad4ad678","{""num_scrambled_semantic"":""8"",""num_scrambled_causal"":""4"",""num_scrambled_schematic"":""4"",""participantId"":""F28F21C7F66946B785FCCA3E4AEB26B2"",""assignmentId"":""0198ee51-2b45-7fc3-a119-b78204308c3a"",""projectId"":""0198ee3c-27ac-7803-a9ea-f3b4ad4ad678""}","https://test12345.live/?num_scrambled_semantic=8&num_scrambled_causal=4&num_scrambled_schematic=4&participantId=F28F21C7F66946B785FCCA3E4AEB26B2&assignmentId=0198ee51-2b45-7fc3-a119-b78204308c3a&projectId=0198ee3c-27ac-7803-a9ea-f3b4ad4ad678","F28F21C7F66946B785FCCA3E4AEB26B2-2025-08-28-02-26-13","","553","","images/semantic_sequence/self_care_activities_semantic/self_care_activities_semantic_4.png","0","",""
"","","","","","image-button-response","54","245390","0.0-10.0-1.0-2.9","F28F21C7F66946B785FCCA3E4AEB26B2","F28F21C7F66946B785FCCA3E4AEB26B2","0198ee51-2b45-7fc3-a119-b78204308c3a","0198ee3c-27ac-7803-a9ea-f3b4ad4ad678","{""num_scrambled_semantic"":""8"",""num_scrambled_causal"":""4"",""num_scrambled_schematic"":""4"",""participantId"":""F28F21C7F66946B785FCCA3E4AEB26B2"",""assignmentId"":""0198ee51-2b45-7fc3-a119-b78204308c3a"",""projectId"":""0198ee3c-27ac-7803-a9ea-f3b4ad4ad678""}","https://test12345.live/?num_scrambled_semantic=8&num_scrambled_causal=4&num_scrambled_schematic=4&participantId=F28F21C7F66946B785FCCA3E4AEB26B2&assignmentId=0198ee51-2b45-7fc3-a119-b78204308c3a&projectId=0198ee3c-27ac-7803-a9ea-f3b4ad4ad678","F28F21C7F66946B785FCCA3E4AEB26B2-2025-08-28-02-26-13","","null","","[]","null","",""
"","","","","","html-audio-response","55","279781","0.0-11.0","F28F21C7F66946B785FCCA3E4AEB26B2","F28F21C7F66946B785FCCA3E4AEB26B2","0198ee51-2b45-7fc3-a119-b78204308c3a","0198ee3c-27ac-7803-a9ea-f3b4ad4ad678","{""num_scrambled_semantic"":""8"",""num_scrambled_causal"":""4"",""num_scrambled_schematic"":""4"",""participantId"":""F28F21C7F66946B785FCCA3E4AEB26B2"",""assignmentId"":""0198ee51-2b45-7fc3-a119-b78204308c3a"",""projectId"":""0198ee3c-27ac-7803-a9ea-f3b4ad4ad678""}","https://test12345.live/?num_scrambled_semantic=8&num_scrambled_causal=4&num_scrambled_schematic=4&participantId=F28F21C7F66946B785FCCA3E4AEB26B2&assignmentId=0198ee51-2b45-7fc3-a119-b78204308c3a&projectId=0198ee3c-27ac-7803-a9ea-f3b4ad4ad678","F28F21C7F66946B785FCCA3E4AEB26B2-2025-08-28-02-26-13","","12636","","[""<span style=\""color: red; font-size: 24px\""> NOW RECORDING</span><p>Please say out loud all the images you saw, in the order of the story they create. Try to recall the sequence of events as they appeared in the story, not necessarily the order they were presented on the screen.</p>""]","","3","self_care_activities_semantic"
"","","","","","image-button-response","56","285786","0.0-12.0-0.0","F28F21C7F66946B785FCCA3E4AEB26B2","F28F21C7F66946B785FCCA3E4AEB26B2","0198ee51-2b45-7fc3-a119-b78204308c3a","0198ee3c-27ac-7803-a9ea-f3b4ad4ad678","{""num_scrambled_semantic"":""8"",""num_scrambled_causal"":""4"",""num_scrambled_schematic"":""4"",""participantId"":""F28F21C7F66946B785FCCA3E4AEB26B2"",""assignmentId"":""0198ee51-2b45-7fc3-a119-b78204308c3a"",""projectId"":""0198ee3c-27ac-7803-a9ea-f3b4ad4ad678""}","https://test12345.live/?num_scrambled_semantic=8&num_scrambled_causal=4&num_scrambled_schematic=4&participantId=F28F21C7F66946B785FCCA3E4AEB26B2&assignmentId=0198ee51-2b45-7fc3-a119-b78204308c3a&projectId=0198ee3c-27ac-7803-a9ea-f3b4ad4ad678","F28F21C7F66946B785FCCA3E4AEB26B2-2025-08-28-02-26-13","","null","","images/semantic_sequence/visiting_cities_semantic/visiting_cities_semantic_0.png","null","",""
"","","","","","image-button-response","57","290291","0.0-12.0-1.0-0.0","F28F21C7F66946B785FCCA3E4AEB26B2","F28F21C7F66946B785FCCA3E4AEB26B2","0198ee51-2b45-7fc3-a119-b78204308c3a","0198ee3c-27ac-7803-a9ea-f3b4ad4ad678","{""num_scrambled_semantic"":""8"",""num_scrambled_causal"":""4"",""num_scrambled_schematic"":""4"",""participantId"":""F28F21C7F66946B785FCCA3E4AEB26B2"",""assignmentId"":""0198ee51-2b45-7fc3-a119-b78204308c3a"",""projectId"":""0198ee3c-27ac-7803-a9ea-f3b4ad4ad678""}","https://test12345.live/?num_scrambled_semantic=8&num_scrambled_causal=4&num_scrambled_schematic=4&participantId=F28F21C7F66946B785FCCA3E4AEB26B2&assignmentId=0198ee51-2b45-7fc3-a119-b78204308c3a&projectId=0198ee3c-27ac-7803-a9ea-f3b4ad4ad678","F28F21C7F66946B785FCCA3E4AEB26B2-2025-08-28-02-26-13","","null","","images/semantic_sequence/visiting_cities_semantic/visiting_cities_semantic_1.png","null","",""
"","","","","","image-button-response","58","292133","0.0-12.0-1.0-1.0","F28F21C7F66946B785FCCA3E4AEB26B2","F28F21C7F66946B785FCCA3E4AEB26B2","0198ee51-2b45-7fc3-a119-b78204308c3a","0198ee3c-27ac-7803-a9ea-f3b4ad4ad678","{""num_scrambled_semantic"":""8"",""num_scrambled_causal"":""4"",""num_scrambled_schematic"":""4"",""participantId"":""F28F21C7F66946B785FCCA3E4AEB26B2"",""assignmentId"":""0198ee51-2b45-7fc3-a119-b78204308c3a"",""projectId"":""0198ee3c-27ac-7803-a9ea-f3b4ad4ad678""}","https://test12345.live/?num_scrambled_semantic=8&num_scrambled_causal=4&num_scrambled_schematic=4&participantId=F28F21C7F66946B785FCCA3E4AEB26B2&assignmentId=0198ee51-2b45-7fc3-a119-b78204308c3a&projectId=0198ee3c-27ac-7803-a9ea-f3b4ad4ad678","F28F21C7F66946B785FCCA3E4AEB26B2-2025-08-28-02-26-13","","1840","","images/semantic_sequence/visiting_cities_semantic/visiting_cities_semantic_1.png","1","",""
"","","","","","image-button-response","59","293939","0.0-12.0-1.0-2.0","F28F21C7F66946B785FCCA3E4AEB26B2","F28F21C7F66946B785FCCA3E4AEB26B2","0198ee51-2b45-7fc3-a119-b78204308c3a","0198ee3c-27ac-7803-a9ea-f3b4ad4ad678","{""num_scrambled_semantic"":""8"",""num_scrambled_causal"":""4"",""num_scrambled_schematic"":""4"",""participantId"":""F28F21C7F66946B785FCCA3E4AEB26B2"",""assignmentId"":""0198ee51-2b45-7fc3-a119-b78204308c3a"",""projectId"":""0198ee3c-27ac-7803-a9ea-f3b4ad4ad678""}","https://test12345.live/?num_scrambled_semantic=8&num_scrambled_causal=4&num_scrambled_schematic=4&participantId=F28F21C7F66946B785FCCA3E4AEB26B2&assignmentId=0198ee51-2b45-7fc3-a119-b78204308c3a&projectId=0198ee3c-27ac-7803-a9ea-f3b4ad4ad678","F28F21C7F66946B785FCCA3E4AEB26B2-2025-08-28-02-26-13","","null","","[]","null","",""
"","","","","","image-button-response","60","298442","0.0-12.0-1.0-0.1","F28F21C7F66946B785FCCA3E4AEB26B2","F28F21C7F66946B785FCCA3E4AEB26B2","0198ee51-2b45-7fc3-a119-b78204308c3a","0198ee3c-27ac-7803-a9ea-f3b4ad4ad678","{""num_scrambled_semantic"":""8"",""num_scrambled_causal"":""4"",""num_scrambled_schematic"":""4"",""participantId"":""F28F21C7F66946B785FCCA3E4AEB26B2"",""assignmentId"":""0198ee51-2b45-7fc3-a119-b78204308c3a"",""projectId"":""0198ee3c-27ac-7803-a9ea-f3b4ad4ad678""}","https://test12345.live/?num_scrambled_semantic=8&num_scrambled_causal=4&num_scrambled_schematic=4&participantId=F28F21C7F66946B785FCCA3E4AEB26B2&assignmentId=0198ee51-2b45-7fc3-a119-b78204308c3a&projectId=0198ee3c-27ac-7803-a9ea-f3b4ad4ad678","F28F21C7F66946B785FCCA3E4AEB26B2-2025-08-28-02-26-13","","null","","images/semantic_sequence/visiting_cities_semantic/visiting_cities_semantic_2.png","null","",""
"","","","","","image-button-response","61","301366","0.0-12.0-1.0-1.1","F28F21C7F66946B785FCCA3E4AEB26B2","F28F21C7F66946B785FCCA3E4AEB26B2","0198ee51-2b45-7fc3-a119-b78204308c3a","0198ee3c-27ac-7803-a9ea-f3b4ad4ad678","{""num_scrambled_semantic"":""8"",""num_scrambled_causal"":""4"",""num_scrambled_schematic"":""4"",""participantId"":""F28F21C7F66946B785FCCA3E4AEB26B2"",""assignmentId"":""0198ee51-2b45-7fc3-a119-b78204308c3a"",""projectId"":""0198ee3c-27ac-7803-a9ea-f3b4ad4ad678""}","https://test12345.live/?num_scrambled_semantic=8&num_scrambled_causal=4&num_scrambled_schematic=4&participantId=F28F21C7F66946B785FCCA3E4AEB26B2&assignmentId=0198ee51-2b45-7fc3-a119-b78204308c3a&projectId=0198ee3c-27ac-7803-a9ea-f3b4ad4ad678","F28F21C7F66946B785FCCA3E4AEB26B2-2025-08-28-02-26-13","","2922","","images/semantic_sequence/visiting_cities_semantic/visiting_cities_semantic_2.png","1","",""
"","","","","","image-button-response","62","303172","0.0-12.0-1.0-2.1","F28F21C7F66946B785FCCA3E4AEB26B2","F28F21C7F66946B785FCCA3E4AEB26B2","0198ee51-2b45-7fc3-a119-b78204308c3a","0198ee3c-27ac-7803-a9ea-f3b4ad4ad678","{""num_scrambled_semantic"":""8"",""num_scrambled_causal"":""4"",""num_scrambled_schematic"":""4"",""participantId"":""F28F21C7F66946B785FCCA3E4AEB26B2"",""assignmentId"":""0198ee51-2b45-7fc3-a119-b78204308c3a"",""projectId"":""0198ee3c-27ac-7803-a9ea-f3b4ad4ad678""}","https://test12345.live/?num_scrambled_semantic=8&num_scrambled_causal=4&num_scrambled_schematic=4&participantId=F28F21C7F66946B785FCCA3E4AEB26B2&assignmentId=0198ee51-2b45-7fc3-a119-b78204308c3a&projectId=0198ee3c-27ac-7803-a9ea-f3b4ad4ad678","F28F21C7F66946B785FCCA3E4AEB26B2-2025-08-28-02-26-13","","null","","[]","null","",""
"","","","","","image-button-response","63","307670","0.0-12.0-1.0-0.2","F28F21C7F66946B785FCCA3E4AEB26B2","F28F21C7F66946B785FCCA3E4AEB26B2","0198ee51-2b45-7fc3-a119-b78204308c3a","0198ee3c-27ac-7803-a9ea-f3b4ad4ad678","{""num_scrambled_semantic"":""8"",""num_scrambled_causal"":""4"",""num_scrambled_schematic"":""4"",""participantId"":""F28F21C7F66946B785FCCA3E4AEB26B2"",""assignmentId"":""0198ee51-2b45-7fc3-a119-b78204308c3a"",""projectId"":""0198ee3c-27ac-7803-a9ea-f3b4ad4ad678""}","https://test12345.live/?num_scrambled_semantic=8&num_scrambled_causal=4&num_scrambled_schematic=4&participantId=F28F21C7F66946B785FCCA3E4AEB26B2&assignmentId=0198ee51-2b45-7fc3-a119-b78204308c3a&projectId=0198ee3c-27ac-7803-a9ea-f3b4ad4ad678","F28F21C7F66946B785FCCA3E4AEB26B2-2025-08-28-02-26-13","","null","","images/semantic_sequence/visiting_cities_semantic/visiting_cities_semantic_3.png","null","",""
"","","","","","image-button-response","64","308856","0.0-12.0-1.0-1.2","F28F21C7F66946B785FCCA3E4AEB26B2","F28F21C7F66946B785FCCA3E4AEB26B2","0198ee51-2b45-7fc3-a119-b78204308c3a","0198ee3c-27ac-7803-a9ea-f3b4ad4ad678","{""num_scrambled_semantic"":""8"",""num_scrambled_causal"":""4"",""num_scrambled_schematic"":""4"",""participantId"":""F28F21C7F66946B785FCCA3E4AEB26B2"",""assignmentId"":""0198ee51-2b45-7fc3-a119-b78204308c3a"",""projectId"":""0198ee3c-27ac-7803-a9ea-f3b4ad4ad678""}","https://test12345.live/?num_scrambled_semantic=8&num_scrambled_causal=4&num_scrambled_schematic=4&participantId=F28F21C7F66946B785FCCA3E4AEB26B2&assignmentId=0198ee51-2b45-7fc3-a119-b78204308c3a&projectId=0198ee3c-27ac-7803-a9ea-f3b4ad4ad678","F28F21C7F66946B785FCCA3E4AEB26B2-2025-08-28-02-26-13","","1186","","images/semantic_sequence/visiting_cities_semantic/visiting_cities_semantic_3.png","1","",""
"","","","","","image-button-response","65","310655","0.0-12.0-1.0-2.2","F28F21C7F66946B785FCCA3E4AEB26B2","F28F21C7F66946B785FCCA3E4AEB26B2","0198ee51-2b45-7fc3-a119-b78204308c3a","0198ee3c-27ac-7803-a9ea-f3b4ad4ad678","{""num_scrambled_semantic"":""8"",""num_scrambled_causal"":""4"",""num_scrambled_schematic"":""4"",""participantId"":""F28F21C7F66946B785FCCA3E4AEB26B2"",""assignmentId"":""0198ee51-2b45-7fc3-a119-b78204308c3a"",""projectId"":""0198ee3c-27ac-7803-a9ea-f3b4ad4ad678""}","https://test12345.live/?num_scrambled_semantic=8&num_scrambled_causal=4&num_scrambled_schematic=4&participantId=F28F21C7F66946B785FCCA3E4AEB26B2&assignmentId=0198ee51-2b45-7fc3-a119-b78204308c3a&projectId=0198ee3c-27ac-7803-a9ea-f3b4ad4ad678","F28F21C7F66946B785FCCA3E4AEB26B2-2025-08-28-02-26-13","","null","","[]","null","",""
"","","","","","image-button-response","66","315154","0.0-12.0-1.0-0.3","F28F21C7F66946B785FCCA3E4AEB26B2","F28F21C7F66946B785FCCA3E4AEB26B2","0198ee51-2b45-7fc3-a119-b78204308c3a","0198ee3c-27ac-7803-a9ea-f3b4ad4ad678","{""num_scrambled_semantic"":""8"",""num_scrambled_causal"":""4"",""num_scrambled_schematic"":""4"",""participantId"":""F28F21C7F66946B785FCCA3E4AEB26B2"",""assignmentId"":""0198ee51-2b45-7fc3-a119-b78204308c3a"",""projectId"":""0198ee3c-27ac-7803-a9ea-f3b4ad4ad678""}","https://test12345.live/?num_scrambled_semantic=8&num_scrambled_causal=4&num_scrambled_schematic=4&participantId=F28F21C7F66946B785FCCA3E4AEB26B2&assignmentId=0198ee51-2b45-7fc3-a119-b78204308c3a&projectId=0198ee3c-27ac-7803-a9ea-f3b4ad4ad678","F28F21C7F66946B785FCCA3E4AEB26B2-2025-08-28-02-26-13","","null","","images/semantic_sequence/visiting_cities_semantic/visiting_cities_semantic_4.png","null","",""
"","","","","","image-button-response","67","319157","0.0-12.0-1.0-1.3","F28F21C7F66946B785FCCA3E4AEB26B2","F28F21C7F66946B785FCCA3E4AEB26B2","0198ee51-2b45-7fc3-a119-b78204308c3a","0198ee3c-27ac-7803-a9ea-f3b4ad4ad678","{""num_scrambled_semantic"":""8"",""num_scrambled_causal"":""4"",""num_scrambled_schematic"":""4"",""participantId"":""F28F21C7F66946B785FCCA3E4AEB26B2"",""assignmentId"":""0198ee51-2b45-7fc3-a119-b78204308c3a"",""projectId"":""0198ee3c-27ac-7803-a9ea-f3b4ad4ad678""}","https://test12345.live/?num_scrambled_semantic=8&num_scrambled_causal=4&num_scrambled_schematic=4&participantId=F28F21C7F66946B785FCCA3E4AEB26B2&assignmentId=0198ee51-2b45-7fc3-a119-b78204308c3a&projectId=0198ee3c-27ac-7803-a9ea-f3b4ad4ad678","F28F21C7F66946B785FCCA3E4AEB26B2-2025-08-28-02-26-13","","null","","images/semantic_sequence/visiting_cities_semantic/visiting_cities_semantic_4.png","null","",""
"","","","","","image-button-response","68","320962","0.0-12.0-1.0-2.3","F28F21C7F66946B785FCCA3E4AEB26B2","F28F21C7F66946B785FCCA3E4AEB26B2","0198ee51-2b45-7fc3-a119-b78204308c3a","0198ee3c-27ac-7803-a9ea-f3b4ad4ad678","{""num_scrambled_semantic"":""8"",""num_scrambled_causal"":""4"",""num_scrambled_schematic"":""4"",""participantId"":""F28F21C7F66946B785FCCA3E4AEB26B2"",""assignmentId"":""0198ee51-2b45-7fc3-a119-b78204308c3a"",""projectId"":""0198ee3c-27ac-7803-a9ea-f3b4ad4ad678""}","https://test12345.live/?num_scrambled_semantic=8&num_scrambled_causal=4&num_scrambled_schematic=4&participantId=F28F21C7F66946B785FCCA3E4AEB26B2&assignmentId=0198ee51-2b45-7fc3-a119-b78204308c3a&projectId=0198ee3c-27ac-7803-a9ea-f3b4ad4ad678","F28F21C7F66946B785FCCA3E4AEB26B2-2025-08-28-02-26-13","","null","","[]","null","",""
"","","","","","image-button-response","69","325465","0.0-12.0-1.0-0.4","F28F21C7F66946B785FCCA3E4AEB26B2","F28F21C7F66946B785FCCA3E4AEB26B2","0198ee51-2b45-7fc3-a119-b78204308c3a","0198ee3c-27ac-7803-a9ea-f3b4ad4ad678","{""num_scrambled_semantic"":""8"",""num_scrambled_causal"":""4"",""num_scrambled_schematic"":""4"",""participantId"":""F28F21C7F66946B785FCCA3E4AEB26B2"",""assignmentId"":""0198ee51-2b45-7fc3-a119-b78204308c3a"",""projectId"":""0198ee3c-27ac-7803-a9ea-f3b4ad4ad678""}","https://test12345.live/?num_scrambled_semantic=8&num_scrambled_causal=4&num_scrambled_schematic=4&participantId=F28F21C7F66946B785FCCA3E4AEB26B2&assignmentId=0198ee51-2b45-7fc3-a119-b78204308c3a&projectId=0198ee3c-27ac-7803-a9ea-f3b4ad4ad678","F28F21C7F66946B785FCCA3E4AEB26B2-2025-08-28-02-26-13","","null","","images/semantic_sequence/visiting_cities_semantic/visiting_cities_semantic_5.png","null","",""
"","","","","","image-button-response","70","326206","0.0-12.0-1.0-1.4","F28F21C7F66946B785FCCA3E4AEB26B2","F28F21C7F66946B785FCCA3E4AEB26B2","0198ee51-2b45-7fc3-a119-b78204308c3a","0198ee3c-27ac-7803-a9ea-f3b4ad4ad678","{""num_scrambled_semantic"":""8"",""num_scrambled_causal"":""4"",""num_scrambled_schematic"":""4"",""participantId"":""F28F21C7F66946B785FCCA3E4AEB26B2"",""assignmentId"":""0198ee51-2b45-7fc3-a119-b78204308c3a"",""projectId"":""0198ee3c-27ac-7803-a9ea-f3b4ad4ad678""}","https://test12345.live/?num_scrambled_semantic=8&num_scrambled_causal=4&num_scrambled_schematic=4&participantId=F28F21C7F66946B785FCCA3E4AEB26B2&assignmentId=0198ee51-2b45-7fc3-a119-b78204308c3a&projectId=0198ee3c-27ac-7803-a9ea-f3b4ad4ad678","F28F21C7F66946B785FCCA3E4AEB26B2-2025-08-28-02-26-13","","739","","images/semantic_sequence/visiting_cities_semantic/visiting_cities_semantic_5.png","1","",""
"","","","","","image-button-response","71","328012","0.0-12.0-1.0-2.4","F28F21C7F66946B785FCCA3E4AEB26B2","F28F21C7F66946B785FCCA3E4AEB26B2","0198ee51-2b45-7fc3-a119-b78204308c3a","0198ee3c-27ac-7803-a9ea-f3b4ad4ad678","{""num_scrambled_semantic"":""8"",""num_scrambled_causal"":""4"",""num_scrambled_schematic"":""4"",""participantId"":""F28F21C7F66946B785FCCA3E4AEB26B2"",""assignmentId"":""0198ee51-2b45-7fc3-a119-b78204308c3a"",""projectId"":""0198ee3c-27ac-7803-a9ea-f3b4ad4ad678""}","https://test12345.live/?num_scrambled_semantic=8&num_scrambled_causal=4&num_scrambled_schematic=4&participantId=F28F21C7F66946B785FCCA3E4AEB26B2&assignmentId=0198ee51-2b45-7fc3-a119-b78204308c3a&projectId=0198ee3c-27ac-7803-a9ea-f3b4ad4ad678","F28F21C7F66946B785FCCA3E4AEB26B2-2025-08-28-02-26-13","","null","","[]","null","",""
"","","","","","image-button-response","72","332514","0.0-12.0-1.0-0.5","F28F21C7F66946B785FCCA3E4AEB26B2","F28F21C7F66946B785FCCA3E4AEB26B2","0198ee51-2b45-7fc3-a119-b78204308c3a","0198ee3c-27ac-7803-a9ea-f3b4ad4ad678","{""num_scrambled_semantic"":""8"",""num_scrambled_causal"":""4"",""num_scrambled_schematic"":""4"",""participantId"":""F28F21C7F66946B785FCCA3E4AEB26B2"",""assignmentId"":""0198ee51-2b45-7fc3-a119-b78204308c3a"",""projectId"":""0198ee3c-27ac-7803-a9ea-f3b4ad4ad678""}","https://test12345.live/?num_scrambled_semantic=8&num_scrambled_causal=4&num_scrambled_schematic=4&participantId=F28F21C7F66946B785FCCA3E4AEB26B2&assignmentId=0198ee51-2b45-7fc3-a119-b78204308c3a&projectId=0198ee3c-27ac-7803-a9ea-f3b4ad4ad678","F28F21C7F66946B785FCCA3E4AEB26B2-2025-08-28-02-26-13","","null","","images/semantic_sequence/visiting_cities_semantic/visiting_cities_semantic_6.png","null","",""
"","","","","","image-button-response","73","333934","0.0-12.0-1.0-1.5","F28F21C7F66946B785FCCA3E4AEB26B2","F28F21C7F66946B785FCCA3E4AEB26B2","0198ee51-2b45-7fc3-a119-b78204308c3a","0198ee3c-27ac-7803-a9ea-f3b4ad4ad678","{""num_scrambled_semantic"":""8"",""num_scrambled_causal"":""4"",""num_scrambled_schematic"":""4"",""participantId"":""F28F21C7F66946B785FCCA3E4AEB26B2"",""assignmentId"":""0198ee51-2b45-7fc3-a119-b78204308c3a"",""projectId"":""0198ee3c-27ac-7803-a9ea-f3b4ad4ad678""}","https://test12345.live/?num_scrambled_semantic=8&num_scrambled_causal=4&num_scrambled_schematic=4&participantId=F28F21C7F66946B785FCCA3E4AEB26B2&assignmentId=0198ee51-2b45-7fc3-a119-b78204308c3a&projectId=0198ee3c-27ac-7803-a9ea-f3b4ad4ad678","F28F21C7F66946B785FCCA3E4AEB26B2-2025-08-28-02-26-13","","1419","","images/semantic_sequence/visiting_cities_semantic/visiting_cities_semantic_6.png","1","",""
"","","","","","image-button-response","74","335736","0.0-12.0-1.0-2.5","F28F21C7F66946B785FCCA3E4AEB26B2","F28F21C7F66946B785FCCA3E4AEB26B2","0198ee51-2b45-7fc3-a119-b78204308c3a","0198ee3c-27ac-7803-a9ea-f3b4ad4ad678","{""num_scrambled_semantic"":""8"",""num_scrambled_causal"":""4"",""num_scrambled_schematic"":""4"",""participantId"":""F28F21C7F66946B785FCCA3E4AEB26B2"",""assignmentId"":""0198ee51-2b45-7fc3-a119-b78204308c3a"",""projectId"":""0198ee3c-27ac-7803-a9ea-f3b4ad4ad678""}","https://test12345.live/?num_scrambled_semantic=8&num_scrambled_causal=4&num_scrambled_schematic=4&participantId=F28F21C7F66946B785FCCA3E4AEB26B2&assignmentId=0198ee51-2b45-7fc3-a119-b78204308c3a&projectId=0198ee3c-27ac-7803-a9ea-f3b4ad4ad678","F28F21C7F66946B785FCCA3E4AEB26B2-2025-08-28-02-26-13","","null","","[]","null","",""
"","","","","","image-button-response","75","340239","0.0-12.0-1.0-0.6","F28F21C7F66946B785FCCA3E4AEB26B2","F28F21C7F66946B785FCCA3E4AEB26B2","0198ee51-2b45-7fc3-a119-b78204308c3a","0198ee3c-27ac-7803-a9ea-f3b4ad4ad678","{""num_scrambled_semantic"":""8"",""num_scrambled_causal"":""4"",""num_scrambled_schematic"":""4"",""participantId"":""F28F21C7F66946B785FCCA3E4AEB26B2"",""assignmentId"":""0198ee51-2b45-7fc3-a119-b78204308c3a"",""projectId"":""0198ee3c-27ac-7803-a9ea-f3b4ad4ad678""}","https://test12345.live/?num_scrambled_semantic=8&num_scrambled_causal=4&num_scrambled_schematic=4&participantId=F28F21C7F66946B785FCCA3E4AEB26B2&assignmentId=0198ee51-2b45-7fc3-a119-b78204308c3a&projectId=0198ee3c-27ac-7803-a9ea-f3b4ad4ad678","F28F21C7F66946B785FCCA3E4AEB26B2-2025-08-28-02-26-13","","null","","images/semantic_sequence/visiting_cities_semantic/visiting_cities_semantic_7.png","null","",""
"","","","","","image-button-response","76","341083","0.0-12.0-1.0-1.6","F28F21C7F66946B785FCCA3E4AEB26B2","F28F21C7F66946B785FCCA3E4AEB26B2","0198ee51-2b45-7fc3-a119-b78204308c3a","0198ee3c-27ac-7803-a9ea-f3b4ad4ad678","{""num_scrambled_semantic"":""8"",""num_scrambled_causal"":""4"",""num_scrambled_schematic"":""4"",""participantId"":""F28F21C7F66946B785FCCA3E4AEB26B2"",""assignmentId"":""0198ee51-2b45-7fc3-a119-b78204308c3a"",""projectId"":""0198ee3c-27ac-7803-a9ea-f3b4ad4ad678""}","https://test12345.live/?num_scrambled_semantic=8&num_scrambled_causal=4&num_scrambled_schematic=4&participantId=F28F21C7F66946B785FCCA3E4AEB26B2&assignmentId=0198ee51-2b45-7fc3-a119-b78204308c3a&projectId=0198ee3c-27ac-7803-a9ea-f3b4ad4ad678","F28F21C7F66946B785FCCA3E4AEB26B2-2025-08-28-02-26-13","","842","","images/semantic_sequence/visiting_cities_semantic/visiting_cities_semantic_7.png","1","",""
"","","","","","image-button-response","77","342885","0.0-12.0-1.0-2.6","F28F21C7F66946B785FCCA3E4AEB26B2","F28F21C7F66946B785FCCA3E4AEB26B2","0198ee51-2b45-7fc3-a119-b78204308c3a","0198ee3c-27ac-7803-a9ea-f3b4ad4ad678","{""num_scrambled_semantic"":""8"",""num_scrambled_causal"":""4"",""num_scrambled_schematic"":""4"",""participantId"":""F28F21C7F66946B785FCCA3E4AEB26B2"",""assignmentId"":""0198ee51-2b45-7fc3-a119-b78204308c3a"",""projectId"":""0198ee3c-27ac-7803-a9ea-f3b4ad4ad678""}","https://test12345.live/?num_scrambled_semantic=8&num_scrambled_causal=4&num_scrambled_schematic=4&participantId=F28F21C7F66946B785FCCA3E4AEB26B2&assignmentId=0198ee51-2b45-7fc3-a119-b78204308c3a&projectId=0198ee3c-27ac-7803-a9ea-f3b4ad4ad678","F28F21C7F66946B785FCCA3E4AEB26B2-2025-08-28-02-26-13","","null","","[]","null","",""
"","","","","","image-button-response","78","347391","0.0-12.0-1.0-0.7","F28F21C7F66946B785FCCA3E4AEB26B2","F28F21C7F66946B785FCCA3E4AEB26B2","0198ee51-2b45-7fc3-a119-b78204308c3a","0198ee3c-27ac-7803-a9ea-f3b4ad4ad678","{""num_scrambled_semantic"":""8"",""num_scrambled_causal"":""4"",""num_scrambled_schematic"":""4"",""participantId"":""F28F21C7F66946B785FCCA3E4AEB26B2"",""assignmentId"":""0198ee51-2b45-7fc3-a119-b78204308c3a"",""projectId"":""0198ee3c-27ac-7803-a9ea-f3b4ad4ad678""}","https://test12345.live/?num_scrambled_semantic=8&num_scrambled_causal=4&num_scrambled_schematic=4&participantId=F28F21C7F66946B785FCCA3E4AEB26B2&assignmentId=0198ee51-2b45-7fc3-a119-b78204308c3a&projectId=0198ee3c-27ac-7803-a9ea-f3b4ad4ad678","F28F21C7F66946B785FCCA3E4AEB26B2-2025-08-28-02-26-13","","null","","images/semantic_sequence/visiting_cities_semantic/visiting_cities_semantic_8.png","null","",""
"","","","","","image-button-response","79","349315","0.0-12.0-1.0-1.7","F28F21C7F66946B785FCCA3E4AEB26B2","F28F21C7F66946B785FCCA3E4AEB26B2","0198ee51-2b45-7fc3-a119-b78204308c3a","0198ee3c-27ac-7803-a9ea-f3b4ad4ad678","{""num_scrambled_semantic"":""8"",""num_scrambled_causal"":""4"",""num_scrambled_schematic"":""4"",""participantId"":""F28F21C7F66946B785FCCA3E4AEB26B2"",""assignmentId"":""0198ee51-2b45-7fc3-a119-b78204308c3a"",""projectId"":""0198ee3c-27ac-7803-a9ea-f3b4ad4ad678""}","https://test12345.live/?num_scrambled_semantic=8&num_scrambled_causal=4&num_scrambled_schematic=4&participantId=F28F21C7F66946B785FCCA3E4AEB26B2&assignmentId=0198ee51-2b45-7fc3-a119-b78204308c3a&projectId=0198ee3c-27ac-7803-a9ea-f3b4ad4ad678","F28F21C7F66946B785FCCA3E4AEB26B2-2025-08-28-02-26-13","","1922","","images/semantic_sequence/visiting_cities_semantic/visiting_cities_semantic_8.png","1","",""
"","","","","","image-button-response","80","351121","0.0-12.0-1.0-2.7","F28F21C7F66946B785FCCA3E4AEB26B2","F28F21C7F66946B785FCCA3E4AEB26B2","0198ee51-2b45-7fc3-a119-b78204308c3a","0198ee3c-27ac-7803-a9ea-f3b4ad4ad678","{""num_scrambled_semantic"":""8"",""num_scrambled_causal"":""4"",""num_scrambled_schematic"":""4"",""participantId"":""F28F21C7F66946B785FCCA3E4AEB26B2"",""assignmentId"":""0198ee51-2b45-7fc3-a119-b78204308c3a"",""projectId"":""0198ee3c-27ac-7803-a9ea-f3b4ad4ad678""}","https://test12345.live/?num_scrambled_semantic=8&num_scrambled_causal=4&num_scrambled_schematic=4&participantId=F28F21C7F66946B785FCCA3E4AEB26B2&assignmentId=0198ee51-2b45-7fc3-a119-b78204308c3a&projectId=0198ee3c-27ac-7803-a9ea-f3b4ad4ad678","F28F21C7F66946B785FCCA3E4AEB26B2-2025-08-28-02-26-13","","null","","[]","null","",""
"","","","","","image-button-response","81","355626","0.0-12.0-1.0-0.8","F28F21C7F66946B785FCCA3E4AEB26B2","F28F21C7F66946B785FCCA3E4AEB26B2","0198ee51-2b45-7fc3-a119-b78204308c3a","0198ee3c-27ac-7803-a9ea-f3b4ad4ad678","{""num_scrambled_semantic"":""8"",""num_scrambled_causal"":""4"",""num_scrambled_schematic"":""4"",""participantId"":""F28F21C7F66946B785FCCA3E4AEB26B2"",""assignmentId"":""0198ee51-2b45-7fc3-a119-b78204308c3a"",""projectId"":""0198ee3c-27ac-7803-a9ea-f3b4ad4ad678""}","https://test12345.live/?num_scrambled_semantic=8&num_scrambled_causal=4&num_scrambled_schematic=4&participantId=F28F21C7F66946B785FCCA3E4AEB26B2&assignmentId=0198ee51-2b45-7fc3-a119-b78204308c3a&projectId=0198ee3c-27ac-7803-a9ea-f3b4ad4ad678","F28F21C7F66946B785FCCA3E4AEB26B2-2025-08-28-02-26-13","","null","","images/semantic_sequence/visiting_cities_semantic/visiting_cities_semantic_9.png","null","",""
"","","","","","image-button-response","82","356398","0.0-12.0-1.0-1.8","F28F21C7F66946B785FCCA3E4AEB26B2","F28F21C7F66946B785FCCA3E4AEB26B2","0198ee51-2b45-7fc3-a119-b78204308c3a","0198ee3c-27ac-7803-a9ea-f3b4ad4ad678","{""num_scrambled_semantic"":""8"",""num_scrambled_causal"":""4"",""num_scrambled_schematic"":""4"",""participantId"":""F28F21C7F66946B785FCCA3E4AEB26B2"",""assignmentId"":""0198ee51-2b45-7fc3-a119-b78204308c3a"",""projectId"":""0198ee3c-27ac-7803-a9ea-f3b4ad4ad678""}","https://test12345.live/?num_scrambled_semantic=8&num_scrambled_causal=4&num_scrambled_schematic=4&participantId=F28F21C7F66946B785FCCA3E4AEB26B2&assignmentId=0198ee51-2b45-7fc3-a119-b78204308c3a&projectId=0198ee3c-27ac-7803-a9ea-f3b4ad4ad678","F28F21C7F66946B785FCCA3E4AEB26B2-2025-08-28-02-26-13","","770","","images/semantic_sequence/visiting_cities_semantic/visiting_cities_semantic_9.png","1","",""
"","","","","","image-button-response","83","358199","0.0-12.0-1.0-2.8","F28F21C7F66946B785FCCA3E4AEB26B2","F28F21C7F66946B785FCCA3E4AEB26B2","0198ee51-2b45-7fc3-a119-b78204308c3a","0198ee3c-27ac-7803-a9ea-f3b4ad4ad678","{""num_scrambled_semantic"":""8"",""num_scrambled_causal"":""4"",""num_scrambled_schematic"":""4"",""participantId"":""F28F21C7F66946B785FCCA3E4AEB26B2"",""assignmentId"":""0198ee51-2b45-7fc3-a119-b78204308c3a"",""projectId"":""0198ee3c-27ac-7803-a9ea-f3b4ad4ad678""}","https://test12345.live/?num_scrambled_semantic=8&num_scrambled_causal=4&num_scrambled_schematic=4&participantId=F28F21C7F66946B785FCCA3E4AEB26B2&assignmentId=0198ee51-2b45-7fc3-a119-b78204308c3a&projectId=0198ee3c-27ac-7803-a9ea-f3b4ad4ad678","F28F21C7F66946B785FCCA3E4AEB26B2-2025-08-28-02-26-13","","null","","[]","null","",""
"","","","","","image-button-response","84","362702","0.0-12.0-1.0-0.9","F28F21C7F66946B785FCCA3E4AEB26B2","F28F21C7F66946B785FCCA3E4AEB26B2","0198ee51-2b45-7fc3-a119-b78204308c3a","0198ee3c-27ac-7803-a9ea-f3b4ad4ad678","{""num_scrambled_semantic"":""8"",""num_scrambled_causal"":""4"",""num_scrambled_schematic"":""4"",""participantId"":""F28F21C7F66946B785FCCA3E4AEB26B2"",""assignmentId"":""0198ee51-2b45-7fc3-a119-b78204308c3a"",""projectId"":""0198ee3c-27ac-7803-a9ea-f3b4ad4ad678""}","https://test12345.live/?num_scrambled_semantic=8&num_scrambled_causal=4&num_scrambled_schematic=4&participantId=F28F21C7F66946B785FCCA3E4AEB26B2&assignmentId=0198ee51-2b45-7fc3-a119-b78204308c3a&projectId=0198ee3c-27ac-7803-a9ea-f3b4ad4ad678","F28F21C7F66946B785FCCA3E4AEB26B2-2025-08-28-02-26-13","","null","","images/semantic_sequence/visiting_cities_semantic/visiting_cities_semantic_ten.png","null","",""
"","","","","","image-button-response","85","363647","0.0-12.0-1.0-1.9","F28F21C7F66946B785FCCA3E4AEB26B2","F28F21C7F66946B785FCCA3E4AEB26B2","0198ee51-2b45-7fc3-a119-b78204308c3a","0198ee3c-27ac-7803-a9ea-f3b4ad4ad678","{""num_scrambled_semantic"":""8"",""num_scrambled_causal"":""4"",""num_scrambled_schematic"":""4"",""participantId"":""F28F21C7F66946B785FCCA3E4AEB26B2"",""assignmentId"":""0198ee51-2b45-7fc3-a119-b78204308c3a"",""projectId"":""0198ee3c-27ac-7803-a9ea-f3b4ad4ad678""}","https://test12345.live/?num_scrambled_semantic=8&num_scrambled_causal=4&num_scrambled_schematic=4&participantId=F28F21C7F66946B785FCCA3E4AEB26B2&assignmentId=0198ee51-2b45-7fc3-a119-b78204308c3a&projectId=0198ee3c-27ac-7803-a9ea-f3b4ad4ad678","F28F21C7F66946B785FCCA3E4AEB26B2-2025-08-28-02-26-13","","943","","images/semantic_sequence/visiting_cities_semantic/visiting_cities_semantic_ten.png","1","",""
"","","","","","image-button-response","86","365452","0.0-12.0-1.0-2.9","F28F21C7F66946B785FCCA3E4AEB26B2","F28F21C7F66946B785FCCA3E4AEB26B2","0198ee51-2b45-7fc3-a119-b78204308c3a","0198ee3c-27ac-7803-a9ea-f3b4ad4ad678","{""num_scrambled_semantic"":""8"",""num_scrambled_causal"":""4"",""num_scrambled_schematic"":""4"",""participantId"":""F28F21C7F66946B785FCCA3E4AEB26B2"",""assignmentId"":""0198ee51-2b45-7fc3-a119-b78204308c3a"",""projectId"":""0198ee3c-27ac-7803-a9ea-f3b4ad4ad678""}","https://test12345.live/?num_scrambled_semantic=8&num_scrambled_causal=4&num_scrambled_schematic=4&participantId=F28F21C7F66946B785FCCA3E4AEB26B2&assignmentId=0198ee51-2b45-7fc3-a119-b78204308c3a&projectId=0198ee3c-27ac-7803-a9ea-f3b4ad4ad678","F28F21C7F66946B785FCCA3E4AEB26B2-2025-08-28-02-26-13","","null","","[]","null","",""
"","","","","","html-audio-response","87","389965","0.0-13.0","F28F21C7F66946B785FCCA3E4AEB26B2","F28F21C7F66946B785FCCA3E4AEB26B2","0198ee51-2b45-7fc3-a119-b78204308c3a","0198ee3c-27ac-7803-a9ea-f3b4ad4ad678","{""num_scrambled_semantic"":""8"",""num_scrambled_causal"":""4"",""num_scrambled_schematic"":""4"",""participantId"":""F28F21C7F66946B785FCCA3E4AEB26B2"",""assignmentId"":""0198ee51-2b45-7fc3-a119-b78204308c3a"",""projectId"":""0198ee3c-27ac-7803-a9ea-f3b4ad4ad678""}","https://test12345.live/?num_scrambled_semantic=8&num_scrambled_causal=4&num_scrambled_schematic=4&participantId=F28F21C7F66946B785FCCA3E4AEB26B2&assignmentId=0198ee51-2b45-7fc3-a119-b78204308c3a&projectId=0198ee3c-27ac-7803-a9ea-f3b4ad4ad678","F28F21C7F66946B785FCCA3E4AEB26B2-2025-08-28-02-26-13","","19360","","[""<span style=\""color: red; font-size: 24px\""> NOW RECORDING</span><p>Please say out loud all the images you saw, in the order of the story they create. Try to recall the sequence of events as they appeared in the story, not necessarily the order they were presented on the screen.</p>""]","","3","visiting_cities_semantic"
"","","","","","image-button-response","88","395972","0.0-14.0-0.0","F28F21C7F66946B785FCCA3E4AEB26B2","F28F21C7F66946B785FCCA3E4AEB26B2","0198ee51-2b45-7fc3-a119-b78204308c3a","0198ee3c-27ac-7803-a9ea-f3b4ad4ad678","{""num_scrambled_semantic"":""8"",""num_scrambled_causal"":""4"",""num_scrambled_schematic"":""4"",""participantId"":""F28F21C7F66946B785FCCA3E4AEB26B2"",""assignmentId"":""0198ee51-2b45-7fc3-a119-b78204308c3a"",""projectId"":""0198ee3c-27ac-7803-a9ea-f3b4ad4ad678""}","https://test12345.live/?num_scrambled_semantic=8&num_scrambled_causal=4&num_scrambled_schematic=4&participantId=F28F21C7F66946B785FCCA3E4AEB26B2&assignmentId=0198ee51-2b45-7fc3-a119-b78204308c3a&projectId=0198ee3c-27ac-7803-a9ea-f3b4ad4ad678","F28F21C7F66946B785FCCA3E4AEB26B2-2025-08-28-02-26-13","","null","","images/schematic_sequence/interview_scheme/interview_scheme_0.png","null","",""
"","","","","","image-button-response","89","400478","0.0-14.0-1.0-0.0","F28F21C7F66946B785FCCA3E4AEB26B2","F28F21C7F66946B785FCCA3E4AEB26B2","0198ee51-2b45-7fc3-a119-b78204308c3a","0198ee3c-27ac-7803-a9ea-f3b4ad4ad678","{""num_scrambled_semantic"":""8"",""num_scrambled_causal"":""4"",""num_scrambled_schematic"":""4"",""participantId"":""F28F21C7F66946B785FCCA3E4AEB26B2"",""assignmentId"":""0198ee51-2b45-7fc3-a119-b78204308c3a"",""projectId"":""0198ee3c-27ac-7803-a9ea-f3b4ad4ad678""}","https://test12345.live/?num_scrambled_semantic=8&num_scrambled_causal=4&num_scrambled_schematic=4&participantId=F28F21C7F66946B785FCCA3E4AEB26B2&assignmentId=0198ee51-2b45-7fc3-a119-b78204308c3a&projectId=0198ee3c-27ac-7803-a9ea-f3b4ad4ad678","F28F21C7F66946B785FCCA3E4AEB26B2-2025-08-28-02-26-13","","null","","images/schematic_sequence/interview_scheme/interview_scheme_5.png","null","",""
"","","","","","image-button-response","90","404180","0.0-14.0-1.0-1.0","F28F21C7F66946B785FCCA3E4AEB26B2","F28F21C7F66946B785FCCA3E4AEB26B2","0198ee51-2b45-7fc3-a119-b78204308c3a","0198ee3c-27ac-7803-a9ea-f3b4ad4ad678","{""num_scrambled_semantic"":""8"",""num_scrambled_causal"":""4"",""num_scrambled_schematic"":""4"",""participantId"":""F28F21C7F66946B785FCCA3E4AEB26B2"",""assignmentId"":""0198ee51-2b45-7fc3-a119-b78204308c3a"",""projectId"":""0198ee3c-27ac-7803-a9ea-f3b4ad4ad678""}","https://test12345.live/?num_scrambled_semantic=8&num_scrambled_causal=4&num_scrambled_schematic=4&participantId=F28F21C7F66946B785FCCA3E4AEB26B2&assignmentId=0198ee51-2b45-7fc3-a119-b78204308c3a&projectId=0198ee3c-27ac-7803-a9ea-f3b4ad4ad678","F28F21C7F66946B785FCCA3E4AEB26B2-2025-08-28-02-26-13","","3699","","images/schematic_sequence/interview_scheme/interview_scheme_5.png","0","",""
"","","","","","image-button-response","91","405982","0.0-14.0-1.0-2.0","F28F21C7F66946B785FCCA3E4AEB26B2","F28F21C7F66946B785FCCA3E4AEB26B2","0198ee51-2b45-7fc3-a119-b78204308c3a","0198ee3c-27ac-7803-a9ea-f3b4ad4ad678","{""num_scrambled_semantic"":""8"",""num_scrambled_causal"":""4"",""num_scrambled_schematic"":""4"",""participantId"":""F28F21C7F66946B785FCCA3E4AEB26B2"",""assignmentId"":""0198ee51-2b45-7fc3-a119-b78204308c3a"",""projectId"":""0198ee3c-27ac-7803-a9ea-f3b4ad4ad678""}","https://test12345.live/?num_scrambled_semantic=8&num_scrambled_causal=4&num_scrambled_schematic=4&participantId=F28F21C7F66946B785FCCA3E4AEB26B2&assignmentId=0198ee51-2b45-7fc3-a119-b78204308c3a&projectId=0198ee3c-27ac-7803-a9ea-f3b4ad4ad678","F28F21C7F66946B785FCCA3E4AEB26B2-2025-08-28-02-26-13","","null","","[]","null","",""
"","","","","","image-button-response","92","410486","0.0-14.0-1.0-0.1","F28F21C7F66946B785FCCA3E4AEB26B2","F28F21C7F66946B785FCCA3E4AEB26B2","0198ee51-2b45-7fc3-a119-b78204308c3a","0198ee3c-27ac-7803-a9ea-f3b4ad4ad678","{""num_scrambled_semantic"":""8"",""num_scrambled_causal"":""4"",""num_scrambled_schematic"":""4"",""participantId"":""F28F21C7F66946B785FCCA3E4AEB26B2"",""assignmentId"":""0198ee51-2b45-7fc3-a119-b78204308c3a"",""projectId"":""0198ee3c-27ac-7803-a9ea-f3b4ad4ad678""}","https://test12345.live/?num_scrambled_semantic=8&num_scrambled_causal=4&num_scrambled_schematic=4&participantId=F28F21C7F66946B785FCCA3E4AEB26B2&assignmentId=0198ee51-2b45-7fc3-a119-b78204308c3a&projectId=0198ee3c-27ac-7803-a9ea-f3b4ad4ad678","F28F21C7F66946B785FCCA3E4AEB26B2-2025-08-28-02-26-13","","null","","images/schematic_sequence/interview_scheme/interview_scheme_4.png","null","",""
"","","","","","image-button-response","93","411263","0.0-14.0-1.0-1.1","F28F21C7F66946B785FCCA3E4AEB26B2","F28F21C7F66946B785FCCA3E4AEB26B2","0198ee51-2b45-7fc3-a119-b78204308c3a","0198ee3c-27ac-7803-a9ea-f3b4ad4ad678","{""num_scrambled_semantic"":""8"",""num_scrambled_causal"":""4"",""num_scrambled_schematic"":""4"",""participantId"":""F28F21C7F66946B785FCCA3E4AEB26B2"",""assignmentId"":""0198ee51-2b45-7fc3-a119-b78204308c3a"",""projectId"":""0198ee3c-27ac-7803-a9ea-f3b4ad4ad678""}","https://test12345.live/?num_scrambled_semantic=8&num_scrambled_causal=4&num_scrambled_schematic=4&participantId=F28F21C7F66946B785FCCA3E4AEB26B2&assignmentId=0198ee51-2b45-7fc3-a119-b78204308c3a&projectId=0198ee3c-27ac-7803-a9ea-f3b4ad4ad678","F28F21C7F66946B785FCCA3E4AEB26B2-2025-08-28-02-26-13","","775","","images/schematic_sequence/interview_scheme/interview_scheme_4.png","1","",""
"","","","","","image-button-response","94","413068","0.0-14.0-1.0-2.1","F28F21C7F66946B785FCCA3E4AEB26B2","F28F21C7F66946B785FCCA3E4AEB26B2","0198ee51-2b45-7fc3-a119-b78204308c3a","0198ee3c-27ac-7803-a9ea-f3b4ad4ad678","{""num_scrambled_semantic"":""8"",""num_scrambled_causal"":""4"",""num_scrambled_schematic"":""4"",""participantId"":""F28F21C7F66946B785FCCA3E4AEB26B2"",""assignmentId"":""0198ee51-2b45-7fc3-a119-b78204308c3a"",""projectId"":""0198ee3c-27ac-7803-a9ea-f3b4ad4ad678""}","https://test12345.live/?num_scrambled_semantic=8&num_scrambled_causal=4&num_scrambled_schematic=4&participantId=F28F21C7F66946B785FCCA3E4AEB26B2&assignmentId=0198ee51-2b45-7fc3-a119-b78204308c3a&projectId=0198ee3c-27ac-7803-a9ea-f3b4ad4ad678","F28F21C7F66946B785FCCA3E4AEB26B2-2025-08-28-02-26-13","","null","","[]","null","",""
"","","","","","image-button-response","95","417571","0.0-14.0-1.0-0.2","F28F21C7F66946B785FCCA3E4AEB26B2","F28F21C7F66946B785FCCA3E4AEB26B2","0198ee51-2b45-7fc3-a119-b78204308c3a","0198ee3c-27ac-7803-a9ea-f3b4ad4ad678","{""num_scrambled_semantic"":""8"",""num_scrambled_causal"":""4"",""num_scrambled_schematic"":""4"",""participantId"":""F28F21C7F66946B785FCCA3E4AEB26B2"",""assignmentId"":""0198ee51-2b45-7fc3-a119-b78204308c3a"",""projectId"":""0198ee3c-27ac-7803-a9ea-f3b4ad4ad678""}","https://test12345.live/?num_scrambled_semantic=8&num_scrambled_causal=4&num_scrambled_schematic=4&participantId=F28F21C7F66946B785FCCA3E4AEB26B2&assignmentId=0198ee51-2b45-7fc3-a119-b78204308c3a&projectId=0198ee3c-27ac-7803-a9ea-f3b4ad4ad678","F28F21C7F66946B785FCCA3E4AEB26B2-2025-08-28-02-26-13","","null","","images/schematic_sequence/interview_scheme/interview_scheme_6.png","null","",""
"","","","","","image-button-response","96","418363","0.0-14.0-1.0-1.2","F28F21C7F66946B785FCCA3E4AEB26B2","F28F21C7F66946B785FCCA3E4AEB26B2","0198ee51-2b45-7fc3-a119-b78204308c3a","0198ee3c-27ac-7803-a9ea-f3b4ad4ad678","{""num_scrambled_semantic"":""8"",""num_scrambled_causal"":""4"",""num_scrambled_schematic"":""4"",""participantId"":""F28F21C7F66946B785FCCA3E4AEB26B2"",""assignmentId"":""0198ee51-2b45-7fc3-a119-b78204308c3a"",""projectId"":""0198ee3c-27ac-7803-a9ea-f3b4ad4ad678""}","https://test12345.live/?num_scrambled_semantic=8&num_scrambled_causal=4&num_scrambled_schematic=4&participantId=F28F21C7F66946B785FCCA3E4AEB26B2&assignmentId=0198ee51-2b45-7fc3-a119-b78204308c3a&projectId=0198ee3c-27ac-7803-a9ea-f3b4ad4ad678","F28F21C7F66946B785FCCA3E4AEB26B2-2025-08-28-02-26-13","","790","","images/schematic_sequence/interview_scheme/interview_scheme_6.png","1","",""
"","","","","","image-button-response","97","420166","0.0-14.0-1.0-2.2","F28F21C7F66946B785FCCA3E4AEB26B2","F28F21C7F66946B785FCCA3E4AEB26B2","0198ee51-2b45-7fc3-a119-b78204308c3a","0198ee3c-27ac-7803-a9ea-f3b4ad4ad678","{""num_scrambled_semantic"":""8"",""num_scrambled_causal"":""4"",""num_scrambled_schematic"":""4"",""participantId"":""F28F21C7F66946B785FCCA3E4AEB26B2"",""assignmentId"":""0198ee51-2b45-7fc3-a119-b78204308c3a"",""projectId"":""0198ee3c-27ac-7803-a9ea-f3b4ad4ad678""}","https://test12345.live/?num_scrambled_semantic=8&num_scrambled_causal=4&num_scrambled_schematic=4&participantId=F28F21C7F66946B785FCCA3E4AEB26B2&assignmentId=0198ee51-2b45-7fc3-a119-b78204308c3a&projectId=0198ee3c-27ac-7803-a9ea-f3b4ad4ad678","F28F21C7F66946B785FCCA3E4AEB26B2-2025-08-28-02-26-13","","null","","[]","null","",""
"","","","","","image-button-response","98","424667","0.0-14.0-1.0-0.3","F28F21C7F66946B785FCCA3E4AEB26B2","F28F21C7F66946B785FCCA3E4AEB26B2","0198ee51-2b45-7fc3-a119-b78204308c3a","0198ee3c-27ac-7803-a9ea-f3b4ad4ad678","{""num_scrambled_semantic"":""8"",""num_scrambled_causal"":""4"",""num_scrambled_schematic"":""4"",""participantId"":""F28F21C7F66946B785FCCA3E4AEB26B2"",""assignmentId"":""0198ee51-2b45-7fc3-a119-b78204308c3a"",""projectId"":""0198ee3c-27ac-7803-a9ea-f3b4ad4ad678""}","https://test12345.live/?num_scrambled_semantic=8&num_scrambled_causal=4&num_scrambled_schematic=4&participantId=F28F21C7F66946B785FCCA3E4AEB26B2&assignmentId=0198ee51-2b45-7fc3-a119-b78204308c3a&projectId=0198ee3c-27ac-7803-a9ea-f3b4ad4ad678","F28F21C7F66946B785FCCA3E4AEB26B2-2025-08-28-02-26-13","","null","","images/schematic_sequence/interview_scheme/interview_scheme_ten.png","null","",""
"","","","","","image-button-response","99","425596","0.0-14.0-1.0-1.3","F28F21C7F66946B785FCCA3E4AEB26B2","F28F21C7F66946B785FCCA3E4AEB26B2","0198ee51-2b45-7fc3-a119-b78204308c3a","0198ee3c-27ac-7803-a9ea-f3b4ad4ad678","{""num_scrambled_semantic"":""8"",""num_scrambled_causal"":""4"",""num_scrambled_schematic"":""4"",""participantId"":""F28F21C7F66946B785FCCA3E4AEB26B2"",""assignmentId"":""0198ee51-2b45-7fc3-a119-b78204308c3a"",""projectId"":""0198ee3c-27ac-7803-a9ea-f3b4ad4ad678""}","https://test12345.live/?num_scrambled_semantic=8&num_scrambled_causal=4&num_scrambled_schematic=4&participantId=F28F21C7F66946B785FCCA3E4AEB26B2&assignmentId=0198ee51-2b45-7fc3-a119-b78204308c3a&projectId=0198ee3c-27ac-7803-a9ea-f3b4ad4ad678","F28F21C7F66946B785FCCA3E4AEB26B2-2025-08-28-02-26-13","","927","","images/schematic_sequence/interview_scheme/interview_scheme_ten.png","1","",""
"","","","","","image-button-response","100","427401","0.0-14.0-1.0-2.3","F28F21C7F66946B785FCCA3E4AEB26B2","F28F21C7F66946B785FCCA3E4AEB26B2","0198ee51-2b45-7fc3-a119-b78204308c3a","0198ee3c-27ac-7803-a9ea-f3b4ad4ad678","{""num_scrambled_semantic"":""8"",""num_scrambled_causal"":""4"",""num_scrambled_schematic"":""4"",""participantId"":""F28F21C7F66946B785FCCA3E4AEB26B2"",""assignmentId"":""0198ee51-2b45-7fc3-a119-b78204308c3a"",""projectId"":""0198ee3c-27ac-7803-a9ea-f3b4ad4ad678""}","https://test12345.live/?num_scrambled_semantic=8&num_scrambled_causal=4&num_scrambled_schematic=4&participantId=F28F21C7F66946B785FCCA3E4AEB26B2&assignmentId=0198ee51-2b45-7fc3-a119-b78204308c3a&projectId=0198ee3c-27ac-7803-a9ea-f3b4ad4ad678","F28F21C7F66946B785FCCA3E4AEB26B2-2025-08-28-02-26-13","","null","","[]","null","",""
"","","","","","image-button-response","101","431908","0.0-14.0-1.0-0.4","F28F21C7F66946B785FCCA3E4AEB26B2","F28F21C7F66946B785FCCA3E4AEB26B2","0198ee51-2b45-7fc3-a119-b78204308c3a","0198ee3c-27ac-7803-a9ea-f3b4ad4ad678","{""num_scrambled_semantic"":""8"",""num_scrambled_causal"":""4"",""num_scrambled_schematic"":""4"",""participantId"":""F28F21C7F66946B785FCCA3E4AEB26B2"",""assignmentId"":""0198ee51-2b45-7fc3-a119-b78204308c3a"",""projectId"":""0198ee3c-27ac-7803-a9ea-f3b4ad4ad678""}","https://test12345.live/?num_scrambled_semantic=8&num_scrambled_causal=4&num_scrambled_schematic=4&participantId=F28F21C7F66946B785FCCA3E4AEB26B2&assignmentId=0198ee51-2b45-7fc3-a119-b78204308c3a&projectId=0198ee3c-27ac-7803-a9ea-f3b4ad4ad678","F28F21C7F66946B785FCCA3E4AEB26B2-2025-08-28-02-26-13","","null","","images/schematic_sequence/interview_scheme/interview_scheme_3.png","null","",""
"","","","","","image-button-response","102","435745","0.0-14.0-1.0-1.4","F28F21C7F66946B785FCCA3E4AEB26B2","F28F21C7F66946B785FCCA3E4AEB26B2","0198ee51-2b45-7fc3-a119-b78204308c3a","0198ee3c-27ac-7803-a9ea-f3b4ad4ad678","{""num_scrambled_semantic"":""8"",""num_scrambled_causal"":""4"",""num_scrambled_schematic"":""4"",""participantId"":""F28F21C7F66946B785FCCA3E4AEB26B2"",""assignmentId"":""0198ee51-2b45-7fc3-a119-b78204308c3a"",""projectId"":""0198ee3c-27ac-7803-a9ea-f3b4ad4ad678""}","https://test12345.live/?num_scrambled_semantic=8&num_scrambled_causal=4&num_scrambled_schematic=4&participantId=F28F21C7F66946B785FCCA3E4AEB26B2&assignmentId=0198ee51-2b45-7fc3-a119-b78204308c3a&projectId=0198ee3c-27ac-7803-a9ea-f3b4ad4ad678","F28F21C7F66946B785FCCA3E4AEB26B2-2025-08-28-02-26-13","","3836","","images/schematic_sequence/interview_scheme/interview_scheme_3.png","1","",""
"","","","","","image-button-response","103","437551","0.0-14.0-1.0-2.4","F28F21C7F66946B785FCCA3E4AEB26B2","F28F21C7F66946B785FCCA3E4AEB26B2","0198ee51-2b45-7fc3-a119-b78204308c3a","0198ee3c-27ac-7803-a9ea-f3b4ad4ad678","{""num_scrambled_semantic"":""8"",""num_scrambled_causal"":""4"",""num_scrambled_schematic"":""4"",""participantId"":""F28F21C7F66946B785FCCA3E4AEB26B2"",""assignmentId"":""0198ee51-2b45-7fc3-a119-b78204308c3a"",""projectId"":""0198ee3c-27ac-7803-a9ea-f3b4ad4ad678""}","https://test12345.live/?num_scrambled_semantic=8&num_scrambled_causal=4&num_scrambled_schematic=4&participantId=F28F21C7F66946B785FCCA3E4AEB26B2&assignmentId=0198ee51-2b45-7fc3-a119-b78204308c3a&projectId=0198ee3c-27ac-7803-a9ea-f3b4ad4ad678","F28F21C7F66946B785FCCA3E4AEB26B2-2025-08-28-02-26-13","","null","","[]","null","",""
"","","","","","image-button-response","104","442054","0.0-14.0-1.0-0.5","F28F21C7F66946B785FCCA3E4AEB26B2","F28F21C7F66946B785FCCA3E4AEB26B2","0198ee51-2b45-7fc3-a119-b78204308c3a","0198ee3c-27ac-7803-a9ea-f3b4ad4ad678","{""num_scrambled_semantic"":""8"",""num_scrambled_causal"":""4"",""num_scrambled_schematic"":""4"",""participantId"":""F28F21C7F66946B785FCCA3E4AEB26B2"",""assignmentId"":""0198ee51-2b45-7fc3-a119-b78204308c3a"",""projectId"":""0198ee3c-27ac-7803-a9ea-f3b4ad4ad678""}","https://test12345.live/?num_scrambled_semantic=8&num_scrambled_causal=4&num_scrambled_schematic=4&participantId=F28F21C7F66946B785FCCA3E4AEB26B2&assignmentId=0198ee51-2b45-7fc3-a119-b78204308c3a&projectId=0198ee3c-27ac-7803-a9ea-f3b4ad4ad678","F28F21C7F66946B785FCCA3E4AEB26B2-2025-08-28-02-26-13","","null","","images/schematic_sequence/interview_scheme/interview_scheme_2.png","null","",""
"","","","","","image-button-response","105","442913","0.0-14.0-1.0-1.5","F28F21C7F66946B785FCCA3E4AEB26B2","F28F21C7F66946B785FCCA3E4AEB26B2","0198ee51-2b45-7fc3-a119-b78204308c3a","0198ee3c-27ac-7803-a9ea-f3b4ad4ad678","{""num_scrambled_semantic"":""8"",""num_scrambled_causal"":""4"",""num_scrambled_schematic"":""4"",""participantId"":""F28F21C7F66946B785FCCA3E4AEB26B2"",""assignmentId"":""0198ee51-2b45-7fc3-a119-b78204308c3a"",""projectId"":""0198ee3c-27ac-7803-a9ea-f3b4ad4ad678""}","https://test12345.live/?num_scrambled_semantic=8&num_scrambled_causal=4&num_scrambled_schematic=4&participantId=F28F21C7F66946B785FCCA3E4AEB26B2&assignmentId=0198ee51-2b45-7fc3-a119-b78204308c3a&projectId=0198ee3c-27ac-7803-a9ea-f3b4ad4ad678","F28F21C7F66946B785FCCA3E4AEB26B2-2025-08-28-02-26-13","","857","","images/schematic_sequence/interview_scheme/interview_scheme_2.png","1","",""
"","","","","","image-button-response","106","444720","0.0-14.0-1.0-2.5","F28F21C7F66946B785FCCA3E4AEB26B2","F28F21C7F66946B785FCCA3E4AEB26B2","0198ee51-2b45-7fc3-a119-b78204308c3a","0198ee3c-27ac-7803-a9ea-f3b4ad4ad678","{""num_scrambled_semantic"":""8"",""num_scrambled_causal"":""4"",""num_scrambled_schematic"":""4"",""participantId"":""F28F21C7F66946B785FCCA3E4AEB26B2"",""assignmentId"":""0198ee51-2b45-7fc3-a119-b78204308c3a"",""projectId"":""0198ee3c-27ac-7803-a9ea-f3b4ad4ad678""}","https://test12345.live/?num_scrambled_semantic=8&num_scrambled_causal=4&num_scrambled_schematic=4&participantId=F28F21C7F66946B785FCCA3E4AEB26B2&assignmentId=0198ee51-2b45-7fc3-a119-b78204308c3a&projectId=0198ee3c-27ac-7803-a9ea-f3b4ad4ad678","F28F21C7F66946B785FCCA3E4AEB26B2-2025-08-28-02-26-13","","null","","[]","null","",""
"","","","","","image-button-response","107","449222","0.0-14.0-1.0-0.6","F28F21C7F66946B785FCCA3E4AEB26B2","F28F21C7F66946B785FCCA3E4AEB26B2","0198ee51-2b45-7fc3-a119-b78204308c3a","0198ee3c-27ac-7803-a9ea-f3b4ad4ad678","{""num_scrambled_semantic"":""8"",""num_scrambled_causal"":""4"",""num_scrambled_schematic"":""4"",""participantId"":""F28F21C7F66946B785FCCA3E4AEB26B2"",""assignmentId"":""0198ee51-2b45-7fc3-a119-b78204308c3a"",""projectId"":""0198ee3c-27ac-7803-a9ea-f3b4ad4ad678""}","https://test12345.live/?num_scrambled_semantic=8&num_scrambled_causal=4&num_scrambled_schematic=4&participantId=F28F21C7F66946B785FCCA3E4AEB26B2&assignmentId=0198ee51-2b45-7fc3-a119-b78204308c3a&projectId=0198ee3c-27ac-7803-a9ea-f3b4ad4ad678","F28F21C7F66946B785FCCA3E4AEB26B2-2025-08-28-02-26-13","","null","","images/schematic_sequence/interview_scheme/interview_scheme_9.png","null","",""
"","","","","","image-button-response","108","451096","0.0-14.0-1.0-1.6","F28F21C7F66946B785FCCA3E4AEB26B2","F28F21C7F66946B785FCCA3E4AEB26B2","0198ee51-2b45-7fc3-a119-b78204308c3a","0198ee3c-27ac-7803-a9ea-f3b4ad4ad678","{""num_scrambled_semantic"":""8"",""num_scrambled_causal"":""4"",""num_scrambled_schematic"":""4"",""participantId"":""F28F21C7F66946B785FCCA3E4AEB26B2"",""assignmentId"":""0198ee51-2b45-7fc3-a119-b78204308c3a"",""projectId"":""0198ee3c-27ac-7803-a9ea-f3b4ad4ad678""}","https://test12345.live/?num_scrambled_semantic=8&num_scrambled_causal=4&num_scrambled_schematic=4&participantId=F28F21C7F66946B785FCCA3E4AEB26B2&assignmentId=0198ee51-2b45-7fc3-a119-b78204308c3a&projectId=0198ee3c-27ac-7803-a9ea-f3b4ad4ad678","F28F21C7F66946B785FCCA3E4AEB26B2-2025-08-28-02-26-13","","1871","","images/schematic_sequence/interview_scheme/interview_scheme_9.png","1","",""
"","","","","","image-button-response","109","452899","0.0-14.0-1.0-2.6","F28F21C7F66946B785FCCA3E4AEB26B2","F28F21C7F66946B785FCCA3E4AEB26B2","0198ee51-2b45-7fc3-a119-b78204308c3a","0198ee3c-27ac-7803-a9ea-f3b4ad4ad678","{""num_scrambled_semantic"":""8"",""num_scrambled_causal"":""4"",""num_scrambled_schematic"":""4"",""participantId"":""F28F21C7F66946B785FCCA3E4AEB26B2"",""assignmentId"":""0198ee51-2b45-7fc3-a119-b78204308c3a"",""projectId"":""0198ee3c-27ac-7803-a9ea-f3b4ad4ad678""}","https://test12345.live/?num_scrambled_semantic=8&num_scrambled_causal=4&num_scrambled_schematic=4&participantId=F28F21C7F66946B785FCCA3E4AEB26B2&assignmentId=0198ee51-2b45-7fc3-a119-b78204308c3a&projectId=0198ee3c-27ac-7803-a9ea-f3b4ad4ad678","F28F21C7F66946B785FCCA3E4AEB26B2-2025-08-28-02-26-13","","null","","[]","null","",""
"","","","","","image-button-response","110","457406","0.0-14.0-1.0-0.7","F28F21C7F66946B785FCCA3E4AEB26B2","F28F21C7F66946B785FCCA3E4AEB26B2","0198ee51-2b45-7fc3-a119-b78204308c3a","0198ee3c-27ac-7803-a9ea-f3b4ad4ad678","{""num_scrambled_semantic"":""8"",""num_scrambled_causal"":""4"",""num_scrambled_schematic"":""4"",""participantId"":""F28F21C7F66946B785FCCA3E4AEB26B2"",""assignmentId"":""0198ee51-2b45-7fc3-a119-b78204308c3a"",""projectId"":""0198ee3c-27ac-7803-a9ea-f3b4ad4ad678""}","https://test12345.live/?num_scrambled_semantic=8&num_scrambled_causal=4&num_scrambled_schematic=4&participantId=F28F21C7F66946B785FCCA3E4AEB26B2&assignmentId=0198ee51-2b45-7fc3-a119-b78204308c3a&projectId=0198ee3c-27ac-7803-a9ea-f3b4ad4ad678","F28F21C7F66946B785FCCA3E4AEB26B2-2025-08-28-02-26-13","","null","","images/schematic_sequence/interview_scheme/interview_scheme_8.png","null","",""
"","","","","","image-button-response","111","461411","0.0-14.0-1.0-1.7","F28F21C7F66946B785FCCA3E4AEB26B2","F28F21C7F66946B785FCCA3E4AEB26B2","0198ee51-2b45-7fc3-a119-b78204308c3a","0198ee3c-27ac-7803-a9ea-f3b4ad4ad678","{""num_scrambled_semantic"":""8"",""num_scrambled_causal"":""4"",""num_scrambled_schematic"":""4"",""participantId"":""F28F21C7F66946B785FCCA3E4AEB26B2"",""assignmentId"":""0198ee51-2b45-7fc3-a119-b78204308c3a"",""projectId"":""0198ee3c-27ac-7803-a9ea-f3b4ad4ad678""}","https://test12345.live/?num_scrambled_semantic=8&num_scrambled_causal=4&num_scrambled_schematic=4&participantId=F28F21C7F66946B785FCCA3E4AEB26B2&assignmentId=0198ee51-2b45-7fc3-a119-b78204308c3a&projectId=0198ee3c-27ac-7803-a9ea-f3b4ad4ad678","F28F21C7F66946B785FCCA3E4AEB26B2-2025-08-28-02-26-13","","null","","images/schematic_sequence/interview_scheme/interview_scheme_8.png","null","",""
"","","","","","image-button-response","112","463216","0.0-14.0-1.0-2.7","F28F21C7F66946B785FCCA3E4AEB26B2","F28F21C7F66946B785FCCA3E4AEB26B2","0198ee51-2b45-7fc3-a119-b78204308c3a","0198ee3c-27ac-7803-a9ea-f3b4ad4ad678","{""num_scrambled_semantic"":""8"",""num_scrambled_causal"":""4"",""num_scrambled_schematic"":""4"",""participantId"":""F28F21C7F66946B785FCCA3E4AEB26B2"",""assignmentId"":""0198ee51-2b45-7fc3-a119-b78204308c3a"",""projectId"":""0198ee3c-27ac-7803-a9ea-f3b4ad4ad678""}","https://test12345.live/?num_scrambled_semantic=8&num_scrambled_causal=4&num_scrambled_schematic=4&participantId=F28F21C7F66946B785FCCA3E4AEB26B2&assignmentId=0198ee51-2b45-7fc3-a119-b78204308c3a&projectId=0198ee3c-27ac-7803-a9ea-f3b4ad4ad678","F28F21C7F66946B785FCCA3E4AEB26B2-2025-08-28-02-26-13","","null","","[]","null","",""
"","","","","","image-button-response","113","467718","0.0-14.0-1.0-0.8","F28F21C7F66946B785FCCA3E4AEB26B2","F28F21C7F66946B785FCCA3E4AEB26B2","0198ee51-2b45-7fc3-a119-b78204308c3a","0198ee3c-27ac-7803-a9ea-f3b4ad4ad678","{""num_scrambled_semantic"":""8"",""num_scrambled_causal"":""4"",""num_scrambled_schematic"":""4"",""participantId"":""F28F21C7F66946B785FCCA3E4AEB26B2"",""assignmentId"":""0198ee51-2b45-7fc3-a119-b78204308c3a"",""projectId"":""0198ee3c-27ac-7803-a9ea-f3b4ad4ad678""}","https://test12345.live/?num_scrambled_semantic=8&num_scrambled_causal=4&num_scrambled_schematic=4&participantId=F28F21C7F66946B785FCCA3E4AEB26B2&assignmentId=0198ee51-2b45-7fc3-a119-b78204308c3a&projectId=0198ee3c-27ac-7803-a9ea-f3b4ad4ad678","F28F21C7F66946B785FCCA3E4AEB26B2-2025-08-28-02-26-13","","null","","images/schematic_sequence/interview_scheme/interview_scheme_1.png","null","",""
