"success","timeout","failed_images","failed_audio","failed_video","trial_type","trial_index","time_elapsed","internal_node_id","subject","subject_id","study_id","session_id","urlvar","current_url","audio_id","view_history","rt","device_id","stimulus","response","estimated_stimulus_onset","seq_name"
"true","false","[]","[]","[]","preload","0","258","0.0-0.0","F42D2DF08BD943ADB2893569F9A78647","F42D2DF08BD943ADB2893569F9A78647","0198ba0f-eeaf-74cb-b130-7160e2f25ea2","0198b9d0-29d4-7df3-8625-4b4515841beb","{""num_scrambled_semantic"":""8"",""num_scrambled_causal"":""4"",""num_scrambled_schematic"":""4"",""participantId"":""F42D2DF08BD943ADB2893569F9A78647"",""assignmentId"":""0198ba0f-eeaf-74cb-b130-7160e2f25ea2"",""projectId"":""0198b9d0-29d4-7df3-8625-4b4515841beb""}","https://test12345.live/?num_scrambled_semantic=8&num_scrambled_causal=4&num_scrambled_schematic=4&participantId=F42D2DF08BD943ADB2893569F9A78647&assignmentId=0198ba0f-eeaf-74cb-b130-7160e2f25ea2&projectId=0198b9d0-29d4-7df3-8625-4b4515841beb","F42D2DF08BD943ADB2893569F9A78647-2025-08-17-22-48-06","","","","","","",""
"","","","","","instructions","1","8363","0.0-1.0","F42D2DF08BD943ADB2893569F9A78647","F42D2DF08BD943ADB2893569F9A78647","0198ba0f-eeaf-74cb-b130-7160e2f25ea2","0198b9d0-29d4-7df3-8625-4b4515841beb","{""num_scrambled_semantic"":""8"",""num_scrambled_causal"":""4"",""num_scrambled_schematic"":""4"",""participantId"":""F42D2DF08BD943ADB2893569F9A78647"",""assignmentId"":""0198ba0f-eeaf-74cb-b130-7160e2f25ea2"",""projectId"":""0198b9d0-29d4-7df3-8625-4b4515841beb""}","https://test12345.live/?num_scrambled_semantic=8&num_scrambled_causal=4&num_scrambled_schematic=4&participantId=F42D2DF08BD943ADB2893569F9A78647&assignmentId=0198ba0f-eeaf-74cb-b130-7160e2f25ea2&projectId=0198b9d0-29d4-7df3-8625-4b4515841beb","F42D2DF08BD943ADB2893569F9A78647-2025-08-17-22-48-06","[{""page_index"":0,""viewing_time"":8103}]","8104","","","","",""
"","","","","","instructions","2","17437","0.0-2.0","F42D2DF08BD943ADB2893569F9A78647","F42D2DF08BD943ADB2893569F9A78647","0198ba0f-eeaf-74cb-b130-7160e2f25ea2","0198b9d0-29d4-7df3-8625-4b4515841beb","{""num_scrambled_semantic"":""8"",""num_scrambled_causal"":""4"",""num_scrambled_schematic"":""4"",""participantId"":""F42D2DF08BD943ADB2893569F9A78647"",""assignmentId"":""0198ba0f-eeaf-74cb-b130-7160e2f25ea2"",""projectId"":""0198b9d0-29d4-7df3-8625-4b4515841beb""}","https://test12345.live/?num_scrambled_semantic=8&num_scrambled_causal=4&num_scrambled_schematic=4&participantId=F42D2DF08BD943ADB2893569F9A78647&assignmentId=0198ba0f-eeaf-74cb-b130-7160e2f25ea2&projectId=0198b9d0-29d4-7df3-8625-4b4515841beb","F42D2DF08BD943ADB2893569F9A78647-2025-08-17-22-48-06","[{""page_index"":0,""viewing_time"":9072}]","9072","","","","",""
"true","","","","","fullscreen","3","20389","0.0-3.0","F42D2DF08BD943ADB2893569F9A78647","F42D2DF08BD943ADB2893569F9A78647","0198ba0f-eeaf-74cb-b130-7160e2f25ea2","0198b9d0-29d4-7df3-8625-4b4515841beb","{""num_scrambled_semantic"":""8"",""num_scrambled_causal"":""4"",""num_scrambled_schematic"":""4"",""participantId"":""F42D2DF08BD943ADB2893569F9A78647"",""assignmentId"":""0198ba0f-eeaf-74cb-b130-7160e2f25ea2"",""projectId"":""0198b9d0-29d4-7df3-8625-4b4515841beb""}","https://test12345.live/?num_scrambled_semantic=8&num_scrambled_causal=4&num_scrambled_schematic=4&participantId=F42D2DF08BD943ADB2893569F9A78647&assignmentId=0198ba0f-eeaf-74cb-b130-7160e2f25ea2&projectId=0198b9d0-29d4-7df3-8625-4b4515841beb","F42D2DF08BD943ADB2893569F9A78647-2025-08-17-22-48-06","","1949","","","","",""
"","","","","","initialize-microphone","4","31030","0.0-4.0-0.0","F42D2DF08BD943ADB2893569F9A78647","F42D2DF08BD943ADB2893569F9A78647","0198ba0f-eeaf-74cb-b130-7160e2f25ea2","0198b9d0-29d4-7df3-8625-4b4515841beb","{""num_scrambled_semantic"":""8"",""num_scrambled_causal"":""4"",""num_scrambled_schematic"":""4"",""participantId"":""F42D2DF08BD943ADB2893569F9A78647"",""assignmentId"":""0198ba0f-eeaf-74cb-b130-7160e2f25ea2"",""projectId"":""0198b9d0-29d4-7df3-8625-4b4515841beb""}","https://test12345.live/?num_scrambled_semantic=8&num_scrambled_causal=4&num_scrambled_schematic=4&participantId=F42D2DF08BD943ADB2893569F9A78647&assignmentId=0198ba0f-eeaf-74cb-b130-7160e2f25ea2&projectId=0198b9d0-29d4-7df3-8625-4b4515841beb","F42D2DF08BD943ADB2893569F9A78647-2025-08-17-22-48-06","","","5850dfbd958f8020af64f42631db97ddb3709da193c40f438a310d37994ecea2","","","",""
"","","","","","html-audio-response","5","54998","0.0-4.0-1.0","F42D2DF08BD943ADB2893569F9A78647","F42D2DF08BD943ADB2893569F9A78647","0198ba0f-eeaf-74cb-b130-7160e2f25ea2","0198b9d0-29d4-7df3-8625-4b4515841beb","{""num_scrambled_semantic"":""8"",""num_scrambled_causal"":""4"",""num_scrambled_schematic"":""4"",""participantId"":""F42D2DF08BD943ADB2893569F9A78647"",""assignmentId"":""0198ba0f-eeaf-74cb-b130-7160e2f25ea2"",""projectId"":""0198b9d0-29d4-7df3-8625-4b4515841beb""}","https://test12345.live/?num_scrambled_semantic=8&num_scrambled_causal=4&num_scrambled_schematic=4&participantId=F42D2DF08BD943ADB2893569F9A78647&assignmentId=0198ba0f-eeaf-74cb-b130-7160e2f25ea2&projectId=0198b9d0-29d4-7df3-8625-4b4515841beb","F42D2DF08BD943ADB2893569F9A78647-2025-08-17-22-48-06","","3689","","<span style=""color: red; font-size: 24px""> NOW RECORDING</span>
        <p>Please test Microphone</p>","","3",""
"","","","","","html-button-response","6","57022","0.0-4.0-2.0","F42D2DF08BD943ADB2893569F9A78647","F42D2DF08BD943ADB2893569F9A78647","0198ba0f-eeaf-74cb-b130-7160e2f25ea2","0198b9d0-29d4-7df3-8625-4b4515841beb","{""num_scrambled_semantic"":""8"",""num_scrambled_causal"":""4"",""num_scrambled_schematic"":""4"",""participantId"":""F42D2DF08BD943ADB2893569F9A78647"",""assignmentId"":""0198ba0f-eeaf-74cb-b130-7160e2f25ea2"",""projectId"":""0198b9d0-29d4-7df3-8625-4b4515841beb""}","https://test12345.live/?num_scrambled_semantic=8&num_scrambled_causal=4&num_scrambled_schematic=4&participantId=F42D2DF08BD943ADB2893569F9A78647&assignmentId=0198ba0f-eeaf-74cb-b130-7160e2f25ea2&projectId=0198b9d0-29d4-7df3-8625-4b4515841beb","F42D2DF08BD943ADB2893569F9A78647-2025-08-17-22-48-06","","2022","","<p style=""font-size:48px; color:red;"">Is Microphone OK?</p>","1","",""
"","","","","","instructions","7","75296","0.0-5.0","F42D2DF08BD943ADB2893569F9A78647","F42D2DF08BD943ADB2893569F9A78647","0198ba0f-eeaf-74cb-b130-7160e2f25ea2","0198b9d0-29d4-7df3-8625-4b4515841beb","{""num_scrambled_semantic"":""8"",""num_scrambled_causal"":""4"",""num_scrambled_schematic"":""4"",""participantId"":""F42D2DF08BD943ADB2893569F9A78647"",""assignmentId"":""0198ba0f-eeaf-74cb-b130-7160e2f25ea2"",""projectId"":""0198b9d0-29d4-7df3-8625-4b4515841beb""}","https://test12345.live/?num_scrambled_semantic=8&num_scrambled_causal=4&num_scrambled_schematic=4&participantId=F42D2DF08BD943ADB2893569F9A78647&assignmentId=0198ba0f-eeaf-74cb-b130-7160e2f25ea2&projectId=0198b9d0-29d4-7df3-8625-4b4515841beb","F42D2DF08BD943ADB2893569F9A78647-2025-08-17-22-48-06","[{""page_index"":0,""viewing_time"":6893},{""page_index"":1,""viewing_time"":11380}]","18274","","","","",""
"","","","","","image-button-response","8","81301","0.0-6.0-0.0","F42D2DF08BD943ADB2893569F9A78647","F42D2DF08BD943ADB2893569F9A78647","0198ba0f-eeaf-74cb-b130-7160e2f25ea2","0198b9d0-29d4-7df3-8625-4b4515841beb","{""num_scrambled_semantic"":""8"",""num_scrambled_causal"":""4"",""num_scrambled_schematic"":""4"",""participantId"":""F42D2DF08BD943ADB2893569F9A78647"",""assignmentId"":""0198ba0f-eeaf-74cb-b130-7160e2f25ea2"",""projectId"":""0198b9d0-29d4-7df3-8625-4b4515841beb""}","https://test12345.live/?num_scrambled_semantic=8&num_scrambled_causal=4&num_scrambled_schematic=4&participantId=F42D2DF08BD943ADB2893569F9A78647&assignmentId=0198ba0f-eeaf-74cb-b130-7160e2f25ea2&projectId=0198b9d0-29d4-7df3-8625-4b4515841beb","F42D2DF08BD943ADB2893569F9A78647-2025-08-17-22-48-06","","null","","images/instructions/movie_0.png","null","",""
"","","","","","image-button-response","9","85804","0.0-6.0-1.0-0.0","F42D2DF08BD943ADB2893569F9A78647","F42D2DF08BD943ADB2893569F9A78647","0198ba0f-eeaf-74cb-b130-7160e2f25ea2","0198b9d0-29d4-7df3-8625-4b4515841beb","{""num_scrambled_semantic"":""8"",""num_scrambled_causal"":""4"",""num_scrambled_schematic"":""4"",""participantId"":""F42D2DF08BD943ADB2893569F9A78647"",""assignmentId"":""0198ba0f-eeaf-74cb-b130-7160e2f25ea2"",""projectId"":""0198b9d0-29d4-7df3-8625-4b4515841beb""}","https://test12345.live/?num_scrambled_semantic=8&num_scrambled_causal=4&num_scrambled_schematic=4&participantId=F42D2DF08BD943ADB2893569F9A78647&assignmentId=0198ba0f-eeaf-74cb-b130-7160e2f25ea2&projectId=0198b9d0-29d4-7df3-8625-4b4515841beb","F42D2DF08BD943ADB2893569F9A78647-2025-08-17-22-48-06","","null","","images/instructions/movie_1.png","null","",""
"","","","","","image-button-response","10","89151","0.0-6.0-1.0-1.0","F42D2DF08BD943ADB2893569F9A78647","F42D2DF08BD943ADB2893569F9A78647","0198ba0f-eeaf-74cb-b130-7160e2f25ea2","0198b9d0-29d4-7df3-8625-4b4515841beb","{""num_scrambled_semantic"":""8"",""num_scrambled_causal"":""4"",""num_scrambled_schematic"":""4"",""participantId"":""F42D2DF08BD943ADB2893569F9A78647"",""assignmentId"":""0198ba0f-eeaf-74cb-b130-7160e2f25ea2"",""projectId"":""0198b9d0-29d4-7df3-8625-4b4515841beb""}","https://test12345.live/?num_scrambled_semantic=8&num_scrambled_causal=4&num_scrambled_schematic=4&participantId=F42D2DF08BD943ADB2893569F9A78647&assignmentId=0198ba0f-eeaf-74cb-b130-7160e2f25ea2&projectId=0198b9d0-29d4-7df3-8625-4b4515841beb","F42D2DF08BD943ADB2893569F9A78647-2025-08-17-22-48-06","","3345","","images/instructions/movie_1.png","0","",""
"","","","","","image-button-response","11","94553","0.0-6.0-1.0-2.0","F42D2DF08BD943ADB2893569F9A78647","F42D2DF08BD943ADB2893569F9A78647","0198ba0f-eeaf-74cb-b130-7160e2f25ea2","0198b9d0-29d4-7df3-8625-4b4515841beb","{""num_scrambled_semantic"":""8"",""num_scrambled_causal"":""4"",""num_scrambled_schematic"":""4"",""participantId"":""F42D2DF08BD943ADB2893569F9A78647"",""assignmentId"":""0198ba0f-eeaf-74cb-b130-7160e2f25ea2"",""projectId"":""0198b9d0-29d4-7df3-8625-4b4515841beb""}","https://test12345.live/?num_scrambled_semantic=8&num_scrambled_causal=4&num_scrambled_schematic=4&participantId=F42D2DF08BD943ADB2893569F9A78647&assignmentId=0198ba0f-eeaf-74cb-b130-7160e2f25ea2&projectId=0198b9d0-29d4-7df3-8625-4b4515841beb","F42D2DF08BD943ADB2893569F9A78647-2025-08-17-22-48-06","","null","","[]","null","",""
"","","","","","image-button-response","12","99056","0.0-6.0-1.0-0.1","F42D2DF08BD943ADB2893569F9A78647","F42D2DF08BD943ADB2893569F9A78647","0198ba0f-eeaf-74cb-b130-7160e2f25ea2","0198b9d0-29d4-7df3-8625-4b4515841beb","{""num_scrambled_semantic"":""8"",""num_scrambled_causal"":""4"",""num_scrambled_schematic"":""4"",""participantId"":""F42D2DF08BD943ADB2893569F9A78647"",""assignmentId"":""0198ba0f-eeaf-74cb-b130-7160e2f25ea2"",""projectId"":""0198b9d0-29d4-7df3-8625-4b4515841beb""}","https://test12345.live/?num_scrambled_semantic=8&num_scrambled_causal=4&num_scrambled_schematic=4&participantId=F42D2DF08BD943ADB2893569F9A78647&assignmentId=0198ba0f-eeaf-74cb-b130-7160e2f25ea2&projectId=0198b9d0-29d4-7df3-8625-4b4515841beb","F42D2DF08BD943ADB2893569F9A78647-2025-08-17-22-48-06","","null","","images/instructions/movie_2.png","null","",""
"","","","","","image-button-response","13","102223","0.0-6.0-1.0-1.1","F42D2DF08BD943ADB2893569F9A78647","F42D2DF08BD943ADB2893569F9A78647","0198ba0f-eeaf-74cb-b130-7160e2f25ea2","0198b9d0-29d4-7df3-8625-4b4515841beb","{""num_scrambled_semantic"":""8"",""num_scrambled_causal"":""4"",""num_scrambled_schematic"":""4"",""participantId"":""F42D2DF08BD943ADB2893569F9A78647"",""assignmentId"":""0198ba0f-eeaf-74cb-b130-7160e2f25ea2"",""projectId"":""0198b9d0-29d4-7df3-8625-4b4515841beb""}","https://test12345.live/?num_scrambled_semantic=8&num_scrambled_causal=4&num_scrambled_schematic=4&participantId=F42D2DF08BD943ADB2893569F9A78647&assignmentId=0198ba0f-eeaf-74cb-b130-7160e2f25ea2&projectId=0198b9d0-29d4-7df3-8625-4b4515841beb","F42D2DF08BD943ADB2893569F9A78647-2025-08-17-22-48-06","","3164","","images/instructions/movie_2.png","0","",""
"","","","","","image-button-response","14","107625","0.0-6.0-1.0-2.1","F42D2DF08BD943ADB2893569F9A78647","F42D2DF08BD943ADB2893569F9A78647","0198ba0f-eeaf-74cb-b130-7160e2f25ea2","0198b9d0-29d4-7df3-8625-4b4515841beb","{""num_scrambled_semantic"":""8"",""num_scrambled_causal"":""4"",""num_scrambled_schematic"":""4"",""participantId"":""F42D2DF08BD943ADB2893569F9A78647"",""assignmentId"":""0198ba0f-eeaf-74cb-b130-7160e2f25ea2"",""projectId"":""0198b9d0-29d4-7df3-8625-4b4515841beb""}","https://test12345.live/?num_scrambled_semantic=8&num_scrambled_causal=4&num_scrambled_schematic=4&participantId=F42D2DF08BD943ADB2893569F9A78647&assignmentId=0198ba0f-eeaf-74cb-b130-7160e2f25ea2&projectId=0198b9d0-29d4-7df3-8625-4b4515841beb","F42D2DF08BD943ADB2893569F9A78647-2025-08-17-22-48-06","","null","","[]","null","",""
"","","","","","image-button-response","15","112127","0.0-6.0-1.0-0.2","F42D2DF08BD943ADB2893569F9A78647","F42D2DF08BD943ADB2893569F9A78647","0198ba0f-eeaf-74cb-b130-7160e2f25ea2","0198b9d0-29d4-7df3-8625-4b4515841beb","{""num_scrambled_semantic"":""8"",""num_scrambled_causal"":""4"",""num_scrambled_schematic"":""4"",""participantId"":""F42D2DF08BD943ADB2893569F9A78647"",""assignmentId"":""0198ba0f-eeaf-74cb-b130-7160e2f25ea2"",""projectId"":""0198b9d0-29d4-7df3-8625-4b4515841beb""}","https://test12345.live/?num_scrambled_semantic=8&num_scrambled_causal=4&num_scrambled_schematic=4&participantId=F42D2DF08BD943ADB2893569F9A78647&assignmentId=0198ba0f-eeaf-74cb-b130-7160e2f25ea2&projectId=0198b9d0-29d4-7df3-8625-4b4515841beb","F42D2DF08BD943ADB2893569F9A78647-2025-08-17-22-48-06","","null","","images/instructions/movie_3.png","null","",""
"","","","","","image-button-response","16","114356","0.0-6.0-1.0-1.2","F42D2DF08BD943ADB2893569F9A78647","F42D2DF08BD943ADB2893569F9A78647","0198ba0f-eeaf-74cb-b130-7160e2f25ea2","0198b9d0-29d4-7df3-8625-4b4515841beb","{""num_scrambled_semantic"":""8"",""num_scrambled_causal"":""4"",""num_scrambled_schematic"":""4"",""participantId"":""F42D2DF08BD943ADB2893569F9A78647"",""assignmentId"":""0198ba0f-eeaf-74cb-b130-7160e2f25ea2"",""projectId"":""0198b9d0-29d4-7df3-8625-4b4515841beb""}","https://test12345.live/?num_scrambled_semantic=8&num_scrambled_causal=4&num_scrambled_schematic=4&participantId=F42D2DF08BD943ADB2893569F9A78647&assignmentId=0198ba0f-eeaf-74cb-b130-7160e2f25ea2&projectId=0198b9d0-29d4-7df3-8625-4b4515841beb","F42D2DF08BD943ADB2893569F9A78647-2025-08-17-22-48-06","","2226","","images/instructions/movie_3.png","0","",""
"","","","","","image-button-response","17","119759","0.0-6.0-1.0-2.2","F42D2DF08BD943ADB2893569F9A78647","F42D2DF08BD943ADB2893569F9A78647","0198ba0f-eeaf-74cb-b130-7160e2f25ea2","0198b9d0-29d4-7df3-8625-4b4515841beb","{""num_scrambled_semantic"":""8"",""num_scrambled_causal"":""4"",""num_scrambled_schematic"":""4"",""participantId"":""F42D2DF08BD943ADB2893569F9A78647"",""assignmentId"":""0198ba0f-eeaf-74cb-b130-7160e2f25ea2"",""projectId"":""0198b9d0-29d4-7df3-8625-4b4515841beb""}","https://test12345.live/?num_scrambled_semantic=8&num_scrambled_causal=4&num_scrambled_schematic=4&participantId=F42D2DF08BD943ADB2893569F9A78647&assignmentId=0198ba0f-eeaf-74cb-b130-7160e2f25ea2&projectId=0198b9d0-29d4-7df3-8625-4b4515841beb","F42D2DF08BD943ADB2893569F9A78647-2025-08-17-22-48-06","","null","","[]","null","",""
"","","","","","image-button-response","18","124261","0.0-6.0-1.0-0.3","F42D2DF08BD943ADB2893569F9A78647","F42D2DF08BD943ADB2893569F9A78647","0198ba0f-eeaf-74cb-b130-7160e2f25ea2","0198b9d0-29d4-7df3-8625-4b4515841beb","{""num_scrambled_semantic"":""8"",""num_scrambled_causal"":""4"",""num_scrambled_schematic"":""4"",""participantId"":""F42D2DF08BD943ADB2893569F9A78647"",""assignmentId"":""0198ba0f-eeaf-74cb-b130-7160e2f25ea2"",""projectId"":""0198b9d0-29d4-7df3-8625-4b4515841beb""}","https://test12345.live/?num_scrambled_semantic=8&num_scrambled_causal=4&num_scrambled_schematic=4&participantId=F42D2DF08BD943ADB2893569F9A78647&assignmentId=0198ba0f-eeaf-74cb-b130-7160e2f25ea2&projectId=0198b9d0-29d4-7df3-8625-4b4515841beb","F42D2DF08BD943ADB2893569F9A78647-2025-08-17-22-48-06","","null","","images/instructions/movie_4.png","null","",""
"","","","","","image-button-response","19","126823","0.0-6.0-1.0-1.3","F42D2DF08BD943ADB2893569F9A78647","F42D2DF08BD943ADB2893569F9A78647","0198ba0f-eeaf-74cb-b130-7160e2f25ea2","0198b9d0-29d4-7df3-8625-4b4515841beb","{""num_scrambled_semantic"":""8"",""num_scrambled_causal"":""4"",""num_scrambled_schematic"":""4"",""participantId"":""F42D2DF08BD943ADB2893569F9A78647"",""assignmentId"":""0198ba0f-eeaf-74cb-b130-7160e2f25ea2"",""projectId"":""0198b9d0-29d4-7df3-8625-4b4515841beb""}","https://test12345.live/?num_scrambled_semantic=8&num_scrambled_causal=4&num_scrambled_schematic=4&participantId=F42D2DF08BD943ADB2893569F9A78647&assignmentId=0198ba0f-eeaf-74cb-b130-7160e2f25ea2&projectId=0198b9d0-29d4-7df3-8625-4b4515841beb","F42D2DF08BD943ADB2893569F9A78647-2025-08-17-22-48-06","","2558","","images/instructions/movie_4.png","0","",""
"","","","","","image-button-response","20","132225","0.0-6.0-1.0-2.3","F42D2DF08BD943ADB2893569F9A78647","F42D2DF08BD943ADB2893569F9A78647","0198ba0f-eeaf-74cb-b130-7160e2f25ea2","0198b9d0-29d4-7df3-8625-4b4515841beb","{""num_scrambled_semantic"":""8"",""num_scrambled_causal"":""4"",""num_scrambled_schematic"":""4"",""participantId"":""F42D2DF08BD943ADB2893569F9A78647"",""assignmentId"":""0198ba0f-eeaf-74cb-b130-7160e2f25ea2"",""projectId"":""0198b9d0-29d4-7df3-8625-4b4515841beb""}","https://test12345.live/?num_scrambled_semantic=8&num_scrambled_causal=4&num_scrambled_schematic=4&participantId=F42D2DF08BD943ADB2893569F9A78647&assignmentId=0198ba0f-eeaf-74cb-b130-7160e2f25ea2&projectId=0198b9d0-29d4-7df3-8625-4b4515841beb","F42D2DF08BD943ADB2893569F9A78647-2025-08-17-22-48-06","","null","","[]","null","",""
"","","","","","instructions","21","143287","0.0-7.0","F42D2DF08BD943ADB2893569F9A78647","F42D2DF08BD943ADB2893569F9A78647","0198ba0f-eeaf-74cb-b130-7160e2f25ea2","0198b9d0-29d4-7df3-8625-4b4515841beb","{""num_scrambled_semantic"":""8"",""num_scrambled_causal"":""4"",""num_scrambled_schematic"":""4"",""participantId"":""F42D2DF08BD943ADB2893569F9A78647"",""assignmentId"":""0198ba0f-eeaf-74cb-b130-7160e2f25ea2"",""projectId"":""0198b9d0-29d4-7df3-8625-4b4515841beb""}","https://test12345.live/?num_scrambled_semantic=8&num_scrambled_causal=4&num_scrambled_schematic=4&participantId=F42D2DF08BD943ADB2893569F9A78647&assignmentId=0198ba0f-eeaf-74cb-b130-7160e2f25ea2&projectId=0198b9d0-29d4-7df3-8625-4b4515841beb","F42D2DF08BD943ADB2893569F9A78647-2025-08-17-22-48-06","[{""page_index"":0,""viewing_time"":9083},{""page_index"":1,""viewing_time"":1978}]","11061","","","","",""
"","","","","","html-audio-response","22","178925","0.0-8.0","F42D2DF08BD943ADB2893569F9A78647","F42D2DF08BD943ADB2893569F9A78647","0198ba0f-eeaf-74cb-b130-7160e2f25ea2","0198b9d0-29d4-7df3-8625-4b4515841beb","{""num_scrambled_semantic"":""8"",""num_scrambled_causal"":""4"",""num_scrambled_schematic"":""4"",""participantId"":""F42D2DF08BD943ADB2893569F9A78647"",""assignmentId"":""0198ba0f-eeaf-74cb-b130-7160e2f25ea2"",""projectId"":""0198b9d0-29d4-7df3-8625-4b4515841beb""}","https://test12345.live/?num_scrambled_semantic=8&num_scrambled_causal=4&num_scrambled_schematic=4&participantId=F42D2DF08BD943ADB2893569F9A78647&assignmentId=0198ba0f-eeaf-74cb-b130-7160e2f25ea2&projectId=0198b9d0-29d4-7df3-8625-4b4515841beb","F42D2DF08BD943ADB2893569F9A78647-2025-08-17-22-48-06","","16497","","[""<span style=\""color: red; font-size: 24px\""> NOW RECORDING</span><p>Please say out loud all the images you saw, as many as you can remember. The images can be said in any order.</p>""]","","3",""
"","","","","","instructions","23","180535","0.0-9.0","F42D2DF08BD943ADB2893569F9A78647","F42D2DF08BD943ADB2893569F9A78647","0198ba0f-eeaf-74cb-b130-7160e2f25ea2","0198b9d0-29d4-7df3-8625-4b4515841beb","{""num_scrambled_semantic"":""8"",""num_scrambled_causal"":""4"",""num_scrambled_schematic"":""4"",""participantId"":""F42D2DF08BD943ADB2893569F9A78647"",""assignmentId"":""0198ba0f-eeaf-74cb-b130-7160e2f25ea2"",""projectId"":""0198b9d0-29d4-7df3-8625-4b4515841beb""}","https://test12345.live/?num_scrambled_semantic=8&num_scrambled_causal=4&num_scrambled_schematic=4&participantId=F42D2DF08BD943ADB2893569F9A78647&assignmentId=0198ba0f-eeaf-74cb-b130-7160e2f25ea2&projectId=0198b9d0-29d4-7df3-8625-4b4515841beb","F42D2DF08BD943ADB2893569F9A78647-2025-08-17-22-48-06","[{""page_index"":0,""viewing_time"":1601}]","1602","","","","",""
"","","","","","image-button-response","24","186539","0.0-10.0-0.0","F42D2DF08BD943ADB2893569F9A78647","F42D2DF08BD943ADB2893569F9A78647","0198ba0f-eeaf-74cb-b130-7160e2f25ea2","0198b9d0-29d4-7df3-8625-4b4515841beb","{""num_scrambled_semantic"":""8"",""num_scrambled_causal"":""4"",""num_scrambled_schematic"":""4"",""participantId"":""F42D2DF08BD943ADB2893569F9A78647"",""assignmentId"":""0198ba0f-eeaf-74cb-b130-7160e2f25ea2"",""projectId"":""0198b9d0-29d4-7df3-8625-4b4515841beb""}","https://test12345.live/?num_scrambled_semantic=8&num_scrambled_causal=4&num_scrambled_schematic=4&participantId=F42D2DF08BD943ADB2893569F9A78647&assignmentId=0198ba0f-eeaf-74cb-b130-7160e2f25ea2&projectId=0198b9d0-29d4-7df3-8625-4b4515841beb","F42D2DF08BD943ADB2893569F9A78647-2025-08-17-22-48-06","","null","","images/causal_sequence/saving_a_cat_causal/saving_a_cat_causal_0.png","null","",""
"","","","","","image-button-response","25","191041","0.0-10.0-1.0-0.0","F42D2DF08BD943ADB2893569F9A78647","F42D2DF08BD943ADB2893569F9A78647","0198ba0f-eeaf-74cb-b130-7160e2f25ea2","0198b9d0-29d4-7df3-8625-4b4515841beb","{""num_scrambled_semantic"":""8"",""num_scrambled_causal"":""4"",""num_scrambled_schematic"":""4"",""participantId"":""F42D2DF08BD943ADB2893569F9A78647"",""assignmentId"":""0198ba0f-eeaf-74cb-b130-7160e2f25ea2"",""projectId"":""0198b9d0-29d4-7df3-8625-4b4515841beb""}","https://test12345.live/?num_scrambled_semantic=8&num_scrambled_causal=4&num_scrambled_schematic=4&participantId=F42D2DF08BD943ADB2893569F9A78647&assignmentId=0198ba0f-eeaf-74cb-b130-7160e2f25ea2&projectId=0198b9d0-29d4-7df3-8625-4b4515841beb","F42D2DF08BD943ADB2893569F9A78647-2025-08-17-22-48-06","","null","","images/causal_sequence/saving_a_cat_causal/saving_a_cat_causal_7.png","null","",""
"","","","","","image-button-response","26","193481","0.0-10.0-1.0-1.0","F42D2DF08BD943ADB2893569F9A78647","F42D2DF08BD943ADB2893569F9A78647","0198ba0f-eeaf-74cb-b130-7160e2f25ea2","0198b9d0-29d4-7df3-8625-4b4515841beb","{""num_scrambled_semantic"":""8"",""num_scrambled_causal"":""4"",""num_scrambled_schematic"":""4"",""participantId"":""F42D2DF08BD943ADB2893569F9A78647"",""assignmentId"":""0198ba0f-eeaf-74cb-b130-7160e2f25ea2"",""projectId"":""0198b9d0-29d4-7df3-8625-4b4515841beb""}","https://test12345.live/?num_scrambled_semantic=8&num_scrambled_causal=4&num_scrambled_schematic=4&participantId=F42D2DF08BD943ADB2893569F9A78647&assignmentId=0198ba0f-eeaf-74cb-b130-7160e2f25ea2&projectId=0198b9d0-29d4-7df3-8625-4b4515841beb","F42D2DF08BD943ADB2893569F9A78647-2025-08-17-22-48-06","","2438","","images/causal_sequence/saving_a_cat_causal/saving_a_cat_causal_7.png","0","",""
"","","","","","image-button-response","27","198884","0.0-10.0-1.0-2.0","F42D2DF08BD943ADB2893569F9A78647","F42D2DF08BD943ADB2893569F9A78647","0198ba0f-eeaf-74cb-b130-7160e2f25ea2","0198b9d0-29d4-7df3-8625-4b4515841beb","{""num_scrambled_semantic"":""8"",""num_scrambled_causal"":""4"",""num_scrambled_schematic"":""4"",""participantId"":""F42D2DF08BD943ADB2893569F9A78647"",""assignmentId"":""0198ba0f-eeaf-74cb-b130-7160e2f25ea2"",""projectId"":""0198b9d0-29d4-7df3-8625-4b4515841beb""}","https://test12345.live/?num_scrambled_semantic=8&num_scrambled_causal=4&num_scrambled_schematic=4&participantId=F42D2DF08BD943ADB2893569F9A78647&assignmentId=0198ba0f-eeaf-74cb-b130-7160e2f25ea2&projectId=0198b9d0-29d4-7df3-8625-4b4515841beb","F42D2DF08BD943ADB2893569F9A78647-2025-08-17-22-48-06","","null","","[]","null","",""
"","","","","","image-button-response","28","203386","0.0-10.0-1.0-0.1","F42D2DF08BD943ADB2893569F9A78647","F42D2DF08BD943ADB2893569F9A78647","0198ba0f-eeaf-74cb-b130-7160e2f25ea2","0198b9d0-29d4-7df3-8625-4b4515841beb","{""num_scrambled_semantic"":""8"",""num_scrambled_causal"":""4"",""num_scrambled_schematic"":""4"",""participantId"":""F42D2DF08BD943ADB2893569F9A78647"",""assignmentId"":""0198ba0f-eeaf-74cb-b130-7160e2f25ea2"",""projectId"":""0198b9d0-29d4-7df3-8625-4b4515841beb""}","https://test12345.live/?num_scrambled_semantic=8&num_scrambled_causal=4&num_scrambled_schematic=4&participantId=F42D2DF08BD943ADB2893569F9A78647&assignmentId=0198ba0f-eeaf-74cb-b130-7160e2f25ea2&projectId=0198b9d0-29d4-7df3-8625-4b4515841beb","F42D2DF08BD943ADB2893569F9A78647-2025-08-17-22-48-06","","null","","images/causal_sequence/saving_a_cat_causal/saving_a_cat_causal_6.png","null","",""
"","","","","","image-button-response","29","205210","0.0-10.0-1.0-1.1","F42D2DF08BD943ADB2893569F9A78647","F42D2DF08BD943ADB2893569F9A78647","0198ba0f-eeaf-74cb-b130-7160e2f25ea2","0198b9d0-29d4-7df3-8625-4b4515841beb","{""num_scrambled_semantic"":""8"",""num_scrambled_causal"":""4"",""num_scrambled_schematic"":""4"",""participantId"":""F42D2DF08BD943ADB2893569F9A78647"",""assignmentId"":""0198ba0f-eeaf-74cb-b130-7160e2f25ea2"",""projectId"":""0198b9d0-29d4-7df3-8625-4b4515841beb""}","https://test12345.live/?num_scrambled_semantic=8&num_scrambled_causal=4&num_scrambled_schematic=4&participantId=F42D2DF08BD943ADB2893569F9A78647&assignmentId=0198ba0f-eeaf-74cb-b130-7160e2f25ea2&projectId=0198b9d0-29d4-7df3-8625-4b4515841beb","F42D2DF08BD943ADB2893569F9A78647-2025-08-17-22-48-06","","1822","","images/causal_sequence/saving_a_cat_causal/saving_a_cat_causal_6.png","0","",""
"","","","","","image-button-response","30","210613","0.0-10.0-1.0-2.1","F42D2DF08BD943ADB2893569F9A78647","F42D2DF08BD943ADB2893569F9A78647","0198ba0f-eeaf-74cb-b130-7160e2f25ea2","0198b9d0-29d4-7df3-8625-4b4515841beb","{""num_scrambled_semantic"":""8"",""num_scrambled_causal"":""4"",""num_scrambled_schematic"":""4"",""participantId"":""F42D2DF08BD943ADB2893569F9A78647"",""assignmentId"":""0198ba0f-eeaf-74cb-b130-7160e2f25ea2"",""projectId"":""0198b9d0-29d4-7df3-8625-4b4515841beb""}","https://test12345.live/?num_scrambled_semantic=8&num_scrambled_causal=4&num_scrambled_schematic=4&participantId=F42D2DF08BD943ADB2893569F9A78647&assignmentId=0198ba0f-eeaf-74cb-b130-7160e2f25ea2&projectId=0198b9d0-29d4-7df3-8625-4b4515841beb","F42D2DF08BD943ADB2893569F9A78647-2025-08-17-22-48-06","","null","","[]","null","",""
"","","","","","image-button-response","31","215115","0.0-10.0-1.0-0.2","F42D2DF08BD943ADB2893569F9A78647","F42D2DF08BD943ADB2893569F9A78647","0198ba0f-eeaf-74cb-b130-7160e2f25ea2","0198b9d0-29d4-7df3-8625-4b4515841beb","{""num_scrambled_semantic"":""8"",""num_scrambled_causal"":""4"",""num_scrambled_schematic"":""4"",""participantId"":""F42D2DF08BD943ADB2893569F9A78647"",""assignmentId"":""0198ba0f-eeaf-74cb-b130-7160e2f25ea2"",""projectId"":""0198b9d0-29d4-7df3-8625-4b4515841beb""}","https://test12345.live/?num_scrambled_semantic=8&num_scrambled_causal=4&num_scrambled_schematic=4&participantId=F42D2DF08BD943ADB2893569F9A78647&assignmentId=0198ba0f-eeaf-74cb-b130-7160e2f25ea2&projectId=0198b9d0-29d4-7df3-8625-4b4515841beb","F42D2DF08BD943ADB2893569F9A78647-2025-08-17-22-48-06","","null","","images/causal_sequence/saving_a_cat_causal/saving_a_cat_causal_8.png","null","",""
"","","","","","image-button-response","32","216250","0.0-10.0-1.0-1.2","F42D2DF08BD943ADB2893569F9A78647","F42D2DF08BD943ADB2893569F9A78647","0198ba0f-eeaf-74cb-b130-7160e2f25ea2","0198b9d0-29d4-7df3-8625-4b4515841beb","{""num_scrambled_semantic"":""8"",""num_scrambled_causal"":""4"",""num_scrambled_schematic"":""4"",""participantId"":""F42D2DF08BD943ADB2893569F9A78647"",""assignmentId"":""0198ba0f-eeaf-74cb-b130-7160e2f25ea2"",""projectId"":""0198b9d0-29d4-7df3-8625-4b4515841beb""}","https://test12345.live/?num_scrambled_semantic=8&num_scrambled_causal=4&num_scrambled_schematic=4&participantId=F42D2DF08BD943ADB2893569F9A78647&assignmentId=0198ba0f-eeaf-74cb-b130-7160e2f25ea2&projectId=0198b9d0-29d4-7df3-8625-4b4515841beb","F42D2DF08BD943ADB2893569F9A78647-2025-08-17-22-48-06","","1133","","images/causal_sequence/saving_a_cat_causal/saving_a_cat_causal_8.png","0","",""
"","","","","","image-button-response","33","221652","0.0-10.0-1.0-2.2","F42D2DF08BD943ADB2893569F9A78647","F42D2DF08BD943ADB2893569F9A78647","0198ba0f-eeaf-74cb-b130-7160e2f25ea2","0198b9d0-29d4-7df3-8625-4b4515841beb","{""num_scrambled_semantic"":""8"",""num_scrambled_causal"":""4"",""num_scrambled_schematic"":""4"",""participantId"":""F42D2DF08BD943ADB2893569F9A78647"",""assignmentId"":""0198ba0f-eeaf-74cb-b130-7160e2f25ea2"",""projectId"":""0198b9d0-29d4-7df3-8625-4b4515841beb""}","https://test12345.live/?num_scrambled_semantic=8&num_scrambled_causal=4&num_scrambled_schematic=4&participantId=F42D2DF08BD943ADB2893569F9A78647&assignmentId=0198ba0f-eeaf-74cb-b130-7160e2f25ea2&projectId=0198b9d0-29d4-7df3-8625-4b4515841beb","F42D2DF08BD943ADB2893569F9A78647-2025-08-17-22-48-06","","null","","[]","null","",""
"","","","","","image-button-response","34","226155","0.0-10.0-1.0-0.3","F42D2DF08BD943ADB2893569F9A78647","F42D2DF08BD943ADB2893569F9A78647","0198ba0f-eeaf-74cb-b130-7160e2f25ea2","0198b9d0-29d4-7df3-8625-4b4515841beb","{""num_scrambled_semantic"":""8"",""num_scrambled_causal"":""4"",""num_scrambled_schematic"":""4"",""participantId"":""F42D2DF08BD943ADB2893569F9A78647"",""assignmentId"":""0198ba0f-eeaf-74cb-b130-7160e2f25ea2"",""projectId"":""0198b9d0-29d4-7df3-8625-4b4515841beb""}","https://test12345.live/?num_scrambled_semantic=8&num_scrambled_causal=4&num_scrambled_schematic=4&participantId=F42D2DF08BD943ADB2893569F9A78647&assignmentId=0198ba0f-eeaf-74cb-b130-7160e2f25ea2&projectId=0198b9d0-29d4-7df3-8625-4b4515841beb","F42D2DF08BD943ADB2893569F9A78647-2025-08-17-22-48-06","","null","","images/causal_sequence/saving_a_cat_causal/saving_a_cat_causal_9.png","null","",""
"","","","","","image-button-response","35","227131","0.0-10.0-1.0-1.3","F42D2DF08BD943ADB2893569F9A78647","F42D2DF08BD943ADB2893569F9A78647","0198ba0f-eeaf-74cb-b130-7160e2f25ea2","0198b9d0-29d4-7df3-8625-4b4515841beb","{""num_scrambled_semantic"":""8"",""num_scrambled_causal"":""4"",""num_scrambled_schematic"":""4"",""participantId"":""F42D2DF08BD943ADB2893569F9A78647"",""assignmentId"":""0198ba0f-eeaf-74cb-b130-7160e2f25ea2"",""projectId"":""0198b9d0-29d4-7df3-8625-4b4515841beb""}","https://test12345.live/?num_scrambled_semantic=8&num_scrambled_causal=4&num_scrambled_schematic=4&participantId=F42D2DF08BD943ADB2893569F9A78647&assignmentId=0198ba0f-eeaf-74cb-b130-7160e2f25ea2&projectId=0198b9d0-29d4-7df3-8625-4b4515841beb","F42D2DF08BD943ADB2893569F9A78647-2025-08-17-22-48-06","","974","","images/causal_sequence/saving_a_cat_causal/saving_a_cat_causal_9.png","0","",""
"","","","","","image-button-response","36","232533","0.0-10.0-1.0-2.3","F42D2DF08BD943ADB2893569F9A78647","F42D2DF08BD943ADB2893569F9A78647","0198ba0f-eeaf-74cb-b130-7160e2f25ea2","0198b9d0-29d4-7df3-8625-4b4515841beb","{""num_scrambled_semantic"":""8"",""num_scrambled_causal"":""4"",""num_scrambled_schematic"":""4"",""participantId"":""F42D2DF08BD943ADB2893569F9A78647"",""assignmentId"":""0198ba0f-eeaf-74cb-b130-7160e2f25ea2"",""projectId"":""0198b9d0-29d4-7df3-8625-4b4515841beb""}","https://test12345.live/?num_scrambled_semantic=8&num_scrambled_causal=4&num_scrambled_schematic=4&participantId=F42D2DF08BD943ADB2893569F9A78647&assignmentId=0198ba0f-eeaf-74cb-b130-7160e2f25ea2&projectId=0198b9d0-29d4-7df3-8625-4b4515841beb","F42D2DF08BD943ADB2893569F9A78647-2025-08-17-22-48-06","","null","","[]","null","",""
"","","","","","image-button-response","37","237035","0.0-10.0-1.0-0.4","F42D2DF08BD943ADB2893569F9A78647","F42D2DF08BD943ADB2893569F9A78647","0198ba0f-eeaf-74cb-b130-7160e2f25ea2","0198b9d0-29d4-7df3-8625-4b4515841beb","{""num_scrambled_semantic"":""8"",""num_scrambled_causal"":""4"",""num_scrambled_schematic"":""4"",""participantId"":""F42D2DF08BD943ADB2893569F9A78647"",""assignmentId"":""0198ba0f-eeaf-74cb-b130-7160e2f25ea2"",""projectId"":""0198b9d0-29d4-7df3-8625-4b4515841beb""}","https://test12345.live/?num_scrambled_semantic=8&num_scrambled_causal=4&num_scrambled_schematic=4&participantId=F42D2DF08BD943ADB2893569F9A78647&assignmentId=0198ba0f-eeaf-74cb-b130-7160e2f25ea2&projectId=0198b9d0-29d4-7df3-8625-4b4515841beb","F42D2DF08BD943ADB2893569F9A78647-2025-08-17-22-48-06","","null","","images/causal_sequence/saving_a_cat_causal/saving_a_cat_causal_1.png","null","",""
"","","","","","image-button-response","38","237880","0.0-10.0-1.0-1.4","F42D2DF08BD943ADB2893569F9A78647","F42D2DF08BD943ADB2893569F9A78647","0198ba0f-eeaf-74cb-b130-7160e2f25ea2","0198b9d0-29d4-7df3-8625-4b4515841beb","{""num_scrambled_semantic"":""8"",""num_scrambled_causal"":""4"",""num_scrambled_schematic"":""4"",""participantId"":""F42D2DF08BD943ADB2893569F9A78647"",""assignmentId"":""0198ba0f-eeaf-74cb-b130-7160e2f25ea2"",""projectId"":""0198b9d0-29d4-7df3-8625-4b4515841beb""}","https://test12345.live/?num_scrambled_semantic=8&num_scrambled_causal=4&num_scrambled_schematic=4&participantId=F42D2DF08BD943ADB2893569F9A78647&assignmentId=0198ba0f-eeaf-74cb-b130-7160e2f25ea2&projectId=0198b9d0-29d4-7df3-8625-4b4515841beb","F42D2DF08BD943ADB2893569F9A78647-2025-08-17-22-48-06","","842","","images/causal_sequence/saving_a_cat_causal/saving_a_cat_causal_1.png","0","",""
"","","","","","image-button-response","39","243283","0.0-10.0-1.0-2.4","F42D2DF08BD943ADB2893569F9A78647","F42D2DF08BD943ADB2893569F9A78647","0198ba0f-eeaf-74cb-b130-7160e2f25ea2","0198b9d0-29d4-7df3-8625-4b4515841beb","{""num_scrambled_semantic"":""8"",""num_scrambled_causal"":""4"",""num_scrambled_schematic"":""4"",""participantId"":""F42D2DF08BD943ADB2893569F9A78647"",""assignmentId"":""0198ba0f-eeaf-74cb-b130-7160e2f25ea2"",""projectId"":""0198b9d0-29d4-7df3-8625-4b4515841beb""}","https://test12345.live/?num_scrambled_semantic=8&num_scrambled_causal=4&num_scrambled_schematic=4&participantId=F42D2DF08BD943ADB2893569F9A78647&assignmentId=0198ba0f-eeaf-74cb-b130-7160e2f25ea2&projectId=0198b9d0-29d4-7df3-8625-4b4515841beb","F42D2DF08BD943ADB2893569F9A78647-2025-08-17-22-48-06","","null","","[]","null","",""
"","","","","","image-button-response","40","247785","0.0-10.0-1.0-0.5","F42D2DF08BD943ADB2893569F9A78647","F42D2DF08BD943ADB2893569F9A78647","0198ba0f-eeaf-74cb-b130-7160e2f25ea2","0198b9d0-29d4-7df3-8625-4b4515841beb","{""num_scrambled_semantic"":""8"",""num_scrambled_causal"":""4"",""num_scrambled_schematic"":""4"",""participantId"":""F42D2DF08BD943ADB2893569F9A78647"",""assignmentId"":""0198ba0f-eeaf-74cb-b130-7160e2f25ea2"",""projectId"":""0198b9d0-29d4-7df3-8625-4b4515841beb""}","https://test12345.live/?num_scrambled_semantic=8&num_scrambled_causal=4&num_scrambled_schematic=4&participantId=F42D2DF08BD943ADB2893569F9A78647&assignmentId=0198ba0f-eeaf-74cb-b130-7160e2f25ea2&projectId=0198b9d0-29d4-7df3-8625-4b4515841beb","F42D2DF08BD943ADB2893569F9A78647-2025-08-17-22-48-06","","null","","images/causal_sequence/saving_a_cat_causal/saving_a_cat_causal_2.png","null","",""
"","","","","","image-button-response","41","249856","0.0-10.0-1.0-1.5","F42D2DF08BD943ADB2893569F9A78647","F42D2DF08BD943ADB2893569F9A78647","0198ba0f-eeaf-74cb-b130-7160e2f25ea2","0198b9d0-29d4-7df3-8625-4b4515841beb","{""num_scrambled_semantic"":""8"",""num_scrambled_causal"":""4"",""num_scrambled_schematic"":""4"",""participantId"":""F42D2DF08BD943ADB2893569F9A78647"",""assignmentId"":""0198ba0f-eeaf-74cb-b130-7160e2f25ea2"",""projectId"":""0198b9d0-29d4-7df3-8625-4b4515841beb""}","https://test12345.live/?num_scrambled_semantic=8&num_scrambled_causal=4&num_scrambled_schematic=4&participantId=F42D2DF08BD943ADB2893569F9A78647&assignmentId=0198ba0f-eeaf-74cb-b130-7160e2f25ea2&projectId=0198b9d0-29d4-7df3-8625-4b4515841beb","F42D2DF08BD943ADB2893569F9A78647-2025-08-17-22-48-06","","2069","","images/causal_sequence/saving_a_cat_causal/saving_a_cat_causal_2.png","1","",""
"","","","","","image-button-response","42","255258","0.0-10.0-1.0-2.5","F42D2DF08BD943ADB2893569F9A78647","F42D2DF08BD943ADB2893569F9A78647","0198ba0f-eeaf-74cb-b130-7160e2f25ea2","0198b9d0-29d4-7df3-8625-4b4515841beb","{""num_scrambled_semantic"":""8"",""num_scrambled_causal"":""4"",""num_scrambled_schematic"":""4"",""participantId"":""F42D2DF08BD943ADB2893569F9A78647"",""assignmentId"":""0198ba0f-eeaf-74cb-b130-7160e2f25ea2"",""projectId"":""0198b9d0-29d4-7df3-8625-4b4515841beb""}","https://test12345.live/?num_scrambled_semantic=8&num_scrambled_causal=4&num_scrambled_schematic=4&participantId=F42D2DF08BD943ADB2893569F9A78647&assignmentId=0198ba0f-eeaf-74cb-b130-7160e2f25ea2&projectId=0198b9d0-29d4-7df3-8625-4b4515841beb","F42D2DF08BD943ADB2893569F9A78647-2025-08-17-22-48-06","","null","","[]","null","",""
"","","","","","image-button-response","43","259760","0.0-10.0-1.0-0.6","F42D2DF08BD943ADB2893569F9A78647","F42D2DF08BD943ADB2893569F9A78647","0198ba0f-eeaf-74cb-b130-7160e2f25ea2","0198b9d0-29d4-7df3-8625-4b4515841beb","{""num_scrambled_semantic"":""8"",""num_scrambled_causal"":""4"",""num_scrambled_schematic"":""4"",""participantId"":""F42D2DF08BD943ADB2893569F9A78647"",""assignmentId"":""0198ba0f-eeaf-74cb-b130-7160e2f25ea2"",""projectId"":""0198b9d0-29d4-7df3-8625-4b4515841beb""}","https://test12345.live/?num_scrambled_semantic=8&num_scrambled_causal=4&num_scrambled_schematic=4&participantId=F42D2DF08BD943ADB2893569F9A78647&assignmentId=0198ba0f-eeaf-74cb-b130-7160e2f25ea2&projectId=0198b9d0-29d4-7df3-8625-4b4515841beb","F42D2DF08BD943ADB2893569F9A78647-2025-08-17-22-48-06","","null","","images/causal_sequence/saving_a_cat_causal/saving_a_cat_causal_ten.png","null","",""
"","","","","","image-button-response","44","261309","0.0-10.0-1.0-1.6","F42D2DF08BD943ADB2893569F9A78647","F42D2DF08BD943ADB2893569F9A78647","0198ba0f-eeaf-74cb-b130-7160e2f25ea2","0198b9d0-29d4-7df3-8625-4b4515841beb","{""num_scrambled_semantic"":""8"",""num_scrambled_causal"":""4"",""num_scrambled_schematic"":""4"",""participantId"":""F42D2DF08BD943ADB2893569F9A78647"",""assignmentId"":""0198ba0f-eeaf-74cb-b130-7160e2f25ea2"",""projectId"":""0198b9d0-29d4-7df3-8625-4b4515841beb""}","https://test12345.live/?num_scrambled_semantic=8&num_scrambled_causal=4&num_scrambled_schematic=4&participantId=F42D2DF08BD943ADB2893569F9A78647&assignmentId=0198ba0f-eeaf-74cb-b130-7160e2f25ea2&projectId=0198b9d0-29d4-7df3-8625-4b4515841beb","F42D2DF08BD943ADB2893569F9A78647-2025-08-17-22-48-06","","1547","","images/causal_sequence/saving_a_cat_causal/saving_a_cat_causal_ten.png","0","",""
"","","","","","image-button-response","45","266711","0.0-10.0-1.0-2.6","F42D2DF08BD943ADB2893569F9A78647","F42D2DF08BD943ADB2893569F9A78647","0198ba0f-eeaf-74cb-b130-7160e2f25ea2","0198b9d0-29d4-7df3-8625-4b4515841beb","{""num_scrambled_semantic"":""8"",""num_scrambled_causal"":""4"",""num_scrambled_schematic"":""4"",""participantId"":""F42D2DF08BD943ADB2893569F9A78647"",""assignmentId"":""0198ba0f-eeaf-74cb-b130-7160e2f25ea2"",""projectId"":""0198b9d0-29d4-7df3-8625-4b4515841beb""}","https://test12345.live/?num_scrambled_semantic=8&num_scrambled_causal=4&num_scrambled_schematic=4&participantId=F42D2DF08BD943ADB2893569F9A78647&assignmentId=0198ba0f-eeaf-74cb-b130-7160e2f25ea2&projectId=0198b9d0-29d4-7df3-8625-4b4515841beb","F42D2DF08BD943ADB2893569F9A78647-2025-08-17-22-48-06","","null","","[]","null","",""
"","","","","","image-button-response","46","271213","0.0-10.0-1.0-0.7","F42D2DF08BD943ADB2893569F9A78647","F42D2DF08BD943ADB2893569F9A78647","0198ba0f-eeaf-74cb-b130-7160e2f25ea2","0198b9d0-29d4-7df3-8625-4b4515841beb","{""num_scrambled_semantic"":""8"",""num_scrambled_causal"":""4"",""num_scrambled_schematic"":""4"",""participantId"":""F42D2DF08BD943ADB2893569F9A78647"",""assignmentId"":""0198ba0f-eeaf-74cb-b130-7160e2f25ea2"",""projectId"":""0198b9d0-29d4-7df3-8625-4b4515841beb""}","https://test12345.live/?num_scrambled_semantic=8&num_scrambled_causal=4&num_scrambled_schematic=4&participantId=F42D2DF08BD943ADB2893569F9A78647&assignmentId=0198ba0f-eeaf-74cb-b130-7160e2f25ea2&projectId=0198b9d0-29d4-7df3-8625-4b4515841beb","F42D2DF08BD943ADB2893569F9A78647-2025-08-17-22-48-06","","null","","images/causal_sequence/saving_a_cat_causal/saving_a_cat_causal_5.png","null","",""
"","","","","","image-button-response","47","272340","0.0-10.0-1.0-1.7","F42D2DF08BD943ADB2893569F9A78647","F42D2DF08BD943ADB2893569F9A78647","0198ba0f-eeaf-74cb-b130-7160e2f25ea2","0198b9d0-29d4-7df3-8625-4b4515841beb","{""num_scrambled_semantic"":""8"",""num_scrambled_causal"":""4"",""num_scrambled_schematic"":""4"",""participantId"":""F42D2DF08BD943ADB2893569F9A78647"",""assignmentId"":""0198ba0f-eeaf-74cb-b130-7160e2f25ea2"",""projectId"":""0198b9d0-29d4-7df3-8625-4b4515841beb""}","https://test12345.live/?num_scrambled_semantic=8&num_scrambled_causal=4&num_scrambled_schematic=4&participantId=F42D2DF08BD943ADB2893569F9A78647&assignmentId=0198ba0f-eeaf-74cb-b130-7160e2f25ea2&projectId=0198b9d0-29d4-7df3-8625-4b4515841beb","F42D2DF08BD943ADB2893569F9A78647-2025-08-17-22-48-06","","1124","","images/causal_sequence/saving_a_cat_causal/saving_a_cat_causal_5.png","0","",""
"","","","","","image-button-response","48","277741","0.0-10.0-1.0-2.7","F42D2DF08BD943ADB2893569F9A78647","F42D2DF08BD943ADB2893569F9A78647","0198ba0f-eeaf-74cb-b130-7160e2f25ea2","0198b9d0-29d4-7df3-8625-4b4515841beb","{""num_scrambled_semantic"":""8"",""num_scrambled_causal"":""4"",""num_scrambled_schematic"":""4"",""participantId"":""F42D2DF08BD943ADB2893569F9A78647"",""assignmentId"":""0198ba0f-eeaf-74cb-b130-7160e2f25ea2"",""projectId"":""0198b9d0-29d4-7df3-8625-4b4515841beb""}","https://test12345.live/?num_scrambled_semantic=8&num_scrambled_causal=4&num_scrambled_schematic=4&participantId=F42D2DF08BD943ADB2893569F9A78647&assignmentId=0198ba0f-eeaf-74cb-b130-7160e2f25ea2&projectId=0198b9d0-29d4-7df3-8625-4b4515841beb","F42D2DF08BD943ADB2893569F9A78647-2025-08-17-22-48-06","","null","","[]","null","",""
"","","","","","image-button-response","49","282242","0.0-10.0-1.0-0.8","F42D2DF08BD943ADB2893569F9A78647","F42D2DF08BD943ADB2893569F9A78647","0198ba0f-eeaf-74cb-b130-7160e2f25ea2","0198b9d0-29d4-7df3-8625-4b4515841beb","{""num_scrambled_semantic"":""8"",""num_scrambled_causal"":""4"",""num_scrambled_schematic"":""4"",""participantId"":""F42D2DF08BD943ADB2893569F9A78647"",""assignmentId"":""0198ba0f-eeaf-74cb-b130-7160e2f25ea2"",""projectId"":""0198b9d0-29d4-7df3-8625-4b4515841beb""}","https://test12345.live/?num_scrambled_semantic=8&num_scrambled_causal=4&num_scrambled_schematic=4&participantId=F42D2DF08BD943ADB2893569F9A78647&assignmentId=0198ba0f-eeaf-74cb-b130-7160e2f25ea2&projectId=0198b9d0-29d4-7df3-8625-4b4515841beb","F42D2DF08BD943ADB2893569F9A78647-2025-08-17-22-48-06","","null","","images/causal_sequence/saving_a_cat_causal/saving_a_cat_causal_3.png","null","",""
"","","","","","image-button-response","50","283997","0.0-10.0-1.0-1.8","F42D2DF08BD943ADB2893569F9A78647","F42D2DF08BD943ADB2893569F9A78647","0198ba0f-eeaf-74cb-b130-7160e2f25ea2","0198b9d0-29d4-7df3-8625-4b4515841beb","{""num_scrambled_semantic"":""8"",""num_scrambled_causal"":""4"",""num_scrambled_schematic"":""4"",""participantId"":""F42D2DF08BD943ADB2893569F9A78647"",""assignmentId"":""0198ba0f-eeaf-74cb-b130-7160e2f25ea2"",""projectId"":""0198b9d0-29d4-7df3-8625-4b4515841beb""}","https://test12345.live/?num_scrambled_semantic=8&num_scrambled_causal=4&num_scrambled_schematic=4&participantId=F42D2DF08BD943ADB2893569F9A78647&assignmentId=0198ba0f-eeaf-74cb-b130-7160e2f25ea2&projectId=0198b9d0-29d4-7df3-8625-4b4515841beb","F42D2DF08BD943ADB2893569F9A78647-2025-08-17-22-48-06","","1753","","images/causal_sequence/saving_a_cat_causal/saving_a_cat_causal_3.png","0","",""
"","","","","","image-button-response","51","289399","0.0-10.0-1.0-2.8","F42D2DF08BD943ADB2893569F9A78647","F42D2DF08BD943ADB2893569F9A78647","0198ba0f-eeaf-74cb-b130-7160e2f25ea2","0198b9d0-29d4-7df3-8625-4b4515841beb","{""num_scrambled_semantic"":""8"",""num_scrambled_causal"":""4"",""num_scrambled_schematic"":""4"",""participantId"":""F42D2DF08BD943ADB2893569F9A78647"",""assignmentId"":""0198ba0f-eeaf-74cb-b130-7160e2f25ea2"",""projectId"":""0198b9d0-29d4-7df3-8625-4b4515841beb""}","https://test12345.live/?num_scrambled_semantic=8&num_scrambled_causal=4&num_scrambled_schematic=4&participantId=F42D2DF08BD943ADB2893569F9A78647&assignmentId=0198ba0f-eeaf-74cb-b130-7160e2f25ea2&projectId=0198b9d0-29d4-7df3-8625-4b4515841beb","F42D2DF08BD943ADB2893569F9A78647-2025-08-17-22-48-06","","null","","[]","null","",""
"","","","","","image-button-response","52","293902","0.0-10.0-1.0-0.9","F42D2DF08BD943ADB2893569F9A78647","F42D2DF08BD943ADB2893569F9A78647","0198ba0f-eeaf-74cb-b130-7160e2f25ea2","0198b9d0-29d4-7df3-8625-4b4515841beb","{""num_scrambled_semantic"":""8"",""num_scrambled_causal"":""4"",""num_scrambled_schematic"":""4"",""participantId"":""F42D2DF08BD943ADB2893569F9A78647"",""assignmentId"":""0198ba0f-eeaf-74cb-b130-7160e2f25ea2"",""projectId"":""0198b9d0-29d4-7df3-8625-4b4515841beb""}","https://test12345.live/?num_scrambled_semantic=8&num_scrambled_causal=4&num_scrambled_schematic=4&participantId=F42D2DF08BD943ADB2893569F9A78647&assignmentId=0198ba0f-eeaf-74cb-b130-7160e2f25ea2&projectId=0198b9d0-29d4-7df3-8625-4b4515841beb","F42D2DF08BD943ADB2893569F9A78647-2025-08-17-22-48-06","","null","","images/causal_sequence/saving_a_cat_causal/saving_a_cat_causal_4.png","null","",""
"","","","","","image-button-response","53","294949","0.0-10.0-1.0-1.9","F42D2DF08BD943ADB2893569F9A78647","F42D2DF08BD943ADB2893569F9A78647","0198ba0f-eeaf-74cb-b130-7160e2f25ea2","0198b9d0-29d4-7df3-8625-4b4515841beb","{""num_scrambled_semantic"":""8"",""num_scrambled_causal"":""4"",""num_scrambled_schematic"":""4"",""participantId"":""F42D2DF08BD943ADB2893569F9A78647"",""assignmentId"":""0198ba0f-eeaf-74cb-b130-7160e2f25ea2"",""projectId"":""0198b9d0-29d4-7df3-8625-4b4515841beb""}","https://test12345.live/?num_scrambled_semantic=8&num_scrambled_causal=4&num_scrambled_schematic=4&participantId=F42D2DF08BD943ADB2893569F9A78647&assignmentId=0198ba0f-eeaf-74cb-b130-7160e2f25ea2&projectId=0198b9d0-29d4-7df3-8625-4b4515841beb","F42D2DF08BD943ADB2893569F9A78647-2025-08-17-22-48-06","","1045","","images/causal_sequence/saving_a_cat_causal/saving_a_cat_causal_4.png","0","",""
"","","","","","image-button-response","54","300351","0.0-10.0-1.0-2.9","F42D2DF08BD943ADB2893569F9A78647","F42D2DF08BD943ADB2893569F9A78647","0198ba0f-eeaf-74cb-b130-7160e2f25ea2","0198b9d0-29d4-7df3-8625-4b4515841beb","{""num_scrambled_semantic"":""8"",""num_scrambled_causal"":""4"",""num_scrambled_schematic"":""4"",""participantId"":""F42D2DF08BD943ADB2893569F9A78647"",""assignmentId"":""0198ba0f-eeaf-74cb-b130-7160e2f25ea2"",""projectId"":""0198b9d0-29d4-7df3-8625-4b4515841beb""}","https://test12345.live/?num_scrambled_semantic=8&num_scrambled_causal=4&num_scrambled_schematic=4&participantId=F42D2DF08BD943ADB2893569F9A78647&assignmentId=0198ba0f-eeaf-74cb-b130-7160e2f25ea2&projectId=0198b9d0-29d4-7df3-8625-4b4515841beb","F42D2DF08BD943ADB2893569F9A78647-2025-08-17-22-48-06","","null","","[]","null","",""
"","","","","","html-audio-response","55","373672","0.0-11.0","F42D2DF08BD943ADB2893569F9A78647","F42D2DF08BD943ADB2893569F9A78647","0198ba0f-eeaf-74cb-b130-7160e2f25ea2","0198b9d0-29d4-7df3-8625-4b4515841beb","{""num_scrambled_semantic"":""8"",""num_scrambled_causal"":""4"",""num_scrambled_schematic"":""4"",""participantId"":""F42D2DF08BD943ADB2893569F9A78647"",""assignmentId"":""0198ba0f-eeaf-74cb-b130-7160e2f25ea2"",""projectId"":""0198b9d0-29d4-7df3-8625-4b4515841beb""}","https://test12345.live/?num_scrambled_semantic=8&num_scrambled_causal=4&num_scrambled_schematic=4&participantId=F42D2DF08BD943ADB2893569F9A78647&assignmentId=0198ba0f-eeaf-74cb-b130-7160e2f25ea2&projectId=0198b9d0-29d4-7df3-8625-4b4515841beb","F42D2DF08BD943ADB2893569F9A78647-2025-08-17-22-48-06","","35740","","[""<span style=\""color: red; font-size: 24px\""> NOW RECORDING</span><p>Please say out loud all the images you saw, as many as you can remember. The images can be said in any order.</p>""]","","3","saving_a_cat_causal"
"","","","","","image-button-response","56","379685","0.0-12.0-0.0","F42D2DF08BD943ADB2893569F9A78647","F42D2DF08BD943ADB2893569F9A78647","0198ba0f-eeaf-74cb-b130-7160e2f25ea2","0198b9d0-29d4-7df3-8625-4b4515841beb","{""num_scrambled_semantic"":""8"",""num_scrambled_causal"":""4"",""num_scrambled_schematic"":""4"",""participantId"":""F42D2DF08BD943ADB2893569F9A78647"",""assignmentId"":""0198ba0f-eeaf-74cb-b130-7160e2f25ea2"",""projectId"":""0198b9d0-29d4-7df3-8625-4b4515841beb""}","https://test12345.live/?num_scrambled_semantic=8&num_scrambled_causal=4&num_scrambled_schematic=4&participantId=F42D2DF08BD943ADB2893569F9A78647&assignmentId=0198ba0f-eeaf-74cb-b130-7160e2f25ea2&projectId=0198b9d0-29d4-7df3-8625-4b4515841beb","F42D2DF08BD943ADB2893569F9A78647-2025-08-17-22-48-06","","null","","images/semantic_sequence/creative_activities_semantic/creative_activities_semantic_0.png","null","",""
"","","","","","image-button-response","57","384187","0.0-12.0-1.0-0.0","F42D2DF08BD943ADB2893569F9A78647","F42D2DF08BD943ADB2893569F9A78647","0198ba0f-eeaf-74cb-b130-7160e2f25ea2","0198b9d0-29d4-7df3-8625-4b4515841beb","{""num_scrambled_semantic"":""8"",""num_scrambled_causal"":""4"",""num_scrambled_schematic"":""4"",""participantId"":""F42D2DF08BD943ADB2893569F9A78647"",""assignmentId"":""0198ba0f-eeaf-74cb-b130-7160e2f25ea2"",""projectId"":""0198b9d0-29d4-7df3-8625-4b4515841beb""}","https://test12345.live/?num_scrambled_semantic=8&num_scrambled_causal=4&num_scrambled_schematic=4&participantId=F42D2DF08BD943ADB2893569F9A78647&assignmentId=0198ba0f-eeaf-74cb-b130-7160e2f25ea2&projectId=0198b9d0-29d4-7df3-8625-4b4515841beb","F42D2DF08BD943ADB2893569F9A78647-2025-08-17-22-48-06","","null","","images/semantic_sequence/creative_activities_semantic/creative_activities_semantic_3.png","null","",""
"","","","","","image-button-response","58","386054","0.0-12.0-1.0-1.0","F42D2DF08BD943ADB2893569F9A78647","F42D2DF08BD943ADB2893569F9A78647","0198ba0f-eeaf-74cb-b130-7160e2f25ea2","0198b9d0-29d4-7df3-8625-4b4515841beb","{""num_scrambled_semantic"":""8"",""num_scrambled_causal"":""4"",""num_scrambled_schematic"":""4"",""participantId"":""F42D2DF08BD943ADB2893569F9A78647"",""assignmentId"":""0198ba0f-eeaf-74cb-b130-7160e2f25ea2"",""projectId"":""0198b9d0-29d4-7df3-8625-4b4515841beb""}","https://test12345.live/?num_scrambled_semantic=8&num_scrambled_causal=4&num_scrambled_schematic=4&participantId=F42D2DF08BD943ADB2893569F9A78647&assignmentId=0198ba0f-eeaf-74cb-b130-7160e2f25ea2&projectId=0198b9d0-29d4-7df3-8625-4b4515841beb","F42D2DF08BD943ADB2893569F9A78647-2025-08-17-22-48-06","","1864","","images/semantic_sequence/creative_activities_semantic/creative_activities_semantic_3.png","0","",""
"","","","","","image-button-response","59","391455","0.0-12.0-1.0-2.0","F42D2DF08BD943ADB2893569F9A78647","F42D2DF08BD943ADB2893569F9A78647","0198ba0f-eeaf-74cb-b130-7160e2f25ea2","0198b9d0-29d4-7df3-8625-4b4515841beb","{""num_scrambled_semantic"":""8"",""num_scrambled_causal"":""4"",""num_scrambled_schematic"":""4"",""participantId"":""F42D2DF08BD943ADB2893569F9A78647"",""assignmentId"":""0198ba0f-eeaf-74cb-b130-7160e2f25ea2"",""projectId"":""0198b9d0-29d4-7df3-8625-4b4515841beb""}","https://test12345.live/?num_scrambled_semantic=8&num_scrambled_causal=4&num_scrambled_schematic=4&participantId=F42D2DF08BD943ADB2893569F9A78647&assignmentId=0198ba0f-eeaf-74cb-b130-7160e2f25ea2&projectId=0198b9d0-29d4-7df3-8625-4b4515841beb","F42D2DF08BD943ADB2893569F9A78647-2025-08-17-22-48-06","","null","","[]","null","",""
"","","","","","image-button-response","60","395957","0.0-12.0-1.0-0.1","F42D2DF08BD943ADB2893569F9A78647","F42D2DF08BD943ADB2893569F9A78647","0198ba0f-eeaf-74cb-b130-7160e2f25ea2","0198b9d0-29d4-7df3-8625-4b4515841beb","{""num_scrambled_semantic"":""8"",""num_scrambled_causal"":""4"",""num_scrambled_schematic"":""4"",""participantId"":""F42D2DF08BD943ADB2893569F9A78647"",""assignmentId"":""0198ba0f-eeaf-74cb-b130-7160e2f25ea2"",""projectId"":""0198b9d0-29d4-7df3-8625-4b4515841beb""}","https://test12345.live/?num_scrambled_semantic=8&num_scrambled_causal=4&num_scrambled_schematic=4&participantId=F42D2DF08BD943ADB2893569F9A78647&assignmentId=0198ba0f-eeaf-74cb-b130-7160e2f25ea2&projectId=0198b9d0-29d4-7df3-8625-4b4515841beb","F42D2DF08BD943ADB2893569F9A78647-2025-08-17-22-48-06","","null","","images/semantic_sequence/creative_activities_semantic/creative_activities_semantic_5.png","null","",""
"","","","","","image-button-response","61","397261","0.0-12.0-1.0-1.1","F42D2DF08BD943ADB2893569F9A78647","F42D2DF08BD943ADB2893569F9A78647","0198ba0f-eeaf-74cb-b130-7160e2f25ea2","0198b9d0-29d4-7df3-8625-4b4515841beb","{""num_scrambled_semantic"":""8"",""num_scrambled_causal"":""4"",""num_scrambled_schematic"":""4"",""participantId"":""F42D2DF08BD943ADB2893569F9A78647"",""assignmentId"":""0198ba0f-eeaf-74cb-b130-7160e2f25ea2"",""projectId"":""0198b9d0-29d4-7df3-8625-4b4515841beb""}","https://test12345.live/?num_scrambled_semantic=8&num_scrambled_causal=4&num_scrambled_schematic=4&participantId=F42D2DF08BD943ADB2893569F9A78647&assignmentId=0198ba0f-eeaf-74cb-b130-7160e2f25ea2&projectId=0198b9d0-29d4-7df3-8625-4b4515841beb","F42D2DF08BD943ADB2893569F9A78647-2025-08-17-22-48-06","","1300","","images/semantic_sequence/creative_activities_semantic/creative_activities_semantic_5.png","0","",""
"","","","","","image-button-response","62","402663","0.0-12.0-1.0-2.1","F42D2DF08BD943ADB2893569F9A78647","F42D2DF08BD943ADB2893569F9A78647","0198ba0f-eeaf-74cb-b130-7160e2f25ea2","0198b9d0-29d4-7df3-8625-4b4515841beb","{""num_scrambled_semantic"":""8"",""num_scrambled_causal"":""4"",""num_scrambled_schematic"":""4"",""participantId"":""F42D2DF08BD943ADB2893569F9A78647"",""assignmentId"":""0198ba0f-eeaf-74cb-b130-7160e2f25ea2"",""projectId"":""0198b9d0-29d4-7df3-8625-4b4515841beb""}","https://test12345.live/?num_scrambled_semantic=8&num_scrambled_causal=4&num_scrambled_schematic=4&participantId=F42D2DF08BD943ADB2893569F9A78647&assignmentId=0198ba0f-eeaf-74cb-b130-7160e2f25ea2&projectId=0198b9d0-29d4-7df3-8625-4b4515841beb","F42D2DF08BD943ADB2893569F9A78647-2025-08-17-22-48-06","","null","","[]","null","",""
"","","","","","image-button-response","63","407165","0.0-12.0-1.0-0.2","F42D2DF08BD943ADB2893569F9A78647","F42D2DF08BD943ADB2893569F9A78647","0198ba0f-eeaf-74cb-b130-7160e2f25ea2","0198b9d0-29d4-7df3-8625-4b4515841beb","{""num_scrambled_semantic"":""8"",""num_scrambled_causal"":""4"",""num_scrambled_schematic"":""4"",""participantId"":""F42D2DF08BD943ADB2893569F9A78647"",""assignmentId"":""0198ba0f-eeaf-74cb-b130-7160e2f25ea2"",""projectId"":""0198b9d0-29d4-7df3-8625-4b4515841beb""}","https://test12345.live/?num_scrambled_semantic=8&num_scrambled_causal=4&num_scrambled_schematic=4&participantId=F42D2DF08BD943ADB2893569F9A78647&assignmentId=0198ba0f-eeaf-74cb-b130-7160e2f25ea2&projectId=0198b9d0-29d4-7df3-8625-4b4515841beb","F42D2DF08BD943ADB2893569F9A78647-2025-08-17-22-48-06","","null","","images/semantic_sequence/creative_activities_semantic/creative_activities_semantic_1.png","null","",""
"","","","","","image-button-response","64","408711","0.0-12.0-1.0-1.2","F42D2DF08BD943ADB2893569F9A78647","F42D2DF08BD943ADB2893569F9A78647","0198ba0f-eeaf-74cb-b130-7160e2f25ea2","0198b9d0-29d4-7df3-8625-4b4515841beb","{""num_scrambled_semantic"":""8"",""num_scrambled_causal"":""4"",""num_scrambled_schematic"":""4"",""participantId"":""F42D2DF08BD943ADB2893569F9A78647"",""assignmentId"":""0198ba0f-eeaf-74cb-b130-7160e2f25ea2"",""projectId"":""0198b9d0-29d4-7df3-8625-4b4515841beb""}","https://test12345.live/?num_scrambled_semantic=8&num_scrambled_causal=4&num_scrambled_schematic=4&participantId=F42D2DF08BD943ADB2893569F9A78647&assignmentId=0198ba0f-eeaf-74cb-b130-7160e2f25ea2&projectId=0198b9d0-29d4-7df3-8625-4b4515841beb","F42D2DF08BD943ADB2893569F9A78647-2025-08-17-22-48-06","","1544","","images/semantic_sequence/creative_activities_semantic/creative_activities_semantic_1.png","0","",""
"","","","","","image-button-response","65","414113","0.0-12.0-1.0-2.2","F42D2DF08BD943ADB2893569F9A78647","F42D2DF08BD943ADB2893569F9A78647","0198ba0f-eeaf-74cb-b130-7160e2f25ea2","0198b9d0-29d4-7df3-8625-4b4515841beb","{""num_scrambled_semantic"":""8"",""num_scrambled_causal"":""4"",""num_scrambled_schematic"":""4"",""participantId"":""F42D2DF08BD943ADB2893569F9A78647"",""assignmentId"":""0198ba0f-eeaf-74cb-b130-7160e2f25ea2"",""projectId"":""0198b9d0-29d4-7df3-8625-4b4515841beb""}","https://test12345.live/?num_scrambled_semantic=8&num_scrambled_causal=4&num_scrambled_schematic=4&participantId=F42D2DF08BD943ADB2893569F9A78647&assignmentId=0198ba0f-eeaf-74cb-b130-7160e2f25ea2&projectId=0198b9d0-29d4-7df3-8625-4b4515841beb","F42D2DF08BD943ADB2893569F9A78647-2025-08-17-22-48-06","","null","","[]","null","",""
"","","","","","image-button-response","66","418614","0.0-12.0-1.0-0.3","F42D2DF08BD943ADB2893569F9A78647","F42D2DF08BD943ADB2893569F9A78647","0198ba0f-eeaf-74cb-b130-7160e2f25ea2","0198b9d0-29d4-7df3-8625-4b4515841beb","{""num_scrambled_semantic"":""8"",""num_scrambled_causal"":""4"",""num_scrambled_schematic"":""4"",""participantId"":""F42D2DF08BD943ADB2893569F9A78647"",""assignmentId"":""0198ba0f-eeaf-74cb-b130-7160e2f25ea2"",""projectId"":""0198b9d0-29d4-7df3-8625-4b4515841beb""}","https://test12345.live/?num_scrambled_semantic=8&num_scrambled_causal=4&num_scrambled_schematic=4&participantId=F42D2DF08BD943ADB2893569F9A78647&assignmentId=0198ba0f-eeaf-74cb-b130-7160e2f25ea2&projectId=0198b9d0-29d4-7df3-8625-4b4515841beb","F42D2DF08BD943ADB2893569F9A78647-2025-08-17-22-48-06","","null","","images/semantic_sequence/creative_activities_semantic/creative_activities_semantic_8.png","null","",""
"","","","","","image-button-response","67","419641","0.0-12.0-1.0-1.3","F42D2DF08BD943ADB2893569F9A78647","F42D2DF08BD943ADB2893569F9A78647","0198ba0f-eeaf-74cb-b130-7160e2f25ea2","0198b9d0-29d4-7df3-8625-4b4515841beb","{""num_scrambled_semantic"":""8"",""num_scrambled_causal"":""4"",""num_scrambled_schematic"":""4"",""participantId"":""F42D2DF08BD943ADB2893569F9A78647"",""assignmentId"":""0198ba0f-eeaf-74cb-b130-7160e2f25ea2"",""projectId"":""0198b9d0-29d4-7df3-8625-4b4515841beb""}","https://test12345.live/?num_scrambled_semantic=8&num_scrambled_causal=4&num_scrambled_schematic=4&participantId=F42D2DF08BD943ADB2893569F9A78647&assignmentId=0198ba0f-eeaf-74cb-b130-7160e2f25ea2&projectId=0198b9d0-29d4-7df3-8625-4b4515841beb","F42D2DF08BD943ADB2893569F9A78647-2025-08-17-22-48-06","","1025","","images/semantic_sequence/creative_activities_semantic/creative_activities_semantic_8.png","0","",""
"","","","","","image-button-response","68","425043","0.0-12.0-1.0-2.3","F42D2DF08BD943ADB2893569F9A78647","F42D2DF08BD943ADB2893569F9A78647","0198ba0f-eeaf-74cb-b130-7160e2f25ea2","0198b9d0-29d4-7df3-8625-4b4515841beb","{""num_scrambled_semantic"":""8"",""num_scrambled_causal"":""4"",""num_scrambled_schematic"":""4"",""participantId"":""F42D2DF08BD943ADB2893569F9A78647"",""assignmentId"":""0198ba0f-eeaf-74cb-b130-7160e2f25ea2"",""projectId"":""0198b9d0-29d4-7df3-8625-4b4515841beb""}","https://test12345.live/?num_scrambled_semantic=8&num_scrambled_causal=4&num_scrambled_schematic=4&participantId=F42D2DF08BD943ADB2893569F9A78647&assignmentId=0198ba0f-eeaf-74cb-b130-7160e2f25ea2&projectId=0198b9d0-29d4-7df3-8625-4b4515841beb","F42D2DF08BD943ADB2893569F9A78647-2025-08-17-22-48-06","","null","","[]","null","",""
"","","","","","image-button-response","69","429545","0.0-12.0-1.0-0.4","F42D2DF08BD943ADB2893569F9A78647","F42D2DF08BD943ADB2893569F9A78647","0198ba0f-eeaf-74cb-b130-7160e2f25ea2","0198b9d0-29d4-7df3-8625-4b4515841beb","{""num_scrambled_semantic"":""8"",""num_scrambled_causal"":""4"",""num_scrambled_schematic"":""4"",""participantId"":""F42D2DF08BD943ADB2893569F9A78647"",""assignmentId"":""0198ba0f-eeaf-74cb-b130-7160e2f25ea2"",""projectId"":""0198b9d0-29d4-7df3-8625-4b4515841beb""}","https://test12345.live/?num_scrambled_semantic=8&num_scrambled_causal=4&num_scrambled_schematic=4&participantId=F42D2DF08BD943ADB2893569F9A78647&assignmentId=0198ba0f-eeaf-74cb-b130-7160e2f25ea2&projectId=0198b9d0-29d4-7df3-8625-4b4515841beb","F42D2DF08BD943ADB2893569F9A78647-2025-08-17-22-48-06","","null","","images/semantic_sequence/creative_activities_semantic/creative_activities_semantic_4.png","null","",""
"","","","","","image-button-response","70","431275","0.0-12.0-1.0-1.4","F42D2DF08BD943ADB2893569F9A78647","F42D2DF08BD943ADB2893569F9A78647","0198ba0f-eeaf-74cb-b130-7160e2f25ea2","0198b9d0-29d4-7df3-8625-4b4515841beb","{""num_scrambled_semantic"":""8"",""num_scrambled_causal"":""4"",""num_scrambled_schematic"":""4"",""participantId"":""F42D2DF08BD943ADB2893569F9A78647"",""assignmentId"":""0198ba0f-eeaf-74cb-b130-7160e2f25ea2"",""projectId"":""0198b9d0-29d4-7df3-8625-4b4515841beb""}","https://test12345.live/?num_scrambled_semantic=8&num_scrambled_causal=4&num_scrambled_schematic=4&participantId=F42D2DF08BD943ADB2893569F9A78647&assignmentId=0198ba0f-eeaf-74cb-b130-7160e2f25ea2&projectId=0198b9d0-29d4-7df3-8625-4b4515841beb","F42D2DF08BD943ADB2893569F9A78647-2025-08-17-22-48-06","","1728","","images/semantic_sequence/creative_activities_semantic/creative_activities_semantic_4.png","0","",""
"","","","","","image-button-response","71","436677","0.0-12.0-1.0-2.4","F42D2DF08BD943ADB2893569F9A78647","F42D2DF08BD943ADB2893569F9A78647","0198ba0f-eeaf-74cb-b130-7160e2f25ea2","0198b9d0-29d4-7df3-8625-4b4515841beb","{""num_scrambled_semantic"":""8"",""num_scrambled_causal"":""4"",""num_scrambled_schematic"":""4"",""participantId"":""F42D2DF08BD943ADB2893569F9A78647"",""assignmentId"":""0198ba0f-eeaf-74cb-b130-7160e2f25ea2"",""projectId"":""0198b9d0-29d4-7df3-8625-4b4515841beb""}","https://test12345.live/?num_scrambled_semantic=8&num_scrambled_causal=4&num_scrambled_schematic=4&participantId=F42D2DF08BD943ADB2893569F9A78647&assignmentId=0198ba0f-eeaf-74cb-b130-7160e2f25ea2&projectId=0198b9d0-29d4-7df3-8625-4b4515841beb","F42D2DF08BD943ADB2893569F9A78647-2025-08-17-22-48-06","","null","","[]","null","",""
"","","","","","image-button-response","72","441178","0.0-12.0-1.0-0.5","F42D2DF08BD943ADB2893569F9A78647","F42D2DF08BD943ADB2893569F9A78647","0198ba0f-eeaf-74cb-b130-7160e2f25ea2","0198b9d0-29d4-7df3-8625-4b4515841beb","{""num_scrambled_semantic"":""8"",""num_scrambled_causal"":""4"",""num_scrambled_schematic"":""4"",""participantId"":""F42D2DF08BD943ADB2893569F9A78647"",""assignmentId"":""0198ba0f-eeaf-74cb-b130-7160e2f25ea2"",""projectId"":""0198b9d0-29d4-7df3-8625-4b4515841beb""}","https://test12345.live/?num_scrambled_semantic=8&num_scrambled_causal=4&num_scrambled_schematic=4&participantId=F42D2DF08BD943ADB2893569F9A78647&assignmentId=0198ba0f-eeaf-74cb-b130-7160e2f25ea2&projectId=0198b9d0-29d4-7df3-8625-4b4515841beb","F42D2DF08BD943ADB2893569F9A78647-2025-08-17-22-48-06","","null","","images/semantic_sequence/creative_activities_semantic/creative_activities_semantic_2.png","null","",""
"","","","","","image-button-response","73","442763","0.0-12.0-1.0-1.5","F42D2DF08BD943ADB2893569F9A78647","F42D2DF08BD943ADB2893569F9A78647","0198ba0f-eeaf-74cb-b130-7160e2f25ea2","0198b9d0-29d4-7df3-8625-4b4515841beb","{""num_scrambled_semantic"":""8"",""num_scrambled_causal"":""4"",""num_scrambled_schematic"":""4"",""participantId"":""F42D2DF08BD943ADB2893569F9A78647"",""assignmentId"":""0198ba0f-eeaf-74cb-b130-7160e2f25ea2"",""projectId"":""0198b9d0-29d4-7df3-8625-4b4515841beb""}","https://test12345.live/?num_scrambled_semantic=8&num_scrambled_causal=4&num_scrambled_schematic=4&participantId=F42D2DF08BD943ADB2893569F9A78647&assignmentId=0198ba0f-eeaf-74cb-b130-7160e2f25ea2&projectId=0198b9d0-29d4-7df3-8625-4b4515841beb","F42D2DF08BD943ADB2893569F9A78647-2025-08-17-22-48-06","","1582","","images/semantic_sequence/creative_activities_semantic/creative_activities_semantic_2.png","0","",""
"","","","","","image-button-response","74","448165","0.0-12.0-1.0-2.5","F42D2DF08BD943ADB2893569F9A78647","F42D2DF08BD943ADB2893569F9A78647","0198ba0f-eeaf-74cb-b130-7160e2f25ea2","0198b9d0-29d4-7df3-8625-4b4515841beb","{""num_scrambled_semantic"":""8"",""num_scrambled_causal"":""4"",""num_scrambled_schematic"":""4"",""participantId"":""F42D2DF08BD943ADB2893569F9A78647"",""assignmentId"":""0198ba0f-eeaf-74cb-b130-7160e2f25ea2"",""projectId"":""0198b9d0-29d4-7df3-8625-4b4515841beb""}","https://test12345.live/?num_scrambled_semantic=8&num_scrambled_causal=4&num_scrambled_schematic=4&participantId=F42D2DF08BD943ADB2893569F9A78647&assignmentId=0198ba0f-eeaf-74cb-b130-7160e2f25ea2&projectId=0198b9d0-29d4-7df3-8625-4b4515841beb","F42D2DF08BD943ADB2893569F9A78647-2025-08-17-22-48-06","","null","","[]","null","",""
"","","","","","image-button-response","75","452666","0.0-12.0-1.0-0.6","F42D2DF08BD943ADB2893569F9A78647","F42D2DF08BD943ADB2893569F9A78647","0198ba0f-eeaf-74cb-b130-7160e2f25ea2","0198b9d0-29d4-7df3-8625-4b4515841beb","{""num_scrambled_semantic"":""8"",""num_scrambled_causal"":""4"",""num_scrambled_schematic"":""4"",""participantId"":""F42D2DF08BD943ADB2893569F9A78647"",""assignmentId"":""0198ba0f-eeaf-74cb-b130-7160e2f25ea2"",""projectId"":""0198b9d0-29d4-7df3-8625-4b4515841beb""}","https://test12345.live/?num_scrambled_semantic=8&num_scrambled_causal=4&num_scrambled_schematic=4&participantId=F42D2DF08BD943ADB2893569F9A78647&assignmentId=0198ba0f-eeaf-74cb-b130-7160e2f25ea2&projectId=0198b9d0-29d4-7df3-8625-4b4515841beb","F42D2DF08BD943ADB2893569F9A78647-2025-08-17-22-48-06","","null","","images/semantic_sequence/creative_activities_semantic/creative_activities_semantic_9.png","null","",""
"","","","","","image-button-response","76","453920","0.0-12.0-1.0-1.6","F42D2DF08BD943ADB2893569F9A78647","F42D2DF08BD943ADB2893569F9A78647","0198ba0f-eeaf-74cb-b130-7160e2f25ea2","0198b9d0-29d4-7df3-8625-4b4515841beb","{""num_scrambled_semantic"":""8"",""num_scrambled_causal"":""4"",""num_scrambled_schematic"":""4"",""participantId"":""F42D2DF08BD943ADB2893569F9A78647"",""assignmentId"":""0198ba0f-eeaf-74cb-b130-7160e2f25ea2"",""projectId"":""0198b9d0-29d4-7df3-8625-4b4515841beb""}","https://test12345.live/?num_scrambled_semantic=8&num_scrambled_causal=4&num_scrambled_schematic=4&participantId=F42D2DF08BD943ADB2893569F9A78647&assignmentId=0198ba0f-eeaf-74cb-b130-7160e2f25ea2&projectId=0198b9d0-29d4-7df3-8625-4b4515841beb","F42D2DF08BD943ADB2893569F9A78647-2025-08-17-22-48-06","","1251","","images/semantic_sequence/creative_activities_semantic/creative_activities_semantic_9.png","0","",""
"","","","","","image-button-response","77","459321","0.0-12.0-1.0-2.6","F42D2DF08BD943ADB2893569F9A78647","F42D2DF08BD943ADB2893569F9A78647","0198ba0f-eeaf-74cb-b130-7160e2f25ea2","0198b9d0-29d4-7df3-8625-4b4515841beb","{""num_scrambled_semantic"":""8"",""num_scrambled_causal"":""4"",""num_scrambled_schematic"":""4"",""participantId"":""F42D2DF08BD943ADB2893569F9A78647"",""assignmentId"":""0198ba0f-eeaf-74cb-b130-7160e2f25ea2"",""projectId"":""0198b9d0-29d4-7df3-8625-4b4515841beb""}","https://test12345.live/?num_scrambled_semantic=8&num_scrambled_causal=4&num_scrambled_schematic=4&participantId=F42D2DF08BD943ADB2893569F9A78647&assignmentId=0198ba0f-eeaf-74cb-b130-7160e2f25ea2&projectId=0198b9d0-29d4-7df3-8625-4b4515841beb","F42D2DF08BD943ADB2893569F9A78647-2025-08-17-22-48-06","","null","","[]","null","",""
"","","","","","image-button-response","78","463823","0.0-12.0-1.0-0.7","F42D2DF08BD943ADB2893569F9A78647","F42D2DF08BD943ADB2893569F9A78647","0198ba0f-eeaf-74cb-b130-7160e2f25ea2","0198b9d0-29d4-7df3-8625-4b4515841beb","{""num_scrambled_semantic"":""8"",""num_scrambled_causal"":""4"",""num_scrambled_schematic"":""4"",""participantId"":""F42D2DF08BD943ADB2893569F9A78647"",""assignmentId"":""0198ba0f-eeaf-74cb-b130-7160e2f25ea2"",""projectId"":""0198b9d0-29d4-7df3-8625-4b4515841beb""}","https://test12345.live/?num_scrambled_semantic=8&num_scrambled_causal=4&num_scrambled_schematic=4&participantId=F42D2DF08BD943ADB2893569F9A78647&assignmentId=0198ba0f-eeaf-74cb-b130-7160e2f25ea2&projectId=0198b9d0-29d4-7df3-8625-4b4515841beb","F42D2DF08BD943ADB2893569F9A78647-2025-08-17-22-48-06","","null","","images/semantic_sequence/creative_activities_semantic/creative_activities_semantic_6.png","null","",""
"","","","","","image-button-response","79","464602","0.0-12.0-1.0-1.7","F42D2DF08BD943ADB2893569F9A78647","F42D2DF08BD943ADB2893569F9A78647","0198ba0f-eeaf-74cb-b130-7160e2f25ea2","0198b9d0-29d4-7df3-8625-4b4515841beb","{""num_scrambled_semantic"":""8"",""num_scrambled_causal"":""4"",""num_scrambled_schematic"":""4"",""participantId"":""F42D2DF08BD943ADB2893569F9A78647"",""assignmentId"":""0198ba0f-eeaf-74cb-b130-7160e2f25ea2"",""projectId"":""0198b9d0-29d4-7df3-8625-4b4515841beb""}","https://test12345.live/?num_scrambled_semantic=8&num_scrambled_causal=4&num_scrambled_schematic=4&participantId=F42D2DF08BD943ADB2893569F9A78647&assignmentId=0198ba0f-eeaf-74cb-b130-7160e2f25ea2&projectId=0198b9d0-29d4-7df3-8625-4b4515841beb","F42D2DF08BD943ADB2893569F9A78647-2025-08-17-22-48-06","","777","","images/semantic_sequence/creative_activities_semantic/creative_activities_semantic_6.png","0","",""
"","","","","","image-button-response","80","470003","0.0-12.0-1.0-2.7","F42D2DF08BD943ADB2893569F9A78647","F42D2DF08BD943ADB2893569F9A78647","0198ba0f-eeaf-74cb-b130-7160e2f25ea2","0198b9d0-29d4-7df3-8625-4b4515841beb","{""num_scrambled_semantic"":""8"",""num_scrambled_causal"":""4"",""num_scrambled_schematic"":""4"",""participantId"":""F42D2DF08BD943ADB2893569F9A78647"",""assignmentId"":""0198ba0f-eeaf-74cb-b130-7160e2f25ea2"",""projectId"":""0198b9d0-29d4-7df3-8625-4b4515841beb""}","https://test12345.live/?num_scrambled_semantic=8&num_scrambled_causal=4&num_scrambled_schematic=4&participantId=F42D2DF08BD943ADB2893569F9A78647&assignmentId=0198ba0f-eeaf-74cb-b130-7160e2f25ea2&projectId=0198b9d0-29d4-7df3-8625-4b4515841beb","F42D2DF08BD943ADB2893569F9A78647-2025-08-17-22-48-06","","null","","[]","null","",""
"","","","","","image-button-response","81","474505","0.0-12.0-1.0-0.8","F42D2DF08BD943ADB2893569F9A78647","F42D2DF08BD943ADB2893569F9A78647","0198ba0f-eeaf-74cb-b130-7160e2f25ea2","0198b9d0-29d4-7df3-8625-4b4515841beb","{""num_scrambled_semantic"":""8"",""num_scrambled_causal"":""4"",""num_scrambled_schematic"":""4"",""participantId"":""F42D2DF08BD943ADB2893569F9A78647"",""assignmentId"":""0198ba0f-eeaf-74cb-b130-7160e2f25ea2"",""projectId"":""0198b9d0-29d4-7df3-8625-4b4515841beb""}","https://test12345.live/?num_scrambled_semantic=8&num_scrambled_causal=4&num_scrambled_schematic=4&participantId=F42D2DF08BD943ADB2893569F9A78647&assignmentId=0198ba0f-eeaf-74cb-b130-7160e2f25ea2&projectId=0198b9d0-29d4-7df3-8625-4b4515841beb","F42D2DF08BD943ADB2893569F9A78647-2025-08-17-22-48-06","","null","","images/semantic_sequence/creative_activities_semantic/creative_activities_semantic_7.png","null","",""
"","","","","","image-button-response","82","475294","0.0-12.0-1.0-1.8","F42D2DF08BD943ADB2893569F9A78647","F42D2DF08BD943ADB2893569F9A78647","0198ba0f-eeaf-74cb-b130-7160e2f25ea2","0198b9d0-29d4-7df3-8625-4b4515841beb","{""num_scrambled_semantic"":""8"",""num_scrambled_causal"":""4"",""num_scrambled_schematic"":""4"",""participantId"":""F42D2DF08BD943ADB2893569F9A78647"",""assignmentId"":""0198ba0f-eeaf-74cb-b130-7160e2f25ea2"",""projectId"":""0198b9d0-29d4-7df3-8625-4b4515841beb""}","https://test12345.live/?num_scrambled_semantic=8&num_scrambled_causal=4&num_scrambled_schematic=4&participantId=F42D2DF08BD943ADB2893569F9A78647&assignmentId=0198ba0f-eeaf-74cb-b130-7160e2f25ea2&projectId=0198b9d0-29d4-7df3-8625-4b4515841beb","F42D2DF08BD943ADB2893569F9A78647-2025-08-17-22-48-06","","787","","images/semantic_sequence/creative_activities_semantic/creative_activities_semantic_7.png","0","",""
"","","","","","image-button-response","83","480696","0.0-12.0-1.0-2.8","F42D2DF08BD943ADB2893569F9A78647","F42D2DF08BD943ADB2893569F9A78647","0198ba0f-eeaf-74cb-b130-7160e2f25ea2","0198b9d0-29d4-7df3-8625-4b4515841beb","{""num_scrambled_semantic"":""8"",""num_scrambled_causal"":""4"",""num_scrambled_schematic"":""4"",""participantId"":""F42D2DF08BD943ADB2893569F9A78647"",""assignmentId"":""0198ba0f-eeaf-74cb-b130-7160e2f25ea2"",""projectId"":""0198b9d0-29d4-7df3-8625-4b4515841beb""}","https://test12345.live/?num_scrambled_semantic=8&num_scrambled_causal=4&num_scrambled_schematic=4&participantId=F42D2DF08BD943ADB2893569F9A78647&assignmentId=0198ba0f-eeaf-74cb-b130-7160e2f25ea2&projectId=0198b9d0-29d4-7df3-8625-4b4515841beb","F42D2DF08BD943ADB2893569F9A78647-2025-08-17-22-48-06","","null","","[]","null","",""
"","","","","","image-button-response","84","485197","0.0-12.0-1.0-0.9","F42D2DF08BD943ADB2893569F9A78647","F42D2DF08BD943ADB2893569F9A78647","0198ba0f-eeaf-74cb-b130-7160e2f25ea2","0198b9d0-29d4-7df3-8625-4b4515841beb","{""num_scrambled_semantic"":""8"",""num_scrambled_causal"":""4"",""num_scrambled_schematic"":""4"",""participantId"":""F42D2DF08BD943ADB2893569F9A78647"",""assignmentId"":""0198ba0f-eeaf-74cb-b130-7160e2f25ea2"",""projectId"":""0198b9d0-29d4-7df3-8625-4b4515841beb""}","https://test12345.live/?num_scrambled_semantic=8&num_scrambled_causal=4&num_scrambled_schematic=4&participantId=F42D2DF08BD943ADB2893569F9A78647&assignmentId=0198ba0f-eeaf-74cb-b130-7160e2f25ea2&projectId=0198b9d0-29d4-7df3-8625-4b4515841beb","F42D2DF08BD943ADB2893569F9A78647-2025-08-17-22-48-06","","null","","images/semantic_sequence/creative_activities_semantic/creative_activities_semantic_ten.png","null","",""
"","","","","","image-button-response","85","486531","0.0-12.0-1.0-1.9","F42D2DF08BD943ADB2893569F9A78647","F42D2DF08BD943ADB2893569F9A78647","0198ba0f-eeaf-74cb-b130-7160e2f25ea2","0198b9d0-29d4-7df3-8625-4b4515841beb","{""num_scrambled_semantic"":""8"",""num_scrambled_causal"":""4"",""num_scrambled_schematic"":""4"",""participantId"":""F42D2DF08BD943ADB2893569F9A78647"",""assignmentId"":""0198ba0f-eeaf-74cb-b130-7160e2f25ea2"",""projectId"":""0198b9d0-29d4-7df3-8625-4b4515841beb""}","https://test12345.live/?num_scrambled_semantic=8&num_scrambled_causal=4&num_scrambled_schematic=4&participantId=F42D2DF08BD943ADB2893569F9A78647&assignmentId=0198ba0f-eeaf-74cb-b130-7160e2f25ea2&projectId=0198b9d0-29d4-7df3-8625-4b4515841beb","F42D2DF08BD943ADB2893569F9A78647-2025-08-17-22-48-06","","1331","","images/semantic_sequence/creative_activities_semantic/creative_activities_semantic_ten.png","0","",""
"","","","","","image-button-response","86","491933","0.0-12.0-1.0-2.9","F42D2DF08BD943ADB2893569F9A78647","F42D2DF08BD943ADB2893569F9A78647","0198ba0f-eeaf-74cb-b130-7160e2f25ea2","0198b9d0-29d4-7df3-8625-4b4515841beb","{""num_scrambled_semantic"":""8"",""num_scrambled_causal"":""4"",""num_scrambled_schematic"":""4"",""participantId"":""F42D2DF08BD943ADB2893569F9A78647"",""assignmentId"":""0198ba0f-eeaf-74cb-b130-7160e2f25ea2"",""projectId"":""0198b9d0-29d4-7df3-8625-4b4515841beb""}","https://test12345.live/?num_scrambled_semantic=8&num_scrambled_causal=4&num_scrambled_schematic=4&participantId=F42D2DF08BD943ADB2893569F9A78647&assignmentId=0198ba0f-eeaf-74cb-b130-7160e2f25ea2&projectId=0198b9d0-29d4-7df3-8625-4b4515841beb","F42D2DF08BD943ADB2893569F9A78647-2025-08-17-22-48-06","","null","","[]","null","",""
"","","","","","html-audio-response","87","610512","0.0-13.0","F42D2DF08BD943ADB2893569F9A78647","F42D2DF08BD943ADB2893569F9A78647","0198ba0f-eeaf-74cb-b130-7160e2f25ea2","0198b9d0-29d4-7df3-8625-4b4515841beb","{""num_scrambled_semantic"":""8"",""num_scrambled_causal"":""4"",""num_scrambled_schematic"":""4"",""participantId"":""F42D2DF08BD943ADB2893569F9A78647"",""assignmentId"":""0198ba0f-eeaf-74cb-b130-7160e2f25ea2"",""projectId"":""0198b9d0-29d4-7df3-8625-4b4515841beb""}","https://test12345.live/?num_scrambled_semantic=8&num_scrambled_causal=4&num_scrambled_schematic=4&participantId=F42D2DF08BD943ADB2893569F9A78647&assignmentId=0198ba0f-eeaf-74cb-b130-7160e2f25ea2&projectId=0198b9d0-29d4-7df3-8625-4b4515841beb","F42D2DF08BD943ADB2893569F9A78647-2025-08-17-22-48-06","","17033","","[""<span style=\""color: red; font-size: 24px\""> NOW RECORDING</span><p>Please say out loud all the images you saw, as many as you can remember. The images can be said in any order.</p>""]","","7","creative_activities_semantic"
"","","","","","image-button-response","88","616520","0.0-14.0-0.0","F42D2DF08BD943ADB2893569F9A78647","F42D2DF08BD943ADB2893569F9A78647","0198ba0f-eeaf-74cb-b130-7160e2f25ea2","0198b9d0-29d4-7df3-8625-4b4515841beb","{""num_scrambled_semantic"":""8"",""num_scrambled_causal"":""4"",""num_scrambled_schematic"":""4"",""participantId"":""F42D2DF08BD943ADB2893569F9A78647"",""assignmentId"":""0198ba0f-eeaf-74cb-b130-7160e2f25ea2"",""projectId"":""0198b9d0-29d4-7df3-8625-4b4515841beb""}","https://test12345.live/?num_scrambled_semantic=8&num_scrambled_causal=4&num_scrambled_schematic=4&participantId=F42D2DF08BD943ADB2893569F9A78647&assignmentId=0198ba0f-eeaf-74cb-b130-7160e2f25ea2&projectId=0198b9d0-29d4-7df3-8625-4b4515841beb","F42D2DF08BD943ADB2893569F9A78647-2025-08-17-22-48-06","","null","","images/causal_sequence/package_causal/package_causal_0.png","null","",""
"","","","","","image-button-response","89","621022","0.0-14.0-1.0-0.0","F42D2DF08BD943ADB2893569F9A78647","F42D2DF08BD943ADB2893569F9A78647","0198ba0f-eeaf-74cb-b130-7160e2f25ea2","0198b9d0-29d4-7df3-8625-4b4515841beb","{""num_scrambled_semantic"":""8"",""num_scrambled_causal"":""4"",""num_scrambled_schematic"":""4"",""participantId"":""F42D2DF08BD943ADB2893569F9A78647"",""assignmentId"":""0198ba0f-eeaf-74cb-b130-7160e2f25ea2"",""projectId"":""0198b9d0-29d4-7df3-8625-4b4515841beb""}","https://test12345.live/?num_scrambled_semantic=8&num_scrambled_causal=4&num_scrambled_schematic=4&participantId=F42D2DF08BD943ADB2893569F9A78647&assignmentId=0198ba0f-eeaf-74cb-b130-7160e2f25ea2&projectId=0198b9d0-29d4-7df3-8625-4b4515841beb","F42D2DF08BD943ADB2893569F9A78647-2025-08-17-22-48-06","","null","","images/causal_sequence/package_causal/package_causal_1.png","null","",""
"","","","","","image-button-response","90","623714","0.0-14.0-1.0-1.0","F42D2DF08BD943ADB2893569F9A78647","F42D2DF08BD943ADB2893569F9A78647","0198ba0f-eeaf-74cb-b130-7160e2f25ea2","0198b9d0-29d4-7df3-8625-4b4515841beb","{""num_scrambled_semantic"":""8"",""num_scrambled_causal"":""4"",""num_scrambled_schematic"":""4"",""participantId"":""F42D2DF08BD943ADB2893569F9A78647"",""assignmentId"":""0198ba0f-eeaf-74cb-b130-7160e2f25ea2"",""projectId"":""0198b9d0-29d4-7df3-8625-4b4515841beb""}","https://test12345.live/?num_scrambled_semantic=8&num_scrambled_causal=4&num_scrambled_schematic=4&participantId=F42D2DF08BD943ADB2893569F9A78647&assignmentId=0198ba0f-eeaf-74cb-b130-7160e2f25ea2&projectId=0198b9d0-29d4-7df3-8625-4b4515841beb","F42D2DF08BD943ADB2893569F9A78647-2025-08-17-22-48-06","","2690","","images/causal_sequence/package_causal/package_causal_1.png","0","",""
"","","","","","image-button-response","91","629116","0.0-14.0-1.0-2.0","F42D2DF08BD943ADB2893569F9A78647","F42D2DF08BD943ADB2893569F9A78647","0198ba0f-eeaf-74cb-b130-7160e2f25ea2","0198b9d0-29d4-7df3-8625-4b4515841beb","{""num_scrambled_semantic"":""8"",""num_scrambled_causal"":""4"",""num_scrambled_schematic"":""4"",""participantId"":""F42D2DF08BD943ADB2893569F9A78647"",""assignmentId"":""0198ba0f-eeaf-74cb-b130-7160e2f25ea2"",""projectId"":""0198b9d0-29d4-7df3-8625-4b4515841beb""}","https://test12345.live/?num_scrambled_semantic=8&num_scrambled_causal=4&num_scrambled_schematic=4&participantId=F42D2DF08BD943ADB2893569F9A78647&assignmentId=0198ba0f-eeaf-74cb-b130-7160e2f25ea2&projectId=0198b9d0-29d4-7df3-8625-4b4515841beb","F42D2DF08BD943ADB2893569F9A78647-2025-08-17-22-48-06","","null","","[]","null","",""
"","","","","","image-button-response","92","633618","0.0-14.0-1.0-0.1","F42D2DF08BD943ADB2893569F9A78647","F42D2DF08BD943ADB2893569F9A78647","0198ba0f-eeaf-74cb-b130-7160e2f25ea2","0198b9d0-29d4-7df3-8625-4b4515841beb","{""num_scrambled_semantic"":""8"",""num_scrambled_causal"":""4"",""num_scrambled_schematic"":""4"",""participantId"":""F42D2DF08BD943ADB2893569F9A78647"",""assignmentId"":""0198ba0f-eeaf-74cb-b130-7160e2f25ea2"",""projectId"":""0198b9d0-29d4-7df3-8625-4b4515841beb""}","https://test12345.live/?num_scrambled_semantic=8&num_scrambled_causal=4&num_scrambled_schematic=4&participantId=F42D2DF08BD943ADB2893569F9A78647&assignmentId=0198ba0f-eeaf-74cb-b130-7160e2f25ea2&projectId=0198b9d0-29d4-7df3-8625-4b4515841beb","F42D2DF08BD943ADB2893569F9A78647-2025-08-17-22-48-06","","null","","images/causal_sequence/package_causal/package_causal_2.png","null","",""
"","","","","","image-button-response","93","635767","0.0-14.0-1.0-1.1","F42D2DF08BD943ADB2893569F9A78647","F42D2DF08BD943ADB2893569F9A78647","0198ba0f-eeaf-74cb-b130-7160e2f25ea2","0198b9d0-29d4-7df3-8625-4b4515841beb","{""num_scrambled_semantic"":""8"",""num_scrambled_causal"":""4"",""num_scrambled_schematic"":""4"",""participantId"":""F42D2DF08BD943ADB2893569F9A78647"",""assignmentId"":""0198ba0f-eeaf-74cb-b130-7160e2f25ea2"",""projectId"":""0198b9d0-29d4-7df3-8625-4b4515841beb""}","https://test12345.live/?num_scrambled_semantic=8&num_scrambled_causal=4&num_scrambled_schematic=4&participantId=F42D2DF08BD943ADB2893569F9A78647&assignmentId=0198ba0f-eeaf-74cb-b130-7160e2f25ea2&projectId=0198b9d0-29d4-7df3-8625-4b4515841beb","F42D2DF08BD943ADB2893569F9A78647-2025-08-17-22-48-06","","2147","","images/causal_sequence/package_causal/package_causal_2.png","0","",""
"","","","","","image-button-response","94","641169","0.0-14.0-1.0-2.1","F42D2DF08BD943ADB2893569F9A78647","F42D2DF08BD943ADB2893569F9A78647","0198ba0f-eeaf-74cb-b130-7160e2f25ea2","0198b9d0-29d4-7df3-8625-4b4515841beb","{""num_scrambled_semantic"":""8"",""num_scrambled_causal"":""4"",""num_scrambled_schematic"":""4"",""participantId"":""F42D2DF08BD943ADB2893569F9A78647"",""assignmentId"":""0198ba0f-eeaf-74cb-b130-7160e2f25ea2"",""projectId"":""0198b9d0-29d4-7df3-8625-4b4515841beb""}","https://test12345.live/?num_scrambled_semantic=8&num_scrambled_causal=4&num_scrambled_schematic=4&participantId=F42D2DF08BD943ADB2893569F9A78647&assignmentId=0198ba0f-eeaf-74cb-b130-7160e2f25ea2&projectId=0198b9d0-29d4-7df3-8625-4b4515841beb","F42D2DF08BD943ADB2893569F9A78647-2025-08-17-22-48-06","","null","","[]","null","",""
"","","","","","image-button-response","95","645671","0.0-14.0-1.0-0.2","F42D2DF08BD943ADB2893569F9A78647","F42D2DF08BD943ADB2893569F9A78647","0198ba0f-eeaf-74cb-b130-7160e2f25ea2","0198b9d0-29d4-7df3-8625-4b4515841beb","{""num_scrambled_semantic"":""8"",""num_scrambled_causal"":""4"",""num_scrambled_schematic"":""4"",""participantId"":""F42D2DF08BD943ADB2893569F9A78647"",""assignmentId"":""0198ba0f-eeaf-74cb-b130-7160e2f25ea2"",""projectId"":""0198b9d0-29d4-7df3-8625-4b4515841beb""}","https://test12345.live/?num_scrambled_semantic=8&num_scrambled_causal=4&num_scrambled_schematic=4&participantId=F42D2DF08BD943ADB2893569F9A78647&assignmentId=0198ba0f-eeaf-74cb-b130-7160e2f25ea2&projectId=0198b9d0-29d4-7df3-8625-4b4515841beb","F42D2DF08BD943ADB2893569F9A78647-2025-08-17-22-48-06","","null","","images/causal_sequence/package_causal/package_causal_3.png","null","",""
"","","","","","image-button-response","96","646742","0.0-14.0-1.0-1.2","F42D2DF08BD943ADB2893569F9A78647","F42D2DF08BD943ADB2893569F9A78647","0198ba0f-eeaf-74cb-b130-7160e2f25ea2","0198b9d0-29d4-7df3-8625-4b4515841beb","{""num_scrambled_semantic"":""8"",""num_scrambled_causal"":""4"",""num_scrambled_schematic"":""4"",""participantId"":""F42D2DF08BD943ADB2893569F9A78647"",""assignmentId"":""0198ba0f-eeaf-74cb-b130-7160e2f25ea2"",""projectId"":""0198b9d0-29d4-7df3-8625-4b4515841beb""}","https://test12345.live/?num_scrambled_semantic=8&num_scrambled_causal=4&num_scrambled_schematic=4&participantId=F42D2DF08BD943ADB2893569F9A78647&assignmentId=0198ba0f-eeaf-74cb-b130-7160e2f25ea2&projectId=0198b9d0-29d4-7df3-8625-4b4515841beb","F42D2DF08BD943ADB2893569F9A78647-2025-08-17-22-48-06","","1068","","images/causal_sequence/package_causal/package_causal_3.png","0","",""
"","","","","","image-button-response","97","652145","0.0-14.0-1.0-2.2","F42D2DF08BD943ADB2893569F9A78647","F42D2DF08BD943ADB2893569F9A78647","0198ba0f-eeaf-74cb-b130-7160e2f25ea2","0198b9d0-29d4-7df3-8625-4b4515841beb","{""num_scrambled_semantic"":""8"",""num_scrambled_causal"":""4"",""num_scrambled_schematic"":""4"",""participantId"":""F42D2DF08BD943ADB2893569F9A78647"",""assignmentId"":""0198ba0f-eeaf-74cb-b130-7160e2f25ea2"",""projectId"":""0198b9d0-29d4-7df3-8625-4b4515841beb""}","https://test12345.live/?num_scrambled_semantic=8&num_scrambled_causal=4&num_scrambled_schematic=4&participantId=F42D2DF08BD943ADB2893569F9A78647&assignmentId=0198ba0f-eeaf-74cb-b130-7160e2f25ea2&projectId=0198b9d0-29d4-7df3-8625-4b4515841beb","F42D2DF08BD943ADB2893569F9A78647-2025-08-17-22-48-06","","null","","[]","null","",""
"","","","","","image-button-response","98","656647","0.0-14.0-1.0-0.3","F42D2DF08BD943ADB2893569F9A78647","F42D2DF08BD943ADB2893569F9A78647","0198ba0f-eeaf-74cb-b130-7160e2f25ea2","0198b9d0-29d4-7df3-8625-4b4515841beb","{""num_scrambled_semantic"":""8"",""num_scrambled_causal"":""4"",""num_scrambled_schematic"":""4"",""participantId"":""F42D2DF08BD943ADB2893569F9A78647"",""assignmentId"":""0198ba0f-eeaf-74cb-b130-7160e2f25ea2"",""projectId"":""0198b9d0-29d4-7df3-8625-4b4515841beb""}","https://test12345.live/?num_scrambled_semantic=8&num_scrambled_causal=4&num_scrambled_schematic=4&participantId=F42D2DF08BD943ADB2893569F9A78647&assignmentId=0198ba0f-eeaf-74cb-b130-7160e2f25ea2&projectId=0198b9d0-29d4-7df3-8625-4b4515841beb","F42D2DF08BD943ADB2893569F9A78647-2025-08-17-22-48-06","","null","","images/causal_sequence/package_causal/package_causal_4.png","null","",""
"","","","","","image-button-response","99","658788","0.0-14.0-1.0-1.3","F42D2DF08BD943ADB2893569F9A78647","F42D2DF08BD943ADB2893569F9A78647","0198ba0f-eeaf-74cb-b130-7160e2f25ea2","0198b9d0-29d4-7df3-8625-4b4515841beb","{""num_scrambled_semantic"":""8"",""num_scrambled_causal"":""4"",""num_scrambled_schematic"":""4"",""participantId"":""F42D2DF08BD943ADB2893569F9A78647"",""assignmentId"":""0198ba0f-eeaf-74cb-b130-7160e2f25ea2"",""projectId"":""0198b9d0-29d4-7df3-8625-4b4515841beb""}","https://test12345.live/?num_scrambled_semantic=8&num_scrambled_causal=4&num_scrambled_schematic=4&participantId=F42D2DF08BD943ADB2893569F9A78647&assignmentId=0198ba0f-eeaf-74cb-b130-7160e2f25ea2&projectId=0198b9d0-29d4-7df3-8625-4b4515841beb","F42D2DF08BD943ADB2893569F9A78647-2025-08-17-22-48-06","","2139","","images/causal_sequence/package_causal/package_causal_4.png","1","",""
"","","","","","image-button-response","100","664190","0.0-14.0-1.0-2.3","F42D2DF08BD943ADB2893569F9A78647","F42D2DF08BD943ADB2893569F9A78647","0198ba0f-eeaf-74cb-b130-7160e2f25ea2","0198b9d0-29d4-7df3-8625-4b4515841beb","{""num_scrambled_semantic"":""8"",""num_scrambled_causal"":""4"",""num_scrambled_schematic"":""4"",""participantId"":""F42D2DF08BD943ADB2893569F9A78647"",""assignmentId"":""0198ba0f-eeaf-74cb-b130-7160e2f25ea2"",""projectId"":""0198b9d0-29d4-7df3-8625-4b4515841beb""}","https://test12345.live/?num_scrambled_semantic=8&num_scrambled_causal=4&num_scrambled_schematic=4&participantId=F42D2DF08BD943ADB2893569F9A78647&assignmentId=0198ba0f-eeaf-74cb-b130-7160e2f25ea2&projectId=0198b9d0-29d4-7df3-8625-4b4515841beb","F42D2DF08BD943ADB2893569F9A78647-2025-08-17-22-48-06","","null","","[]","null","",""
"","","","","","image-button-response","101","668692","0.0-14.0-1.0-0.4","F42D2DF08BD943ADB2893569F9A78647","F42D2DF08BD943ADB2893569F9A78647","0198ba0f-eeaf-74cb-b130-7160e2f25ea2","0198b9d0-29d4-7df3-8625-4b4515841beb","{""num_scrambled_semantic"":""8"",""num_scrambled_causal"":""4"",""num_scrambled_schematic"":""4"",""participantId"":""F42D2DF08BD943ADB2893569F9A78647"",""assignmentId"":""0198ba0f-eeaf-74cb-b130-7160e2f25ea2"",""projectId"":""0198b9d0-29d4-7df3-8625-4b4515841beb""}","https://test12345.live/?num_scrambled_semantic=8&num_scrambled_causal=4&num_scrambled_schematic=4&participantId=F42D2DF08BD943ADB2893569F9A78647&assignmentId=0198ba0f-eeaf-74cb-b130-7160e2f25ea2&projectId=0198b9d0-29d4-7df3-8625-4b4515841beb","F42D2DF08BD943ADB2893569F9A78647-2025-08-17-22-48-06","","null","","images/causal_sequence/package_causal/package_causal_5.png","null","",""
"","","","","","image-button-response","102","669324","0.0-14.0-1.0-1.4","F42D2DF08BD943ADB2893569F9A78647","F42D2DF08BD943ADB2893569F9A78647","0198ba0f-eeaf-74cb-b130-7160e2f25ea2","0198b9d0-29d4-7df3-8625-4b4515841beb","{""num_scrambled_semantic"":""8"",""num_scrambled_causal"":""4"",""num_scrambled_schematic"":""4"",""participantId"":""F42D2DF08BD943ADB2893569F9A78647"",""assignmentId"":""0198ba0f-eeaf-74cb-b130-7160e2f25ea2"",""projectId"":""0198b9d0-29d4-7df3-8625-4b4515841beb""}","https://test12345.live/?num_scrambled_semantic=8&num_scrambled_causal=4&num_scrambled_schematic=4&participantId=F42D2DF08BD943ADB2893569F9A78647&assignmentId=0198ba0f-eeaf-74cb-b130-7160e2f25ea2&projectId=0198b9d0-29d4-7df3-8625-4b4515841beb","F42D2DF08BD943ADB2893569F9A78647-2025-08-17-22-48-06","","630","","images/causal_sequence/package_causal/package_causal_5.png","0","",""
"","","","","","image-button-response","103","674726","0.0-14.0-1.0-2.4","F42D2DF08BD943ADB2893569F9A78647","F42D2DF08BD943ADB2893569F9A78647","0198ba0f-eeaf-74cb-b130-7160e2f25ea2","0198b9d0-29d4-7df3-8625-4b4515841beb","{""num_scrambled_semantic"":""8"",""num_scrambled_causal"":""4"",""num_scrambled_schematic"":""4"",""participantId"":""F42D2DF08BD943ADB2893569F9A78647"",""assignmentId"":""0198ba0f-eeaf-74cb-b130-7160e2f25ea2"",""projectId"":""0198b9d0-29d4-7df3-8625-4b4515841beb""}","https://test12345.live/?num_scrambled_semantic=8&num_scrambled_causal=4&num_scrambled_schematic=4&participantId=F42D2DF08BD943ADB2893569F9A78647&assignmentId=0198ba0f-eeaf-74cb-b130-7160e2f25ea2&projectId=0198b9d0-29d4-7df3-8625-4b4515841beb","F42D2DF08BD943ADB2893569F9A78647-2025-08-17-22-48-06","","null","","[]","null","",""
"","","","","","image-button-response","104","679228","0.0-14.0-1.0-0.5","F42D2DF08BD943ADB2893569F9A78647","F42D2DF08BD943ADB2893569F9A78647","0198ba0f-eeaf-74cb-b130-7160e2f25ea2","0198b9d0-29d4-7df3-8625-4b4515841beb","{""num_scrambled_semantic"":""8"",""num_scrambled_causal"":""4"",""num_scrambled_schematic"":""4"",""participantId"":""F42D2DF08BD943ADB2893569F9A78647"",""assignmentId"":""0198ba0f-eeaf-74cb-b130-7160e2f25ea2"",""projectId"":""0198b9d0-29d4-7df3-8625-4b4515841beb""}","https://test12345.live/?num_scrambled_semantic=8&num_scrambled_causal=4&num_scrambled_schematic=4&participantId=F42D2DF08BD943ADB2893569F9A78647&assignmentId=0198ba0f-eeaf-74cb-b130-7160e2f25ea2&projectId=0198b9d0-29d4-7df3-8625-4b4515841beb","F42D2DF08BD943ADB2893569F9A78647-2025-08-17-22-48-06","","null","","images/causal_sequence/package_causal/package_causal_6.png","null","",""
"","","","","","image-button-response","105","680377","0.0-14.0-1.0-1.5","F42D2DF08BD943ADB2893569F9A78647","F42D2DF08BD943ADB2893569F9A78647","0198ba0f-eeaf-74cb-b130-7160e2f25ea2","0198b9d0-29d4-7df3-8625-4b4515841beb","{""num_scrambled_semantic"":""8"",""num_scrambled_causal"":""4"",""num_scrambled_schematic"":""4"",""participantId"":""F42D2DF08BD943ADB2893569F9A78647"",""assignmentId"":""0198ba0f-eeaf-74cb-b130-7160e2f25ea2"",""projectId"":""0198b9d0-29d4-7df3-8625-4b4515841beb""}","https://test12345.live/?num_scrambled_semantic=8&num_scrambled_causal=4&num_scrambled_schematic=4&participantId=F42D2DF08BD943ADB2893569F9A78647&assignmentId=0198ba0f-eeaf-74cb-b130-7160e2f25ea2&projectId=0198b9d0-29d4-7df3-8625-4b4515841beb","F42D2DF08BD943ADB2893569F9A78647-2025-08-17-22-48-06","","1147","","images/causal_sequence/package_causal/package_causal_6.png","0","",""
"","","","","","image-button-response","106","685779","0.0-14.0-1.0-2.5","F42D2DF08BD943ADB2893569F9A78647","F42D2DF08BD943ADB2893569F9A78647","0198ba0f-eeaf-74cb-b130-7160e2f25ea2","0198b9d0-29d4-7df3-8625-4b4515841beb","{""num_scrambled_semantic"":""8"",""num_scrambled_causal"":""4"",""num_scrambled_schematic"":""4"",""participantId"":""F42D2DF08BD943ADB2893569F9A78647"",""assignmentId"":""0198ba0f-eeaf-74cb-b130-7160e2f25ea2"",""projectId"":""0198b9d0-29d4-7df3-8625-4b4515841beb""}","https://test12345.live/?num_scrambled_semantic=8&num_scrambled_causal=4&num_scrambled_schematic=4&participantId=F42D2DF08BD943ADB2893569F9A78647&assignmentId=0198ba0f-eeaf-74cb-b130-7160e2f25ea2&projectId=0198b9d0-29d4-7df3-8625-4b4515841beb","F42D2DF08BD943ADB2893569F9A78647-2025-08-17-22-48-06","","null","","[]","null","",""
"","","","","","image-button-response","107","690280","0.0-14.0-1.0-0.6","F42D2DF08BD943ADB2893569F9A78647","F42D2DF08BD943ADB2893569F9A78647","0198ba0f-eeaf-74cb-b130-7160e2f25ea2","0198b9d0-29d4-7df3-8625-4b4515841beb","{""num_scrambled_semantic"":""8"",""num_scrambled_causal"":""4"",""num_scrambled_schematic"":""4"",""participantId"":""F42D2DF08BD943ADB2893569F9A78647"",""assignmentId"":""0198ba0f-eeaf-74cb-b130-7160e2f25ea2"",""projectId"":""0198b9d0-29d4-7df3-8625-4b4515841beb""}","https://test12345.live/?num_scrambled_semantic=8&num_scrambled_causal=4&num_scrambled_schematic=4&participantId=F42D2DF08BD943ADB2893569F9A78647&assignmentId=0198ba0f-eeaf-74cb-b130-7160e2f25ea2&projectId=0198b9d0-29d4-7df3-8625-4b4515841beb","F42D2DF08BD943ADB2893569F9A78647-2025-08-17-22-48-06","","null","","images/causal_sequence/package_causal/package_causal_7.png","null","",""
"","","","","","image-button-response","108","691471","0.0-14.0-1.0-1.6","F42D2DF08BD943ADB2893569F9A78647","F42D2DF08BD943ADB2893569F9A78647","0198ba0f-eeaf-74cb-b130-7160e2f25ea2","0198b9d0-29d4-7df3-8625-4b4515841beb","{""num_scrambled_semantic"":""8"",""num_scrambled_causal"":""4"",""num_scrambled_schematic"":""4"",""participantId"":""F42D2DF08BD943ADB2893569F9A78647"",""assignmentId"":""0198ba0f-eeaf-74cb-b130-7160e2f25ea2"",""projectId"":""0198b9d0-29d4-7df3-8625-4b4515841beb""}","https://test12345.live/?num_scrambled_semantic=8&num_scrambled_causal=4&num_scrambled_schematic=4&participantId=F42D2DF08BD943ADB2893569F9A78647&assignmentId=0198ba0f-eeaf-74cb-b130-7160e2f25ea2&projectId=0198b9d0-29d4-7df3-8625-4b4515841beb","F42D2DF08BD943ADB2893569F9A78647-2025-08-17-22-48-06","","1188","","images/causal_sequence/package_causal/package_causal_7.png","0","",""
"","","","","","image-button-response","109","696873","0.0-14.0-1.0-2.6","F42D2DF08BD943ADB2893569F9A78647","F42D2DF08BD943ADB2893569F9A78647","0198ba0f-eeaf-74cb-b130-7160e2f25ea2","0198b9d0-29d4-7df3-8625-4b4515841beb","{""num_scrambled_semantic"":""8"",""num_scrambled_causal"":""4"",""num_scrambled_schematic"":""4"",""participantId"":""F42D2DF08BD943ADB2893569F9A78647"",""assignmentId"":""0198ba0f-eeaf-74cb-b130-7160e2f25ea2"",""projectId"":""0198b9d0-29d4-7df3-8625-4b4515841beb""}","https://test12345.live/?num_scrambled_semantic=8&num_scrambled_causal=4&num_scrambled_schematic=4&participantId=F42D2DF08BD943ADB2893569F9A78647&assignmentId=0198ba0f-eeaf-74cb-b130-7160e2f25ea2&projectId=0198b9d0-29d4-7df3-8625-4b4515841beb","F42D2DF08BD943ADB2893569F9A78647-2025-08-17-22-48-06","","null","","[]","null","",""
"","","","","","image-button-response","110","701374","0.0-14.0-1.0-0.7","F42D2DF08BD943ADB2893569F9A78647","F42D2DF08BD943ADB2893569F9A78647","0198ba0f-eeaf-74cb-b130-7160e2f25ea2","0198b9d0-29d4-7df3-8625-4b4515841beb","{""num_scrambled_semantic"":""8"",""num_scrambled_causal"":""4"",""num_scrambled_schematic"":""4"",""participantId"":""F42D2DF08BD943ADB2893569F9A78647"",""assignmentId"":""0198ba0f-eeaf-74cb-b130-7160e2f25ea2"",""projectId"":""0198b9d0-29d4-7df3-8625-4b4515841beb""}","https://test12345.live/?num_scrambled_semantic=8&num_scrambled_causal=4&num_scrambled_schematic=4&participantId=F42D2DF08BD943ADB2893569F9A78647&assignmentId=0198ba0f-eeaf-74cb-b130-7160e2f25ea2&projectId=0198b9d0-29d4-7df3-8625-4b4515841beb","F42D2DF08BD943ADB2893569F9A78647-2025-08-17-22-48-06","","null","","images/causal_sequence/package_causal/package_causal_8.png","null","",""
"","","","","","image-button-response","111","702368","0.0-14.0-1.0-1.7","F42D2DF08BD943ADB2893569F9A78647","F42D2DF08BD943ADB2893569F9A78647","0198ba0f-eeaf-74cb-b130-7160e2f25ea2","0198b9d0-29d4-7df3-8625-4b4515841beb","{""num_scrambled_semantic"":""8"",""num_scrambled_causal"":""4"",""num_scrambled_schematic"":""4"",""participantId"":""F42D2DF08BD943ADB2893569F9A78647"",""assignmentId"":""0198ba0f-eeaf-74cb-b130-7160e2f25ea2"",""projectId"":""0198b9d0-29d4-7df3-8625-4b4515841beb""}","https://test12345.live/?num_scrambled_semantic=8&num_scrambled_causal=4&num_scrambled_schematic=4&participantId=F42D2DF08BD943ADB2893569F9A78647&assignmentId=0198ba0f-eeaf-74cb-b130-7160e2f25ea2&projectId=0198b9d0-29d4-7df3-8625-4b4515841beb","F42D2DF08BD943ADB2893569F9A78647-2025-08-17-22-48-06","","991","","images/causal_sequence/package_causal/package_causal_8.png","0","",""
"","","","","","image-button-response","112","707770","0.0-14.0-1.0-2.7","F42D2DF08BD943ADB2893569F9A78647","F42D2DF08BD943ADB2893569F9A78647","0198ba0f-eeaf-74cb-b130-7160e2f25ea2","0198b9d0-29d4-7df3-8625-4b4515841beb","{""num_scrambled_semantic"":""8"",""num_scrambled_causal"":""4"",""num_scrambled_schematic"":""4"",""participantId"":""F42D2DF08BD943ADB2893569F9A78647"",""assignmentId"":""0198ba0f-eeaf-74cb-b130-7160e2f25ea2"",""projectId"":""0198b9d0-29d4-7df3-8625-4b4515841beb""}","https://test12345.live/?num_scrambled_semantic=8&num_scrambled_causal=4&num_scrambled_schematic=4&participantId=F42D2DF08BD943ADB2893569F9A78647&assignmentId=0198ba0f-eeaf-74cb-b130-7160e2f25ea2&projectId=0198b9d0-29d4-7df3-8625-4b4515841beb","F42D2DF08BD943ADB2893569F9A78647-2025-08-17-22-48-06","","null","","[]","null","",""
"","","","","","image-button-response","113","712271","0.0-14.0-1.0-0.8","F42D2DF08BD943ADB2893569F9A78647","F42D2DF08BD943ADB2893569F9A78647","0198ba0f-eeaf-74cb-b130-7160e2f25ea2","0198b9d0-29d4-7df3-8625-4b4515841beb","{""num_scrambled_semantic"":""8"",""num_scrambled_causal"":""4"",""num_scrambled_schematic"":""4"",""participantId"":""F42D2DF08BD943ADB2893569F9A78647"",""assignmentId"":""0198ba0f-eeaf-74cb-b130-7160e2f25ea2"",""projectId"":""0198b9d0-29d4-7df3-8625-4b4515841beb""}","https://test12345.live/?num_scrambled_semantic=8&num_scrambled_causal=4&num_scrambled_schematic=4&participantId=F42D2DF08BD943ADB2893569F9A78647&assignmentId=0198ba0f-eeaf-74cb-b130-7160e2f25ea2&projectId=0198b9d0-29d4-7df3-8625-4b4515841beb","F42D2DF08BD943ADB2893569F9A78647-2025-08-17-22-48-06","","null","","images/causal_sequence/package_causal/package_causal_9.png","null","",""
"","","","","","image-button-response","114","714118","0.0-14.0-1.0-1.8","F42D2DF08BD943ADB2893569F9A78647","F42D2DF08BD943ADB2893569F9A78647","0198ba0f-eeaf-74cb-b130-7160e2f25ea2","0198b9d0-29d4-7df3-8625-4b4515841beb","{""num_scrambled_semantic"":""8"",""num_scrambled_causal"":""4"",""num_scrambled_schematic"":""4"",""participantId"":""F42D2DF08BD943ADB2893569F9A78647"",""assignmentId"":""0198ba0f-eeaf-74cb-b130-7160e2f25ea2"",""projectId"":""0198b9d0-29d4-7df3-8625-4b4515841beb""}","https://test12345.live/?num_scrambled_semantic=8&num_scrambled_causal=4&num_scrambled_schematic=4&participantId=F42D2DF08BD943ADB2893569F9A78647&assignmentId=0198ba0f-eeaf-74cb-b130-7160e2f25ea2&projectId=0198b9d0-29d4-7df3-8625-4b4515841beb","F42D2DF08BD943ADB2893569F9A78647-2025-08-17-22-48-06","","1844","","images/causal_sequence/package_causal/package_causal_9.png","0","",""
