"success","timeout","failed_images","failed_audio","failed_video","trial_type","trial_index","time_elapsed","internal_node_id","subject","subject_id","study_id","session_id","urlvar","current_url","audio_id","view_history","rt","device_id","stimulus","response","estimated_stimulus_onset","seq_name"
"true","false","[]","[]","[]","preload","0","31609","0.0-0.0","F91D4B22CBCF44D2AFEF7E1320B30F57","F91D4B22CBCF44D2AFEF7E1320B30F57","0198ba0d-611b-7b49-ae2c-9f2d2061eeec","0198b9d0-29d4-7df3-8625-4b4515841beb","{""num_scrambled_semantic"":""8"",""num_scrambled_causal"":""4"",""num_scrambled_schematic"":""4"",""participantId"":""F91D4B22CBCF44D2AFEF7E1320B30F57"",""assignmentId"":""0198ba0d-611b-7b49-ae2c-9f2d2061eeec"",""projectId"":""0198b9d0-29d4-7df3-8625-4b4515841beb""}","https://test12345.live/?num_scrambled_semantic=8&num_scrambled_causal=4&num_scrambled_schematic=4&participantId=F91D4B22CBCF44D2AFEF7E1320B30F57&assignmentId=0198ba0d-611b-7b49-ae2c-9f2d2061eeec&projectId=0198b9d0-29d4-7df3-8625-4b4515841beb","F91D4B22CBCF44D2AFEF7E1320B30F57-2025-08-17-22-36-19","","","","","","",""
"","","","","","instructions","1","397719","0.0-1.0","F91D4B22CBCF44D2AFEF7E1320B30F57","F91D4B22CBCF44D2AFEF7E1320B30F57","0198ba0d-611b-7b49-ae2c-9f2d2061eeec","0198b9d0-29d4-7df3-8625-4b4515841beb","{""num_scrambled_semantic"":""8"",""num_scrambled_causal"":""4"",""num_scrambled_schematic"":""4"",""participantId"":""F91D4B22CBCF44D2AFEF7E1320B30F57"",""assignmentId"":""0198ba0d-611b-7b49-ae2c-9f2d2061eeec"",""projectId"":""0198b9d0-29d4-7df3-8625-4b4515841beb""}","https://test12345.live/?num_scrambled_semantic=8&num_scrambled_causal=4&num_scrambled_schematic=4&participantId=F91D4B22CBCF44D2AFEF7E1320B30F57&assignmentId=0198ba0d-611b-7b49-ae2c-9f2d2061eeec&projectId=0198b9d0-29d4-7df3-8625-4b4515841beb","F91D4B22CBCF44D2AFEF7E1320B30F57-2025-08-17-22-36-19","[{""page_index"":0,""viewing_time"":366109}]","366109","","","","",""
"","","","","","instructions","2","401572","0.0-2.0","F91D4B22CBCF44D2AFEF7E1320B30F57","F91D4B22CBCF44D2AFEF7E1320B30F57","0198ba0d-611b-7b49-ae2c-9f2d2061eeec","0198b9d0-29d4-7df3-8625-4b4515841beb","{""num_scrambled_semantic"":""8"",""num_scrambled_causal"":""4"",""num_scrambled_schematic"":""4"",""participantId"":""F91D4B22CBCF44D2AFEF7E1320B30F57"",""assignmentId"":""0198ba0d-611b-7b49-ae2c-9f2d2061eeec"",""projectId"":""0198b9d0-29d4-7df3-8625-4b4515841beb""}","https://test12345.live/?num_scrambled_semantic=8&num_scrambled_causal=4&num_scrambled_schematic=4&participantId=F91D4B22CBCF44D2AFEF7E1320B30F57&assignmentId=0198ba0d-611b-7b49-ae2c-9f2d2061eeec&projectId=0198b9d0-29d4-7df3-8625-4b4515841beb","F91D4B22CBCF44D2AFEF7E1320B30F57-2025-08-17-22-36-19","[{""page_index"":0,""viewing_time"":3851}]","3851","","","","",""
"true","","","","","fullscreen","3","404078","0.0-3.0","F91D4B22CBCF44D2AFEF7E1320B30F57","F91D4B22CBCF44D2AFEF7E1320B30F57","0198ba0d-611b-7b49-ae2c-9f2d2061eeec","0198b9d0-29d4-7df3-8625-4b4515841beb","{""num_scrambled_semantic"":""8"",""num_scrambled_causal"":""4"",""num_scrambled_schematic"":""4"",""participantId"":""F91D4B22CBCF44D2AFEF7E1320B30F57"",""assignmentId"":""0198ba0d-611b-7b49-ae2c-9f2d2061eeec"",""projectId"":""0198b9d0-29d4-7df3-8625-4b4515841beb""}","https://test12345.live/?num_scrambled_semantic=8&num_scrambled_causal=4&num_scrambled_schematic=4&participantId=F91D4B22CBCF44D2AFEF7E1320B30F57&assignmentId=0198ba0d-611b-7b49-ae2c-9f2d2061eeec&projectId=0198b9d0-29d4-7df3-8625-4b4515841beb","F91D4B22CBCF44D2AFEF7E1320B30F57-2025-08-17-22-36-19","","1493","","","","",""
"","","","","","initialize-microphone","4","416349","0.0-4.0-0.0","F91D4B22CBCF44D2AFEF7E1320B30F57","F91D4B22CBCF44D2AFEF7E1320B30F57","0198ba0d-611b-7b49-ae2c-9f2d2061eeec","0198b9d0-29d4-7df3-8625-4b4515841beb","{""num_scrambled_semantic"":""8"",""num_scrambled_causal"":""4"",""num_scrambled_schematic"":""4"",""participantId"":""F91D4B22CBCF44D2AFEF7E1320B30F57"",""assignmentId"":""0198ba0d-611b-7b49-ae2c-9f2d2061eeec"",""projectId"":""0198b9d0-29d4-7df3-8625-4b4515841beb""}","https://test12345.live/?num_scrambled_semantic=8&num_scrambled_causal=4&num_scrambled_schematic=4&participantId=F91D4B22CBCF44D2AFEF7E1320B30F57&assignmentId=0198ba0d-611b-7b49-ae2c-9f2d2061eeec&projectId=0198b9d0-29d4-7df3-8625-4b4515841beb","F91D4B22CBCF44D2AFEF7E1320B30F57-2025-08-17-22-36-19","","","LDWJV9CIYGuVLbFRyn3DGGy1CeTsJJRlgRe4MgQboSM=","","","",""
"","","","","","html-audio-response","5","432283","0.0-4.0-1.0","F91D4B22CBCF44D2AFEF7E1320B30F57","F91D4B22CBCF44D2AFEF7E1320B30F57","0198ba0d-611b-7b49-ae2c-9f2d2061eeec","0198b9d0-29d4-7df3-8625-4b4515841beb","{""num_scrambled_semantic"":""8"",""num_scrambled_causal"":""4"",""num_scrambled_schematic"":""4"",""participantId"":""F91D4B22CBCF44D2AFEF7E1320B30F57"",""assignmentId"":""0198ba0d-611b-7b49-ae2c-9f2d2061eeec"",""projectId"":""0198b9d0-29d4-7df3-8625-4b4515841beb""}","https://test12345.live/?num_scrambled_semantic=8&num_scrambled_causal=4&num_scrambled_schematic=4&participantId=F91D4B22CBCF44D2AFEF7E1320B30F57&assignmentId=0198ba0d-611b-7b49-ae2c-9f2d2061eeec&projectId=0198b9d0-29d4-7df3-8625-4b4515841beb","F91D4B22CBCF44D2AFEF7E1320B30F57-2025-08-17-22-36-19","","947","","<span style=""color: red; font-size: 24px""> NOW RECORDING</span>
        <p>Please test Microphone</p>","","2",""
"","","","","","html-button-response","6","434203","0.0-4.0-2.0","F91D4B22CBCF44D2AFEF7E1320B30F57","F91D4B22CBCF44D2AFEF7E1320B30F57","0198ba0d-611b-7b49-ae2c-9f2d2061eeec","0198b9d0-29d4-7df3-8625-4b4515841beb","{""num_scrambled_semantic"":""8"",""num_scrambled_causal"":""4"",""num_scrambled_schematic"":""4"",""participantId"":""F91D4B22CBCF44D2AFEF7E1320B30F57"",""assignmentId"":""0198ba0d-611b-7b49-ae2c-9f2d2061eeec"",""projectId"":""0198b9d0-29d4-7df3-8625-4b4515841beb""}","https://test12345.live/?num_scrambled_semantic=8&num_scrambled_causal=4&num_scrambled_schematic=4&participantId=F91D4B22CBCF44D2AFEF7E1320B30F57&assignmentId=0198ba0d-611b-7b49-ae2c-9f2d2061eeec&projectId=0198b9d0-29d4-7df3-8625-4b4515841beb","F91D4B22CBCF44D2AFEF7E1320B30F57-2025-08-17-22-36-19","","1918","","<p style=""font-size:48px; color:red;"">Is Microphone OK?</p>","1","",""
"","","","","","instructions","7","440362","0.0-5.0","F91D4B22CBCF44D2AFEF7E1320B30F57","F91D4B22CBCF44D2AFEF7E1320B30F57","0198ba0d-611b-7b49-ae2c-9f2d2061eeec","0198b9d0-29d4-7df3-8625-4b4515841beb","{""num_scrambled_semantic"":""8"",""num_scrambled_causal"":""4"",""num_scrambled_schematic"":""4"",""participantId"":""F91D4B22CBCF44D2AFEF7E1320B30F57"",""assignmentId"":""0198ba0d-611b-7b49-ae2c-9f2d2061eeec"",""projectId"":""0198b9d0-29d4-7df3-8625-4b4515841beb""}","https://test12345.live/?num_scrambled_semantic=8&num_scrambled_causal=4&num_scrambled_schematic=4&participantId=F91D4B22CBCF44D2AFEF7E1320B30F57&assignmentId=0198ba0d-611b-7b49-ae2c-9f2d2061eeec&projectId=0198b9d0-29d4-7df3-8625-4b4515841beb","F91D4B22CBCF44D2AFEF7E1320B30F57-2025-08-17-22-36-19","[{""page_index"":0,""viewing_time"":2980},{""page_index"":1,""viewing_time"":3177}]","6157","","","","",""
"","","","","","image-button-response","8","446383","0.0-6.0-0.0","F91D4B22CBCF44D2AFEF7E1320B30F57","F91D4B22CBCF44D2AFEF7E1320B30F57","0198ba0d-611b-7b49-ae2c-9f2d2061eeec","0198b9d0-29d4-7df3-8625-4b4515841beb","{""num_scrambled_semantic"":""8"",""num_scrambled_causal"":""4"",""num_scrambled_schematic"":""4"",""participantId"":""F91D4B22CBCF44D2AFEF7E1320B30F57"",""assignmentId"":""0198ba0d-611b-7b49-ae2c-9f2d2061eeec"",""projectId"":""0198b9d0-29d4-7df3-8625-4b4515841beb""}","https://test12345.live/?num_scrambled_semantic=8&num_scrambled_causal=4&num_scrambled_schematic=4&participantId=F91D4B22CBCF44D2AFEF7E1320B30F57&assignmentId=0198ba0d-611b-7b49-ae2c-9f2d2061eeec&projectId=0198b9d0-29d4-7df3-8625-4b4515841beb","F91D4B22CBCF44D2AFEF7E1320B30F57-2025-08-17-22-36-19","","null","","images/instructions/movie_0.png","null","",""
"","","","","","image-button-response","9","450924","0.0-6.0-1.0-0.0","F91D4B22CBCF44D2AFEF7E1320B30F57","F91D4B22CBCF44D2AFEF7E1320B30F57","0198ba0d-611b-7b49-ae2c-9f2d2061eeec","0198b9d0-29d4-7df3-8625-4b4515841beb","{""num_scrambled_semantic"":""8"",""num_scrambled_causal"":""4"",""num_scrambled_schematic"":""4"",""participantId"":""F91D4B22CBCF44D2AFEF7E1320B30F57"",""assignmentId"":""0198ba0d-611b-7b49-ae2c-9f2d2061eeec"",""projectId"":""0198b9d0-29d4-7df3-8625-4b4515841beb""}","https://test12345.live/?num_scrambled_semantic=8&num_scrambled_causal=4&num_scrambled_schematic=4&participantId=F91D4B22CBCF44D2AFEF7E1320B30F57&assignmentId=0198ba0d-611b-7b49-ae2c-9f2d2061eeec&projectId=0198b9d0-29d4-7df3-8625-4b4515841beb","F91D4B22CBCF44D2AFEF7E1320B30F57-2025-08-17-22-36-19","","null","","images/instructions/movie_1.png","null","",""
"","","","","","image-button-response","10","453921","0.0-6.0-1.0-1.0","F91D4B22CBCF44D2AFEF7E1320B30F57","F91D4B22CBCF44D2AFEF7E1320B30F57","0198ba0d-611b-7b49-ae2c-9f2d2061eeec","0198b9d0-29d4-7df3-8625-4b4515841beb","{""num_scrambled_semantic"":""8"",""num_scrambled_causal"":""4"",""num_scrambled_schematic"":""4"",""participantId"":""F91D4B22CBCF44D2AFEF7E1320B30F57"",""assignmentId"":""0198ba0d-611b-7b49-ae2c-9f2d2061eeec"",""projectId"":""0198b9d0-29d4-7df3-8625-4b4515841beb""}","https://test12345.live/?num_scrambled_semantic=8&num_scrambled_causal=4&num_scrambled_schematic=4&participantId=F91D4B22CBCF44D2AFEF7E1320B30F57&assignmentId=0198ba0d-611b-7b49-ae2c-9f2d2061eeec&projectId=0198b9d0-29d4-7df3-8625-4b4515841beb","F91D4B22CBCF44D2AFEF7E1320B30F57-2025-08-17-22-36-19","","2996","","images/instructions/movie_1.png","0","",""
"","","","","","image-button-response","11","459333","0.0-6.0-1.0-2.0","F91D4B22CBCF44D2AFEF7E1320B30F57","F91D4B22CBCF44D2AFEF7E1320B30F57","0198ba0d-611b-7b49-ae2c-9f2d2061eeec","0198b9d0-29d4-7df3-8625-4b4515841beb","{""num_scrambled_semantic"":""8"",""num_scrambled_causal"":""4"",""num_scrambled_schematic"":""4"",""participantId"":""F91D4B22CBCF44D2AFEF7E1320B30F57"",""assignmentId"":""0198ba0d-611b-7b49-ae2c-9f2d2061eeec"",""projectId"":""0198b9d0-29d4-7df3-8625-4b4515841beb""}","https://test12345.live/?num_scrambled_semantic=8&num_scrambled_causal=4&num_scrambled_schematic=4&participantId=F91D4B22CBCF44D2AFEF7E1320B30F57&assignmentId=0198ba0d-611b-7b49-ae2c-9f2d2061eeec&projectId=0198b9d0-29d4-7df3-8625-4b4515841beb","F91D4B22CBCF44D2AFEF7E1320B30F57-2025-08-17-22-36-19","","null","","[]","null","",""
"","","","","","image-button-response","12","463873","0.0-6.0-1.0-0.1","F91D4B22CBCF44D2AFEF7E1320B30F57","F91D4B22CBCF44D2AFEF7E1320B30F57","0198ba0d-611b-7b49-ae2c-9f2d2061eeec","0198b9d0-29d4-7df3-8625-4b4515841beb","{""num_scrambled_semantic"":""8"",""num_scrambled_causal"":""4"",""num_scrambled_schematic"":""4"",""participantId"":""F91D4B22CBCF44D2AFEF7E1320B30F57"",""assignmentId"":""0198ba0d-611b-7b49-ae2c-9f2d2061eeec"",""projectId"":""0198b9d0-29d4-7df3-8625-4b4515841beb""}","https://test12345.live/?num_scrambled_semantic=8&num_scrambled_causal=4&num_scrambled_schematic=4&participantId=F91D4B22CBCF44D2AFEF7E1320B30F57&assignmentId=0198ba0d-611b-7b49-ae2c-9f2d2061eeec&projectId=0198b9d0-29d4-7df3-8625-4b4515841beb","F91D4B22CBCF44D2AFEF7E1320B30F57-2025-08-17-22-36-19","","null","","images/instructions/movie_2.png","null","",""
"","","","","","image-button-response","13","464902","0.0-6.0-1.0-1.1","F91D4B22CBCF44D2AFEF7E1320B30F57","F91D4B22CBCF44D2AFEF7E1320B30F57","0198ba0d-611b-7b49-ae2c-9f2d2061eeec","0198b9d0-29d4-7df3-8625-4b4515841beb","{""num_scrambled_semantic"":""8"",""num_scrambled_causal"":""4"",""num_scrambled_schematic"":""4"",""participantId"":""F91D4B22CBCF44D2AFEF7E1320B30F57"",""assignmentId"":""0198ba0d-611b-7b49-ae2c-9f2d2061eeec"",""projectId"":""0198b9d0-29d4-7df3-8625-4b4515841beb""}","https://test12345.live/?num_scrambled_semantic=8&num_scrambled_causal=4&num_scrambled_schematic=4&participantId=F91D4B22CBCF44D2AFEF7E1320B30F57&assignmentId=0198ba0d-611b-7b49-ae2c-9f2d2061eeec&projectId=0198b9d0-29d4-7df3-8625-4b4515841beb","F91D4B22CBCF44D2AFEF7E1320B30F57-2025-08-17-22-36-19","","1028","","images/instructions/movie_2.png","1","",""
"","","","","","image-button-response","14","470304","0.0-6.0-1.0-2.1","F91D4B22CBCF44D2AFEF7E1320B30F57","F91D4B22CBCF44D2AFEF7E1320B30F57","0198ba0d-611b-7b49-ae2c-9f2d2061eeec","0198b9d0-29d4-7df3-8625-4b4515841beb","{""num_scrambled_semantic"":""8"",""num_scrambled_causal"":""4"",""num_scrambled_schematic"":""4"",""participantId"":""F91D4B22CBCF44D2AFEF7E1320B30F57"",""assignmentId"":""0198ba0d-611b-7b49-ae2c-9f2d2061eeec"",""projectId"":""0198b9d0-29d4-7df3-8625-4b4515841beb""}","https://test12345.live/?num_scrambled_semantic=8&num_scrambled_causal=4&num_scrambled_schematic=4&participantId=F91D4B22CBCF44D2AFEF7E1320B30F57&assignmentId=0198ba0d-611b-7b49-ae2c-9f2d2061eeec&projectId=0198b9d0-29d4-7df3-8625-4b4515841beb","F91D4B22CBCF44D2AFEF7E1320B30F57-2025-08-17-22-36-19","","null","","[]","null","",""
"","","","","","image-button-response","15","474844","0.0-6.0-1.0-0.2","F91D4B22CBCF44D2AFEF7E1320B30F57","F91D4B22CBCF44D2AFEF7E1320B30F57","0198ba0d-611b-7b49-ae2c-9f2d2061eeec","0198b9d0-29d4-7df3-8625-4b4515841beb","{""num_scrambled_semantic"":""8"",""num_scrambled_causal"":""4"",""num_scrambled_schematic"":""4"",""participantId"":""F91D4B22CBCF44D2AFEF7E1320B30F57"",""assignmentId"":""0198ba0d-611b-7b49-ae2c-9f2d2061eeec"",""projectId"":""0198b9d0-29d4-7df3-8625-4b4515841beb""}","https://test12345.live/?num_scrambled_semantic=8&num_scrambled_causal=4&num_scrambled_schematic=4&participantId=F91D4B22CBCF44D2AFEF7E1320B30F57&assignmentId=0198ba0d-611b-7b49-ae2c-9f2d2061eeec&projectId=0198b9d0-29d4-7df3-8625-4b4515841beb","F91D4B22CBCF44D2AFEF7E1320B30F57-2025-08-17-22-36-19","","null","","images/instructions/movie_3.png","null","",""
"","","","","","image-button-response","16","475605","0.0-6.0-1.0-1.2","F91D4B22CBCF44D2AFEF7E1320B30F57","F91D4B22CBCF44D2AFEF7E1320B30F57","0198ba0d-611b-7b49-ae2c-9f2d2061eeec","0198b9d0-29d4-7df3-8625-4b4515841beb","{""num_scrambled_semantic"":""8"",""num_scrambled_causal"":""4"",""num_scrambled_schematic"":""4"",""participantId"":""F91D4B22CBCF44D2AFEF7E1320B30F57"",""assignmentId"":""0198ba0d-611b-7b49-ae2c-9f2d2061eeec"",""projectId"":""0198b9d0-29d4-7df3-8625-4b4515841beb""}","https://test12345.live/?num_scrambled_semantic=8&num_scrambled_causal=4&num_scrambled_schematic=4&participantId=F91D4B22CBCF44D2AFEF7E1320B30F57&assignmentId=0198ba0d-611b-7b49-ae2c-9f2d2061eeec&projectId=0198b9d0-29d4-7df3-8625-4b4515841beb","F91D4B22CBCF44D2AFEF7E1320B30F57-2025-08-17-22-36-19","","761","","images/instructions/movie_3.png","0","",""
"","","","","","image-button-response","17","481023","0.0-6.0-1.0-2.2","F91D4B22CBCF44D2AFEF7E1320B30F57","F91D4B22CBCF44D2AFEF7E1320B30F57","0198ba0d-611b-7b49-ae2c-9f2d2061eeec","0198b9d0-29d4-7df3-8625-4b4515841beb","{""num_scrambled_semantic"":""8"",""num_scrambled_causal"":""4"",""num_scrambled_schematic"":""4"",""participantId"":""F91D4B22CBCF44D2AFEF7E1320B30F57"",""assignmentId"":""0198ba0d-611b-7b49-ae2c-9f2d2061eeec"",""projectId"":""0198b9d0-29d4-7df3-8625-4b4515841beb""}","https://test12345.live/?num_scrambled_semantic=8&num_scrambled_causal=4&num_scrambled_schematic=4&participantId=F91D4B22CBCF44D2AFEF7E1320B30F57&assignmentId=0198ba0d-611b-7b49-ae2c-9f2d2061eeec&projectId=0198b9d0-29d4-7df3-8625-4b4515841beb","F91D4B22CBCF44D2AFEF7E1320B30F57-2025-08-17-22-36-19","","null","","[]","null","",""
"","","","","","image-button-response","18","485564","0.0-6.0-1.0-0.3","F91D4B22CBCF44D2AFEF7E1320B30F57","F91D4B22CBCF44D2AFEF7E1320B30F57","0198ba0d-611b-7b49-ae2c-9f2d2061eeec","0198b9d0-29d4-7df3-8625-4b4515841beb","{""num_scrambled_semantic"":""8"",""num_scrambled_causal"":""4"",""num_scrambled_schematic"":""4"",""participantId"":""F91D4B22CBCF44D2AFEF7E1320B30F57"",""assignmentId"":""0198ba0d-611b-7b49-ae2c-9f2d2061eeec"",""projectId"":""0198b9d0-29d4-7df3-8625-4b4515841beb""}","https://test12345.live/?num_scrambled_semantic=8&num_scrambled_causal=4&num_scrambled_schematic=4&participantId=F91D4B22CBCF44D2AFEF7E1320B30F57&assignmentId=0198ba0d-611b-7b49-ae2c-9f2d2061eeec&projectId=0198b9d0-29d4-7df3-8625-4b4515841beb","F91D4B22CBCF44D2AFEF7E1320B30F57-2025-08-17-22-36-19","","null","","images/instructions/movie_4.png","null","",""
"","","","","","image-button-response","19","486841","0.0-6.0-1.0-1.3","F91D4B22CBCF44D2AFEF7E1320B30F57","F91D4B22CBCF44D2AFEF7E1320B30F57","0198ba0d-611b-7b49-ae2c-9f2d2061eeec","0198b9d0-29d4-7df3-8625-4b4515841beb","{""num_scrambled_semantic"":""8"",""num_scrambled_causal"":""4"",""num_scrambled_schematic"":""4"",""participantId"":""F91D4B22CBCF44D2AFEF7E1320B30F57"",""assignmentId"":""0198ba0d-611b-7b49-ae2c-9f2d2061eeec"",""projectId"":""0198b9d0-29d4-7df3-8625-4b4515841beb""}","https://test12345.live/?num_scrambled_semantic=8&num_scrambled_causal=4&num_scrambled_schematic=4&participantId=F91D4B22CBCF44D2AFEF7E1320B30F57&assignmentId=0198ba0d-611b-7b49-ae2c-9f2d2061eeec&projectId=0198b9d0-29d4-7df3-8625-4b4515841beb","F91D4B22CBCF44D2AFEF7E1320B30F57-2025-08-17-22-36-19","","1277","","images/instructions/movie_4.png","0","",""
"","","","","","image-button-response","20","492252","0.0-6.0-1.0-2.3","F91D4B22CBCF44D2AFEF7E1320B30F57","F91D4B22CBCF44D2AFEF7E1320B30F57","0198ba0d-611b-7b49-ae2c-9f2d2061eeec","0198b9d0-29d4-7df3-8625-4b4515841beb","{""num_scrambled_semantic"":""8"",""num_scrambled_causal"":""4"",""num_scrambled_schematic"":""4"",""participantId"":""F91D4B22CBCF44D2AFEF7E1320B30F57"",""assignmentId"":""0198ba0d-611b-7b49-ae2c-9f2d2061eeec"",""projectId"":""0198b9d0-29d4-7df3-8625-4b4515841beb""}","https://test12345.live/?num_scrambled_semantic=8&num_scrambled_causal=4&num_scrambled_schematic=4&participantId=F91D4B22CBCF44D2AFEF7E1320B30F57&assignmentId=0198ba0d-611b-7b49-ae2c-9f2d2061eeec&projectId=0198b9d0-29d4-7df3-8625-4b4515841beb","F91D4B22CBCF44D2AFEF7E1320B30F57-2025-08-17-22-36-19","","null","","[]","null","",""
"","","","","","instructions","21","500053","0.0-7.0","F91D4B22CBCF44D2AFEF7E1320B30F57","F91D4B22CBCF44D2AFEF7E1320B30F57","0198ba0d-611b-7b49-ae2c-9f2d2061eeec","0198b9d0-29d4-7df3-8625-4b4515841beb","{""num_scrambled_semantic"":""8"",""num_scrambled_causal"":""4"",""num_scrambled_schematic"":""4"",""participantId"":""F91D4B22CBCF44D2AFEF7E1320B30F57"",""assignmentId"":""0198ba0d-611b-7b49-ae2c-9f2d2061eeec"",""projectId"":""0198b9d0-29d4-7df3-8625-4b4515841beb""}","https://test12345.live/?num_scrambled_semantic=8&num_scrambled_causal=4&num_scrambled_schematic=4&participantId=F91D4B22CBCF44D2AFEF7E1320B30F57&assignmentId=0198ba0d-611b-7b49-ae2c-9f2d2061eeec&projectId=0198b9d0-29d4-7df3-8625-4b4515841beb","F91D4B22CBCF44D2AFEF7E1320B30F57-2025-08-17-22-36-19","[{""page_index"":0,""viewing_time"":5551},{""page_index"":1,""viewing_time"":2249}]","7801","","","","",""
"","","","","","html-audio-response","22","510399","0.0-8.0","F91D4B22CBCF44D2AFEF7E1320B30F57","F91D4B22CBCF44D2AFEF7E1320B30F57","0198ba0d-611b-7b49-ae2c-9f2d2061eeec","0198b9d0-29d4-7df3-8625-4b4515841beb","{""num_scrambled_semantic"":""8"",""num_scrambled_causal"":""4"",""num_scrambled_schematic"":""4"",""participantId"":""F91D4B22CBCF44D2AFEF7E1320B30F57"",""assignmentId"":""0198ba0d-611b-7b49-ae2c-9f2d2061eeec"",""projectId"":""0198b9d0-29d4-7df3-8625-4b4515841beb""}","https://test12345.live/?num_scrambled_semantic=8&num_scrambled_causal=4&num_scrambled_schematic=4&participantId=F91D4B22CBCF44D2AFEF7E1320B30F57&assignmentId=0198ba0d-611b-7b49-ae2c-9f2d2061eeec&projectId=0198b9d0-29d4-7df3-8625-4b4515841beb","F91D4B22CBCF44D2AFEF7E1320B30F57-2025-08-17-22-36-19","","2313","","[""<span style=\""color: red; font-size: 24px\""> NOW RECORDING</span><p>Please say out loud all the images you saw, as many as you can remember. The images can be said in any order.</p>""]","","3",""
"","","","","","instructions","23","512357","0.0-9.0","F91D4B22CBCF44D2AFEF7E1320B30F57","F91D4B22CBCF44D2AFEF7E1320B30F57","0198ba0d-611b-7b49-ae2c-9f2d2061eeec","0198b9d0-29d4-7df3-8625-4b4515841beb","{""num_scrambled_semantic"":""8"",""num_scrambled_causal"":""4"",""num_scrambled_schematic"":""4"",""participantId"":""F91D4B22CBCF44D2AFEF7E1320B30F57"",""assignmentId"":""0198ba0d-611b-7b49-ae2c-9f2d2061eeec"",""projectId"":""0198b9d0-29d4-7df3-8625-4b4515841beb""}","https://test12345.live/?num_scrambled_semantic=8&num_scrambled_causal=4&num_scrambled_schematic=4&participantId=F91D4B22CBCF44D2AFEF7E1320B30F57&assignmentId=0198ba0d-611b-7b49-ae2c-9f2d2061eeec&projectId=0198b9d0-29d4-7df3-8625-4b4515841beb","F91D4B22CBCF44D2AFEF7E1320B30F57-2025-08-17-22-36-19","[{""page_index"":0,""viewing_time"":1955}]","1955","","","","",""
"","","","","","image-button-response","24","518375","0.0-10.0-0.0","F91D4B22CBCF44D2AFEF7E1320B30F57","F91D4B22CBCF44D2AFEF7E1320B30F57","0198ba0d-611b-7b49-ae2c-9f2d2061eeec","0198b9d0-29d4-7df3-8625-4b4515841beb","{""num_scrambled_semantic"":""8"",""num_scrambled_causal"":""4"",""num_scrambled_schematic"":""4"",""participantId"":""F91D4B22CBCF44D2AFEF7E1320B30F57"",""assignmentId"":""0198ba0d-611b-7b49-ae2c-9f2d2061eeec"",""projectId"":""0198b9d0-29d4-7df3-8625-4b4515841beb""}","https://test12345.live/?num_scrambled_semantic=8&num_scrambled_causal=4&num_scrambled_schematic=4&participantId=F91D4B22CBCF44D2AFEF7E1320B30F57&assignmentId=0198ba0d-611b-7b49-ae2c-9f2d2061eeec&projectId=0198b9d0-29d4-7df3-8625-4b4515841beb","F91D4B22CBCF44D2AFEF7E1320B30F57-2025-08-17-22-36-19","","null","","images/causal_sequence/package_causal/package_causal_0.png","null","",""
"","","","","","image-button-response","25","522904","0.0-10.0-1.0-0.0","F91D4B22CBCF44D2AFEF7E1320B30F57","F91D4B22CBCF44D2AFEF7E1320B30F57","0198ba0d-611b-7b49-ae2c-9f2d2061eeec","0198b9d0-29d4-7df3-8625-4b4515841beb","{""num_scrambled_semantic"":""8"",""num_scrambled_causal"":""4"",""num_scrambled_schematic"":""4"",""participantId"":""F91D4B22CBCF44D2AFEF7E1320B30F57"",""assignmentId"":""0198ba0d-611b-7b49-ae2c-9f2d2061eeec"",""projectId"":""0198b9d0-29d4-7df3-8625-4b4515841beb""}","https://test12345.live/?num_scrambled_semantic=8&num_scrambled_causal=4&num_scrambled_schematic=4&participantId=F91D4B22CBCF44D2AFEF7E1320B30F57&assignmentId=0198ba0d-611b-7b49-ae2c-9f2d2061eeec&projectId=0198b9d0-29d4-7df3-8625-4b4515841beb","F91D4B22CBCF44D2AFEF7E1320B30F57-2025-08-17-22-36-19","","null","","images/causal_sequence/package_causal/package_causal_ten.png","null","",""
"","","","","","image-button-response","26","523999","0.0-10.0-1.0-1.0","F91D4B22CBCF44D2AFEF7E1320B30F57","F91D4B22CBCF44D2AFEF7E1320B30F57","0198ba0d-611b-7b49-ae2c-9f2d2061eeec","0198b9d0-29d4-7df3-8625-4b4515841beb","{""num_scrambled_semantic"":""8"",""num_scrambled_causal"":""4"",""num_scrambled_schematic"":""4"",""participantId"":""F91D4B22CBCF44D2AFEF7E1320B30F57"",""assignmentId"":""0198ba0d-611b-7b49-ae2c-9f2d2061eeec"",""projectId"":""0198b9d0-29d4-7df3-8625-4b4515841beb""}","https://test12345.live/?num_scrambled_semantic=8&num_scrambled_causal=4&num_scrambled_schematic=4&participantId=F91D4B22CBCF44D2AFEF7E1320B30F57&assignmentId=0198ba0d-611b-7b49-ae2c-9f2d2061eeec&projectId=0198b9d0-29d4-7df3-8625-4b4515841beb","F91D4B22CBCF44D2AFEF7E1320B30F57-2025-08-17-22-36-19","","1095","","images/causal_sequence/package_causal/package_causal_ten.png","0","",""
"","","","","","image-button-response","27","529413","0.0-10.0-1.0-2.0","F91D4B22CBCF44D2AFEF7E1320B30F57","F91D4B22CBCF44D2AFEF7E1320B30F57","0198ba0d-611b-7b49-ae2c-9f2d2061eeec","0198b9d0-29d4-7df3-8625-4b4515841beb","{""num_scrambled_semantic"":""8"",""num_scrambled_causal"":""4"",""num_scrambled_schematic"":""4"",""participantId"":""F91D4B22CBCF44D2AFEF7E1320B30F57"",""assignmentId"":""0198ba0d-611b-7b49-ae2c-9f2d2061eeec"",""projectId"":""0198b9d0-29d4-7df3-8625-4b4515841beb""}","https://test12345.live/?num_scrambled_semantic=8&num_scrambled_causal=4&num_scrambled_schematic=4&participantId=F91D4B22CBCF44D2AFEF7E1320B30F57&assignmentId=0198ba0d-611b-7b49-ae2c-9f2d2061eeec&projectId=0198b9d0-29d4-7df3-8625-4b4515841beb","F91D4B22CBCF44D2AFEF7E1320B30F57-2025-08-17-22-36-19","","null","","[]","null","",""
"","","","","","image-button-response","28","533944","0.0-10.0-1.0-0.1","F91D4B22CBCF44D2AFEF7E1320B30F57","F91D4B22CBCF44D2AFEF7E1320B30F57","0198ba0d-611b-7b49-ae2c-9f2d2061eeec","0198b9d0-29d4-7df3-8625-4b4515841beb","{""num_scrambled_semantic"":""8"",""num_scrambled_causal"":""4"",""num_scrambled_schematic"":""4"",""participantId"":""F91D4B22CBCF44D2AFEF7E1320B30F57"",""assignmentId"":""0198ba0d-611b-7b49-ae2c-9f2d2061eeec"",""projectId"":""0198b9d0-29d4-7df3-8625-4b4515841beb""}","https://test12345.live/?num_scrambled_semantic=8&num_scrambled_causal=4&num_scrambled_schematic=4&participantId=F91D4B22CBCF44D2AFEF7E1320B30F57&assignmentId=0198ba0d-611b-7b49-ae2c-9f2d2061eeec&projectId=0198b9d0-29d4-7df3-8625-4b4515841beb","F91D4B22CBCF44D2AFEF7E1320B30F57-2025-08-17-22-36-19","","null","","images/causal_sequence/package_causal/package_causal_7.png","null","",""
"","","","","","image-button-response","29","536217","0.0-10.0-1.0-1.1","F91D4B22CBCF44D2AFEF7E1320B30F57","F91D4B22CBCF44D2AFEF7E1320B30F57","0198ba0d-611b-7b49-ae2c-9f2d2061eeec","0198b9d0-29d4-7df3-8625-4b4515841beb","{""num_scrambled_semantic"":""8"",""num_scrambled_causal"":""4"",""num_scrambled_schematic"":""4"",""participantId"":""F91D4B22CBCF44D2AFEF7E1320B30F57"",""assignmentId"":""0198ba0d-611b-7b49-ae2c-9f2d2061eeec"",""projectId"":""0198b9d0-29d4-7df3-8625-4b4515841beb""}","https://test12345.live/?num_scrambled_semantic=8&num_scrambled_causal=4&num_scrambled_schematic=4&participantId=F91D4B22CBCF44D2AFEF7E1320B30F57&assignmentId=0198ba0d-611b-7b49-ae2c-9f2d2061eeec&projectId=0198b9d0-29d4-7df3-8625-4b4515841beb","F91D4B22CBCF44D2AFEF7E1320B30F57-2025-08-17-22-36-19","","2270","","images/causal_sequence/package_causal/package_causal_7.png","0","",""
"","","","","","image-button-response","30","541623","0.0-10.0-1.0-2.1","F91D4B22CBCF44D2AFEF7E1320B30F57","F91D4B22CBCF44D2AFEF7E1320B30F57","0198ba0d-611b-7b49-ae2c-9f2d2061eeec","0198b9d0-29d4-7df3-8625-4b4515841beb","{""num_scrambled_semantic"":""8"",""num_scrambled_causal"":""4"",""num_scrambled_schematic"":""4"",""participantId"":""F91D4B22CBCF44D2AFEF7E1320B30F57"",""assignmentId"":""0198ba0d-611b-7b49-ae2c-9f2d2061eeec"",""projectId"":""0198b9d0-29d4-7df3-8625-4b4515841beb""}","https://test12345.live/?num_scrambled_semantic=8&num_scrambled_causal=4&num_scrambled_schematic=4&participantId=F91D4B22CBCF44D2AFEF7E1320B30F57&assignmentId=0198ba0d-611b-7b49-ae2c-9f2d2061eeec&projectId=0198b9d0-29d4-7df3-8625-4b4515841beb","F91D4B22CBCF44D2AFEF7E1320B30F57-2025-08-17-22-36-19","","null","","[]","null","",""
"","","","","","image-button-response","31","546503","0.0-10.0-1.0-0.2","F91D4B22CBCF44D2AFEF7E1320B30F57","F91D4B22CBCF44D2AFEF7E1320B30F57","0198ba0d-611b-7b49-ae2c-9f2d2061eeec","0198b9d0-29d4-7df3-8625-4b4515841beb","{""num_scrambled_semantic"":""8"",""num_scrambled_causal"":""4"",""num_scrambled_schematic"":""4"",""participantId"":""F91D4B22CBCF44D2AFEF7E1320B30F57"",""assignmentId"":""0198ba0d-611b-7b49-ae2c-9f2d2061eeec"",""projectId"":""0198b9d0-29d4-7df3-8625-4b4515841beb""}","https://test12345.live/?num_scrambled_semantic=8&num_scrambled_causal=4&num_scrambled_schematic=4&participantId=F91D4B22CBCF44D2AFEF7E1320B30F57&assignmentId=0198ba0d-611b-7b49-ae2c-9f2d2061eeec&projectId=0198b9d0-29d4-7df3-8625-4b4515841beb","F91D4B22CBCF44D2AFEF7E1320B30F57-2025-08-17-22-36-19","","null","","images/causal_sequence/package_causal/package_causal_5.png","null","",""
"","","","","","image-button-response","32","547779","0.0-10.0-1.0-1.2","F91D4B22CBCF44D2AFEF7E1320B30F57","F91D4B22CBCF44D2AFEF7E1320B30F57","0198ba0d-611b-7b49-ae2c-9f2d2061eeec","0198b9d0-29d4-7df3-8625-4b4515841beb","{""num_scrambled_semantic"":""8"",""num_scrambled_causal"":""4"",""num_scrambled_schematic"":""4"",""participantId"":""F91D4B22CBCF44D2AFEF7E1320B30F57"",""assignmentId"":""0198ba0d-611b-7b49-ae2c-9f2d2061eeec"",""projectId"":""0198b9d0-29d4-7df3-8625-4b4515841beb""}","https://test12345.live/?num_scrambled_semantic=8&num_scrambled_causal=4&num_scrambled_schematic=4&participantId=F91D4B22CBCF44D2AFEF7E1320B30F57&assignmentId=0198ba0d-611b-7b49-ae2c-9f2d2061eeec&projectId=0198b9d0-29d4-7df3-8625-4b4515841beb","F91D4B22CBCF44D2AFEF7E1320B30F57-2025-08-17-22-36-19","","1276","","images/causal_sequence/package_causal/package_causal_5.png","0","",""
"","","","","","image-button-response","33","553183","0.0-10.0-1.0-2.2","F91D4B22CBCF44D2AFEF7E1320B30F57","F91D4B22CBCF44D2AFEF7E1320B30F57","0198ba0d-611b-7b49-ae2c-9f2d2061eeec","0198b9d0-29d4-7df3-8625-4b4515841beb","{""num_scrambled_semantic"":""8"",""num_scrambled_causal"":""4"",""num_scrambled_schematic"":""4"",""participantId"":""F91D4B22CBCF44D2AFEF7E1320B30F57"",""assignmentId"":""0198ba0d-611b-7b49-ae2c-9f2d2061eeec"",""projectId"":""0198b9d0-29d4-7df3-8625-4b4515841beb""}","https://test12345.live/?num_scrambled_semantic=8&num_scrambled_causal=4&num_scrambled_schematic=4&participantId=F91D4B22CBCF44D2AFEF7E1320B30F57&assignmentId=0198ba0d-611b-7b49-ae2c-9f2d2061eeec&projectId=0198b9d0-29d4-7df3-8625-4b4515841beb","F91D4B22CBCF44D2AFEF7E1320B30F57-2025-08-17-22-36-19","","null","","[]","null","",""
"","","","","","image-button-response","34","557713","0.0-10.0-1.0-0.3","F91D4B22CBCF44D2AFEF7E1320B30F57","F91D4B22CBCF44D2AFEF7E1320B30F57","0198ba0d-611b-7b49-ae2c-9f2d2061eeec","0198b9d0-29d4-7df3-8625-4b4515841beb","{""num_scrambled_semantic"":""8"",""num_scrambled_causal"":""4"",""num_scrambled_schematic"":""4"",""participantId"":""F91D4B22CBCF44D2AFEF7E1320B30F57"",""assignmentId"":""0198ba0d-611b-7b49-ae2c-9f2d2061eeec"",""projectId"":""0198b9d0-29d4-7df3-8625-4b4515841beb""}","https://test12345.live/?num_scrambled_semantic=8&num_scrambled_causal=4&num_scrambled_schematic=4&participantId=F91D4B22CBCF44D2AFEF7E1320B30F57&assignmentId=0198ba0d-611b-7b49-ae2c-9f2d2061eeec&projectId=0198b9d0-29d4-7df3-8625-4b4515841beb","F91D4B22CBCF44D2AFEF7E1320B30F57-2025-08-17-22-36-19","","null","","images/causal_sequence/package_causal/package_causal_9.png","null","",""
"","","","","","image-button-response","35","559583","0.0-10.0-1.0-1.3","F91D4B22CBCF44D2AFEF7E1320B30F57","F91D4B22CBCF44D2AFEF7E1320B30F57","0198ba0d-611b-7b49-ae2c-9f2d2061eeec","0198b9d0-29d4-7df3-8625-4b4515841beb","{""num_scrambled_semantic"":""8"",""num_scrambled_causal"":""4"",""num_scrambled_schematic"":""4"",""participantId"":""F91D4B22CBCF44D2AFEF7E1320B30F57"",""assignmentId"":""0198ba0d-611b-7b49-ae2c-9f2d2061eeec"",""projectId"":""0198b9d0-29d4-7df3-8625-4b4515841beb""}","https://test12345.live/?num_scrambled_semantic=8&num_scrambled_causal=4&num_scrambled_schematic=4&participantId=F91D4B22CBCF44D2AFEF7E1320B30F57&assignmentId=0198ba0d-611b-7b49-ae2c-9f2d2061eeec&projectId=0198b9d0-29d4-7df3-8625-4b4515841beb","F91D4B22CBCF44D2AFEF7E1320B30F57-2025-08-17-22-36-19","","1869","","images/causal_sequence/package_causal/package_causal_9.png","0","",""
"","","","","","image-button-response","36","564993","0.0-10.0-1.0-2.3","F91D4B22CBCF44D2AFEF7E1320B30F57","F91D4B22CBCF44D2AFEF7E1320B30F57","0198ba0d-611b-7b49-ae2c-9f2d2061eeec","0198b9d0-29d4-7df3-8625-4b4515841beb","{""num_scrambled_semantic"":""8"",""num_scrambled_causal"":""4"",""num_scrambled_schematic"":""4"",""participantId"":""F91D4B22CBCF44D2AFEF7E1320B30F57"",""assignmentId"":""0198ba0d-611b-7b49-ae2c-9f2d2061eeec"",""projectId"":""0198b9d0-29d4-7df3-8625-4b4515841beb""}","https://test12345.live/?num_scrambled_semantic=8&num_scrambled_causal=4&num_scrambled_schematic=4&participantId=F91D4B22CBCF44D2AFEF7E1320B30F57&assignmentId=0198ba0d-611b-7b49-ae2c-9f2d2061eeec&projectId=0198b9d0-29d4-7df3-8625-4b4515841beb","F91D4B22CBCF44D2AFEF7E1320B30F57-2025-08-17-22-36-19","","null","","[]","null","",""
"","","","","","image-button-response","37","569534","0.0-10.0-1.0-0.4","F91D4B22CBCF44D2AFEF7E1320B30F57","F91D4B22CBCF44D2AFEF7E1320B30F57","0198ba0d-611b-7b49-ae2c-9f2d2061eeec","0198b9d0-29d4-7df3-8625-4b4515841beb","{""num_scrambled_semantic"":""8"",""num_scrambled_causal"":""4"",""num_scrambled_schematic"":""4"",""participantId"":""F91D4B22CBCF44D2AFEF7E1320B30F57"",""assignmentId"":""0198ba0d-611b-7b49-ae2c-9f2d2061eeec"",""projectId"":""0198b9d0-29d4-7df3-8625-4b4515841beb""}","https://test12345.live/?num_scrambled_semantic=8&num_scrambled_causal=4&num_scrambled_schematic=4&participantId=F91D4B22CBCF44D2AFEF7E1320B30F57&assignmentId=0198ba0d-611b-7b49-ae2c-9f2d2061eeec&projectId=0198b9d0-29d4-7df3-8625-4b4515841beb","F91D4B22CBCF44D2AFEF7E1320B30F57-2025-08-17-22-36-19","","null","","images/causal_sequence/package_causal/package_causal_1.png","null","",""
"","","","","","image-button-response","38","570176","0.0-10.0-1.0-1.4","F91D4B22CBCF44D2AFEF7E1320B30F57","F91D4B22CBCF44D2AFEF7E1320B30F57","0198ba0d-611b-7b49-ae2c-9f2d2061eeec","0198b9d0-29d4-7df3-8625-4b4515841beb","{""num_scrambled_semantic"":""8"",""num_scrambled_causal"":""4"",""num_scrambled_schematic"":""4"",""participantId"":""F91D4B22CBCF44D2AFEF7E1320B30F57"",""assignmentId"":""0198ba0d-611b-7b49-ae2c-9f2d2061eeec"",""projectId"":""0198b9d0-29d4-7df3-8625-4b4515841beb""}","https://test12345.live/?num_scrambled_semantic=8&num_scrambled_causal=4&num_scrambled_schematic=4&participantId=F91D4B22CBCF44D2AFEF7E1320B30F57&assignmentId=0198ba0d-611b-7b49-ae2c-9f2d2061eeec&projectId=0198b9d0-29d4-7df3-8625-4b4515841beb","F91D4B22CBCF44D2AFEF7E1320B30F57-2025-08-17-22-36-19","","642","","images/causal_sequence/package_causal/package_causal_1.png","0","",""
"","","","","","image-button-response","39","575583","0.0-10.0-1.0-2.4","F91D4B22CBCF44D2AFEF7E1320B30F57","F91D4B22CBCF44D2AFEF7E1320B30F57","0198ba0d-611b-7b49-ae2c-9f2d2061eeec","0198b9d0-29d4-7df3-8625-4b4515841beb","{""num_scrambled_semantic"":""8"",""num_scrambled_causal"":""4"",""num_scrambled_schematic"":""4"",""participantId"":""F91D4B22CBCF44D2AFEF7E1320B30F57"",""assignmentId"":""0198ba0d-611b-7b49-ae2c-9f2d2061eeec"",""projectId"":""0198b9d0-29d4-7df3-8625-4b4515841beb""}","https://test12345.live/?num_scrambled_semantic=8&num_scrambled_causal=4&num_scrambled_schematic=4&participantId=F91D4B22CBCF44D2AFEF7E1320B30F57&assignmentId=0198ba0d-611b-7b49-ae2c-9f2d2061eeec&projectId=0198b9d0-29d4-7df3-8625-4b4515841beb","F91D4B22CBCF44D2AFEF7E1320B30F57-2025-08-17-22-36-19","","null","","[]","null","",""
"","","","","","image-button-response","40","580584","0.0-10.0-1.0-0.5","F91D4B22CBCF44D2AFEF7E1320B30F57","F91D4B22CBCF44D2AFEF7E1320B30F57","0198ba0d-611b-7b49-ae2c-9f2d2061eeec","0198b9d0-29d4-7df3-8625-4b4515841beb","{""num_scrambled_semantic"":""8"",""num_scrambled_causal"":""4"",""num_scrambled_schematic"":""4"",""participantId"":""F91D4B22CBCF44D2AFEF7E1320B30F57"",""assignmentId"":""0198ba0d-611b-7b49-ae2c-9f2d2061eeec"",""projectId"":""0198b9d0-29d4-7df3-8625-4b4515841beb""}","https://test12345.live/?num_scrambled_semantic=8&num_scrambled_causal=4&num_scrambled_schematic=4&participantId=F91D4B22CBCF44D2AFEF7E1320B30F57&assignmentId=0198ba0d-611b-7b49-ae2c-9f2d2061eeec&projectId=0198b9d0-29d4-7df3-8625-4b4515841beb","F91D4B22CBCF44D2AFEF7E1320B30F57-2025-08-17-22-36-19","","null","","images/causal_sequence/package_causal/package_causal_6.png","null","",""
"","","","","","image-button-response","41","581601","0.0-10.0-1.0-1.5","F91D4B22CBCF44D2AFEF7E1320B30F57","F91D4B22CBCF44D2AFEF7E1320B30F57","0198ba0d-611b-7b49-ae2c-9f2d2061eeec","0198b9d0-29d4-7df3-8625-4b4515841beb","{""num_scrambled_semantic"":""8"",""num_scrambled_causal"":""4"",""num_scrambled_schematic"":""4"",""participantId"":""F91D4B22CBCF44D2AFEF7E1320B30F57"",""assignmentId"":""0198ba0d-611b-7b49-ae2c-9f2d2061eeec"",""projectId"":""0198b9d0-29d4-7df3-8625-4b4515841beb""}","https://test12345.live/?num_scrambled_semantic=8&num_scrambled_causal=4&num_scrambled_schematic=4&participantId=F91D4B22CBCF44D2AFEF7E1320B30F57&assignmentId=0198ba0d-611b-7b49-ae2c-9f2d2061eeec&projectId=0198b9d0-29d4-7df3-8625-4b4515841beb","F91D4B22CBCF44D2AFEF7E1320B30F57-2025-08-17-22-36-19","","1017","","images/causal_sequence/package_causal/package_causal_6.png","0","",""
"","","","","","image-button-response","42","587003","0.0-10.0-1.0-2.5","F91D4B22CBCF44D2AFEF7E1320B30F57","F91D4B22CBCF44D2AFEF7E1320B30F57","0198ba0d-611b-7b49-ae2c-9f2d2061eeec","0198b9d0-29d4-7df3-8625-4b4515841beb","{""num_scrambled_semantic"":""8"",""num_scrambled_causal"":""4"",""num_scrambled_schematic"":""4"",""participantId"":""F91D4B22CBCF44D2AFEF7E1320B30F57"",""assignmentId"":""0198ba0d-611b-7b49-ae2c-9f2d2061eeec"",""projectId"":""0198b9d0-29d4-7df3-8625-4b4515841beb""}","https://test12345.live/?num_scrambled_semantic=8&num_scrambled_causal=4&num_scrambled_schematic=4&participantId=F91D4B22CBCF44D2AFEF7E1320B30F57&assignmentId=0198ba0d-611b-7b49-ae2c-9f2d2061eeec&projectId=0198b9d0-29d4-7df3-8625-4b4515841beb","F91D4B22CBCF44D2AFEF7E1320B30F57-2025-08-17-22-36-19","","null","","[]","null","",""
"","","","","","image-button-response","43","591534","0.0-10.0-1.0-0.6","F91D4B22CBCF44D2AFEF7E1320B30F57","F91D4B22CBCF44D2AFEF7E1320B30F57","0198ba0d-611b-7b49-ae2c-9f2d2061eeec","0198b9d0-29d4-7df3-8625-4b4515841beb","{""num_scrambled_semantic"":""8"",""num_scrambled_causal"":""4"",""num_scrambled_schematic"":""4"",""participantId"":""F91D4B22CBCF44D2AFEF7E1320B30F57"",""assignmentId"":""0198ba0d-611b-7b49-ae2c-9f2d2061eeec"",""projectId"":""0198b9d0-29d4-7df3-8625-4b4515841beb""}","https://test12345.live/?num_scrambled_semantic=8&num_scrambled_causal=4&num_scrambled_schematic=4&participantId=F91D4B22CBCF44D2AFEF7E1320B30F57&assignmentId=0198ba0d-611b-7b49-ae2c-9f2d2061eeec&projectId=0198b9d0-29d4-7df3-8625-4b4515841beb","F91D4B22CBCF44D2AFEF7E1320B30F57-2025-08-17-22-36-19","","null","","images/causal_sequence/package_causal/package_causal_3.png","null","",""
"","","","","","image-button-response","44","592635","0.0-10.0-1.0-1.6","F91D4B22CBCF44D2AFEF7E1320B30F57","F91D4B22CBCF44D2AFEF7E1320B30F57","0198ba0d-611b-7b49-ae2c-9f2d2061eeec","0198b9d0-29d4-7df3-8625-4b4515841beb","{""num_scrambled_semantic"":""8"",""num_scrambled_causal"":""4"",""num_scrambled_schematic"":""4"",""participantId"":""F91D4B22CBCF44D2AFEF7E1320B30F57"",""assignmentId"":""0198ba0d-611b-7b49-ae2c-9f2d2061eeec"",""projectId"":""0198b9d0-29d4-7df3-8625-4b4515841beb""}","https://test12345.live/?num_scrambled_semantic=8&num_scrambled_causal=4&num_scrambled_schematic=4&participantId=F91D4B22CBCF44D2AFEF7E1320B30F57&assignmentId=0198ba0d-611b-7b49-ae2c-9f2d2061eeec&projectId=0198b9d0-29d4-7df3-8625-4b4515841beb","F91D4B22CBCF44D2AFEF7E1320B30F57-2025-08-17-22-36-19","","1099","","images/causal_sequence/package_causal/package_causal_3.png","0","",""
"","","","","","image-button-response","45","598053","0.0-10.0-1.0-2.6","F91D4B22CBCF44D2AFEF7E1320B30F57","F91D4B22CBCF44D2AFEF7E1320B30F57","0198ba0d-611b-7b49-ae2c-9f2d2061eeec","0198b9d0-29d4-7df3-8625-4b4515841beb","{""num_scrambled_semantic"":""8"",""num_scrambled_causal"":""4"",""num_scrambled_schematic"":""4"",""participantId"":""F91D4B22CBCF44D2AFEF7E1320B30F57"",""assignmentId"":""0198ba0d-611b-7b49-ae2c-9f2d2061eeec"",""projectId"":""0198b9d0-29d4-7df3-8625-4b4515841beb""}","https://test12345.live/?num_scrambled_semantic=8&num_scrambled_causal=4&num_scrambled_schematic=4&participantId=F91D4B22CBCF44D2AFEF7E1320B30F57&assignmentId=0198ba0d-611b-7b49-ae2c-9f2d2061eeec&projectId=0198b9d0-29d4-7df3-8625-4b4515841beb","F91D4B22CBCF44D2AFEF7E1320B30F57-2025-08-17-22-36-19","","null","","[]","null","",""
"","","","","","image-button-response","46","602583","0.0-10.0-1.0-0.7","F91D4B22CBCF44D2AFEF7E1320B30F57","F91D4B22CBCF44D2AFEF7E1320B30F57","0198ba0d-611b-7b49-ae2c-9f2d2061eeec","0198b9d0-29d4-7df3-8625-4b4515841beb","{""num_scrambled_semantic"":""8"",""num_scrambled_causal"":""4"",""num_scrambled_schematic"":""4"",""participantId"":""F91D4B22CBCF44D2AFEF7E1320B30F57"",""assignmentId"":""0198ba0d-611b-7b49-ae2c-9f2d2061eeec"",""projectId"":""0198b9d0-29d4-7df3-8625-4b4515841beb""}","https://test12345.live/?num_scrambled_semantic=8&num_scrambled_causal=4&num_scrambled_schematic=4&participantId=F91D4B22CBCF44D2AFEF7E1320B30F57&assignmentId=0198ba0d-611b-7b49-ae2c-9f2d2061eeec&projectId=0198b9d0-29d4-7df3-8625-4b4515841beb","F91D4B22CBCF44D2AFEF7E1320B30F57-2025-08-17-22-36-19","","null","","images/causal_sequence/package_causal/package_causal_8.png","null","",""
"","","","","","image-button-response","47","603815","0.0-10.0-1.0-1.7","F91D4B22CBCF44D2AFEF7E1320B30F57","F91D4B22CBCF44D2AFEF7E1320B30F57","0198ba0d-611b-7b49-ae2c-9f2d2061eeec","0198b9d0-29d4-7df3-8625-4b4515841beb","{""num_scrambled_semantic"":""8"",""num_scrambled_causal"":""4"",""num_scrambled_schematic"":""4"",""participantId"":""F91D4B22CBCF44D2AFEF7E1320B30F57"",""assignmentId"":""0198ba0d-611b-7b49-ae2c-9f2d2061eeec"",""projectId"":""0198b9d0-29d4-7df3-8625-4b4515841beb""}","https://test12345.live/?num_scrambled_semantic=8&num_scrambled_causal=4&num_scrambled_schematic=4&participantId=F91D4B22CBCF44D2AFEF7E1320B30F57&assignmentId=0198ba0d-611b-7b49-ae2c-9f2d2061eeec&projectId=0198b9d0-29d4-7df3-8625-4b4515841beb","F91D4B22CBCF44D2AFEF7E1320B30F57-2025-08-17-22-36-19","","1232","","images/causal_sequence/package_causal/package_causal_8.png","0","",""
"","","","","","image-button-response","48","609223","0.0-10.0-1.0-2.7","F91D4B22CBCF44D2AFEF7E1320B30F57","F91D4B22CBCF44D2AFEF7E1320B30F57","0198ba0d-611b-7b49-ae2c-9f2d2061eeec","0198b9d0-29d4-7df3-8625-4b4515841beb","{""num_scrambled_semantic"":""8"",""num_scrambled_causal"":""4"",""num_scrambled_schematic"":""4"",""participantId"":""F91D4B22CBCF44D2AFEF7E1320B30F57"",""assignmentId"":""0198ba0d-611b-7b49-ae2c-9f2d2061eeec"",""projectId"":""0198b9d0-29d4-7df3-8625-4b4515841beb""}","https://test12345.live/?num_scrambled_semantic=8&num_scrambled_causal=4&num_scrambled_schematic=4&participantId=F91D4B22CBCF44D2AFEF7E1320B30F57&assignmentId=0198ba0d-611b-7b49-ae2c-9f2d2061eeec&projectId=0198b9d0-29d4-7df3-8625-4b4515841beb","F91D4B22CBCF44D2AFEF7E1320B30F57-2025-08-17-22-36-19","","null","","[]","null","",""
"","","","","","image-button-response","49","613763","0.0-10.0-1.0-0.8","F91D4B22CBCF44D2AFEF7E1320B30F57","F91D4B22CBCF44D2AFEF7E1320B30F57","0198ba0d-611b-7b49-ae2c-9f2d2061eeec","0198b9d0-29d4-7df3-8625-4b4515841beb","{""num_scrambled_semantic"":""8"",""num_scrambled_causal"":""4"",""num_scrambled_schematic"":""4"",""participantId"":""F91D4B22CBCF44D2AFEF7E1320B30F57"",""assignmentId"":""0198ba0d-611b-7b49-ae2c-9f2d2061eeec"",""projectId"":""0198b9d0-29d4-7df3-8625-4b4515841beb""}","https://test12345.live/?num_scrambled_semantic=8&num_scrambled_causal=4&num_scrambled_schematic=4&participantId=F91D4B22CBCF44D2AFEF7E1320B30F57&assignmentId=0198ba0d-611b-7b49-ae2c-9f2d2061eeec&projectId=0198b9d0-29d4-7df3-8625-4b4515841beb","F91D4B22CBCF44D2AFEF7E1320B30F57-2025-08-17-22-36-19","","null","","images/causal_sequence/package_causal/package_causal_2.png","null","",""
"","","","","","image-button-response","50","614438","0.0-10.0-1.0-1.8","F91D4B22CBCF44D2AFEF7E1320B30F57","F91D4B22CBCF44D2AFEF7E1320B30F57","0198ba0d-611b-7b49-ae2c-9f2d2061eeec","0198b9d0-29d4-7df3-8625-4b4515841beb","{""num_scrambled_semantic"":""8"",""num_scrambled_causal"":""4"",""num_scrambled_schematic"":""4"",""participantId"":""F91D4B22CBCF44D2AFEF7E1320B30F57"",""assignmentId"":""0198ba0d-611b-7b49-ae2c-9f2d2061eeec"",""projectId"":""0198b9d0-29d4-7df3-8625-4b4515841beb""}","https://test12345.live/?num_scrambled_semantic=8&num_scrambled_causal=4&num_scrambled_schematic=4&participantId=F91D4B22CBCF44D2AFEF7E1320B30F57&assignmentId=0198ba0d-611b-7b49-ae2c-9f2d2061eeec&projectId=0198b9d0-29d4-7df3-8625-4b4515841beb","F91D4B22CBCF44D2AFEF7E1320B30F57-2025-08-17-22-36-19","","674","","images/causal_sequence/package_causal/package_causal_2.png","0","",""
"","","","","","image-button-response","51","619853","0.0-10.0-1.0-2.8","F91D4B22CBCF44D2AFEF7E1320B30F57","F91D4B22CBCF44D2AFEF7E1320B30F57","0198ba0d-611b-7b49-ae2c-9f2d2061eeec","0198b9d0-29d4-7df3-8625-4b4515841beb","{""num_scrambled_semantic"":""8"",""num_scrambled_causal"":""4"",""num_scrambled_schematic"":""4"",""participantId"":""F91D4B22CBCF44D2AFEF7E1320B30F57"",""assignmentId"":""0198ba0d-611b-7b49-ae2c-9f2d2061eeec"",""projectId"":""0198b9d0-29d4-7df3-8625-4b4515841beb""}","https://test12345.live/?num_scrambled_semantic=8&num_scrambled_causal=4&num_scrambled_schematic=4&participantId=F91D4B22CBCF44D2AFEF7E1320B30F57&assignmentId=0198ba0d-611b-7b49-ae2c-9f2d2061eeec&projectId=0198b9d0-29d4-7df3-8625-4b4515841beb","F91D4B22CBCF44D2AFEF7E1320B30F57-2025-08-17-22-36-19","","null","","[]","null","",""
"","","","","","image-button-response","52","624393","0.0-10.0-1.0-0.9","F91D4B22CBCF44D2AFEF7E1320B30F57","F91D4B22CBCF44D2AFEF7E1320B30F57","0198ba0d-611b-7b49-ae2c-9f2d2061eeec","0198b9d0-29d4-7df3-8625-4b4515841beb","{""num_scrambled_semantic"":""8"",""num_scrambled_causal"":""4"",""num_scrambled_schematic"":""4"",""participantId"":""F91D4B22CBCF44D2AFEF7E1320B30F57"",""assignmentId"":""0198ba0d-611b-7b49-ae2c-9f2d2061eeec"",""projectId"":""0198b9d0-29d4-7df3-8625-4b4515841beb""}","https://test12345.live/?num_scrambled_semantic=8&num_scrambled_causal=4&num_scrambled_schematic=4&participantId=F91D4B22CBCF44D2AFEF7E1320B30F57&assignmentId=0198ba0d-611b-7b49-ae2c-9f2d2061eeec&projectId=0198b9d0-29d4-7df3-8625-4b4515841beb","F91D4B22CBCF44D2AFEF7E1320B30F57-2025-08-17-22-36-19","","null","","images/causal_sequence/package_causal/package_causal_4.png","null","",""
"","","","","","image-button-response","53","624879","0.0-10.0-1.0-1.9","F91D4B22CBCF44D2AFEF7E1320B30F57","F91D4B22CBCF44D2AFEF7E1320B30F57","0198ba0d-611b-7b49-ae2c-9f2d2061eeec","0198b9d0-29d4-7df3-8625-4b4515841beb","{""num_scrambled_semantic"":""8"",""num_scrambled_causal"":""4"",""num_scrambled_schematic"":""4"",""participantId"":""F91D4B22CBCF44D2AFEF7E1320B30F57"",""assignmentId"":""0198ba0d-611b-7b49-ae2c-9f2d2061eeec"",""projectId"":""0198b9d0-29d4-7df3-8625-4b4515841beb""}","https://test12345.live/?num_scrambled_semantic=8&num_scrambled_causal=4&num_scrambled_schematic=4&participantId=F91D4B22CBCF44D2AFEF7E1320B30F57&assignmentId=0198ba0d-611b-7b49-ae2c-9f2d2061eeec&projectId=0198b9d0-29d4-7df3-8625-4b4515841beb","F91D4B22CBCF44D2AFEF7E1320B30F57-2025-08-17-22-36-19","","484","","images/causal_sequence/package_causal/package_causal_4.png","0","",""
"","","","","","image-button-response","54","630283","0.0-10.0-1.0-2.9","F91D4B22CBCF44D2AFEF7E1320B30F57","F91D4B22CBCF44D2AFEF7E1320B30F57","0198ba0d-611b-7b49-ae2c-9f2d2061eeec","0198b9d0-29d4-7df3-8625-4b4515841beb","{""num_scrambled_semantic"":""8"",""num_scrambled_causal"":""4"",""num_scrambled_schematic"":""4"",""participantId"":""F91D4B22CBCF44D2AFEF7E1320B30F57"",""assignmentId"":""0198ba0d-611b-7b49-ae2c-9f2d2061eeec"",""projectId"":""0198b9d0-29d4-7df3-8625-4b4515841beb""}","https://test12345.live/?num_scrambled_semantic=8&num_scrambled_causal=4&num_scrambled_schematic=4&participantId=F91D4B22CBCF44D2AFEF7E1320B30F57&assignmentId=0198ba0d-611b-7b49-ae2c-9f2d2061eeec&projectId=0198b9d0-29d4-7df3-8625-4b4515841beb","F91D4B22CBCF44D2AFEF7E1320B30F57-2025-08-17-22-36-19","","null","","[]","null","",""
"","","","","","html-audio-response","55","639577","0.0-11.0","F91D4B22CBCF44D2AFEF7E1320B30F57","F91D4B22CBCF44D2AFEF7E1320B30F57","0198ba0d-611b-7b49-ae2c-9f2d2061eeec","0198b9d0-29d4-7df3-8625-4b4515841beb","{""num_scrambled_semantic"":""8"",""num_scrambled_causal"":""4"",""num_scrambled_schematic"":""4"",""participantId"":""F91D4B22CBCF44D2AFEF7E1320B30F57"",""assignmentId"":""0198ba0d-611b-7b49-ae2c-9f2d2061eeec"",""projectId"":""0198b9d0-29d4-7df3-8625-4b4515841beb""}","https://test12345.live/?num_scrambled_semantic=8&num_scrambled_causal=4&num_scrambled_schematic=4&participantId=F91D4B22CBCF44D2AFEF7E1320B30F57&assignmentId=0198ba0d-611b-7b49-ae2c-9f2d2061eeec&projectId=0198b9d0-29d4-7df3-8625-4b4515841beb","F91D4B22CBCF44D2AFEF7E1320B30F57-2025-08-17-22-36-19","","2339","","[""<span style=\""color: red; font-size: 24px\""> NOW RECORDING</span><p>Please say out loud all the images you saw, as many as you can remember. The images can be said in any order.</p>""]","","12","package_causal"
"","","","","","image-button-response","56","645604","0.0-12.0-0.0","F91D4B22CBCF44D2AFEF7E1320B30F57","F91D4B22CBCF44D2AFEF7E1320B30F57","0198ba0d-611b-7b49-ae2c-9f2d2061eeec","0198b9d0-29d4-7df3-8625-4b4515841beb","{""num_scrambled_semantic"":""8"",""num_scrambled_causal"":""4"",""num_scrambled_schematic"":""4"",""participantId"":""F91D4B22CBCF44D2AFEF7E1320B30F57"",""assignmentId"":""0198ba0d-611b-7b49-ae2c-9f2d2061eeec"",""projectId"":""0198b9d0-29d4-7df3-8625-4b4515841beb""}","https://test12345.live/?num_scrambled_semantic=8&num_scrambled_causal=4&num_scrambled_schematic=4&participantId=F91D4B22CBCF44D2AFEF7E1320B30F57&assignmentId=0198ba0d-611b-7b49-ae2c-9f2d2061eeec&projectId=0198b9d0-29d4-7df3-8625-4b4515841beb","F91D4B22CBCF44D2AFEF7E1320B30F57-2025-08-17-22-36-19","","null","","images/causal_sequence/museum_causal/museum_causal_0.png","null","",""
"","","","","","image-button-response","57","650133","0.0-12.0-1.0-0.0","F91D4B22CBCF44D2AFEF7E1320B30F57","F91D4B22CBCF44D2AFEF7E1320B30F57","0198ba0d-611b-7b49-ae2c-9f2d2061eeec","0198b9d0-29d4-7df3-8625-4b4515841beb","{""num_scrambled_semantic"":""8"",""num_scrambled_causal"":""4"",""num_scrambled_schematic"":""4"",""participantId"":""F91D4B22CBCF44D2AFEF7E1320B30F57"",""assignmentId"":""0198ba0d-611b-7b49-ae2c-9f2d2061eeec"",""projectId"":""0198b9d0-29d4-7df3-8625-4b4515841beb""}","https://test12345.live/?num_scrambled_semantic=8&num_scrambled_causal=4&num_scrambled_schematic=4&participantId=F91D4B22CBCF44D2AFEF7E1320B30F57&assignmentId=0198ba0d-611b-7b49-ae2c-9f2d2061eeec&projectId=0198b9d0-29d4-7df3-8625-4b4515841beb","F91D4B22CBCF44D2AFEF7E1320B30F57-2025-08-17-22-36-19","","null","","images/causal_sequence/museum_causal/museum_causal_1.png","null","",""
"","","","","","image-button-response","58","651224","0.0-12.0-1.0-1.0","F91D4B22CBCF44D2AFEF7E1320B30F57","F91D4B22CBCF44D2AFEF7E1320B30F57","0198ba0d-611b-7b49-ae2c-9f2d2061eeec","0198b9d0-29d4-7df3-8625-4b4515841beb","{""num_scrambled_semantic"":""8"",""num_scrambled_causal"":""4"",""num_scrambled_schematic"":""4"",""participantId"":""F91D4B22CBCF44D2AFEF7E1320B30F57"",""assignmentId"":""0198ba0d-611b-7b49-ae2c-9f2d2061eeec"",""projectId"":""0198b9d0-29d4-7df3-8625-4b4515841beb""}","https://test12345.live/?num_scrambled_semantic=8&num_scrambled_causal=4&num_scrambled_schematic=4&participantId=F91D4B22CBCF44D2AFEF7E1320B30F57&assignmentId=0198ba0d-611b-7b49-ae2c-9f2d2061eeec&projectId=0198b9d0-29d4-7df3-8625-4b4515841beb","F91D4B22CBCF44D2AFEF7E1320B30F57-2025-08-17-22-36-19","","1089","","images/causal_sequence/museum_causal/museum_causal_1.png","0","",""
"","","","","","image-button-response","59","656633","0.0-12.0-1.0-2.0","F91D4B22CBCF44D2AFEF7E1320B30F57","F91D4B22CBCF44D2AFEF7E1320B30F57","0198ba0d-611b-7b49-ae2c-9f2d2061eeec","0198b9d0-29d4-7df3-8625-4b4515841beb","{""num_scrambled_semantic"":""8"",""num_scrambled_causal"":""4"",""num_scrambled_schematic"":""4"",""participantId"":""F91D4B22CBCF44D2AFEF7E1320B30F57"",""assignmentId"":""0198ba0d-611b-7b49-ae2c-9f2d2061eeec"",""projectId"":""0198b9d0-29d4-7df3-8625-4b4515841beb""}","https://test12345.live/?num_scrambled_semantic=8&num_scrambled_causal=4&num_scrambled_schematic=4&participantId=F91D4B22CBCF44D2AFEF7E1320B30F57&assignmentId=0198ba0d-611b-7b49-ae2c-9f2d2061eeec&projectId=0198b9d0-29d4-7df3-8625-4b4515841beb","F91D4B22CBCF44D2AFEF7E1320B30F57-2025-08-17-22-36-19","","null","","[]","null","",""
"","","","","","image-button-response","60","661383","0.0-12.0-1.0-0.1","F91D4B22CBCF44D2AFEF7E1320B30F57","F91D4B22CBCF44D2AFEF7E1320B30F57","0198ba0d-611b-7b49-ae2c-9f2d2061eeec","0198b9d0-29d4-7df3-8625-4b4515841beb","{""num_scrambled_semantic"":""8"",""num_scrambled_causal"":""4"",""num_scrambled_schematic"":""4"",""participantId"":""F91D4B22CBCF44D2AFEF7E1320B30F57"",""assignmentId"":""0198ba0d-611b-7b49-ae2c-9f2d2061eeec"",""projectId"":""0198b9d0-29d4-7df3-8625-4b4515841beb""}","https://test12345.live/?num_scrambled_semantic=8&num_scrambled_causal=4&num_scrambled_schematic=4&participantId=F91D4B22CBCF44D2AFEF7E1320B30F57&assignmentId=0198ba0d-611b-7b49-ae2c-9f2d2061eeec&projectId=0198b9d0-29d4-7df3-8625-4b4515841beb","F91D4B22CBCF44D2AFEF7E1320B30F57-2025-08-17-22-36-19","","null","","images/causal_sequence/museum_causal/museum_causal_2.png","null","",""
"","","","","","image-button-response","61","662316","0.0-12.0-1.0-1.1","F91D4B22CBCF44D2AFEF7E1320B30F57","F91D4B22CBCF44D2AFEF7E1320B30F57","0198ba0d-611b-7b49-ae2c-9f2d2061eeec","0198b9d0-29d4-7df3-8625-4b4515841beb","{""num_scrambled_semantic"":""8"",""num_scrambled_causal"":""4"",""num_scrambled_schematic"":""4"",""participantId"":""F91D4B22CBCF44D2AFEF7E1320B30F57"",""assignmentId"":""0198ba0d-611b-7b49-ae2c-9f2d2061eeec"",""projectId"":""0198b9d0-29d4-7df3-8625-4b4515841beb""}","https://test12345.live/?num_scrambled_semantic=8&num_scrambled_causal=4&num_scrambled_schematic=4&participantId=F91D4B22CBCF44D2AFEF7E1320B30F57&assignmentId=0198ba0d-611b-7b49-ae2c-9f2d2061eeec&projectId=0198b9d0-29d4-7df3-8625-4b4515841beb","F91D4B22CBCF44D2AFEF7E1320B30F57-2025-08-17-22-36-19","","933","","images/causal_sequence/museum_causal/museum_causal_2.png","0","",""
"","","","","","image-button-response","62","667733","0.0-12.0-1.0-2.1","F91D4B22CBCF44D2AFEF7E1320B30F57","F91D4B22CBCF44D2AFEF7E1320B30F57","0198ba0d-611b-7b49-ae2c-9f2d2061eeec","0198b9d0-29d4-7df3-8625-4b4515841beb","{""num_scrambled_semantic"":""8"",""num_scrambled_causal"":""4"",""num_scrambled_schematic"":""4"",""participantId"":""F91D4B22CBCF44D2AFEF7E1320B30F57"",""assignmentId"":""0198ba0d-611b-7b49-ae2c-9f2d2061eeec"",""projectId"":""0198b9d0-29d4-7df3-8625-4b4515841beb""}","https://test12345.live/?num_scrambled_semantic=8&num_scrambled_causal=4&num_scrambled_schematic=4&participantId=F91D4B22CBCF44D2AFEF7E1320B30F57&assignmentId=0198ba0d-611b-7b49-ae2c-9f2d2061eeec&projectId=0198b9d0-29d4-7df3-8625-4b4515841beb","F91D4B22CBCF44D2AFEF7E1320B30F57-2025-08-17-22-36-19","","null","","[]","null","",""
"","","","","","image-button-response","63","672273","0.0-12.0-1.0-0.2","F91D4B22CBCF44D2AFEF7E1320B30F57","F91D4B22CBCF44D2AFEF7E1320B30F57","0198ba0d-611b-7b49-ae2c-9f2d2061eeec","0198b9d0-29d4-7df3-8625-4b4515841beb","{""num_scrambled_semantic"":""8"",""num_scrambled_causal"":""4"",""num_scrambled_schematic"":""4"",""participantId"":""F91D4B22CBCF44D2AFEF7E1320B30F57"",""assignmentId"":""0198ba0d-611b-7b49-ae2c-9f2d2061eeec"",""projectId"":""0198b9d0-29d4-7df3-8625-4b4515841beb""}","https://test12345.live/?num_scrambled_semantic=8&num_scrambled_causal=4&num_scrambled_schematic=4&participantId=F91D4B22CBCF44D2AFEF7E1320B30F57&assignmentId=0198ba0d-611b-7b49-ae2c-9f2d2061eeec&projectId=0198b9d0-29d4-7df3-8625-4b4515841beb","F91D4B22CBCF44D2AFEF7E1320B30F57-2025-08-17-22-36-19","","null","","images/causal_sequence/museum_causal/museum_causal_3.png","null","",""
"","","","","","image-button-response","64","673299","0.0-12.0-1.0-1.2","F91D4B22CBCF44D2AFEF7E1320B30F57","F91D4B22CBCF44D2AFEF7E1320B30F57","0198ba0d-611b-7b49-ae2c-9f2d2061eeec","0198b9d0-29d4-7df3-8625-4b4515841beb","{""num_scrambled_semantic"":""8"",""num_scrambled_causal"":""4"",""num_scrambled_schematic"":""4"",""participantId"":""F91D4B22CBCF44D2AFEF7E1320B30F57"",""assignmentId"":""0198ba0d-611b-7b49-ae2c-9f2d2061eeec"",""projectId"":""0198b9d0-29d4-7df3-8625-4b4515841beb""}","https://test12345.live/?num_scrambled_semantic=8&num_scrambled_causal=4&num_scrambled_schematic=4&participantId=F91D4B22CBCF44D2AFEF7E1320B30F57&assignmentId=0198ba0d-611b-7b49-ae2c-9f2d2061eeec&projectId=0198b9d0-29d4-7df3-8625-4b4515841beb","F91D4B22CBCF44D2AFEF7E1320B30F57-2025-08-17-22-36-19","","1024","","images/causal_sequence/museum_causal/museum_causal_3.png","0","",""
"","","","","","image-button-response","65","678713","0.0-12.0-1.0-2.2","F91D4B22CBCF44D2AFEF7E1320B30F57","F91D4B22CBCF44D2AFEF7E1320B30F57","0198ba0d-611b-7b49-ae2c-9f2d2061eeec","0198b9d0-29d4-7df3-8625-4b4515841beb","{""num_scrambled_semantic"":""8"",""num_scrambled_causal"":""4"",""num_scrambled_schematic"":""4"",""participantId"":""F91D4B22CBCF44D2AFEF7E1320B30F57"",""assignmentId"":""0198ba0d-611b-7b49-ae2c-9f2d2061eeec"",""projectId"":""0198b9d0-29d4-7df3-8625-4b4515841beb""}","https://test12345.live/?num_scrambled_semantic=8&num_scrambled_causal=4&num_scrambled_schematic=4&participantId=F91D4B22CBCF44D2AFEF7E1320B30F57&assignmentId=0198ba0d-611b-7b49-ae2c-9f2d2061eeec&projectId=0198b9d0-29d4-7df3-8625-4b4515841beb","F91D4B22CBCF44D2AFEF7E1320B30F57-2025-08-17-22-36-19","","null","","[]","null","",""
"","","","","","image-button-response","66","683293","0.0-12.0-1.0-0.3","F91D4B22CBCF44D2AFEF7E1320B30F57","F91D4B22CBCF44D2AFEF7E1320B30F57","0198ba0d-611b-7b49-ae2c-9f2d2061eeec","0198b9d0-29d4-7df3-8625-4b4515841beb","{""num_scrambled_semantic"":""8"",""num_scrambled_causal"":""4"",""num_scrambled_schematic"":""4"",""participantId"":""F91D4B22CBCF44D2AFEF7E1320B30F57"",""assignmentId"":""0198ba0d-611b-7b49-ae2c-9f2d2061eeec"",""projectId"":""0198b9d0-29d4-7df3-8625-4b4515841beb""}","https://test12345.live/?num_scrambled_semantic=8&num_scrambled_causal=4&num_scrambled_schematic=4&participantId=F91D4B22CBCF44D2AFEF7E1320B30F57&assignmentId=0198ba0d-611b-7b49-ae2c-9f2d2061eeec&projectId=0198b9d0-29d4-7df3-8625-4b4515841beb","F91D4B22CBCF44D2AFEF7E1320B30F57-2025-08-17-22-36-19","","null","","images/causal_sequence/museum_causal/museum_causal_4.png","null","",""
"","","","","","image-button-response","67","684294","0.0-12.0-1.0-1.3","F91D4B22CBCF44D2AFEF7E1320B30F57","F91D4B22CBCF44D2AFEF7E1320B30F57","0198ba0d-611b-7b49-ae2c-9f2d2061eeec","0198b9d0-29d4-7df3-8625-4b4515841beb","{""num_scrambled_semantic"":""8"",""num_scrambled_causal"":""4"",""num_scrambled_schematic"":""4"",""participantId"":""F91D4B22CBCF44D2AFEF7E1320B30F57"",""assignmentId"":""0198ba0d-611b-7b49-ae2c-9f2d2061eeec"",""projectId"":""0198b9d0-29d4-7df3-8625-4b4515841beb""}","https://test12345.live/?num_scrambled_semantic=8&num_scrambled_causal=4&num_scrambled_schematic=4&participantId=F91D4B22CBCF44D2AFEF7E1320B30F57&assignmentId=0198ba0d-611b-7b49-ae2c-9f2d2061eeec&projectId=0198b9d0-29d4-7df3-8625-4b4515841beb","F91D4B22CBCF44D2AFEF7E1320B30F57-2025-08-17-22-36-19","","1000","","images/causal_sequence/museum_causal/museum_causal_4.png","1","",""
"","","","","","image-button-response","68","689713","0.0-12.0-1.0-2.3","F91D4B22CBCF44D2AFEF7E1320B30F57","F91D4B22CBCF44D2AFEF7E1320B30F57","0198ba0d-611b-7b49-ae2c-9f2d2061eeec","0198b9d0-29d4-7df3-8625-4b4515841beb","{""num_scrambled_semantic"":""8"",""num_scrambled_causal"":""4"",""num_scrambled_schematic"":""4"",""participantId"":""F91D4B22CBCF44D2AFEF7E1320B30F57"",""assignmentId"":""0198ba0d-611b-7b49-ae2c-9f2d2061eeec"",""projectId"":""0198b9d0-29d4-7df3-8625-4b4515841beb""}","https://test12345.live/?num_scrambled_semantic=8&num_scrambled_causal=4&num_scrambled_schematic=4&participantId=F91D4B22CBCF44D2AFEF7E1320B30F57&assignmentId=0198ba0d-611b-7b49-ae2c-9f2d2061eeec&projectId=0198b9d0-29d4-7df3-8625-4b4515841beb","F91D4B22CBCF44D2AFEF7E1320B30F57-2025-08-17-22-36-19","","null","","[]","null","",""
"","","","","","image-button-response","69","694318","0.0-12.0-1.0-0.4","F91D4B22CBCF44D2AFEF7E1320B30F57","F91D4B22CBCF44D2AFEF7E1320B30F57","0198ba0d-611b-7b49-ae2c-9f2d2061eeec","0198b9d0-29d4-7df3-8625-4b4515841beb","{""num_scrambled_semantic"":""8"",""num_scrambled_causal"":""4"",""num_scrambled_schematic"":""4"",""participantId"":""F91D4B22CBCF44D2AFEF7E1320B30F57"",""assignmentId"":""0198ba0d-611b-7b49-ae2c-9f2d2061eeec"",""projectId"":""0198b9d0-29d4-7df3-8625-4b4515841beb""}","https://test12345.live/?num_scrambled_semantic=8&num_scrambled_causal=4&num_scrambled_schematic=4&participantId=F91D4B22CBCF44D2AFEF7E1320B30F57&assignmentId=0198ba0d-611b-7b49-ae2c-9f2d2061eeec&projectId=0198b9d0-29d4-7df3-8625-4b4515841beb","F91D4B22CBCF44D2AFEF7E1320B30F57-2025-08-17-22-36-19","","null","","images/causal_sequence/museum_causal/museum_causal_5.png","null","",""
"","","","","","image-button-response","70","694914","0.0-12.0-1.0-1.4","F91D4B22CBCF44D2AFEF7E1320B30F57","F91D4B22CBCF44D2AFEF7E1320B30F57","0198ba0d-611b-7b49-ae2c-9f2d2061eeec","0198b9d0-29d4-7df3-8625-4b4515841beb","{""num_scrambled_semantic"":""8"",""num_scrambled_causal"":""4"",""num_scrambled_schematic"":""4"",""participantId"":""F91D4B22CBCF44D2AFEF7E1320B30F57"",""assignmentId"":""0198ba0d-611b-7b49-ae2c-9f2d2061eeec"",""projectId"":""0198b9d0-29d4-7df3-8625-4b4515841beb""}","https://test12345.live/?num_scrambled_semantic=8&num_scrambled_causal=4&num_scrambled_schematic=4&participantId=F91D4B22CBCF44D2AFEF7E1320B30F57&assignmentId=0198ba0d-611b-7b49-ae2c-9f2d2061eeec&projectId=0198b9d0-29d4-7df3-8625-4b4515841beb","F91D4B22CBCF44D2AFEF7E1320B30F57-2025-08-17-22-36-19","","595","","images/causal_sequence/museum_causal/museum_causal_5.png","0","",""
"","","","","","image-button-response","71","700323","0.0-12.0-1.0-2.4","F91D4B22CBCF44D2AFEF7E1320B30F57","F91D4B22CBCF44D2AFEF7E1320B30F57","0198ba0d-611b-7b49-ae2c-9f2d2061eeec","0198b9d0-29d4-7df3-8625-4b4515841beb","{""num_scrambled_semantic"":""8"",""num_scrambled_causal"":""4"",""num_scrambled_schematic"":""4"",""participantId"":""F91D4B22CBCF44D2AFEF7E1320B30F57"",""assignmentId"":""0198ba0d-611b-7b49-ae2c-9f2d2061eeec"",""projectId"":""0198b9d0-29d4-7df3-8625-4b4515841beb""}","https://test12345.live/?num_scrambled_semantic=8&num_scrambled_causal=4&num_scrambled_schematic=4&participantId=F91D4B22CBCF44D2AFEF7E1320B30F57&assignmentId=0198ba0d-611b-7b49-ae2c-9f2d2061eeec&projectId=0198b9d0-29d4-7df3-8625-4b4515841beb","F91D4B22CBCF44D2AFEF7E1320B30F57-2025-08-17-22-36-19","","null","","[]","null","",""
"","","","","","image-button-response","72","704863","0.0-12.0-1.0-0.5","F91D4B22CBCF44D2AFEF7E1320B30F57","F91D4B22CBCF44D2AFEF7E1320B30F57","0198ba0d-611b-7b49-ae2c-9f2d2061eeec","0198b9d0-29d4-7df3-8625-4b4515841beb","{""num_scrambled_semantic"":""8"",""num_scrambled_causal"":""4"",""num_scrambled_schematic"":""4"",""participantId"":""F91D4B22CBCF44D2AFEF7E1320B30F57"",""assignmentId"":""0198ba0d-611b-7b49-ae2c-9f2d2061eeec"",""projectId"":""0198b9d0-29d4-7df3-8625-4b4515841beb""}","https://test12345.live/?num_scrambled_semantic=8&num_scrambled_causal=4&num_scrambled_schematic=4&participantId=F91D4B22CBCF44D2AFEF7E1320B30F57&assignmentId=0198ba0d-611b-7b49-ae2c-9f2d2061eeec&projectId=0198b9d0-29d4-7df3-8625-4b4515841beb","F91D4B22CBCF44D2AFEF7E1320B30F57-2025-08-17-22-36-19","","null","","images/causal_sequence/museum_causal/museum_causal_6.png","null","",""
"","","","","","image-button-response","73","705756","0.0-12.0-1.0-1.5","F91D4B22CBCF44D2AFEF7E1320B30F57","F91D4B22CBCF44D2AFEF7E1320B30F57","0198ba0d-611b-7b49-ae2c-9f2d2061eeec","0198b9d0-29d4-7df3-8625-4b4515841beb","{""num_scrambled_semantic"":""8"",""num_scrambled_causal"":""4"",""num_scrambled_schematic"":""4"",""participantId"":""F91D4B22CBCF44D2AFEF7E1320B30F57"",""assignmentId"":""0198ba0d-611b-7b49-ae2c-9f2d2061eeec"",""projectId"":""0198b9d0-29d4-7df3-8625-4b4515841beb""}","https://test12345.live/?num_scrambled_semantic=8&num_scrambled_causal=4&num_scrambled_schematic=4&participantId=F91D4B22CBCF44D2AFEF7E1320B30F57&assignmentId=0198ba0d-611b-7b49-ae2c-9f2d2061eeec&projectId=0198b9d0-29d4-7df3-8625-4b4515841beb","F91D4B22CBCF44D2AFEF7E1320B30F57-2025-08-17-22-36-19","","893","","images/causal_sequence/museum_causal/museum_causal_6.png","0","",""
"","","","","","image-button-response","74","711163","0.0-12.0-1.0-2.5","F91D4B22CBCF44D2AFEF7E1320B30F57","F91D4B22CBCF44D2AFEF7E1320B30F57","0198ba0d-611b-7b49-ae2c-9f2d2061eeec","0198b9d0-29d4-7df3-8625-4b4515841beb","{""num_scrambled_semantic"":""8"",""num_scrambled_causal"":""4"",""num_scrambled_schematic"":""4"",""participantId"":""F91D4B22CBCF44D2AFEF7E1320B30F57"",""assignmentId"":""0198ba0d-611b-7b49-ae2c-9f2d2061eeec"",""projectId"":""0198b9d0-29d4-7df3-8625-4b4515841beb""}","https://test12345.live/?num_scrambled_semantic=8&num_scrambled_causal=4&num_scrambled_schematic=4&participantId=F91D4B22CBCF44D2AFEF7E1320B30F57&assignmentId=0198ba0d-611b-7b49-ae2c-9f2d2061eeec&projectId=0198b9d0-29d4-7df3-8625-4b4515841beb","F91D4B22CBCF44D2AFEF7E1320B30F57-2025-08-17-22-36-19","","null","","[]","null","",""
"","","","","","image-button-response","75","715683","0.0-12.0-1.0-0.6","F91D4B22CBCF44D2AFEF7E1320B30F57","F91D4B22CBCF44D2AFEF7E1320B30F57","0198ba0d-611b-7b49-ae2c-9f2d2061eeec","0198b9d0-29d4-7df3-8625-4b4515841beb","{""num_scrambled_semantic"":""8"",""num_scrambled_causal"":""4"",""num_scrambled_schematic"":""4"",""participantId"":""F91D4B22CBCF44D2AFEF7E1320B30F57"",""assignmentId"":""0198ba0d-611b-7b49-ae2c-9f2d2061eeec"",""projectId"":""0198b9d0-29d4-7df3-8625-4b4515841beb""}","https://test12345.live/?num_scrambled_semantic=8&num_scrambled_causal=4&num_scrambled_schematic=4&participantId=F91D4B22CBCF44D2AFEF7E1320B30F57&assignmentId=0198ba0d-611b-7b49-ae2c-9f2d2061eeec&projectId=0198b9d0-29d4-7df3-8625-4b4515841beb","F91D4B22CBCF44D2AFEF7E1320B30F57-2025-08-17-22-36-19","","null","","images/causal_sequence/museum_causal/museum_causal_7.png","null","",""
"","","","","","image-button-response","76","716709","0.0-12.0-1.0-1.6","F91D4B22CBCF44D2AFEF7E1320B30F57","F91D4B22CBCF44D2AFEF7E1320B30F57","0198ba0d-611b-7b49-ae2c-9f2d2061eeec","0198b9d0-29d4-7df3-8625-4b4515841beb","{""num_scrambled_semantic"":""8"",""num_scrambled_causal"":""4"",""num_scrambled_schematic"":""4"",""participantId"":""F91D4B22CBCF44D2AFEF7E1320B30F57"",""assignmentId"":""0198ba0d-611b-7b49-ae2c-9f2d2061eeec"",""projectId"":""0198b9d0-29d4-7df3-8625-4b4515841beb""}","https://test12345.live/?num_scrambled_semantic=8&num_scrambled_causal=4&num_scrambled_schematic=4&participantId=F91D4B22CBCF44D2AFEF7E1320B30F57&assignmentId=0198ba0d-611b-7b49-ae2c-9f2d2061eeec&projectId=0198b9d0-29d4-7df3-8625-4b4515841beb","F91D4B22CBCF44D2AFEF7E1320B30F57-2025-08-17-22-36-19","","1025","","images/causal_sequence/museum_causal/museum_causal_7.png","1","",""
"","","","","","image-button-response","77","722123","0.0-12.0-1.0-2.6","F91D4B22CBCF44D2AFEF7E1320B30F57","F91D4B22CBCF44D2AFEF7E1320B30F57","0198ba0d-611b-7b49-ae2c-9f2d2061eeec","0198b9d0-29d4-7df3-8625-4b4515841beb","{""num_scrambled_semantic"":""8"",""num_scrambled_causal"":""4"",""num_scrambled_schematic"":""4"",""participantId"":""F91D4B22CBCF44D2AFEF7E1320B30F57"",""assignmentId"":""0198ba0d-611b-7b49-ae2c-9f2d2061eeec"",""projectId"":""0198b9d0-29d4-7df3-8625-4b4515841beb""}","https://test12345.live/?num_scrambled_semantic=8&num_scrambled_causal=4&num_scrambled_schematic=4&participantId=F91D4B22CBCF44D2AFEF7E1320B30F57&assignmentId=0198ba0d-611b-7b49-ae2c-9f2d2061eeec&projectId=0198b9d0-29d4-7df3-8625-4b4515841beb","F91D4B22CBCF44D2AFEF7E1320B30F57-2025-08-17-22-36-19","","null","","[]","null","",""
"","","","","","image-button-response","78","726744","0.0-12.0-1.0-0.7","F91D4B22CBCF44D2AFEF7E1320B30F57","F91D4B22CBCF44D2AFEF7E1320B30F57","0198ba0d-611b-7b49-ae2c-9f2d2061eeec","0198b9d0-29d4-7df3-8625-4b4515841beb","{""num_scrambled_semantic"":""8"",""num_scrambled_causal"":""4"",""num_scrambled_schematic"":""4"",""participantId"":""F91D4B22CBCF44D2AFEF7E1320B30F57"",""assignmentId"":""0198ba0d-611b-7b49-ae2c-9f2d2061eeec"",""projectId"":""0198b9d0-29d4-7df3-8625-4b4515841beb""}","https://test12345.live/?num_scrambled_semantic=8&num_scrambled_causal=4&num_scrambled_schematic=4&participantId=F91D4B22CBCF44D2AFEF7E1320B30F57&assignmentId=0198ba0d-611b-7b49-ae2c-9f2d2061eeec&projectId=0198b9d0-29d4-7df3-8625-4b4515841beb","F91D4B22CBCF44D2AFEF7E1320B30F57-2025-08-17-22-36-19","","null","","images/causal_sequence/museum_causal/museum_causal_8.png","null","",""
"","","","","","image-button-response","79","727646","0.0-12.0-1.0-1.7","F91D4B22CBCF44D2AFEF7E1320B30F57","F91D4B22CBCF44D2AFEF7E1320B30F57","0198ba0d-611b-7b49-ae2c-9f2d2061eeec","0198b9d0-29d4-7df3-8625-4b4515841beb","{""num_scrambled_semantic"":""8"",""num_scrambled_causal"":""4"",""num_scrambled_schematic"":""4"",""participantId"":""F91D4B22CBCF44D2AFEF7E1320B30F57"",""assignmentId"":""0198ba0d-611b-7b49-ae2c-9f2d2061eeec"",""projectId"":""0198b9d0-29d4-7df3-8625-4b4515841beb""}","https://test12345.live/?num_scrambled_semantic=8&num_scrambled_causal=4&num_scrambled_schematic=4&participantId=F91D4B22CBCF44D2AFEF7E1320B30F57&assignmentId=0198ba0d-611b-7b49-ae2c-9f2d2061eeec&projectId=0198b9d0-29d4-7df3-8625-4b4515841beb","F91D4B22CBCF44D2AFEF7E1320B30F57-2025-08-17-22-36-19","","903","","images/causal_sequence/museum_causal/museum_causal_8.png","0","",""
"","","","","","image-button-response","80","733058","0.0-12.0-1.0-2.7","F91D4B22CBCF44D2AFEF7E1320B30F57","F91D4B22CBCF44D2AFEF7E1320B30F57","0198ba0d-611b-7b49-ae2c-9f2d2061eeec","0198b9d0-29d4-7df3-8625-4b4515841beb","{""num_scrambled_semantic"":""8"",""num_scrambled_causal"":""4"",""num_scrambled_schematic"":""4"",""participantId"":""F91D4B22CBCF44D2AFEF7E1320B30F57"",""assignmentId"":""0198ba0d-611b-7b49-ae2c-9f2d2061eeec"",""projectId"":""0198b9d0-29d4-7df3-8625-4b4515841beb""}","https://test12345.live/?num_scrambled_semantic=8&num_scrambled_causal=4&num_scrambled_schematic=4&participantId=F91D4B22CBCF44D2AFEF7E1320B30F57&assignmentId=0198ba0d-611b-7b49-ae2c-9f2d2061eeec&projectId=0198b9d0-29d4-7df3-8625-4b4515841beb","F91D4B22CBCF44D2AFEF7E1320B30F57-2025-08-17-22-36-19","","null","","[]","null","",""
"","","","","","image-button-response","81","737643","0.0-12.0-1.0-0.8","F91D4B22CBCF44D2AFEF7E1320B30F57","F91D4B22CBCF44D2AFEF7E1320B30F57","0198ba0d-611b-7b49-ae2c-9f2d2061eeec","0198b9d0-29d4-7df3-8625-4b4515841beb","{""num_scrambled_semantic"":""8"",""num_scrambled_causal"":""4"",""num_scrambled_schematic"":""4"",""participantId"":""F91D4B22CBCF44D2AFEF7E1320B30F57"",""assignmentId"":""0198ba0d-611b-7b49-ae2c-9f2d2061eeec"",""projectId"":""0198b9d0-29d4-7df3-8625-4b4515841beb""}","https://test12345.live/?num_scrambled_semantic=8&num_scrambled_causal=4&num_scrambled_schematic=4&participantId=F91D4B22CBCF44D2AFEF7E1320B30F57&assignmentId=0198ba0d-611b-7b49-ae2c-9f2d2061eeec&projectId=0198b9d0-29d4-7df3-8625-4b4515841beb","F91D4B22CBCF44D2AFEF7E1320B30F57-2025-08-17-22-36-19","","null","","images/causal_sequence/museum_causal/museum_causal_9.png","null","",""
"","","","","","image-button-response","82","738425","0.0-12.0-1.0-1.8","F91D4B22CBCF44D2AFEF7E1320B30F57","F91D4B22CBCF44D2AFEF7E1320B30F57","0198ba0d-611b-7b49-ae2c-9f2d2061eeec","0198b9d0-29d4-7df3-8625-4b4515841beb","{""num_scrambled_semantic"":""8"",""num_scrambled_causal"":""4"",""num_scrambled_schematic"":""4"",""participantId"":""F91D4B22CBCF44D2AFEF7E1320B30F57"",""assignmentId"":""0198ba0d-611b-7b49-ae2c-9f2d2061eeec"",""projectId"":""0198b9d0-29d4-7df3-8625-4b4515841beb""}","https://test12345.live/?num_scrambled_semantic=8&num_scrambled_causal=4&num_scrambled_schematic=4&participantId=F91D4B22CBCF44D2AFEF7E1320B30F57&assignmentId=0198ba0d-611b-7b49-ae2c-9f2d2061eeec&projectId=0198b9d0-29d4-7df3-8625-4b4515841beb","F91D4B22CBCF44D2AFEF7E1320B30F57-2025-08-17-22-36-19","","781","","images/causal_sequence/museum_causal/museum_causal_9.png","1","",""
"","","","","","image-button-response","83","743843","0.0-12.0-1.0-2.8","F91D4B22CBCF44D2AFEF7E1320B30F57","F91D4B22CBCF44D2AFEF7E1320B30F57","0198ba0d-611b-7b49-ae2c-9f2d2061eeec","0198b9d0-29d4-7df3-8625-4b4515841beb","{""num_scrambled_semantic"":""8"",""num_scrambled_causal"":""4"",""num_scrambled_schematic"":""4"",""participantId"":""F91D4B22CBCF44D2AFEF7E1320B30F57"",""assignmentId"":""0198ba0d-611b-7b49-ae2c-9f2d2061eeec"",""projectId"":""0198b9d0-29d4-7df3-8625-4b4515841beb""}","https://test12345.live/?num_scrambled_semantic=8&num_scrambled_causal=4&num_scrambled_schematic=4&participantId=F91D4B22CBCF44D2AFEF7E1320B30F57&assignmentId=0198ba0d-611b-7b49-ae2c-9f2d2061eeec&projectId=0198b9d0-29d4-7df3-8625-4b4515841beb","F91D4B22CBCF44D2AFEF7E1320B30F57-2025-08-17-22-36-19","","null","","[]","null","",""
"","","","","","image-button-response","84","748423","0.0-12.0-1.0-0.9","F91D4B22CBCF44D2AFEF7E1320B30F57","F91D4B22CBCF44D2AFEF7E1320B30F57","0198ba0d-611b-7b49-ae2c-9f2d2061eeec","0198b9d0-29d4-7df3-8625-4b4515841beb","{""num_scrambled_semantic"":""8"",""num_scrambled_causal"":""4"",""num_scrambled_schematic"":""4"",""participantId"":""F91D4B22CBCF44D2AFEF7E1320B30F57"",""assignmentId"":""0198ba0d-611b-7b49-ae2c-9f2d2061eeec"",""projectId"":""0198b9d0-29d4-7df3-8625-4b4515841beb""}","https://test12345.live/?num_scrambled_semantic=8&num_scrambled_causal=4&num_scrambled_schematic=4&participantId=F91D4B22CBCF44D2AFEF7E1320B30F57&assignmentId=0198ba0d-611b-7b49-ae2c-9f2d2061eeec&projectId=0198b9d0-29d4-7df3-8625-4b4515841beb","F91D4B22CBCF44D2AFEF7E1320B30F57-2025-08-17-22-36-19","","null","","images/causal_sequence/museum_causal/museum_causal_ten.png","null","",""
"","","","","","image-button-response","85","749026","0.0-12.0-1.0-1.9","F91D4B22CBCF44D2AFEF7E1320B30F57","F91D4B22CBCF44D2AFEF7E1320B30F57","0198ba0d-611b-7b49-ae2c-9f2d2061eeec","0198b9d0-29d4-7df3-8625-4b4515841beb","{""num_scrambled_semantic"":""8"",""num_scrambled_causal"":""4"",""num_scrambled_schematic"":""4"",""participantId"":""F91D4B22CBCF44D2AFEF7E1320B30F57"",""assignmentId"":""0198ba0d-611b-7b49-ae2c-9f2d2061eeec"",""projectId"":""0198b9d0-29d4-7df3-8625-4b4515841beb""}","https://test12345.live/?num_scrambled_semantic=8&num_scrambled_causal=4&num_scrambled_schematic=4&participantId=F91D4B22CBCF44D2AFEF7E1320B30F57&assignmentId=0198ba0d-611b-7b49-ae2c-9f2d2061eeec&projectId=0198b9d0-29d4-7df3-8625-4b4515841beb","F91D4B22CBCF44D2AFEF7E1320B30F57-2025-08-17-22-36-19","","603","","images/causal_sequence/museum_causal/museum_causal_ten.png","0","",""
"","","","","","image-button-response","86","754443","0.0-12.0-1.0-2.9","F91D4B22CBCF44D2AFEF7E1320B30F57","F91D4B22CBCF44D2AFEF7E1320B30F57","0198ba0d-611b-7b49-ae2c-9f2d2061eeec","0198b9d0-29d4-7df3-8625-4b4515841beb","{""num_scrambled_semantic"":""8"",""num_scrambled_causal"":""4"",""num_scrambled_schematic"":""4"",""participantId"":""F91D4B22CBCF44D2AFEF7E1320B30F57"",""assignmentId"":""0198ba0d-611b-7b49-ae2c-9f2d2061eeec"",""projectId"":""0198b9d0-29d4-7df3-8625-4b4515841beb""}","https://test12345.live/?num_scrambled_semantic=8&num_scrambled_causal=4&num_scrambled_schematic=4&participantId=F91D4B22CBCF44D2AFEF7E1320B30F57&assignmentId=0198ba0d-611b-7b49-ae2c-9f2d2061eeec&projectId=0198b9d0-29d4-7df3-8625-4b4515841beb","F91D4B22CBCF44D2AFEF7E1320B30F57-2025-08-17-22-36-19","","null","","[]","null","",""
"","","","","","html-audio-response","87","760689","0.0-13.0","F91D4B22CBCF44D2AFEF7E1320B30F57","F91D4B22CBCF44D2AFEF7E1320B30F57","0198ba0d-611b-7b49-ae2c-9f2d2061eeec","0198b9d0-29d4-7df3-8625-4b4515841beb","{""num_scrambled_semantic"":""8"",""num_scrambled_causal"":""4"",""num_scrambled_schematic"":""4"",""participantId"":""F91D4B22CBCF44D2AFEF7E1320B30F57"",""assignmentId"":""0198ba0d-611b-7b49-ae2c-9f2d2061eeec"",""projectId"":""0198b9d0-29d4-7df3-8625-4b4515841beb""}","https://test12345.live/?num_scrambled_semantic=8&num_scrambled_causal=4&num_scrambled_schematic=4&participantId=F91D4B22CBCF44D2AFEF7E1320B30F57&assignmentId=0198ba0d-611b-7b49-ae2c-9f2d2061eeec&projectId=0198b9d0-29d4-7df3-8625-4b4515841beb","F91D4B22CBCF44D2AFEF7E1320B30F57-2025-08-17-22-36-19","","2644","","[""<span style=\""color: red; font-size: 24px\""> NOW RECORDING</span><p>Please say out loud all the images you saw, as many as you can remember. The images can be said in any order.</p>""]","","1","museum_causal"
"","","","","","image-button-response","88","767123","0.0-14.0-0.0","F91D4B22CBCF44D2AFEF7E1320B30F57","F91D4B22CBCF44D2AFEF7E1320B30F57","0198ba0d-611b-7b49-ae2c-9f2d2061eeec","0198b9d0-29d4-7df3-8625-4b4515841beb","{""num_scrambled_semantic"":""8"",""num_scrambled_causal"":""4"",""num_scrambled_schematic"":""4"",""participantId"":""F91D4B22CBCF44D2AFEF7E1320B30F57"",""assignmentId"":""0198ba0d-611b-7b49-ae2c-9f2d2061eeec"",""projectId"":""0198b9d0-29d4-7df3-8625-4b4515841beb""}","https://test12345.live/?num_scrambled_semantic=8&num_scrambled_causal=4&num_scrambled_schematic=4&participantId=F91D4B22CBCF44D2AFEF7E1320B30F57&assignmentId=0198ba0d-611b-7b49-ae2c-9f2d2061eeec&projectId=0198b9d0-29d4-7df3-8625-4b4515841beb","F91D4B22CBCF44D2AFEF7E1320B30F57-2025-08-17-22-36-19","","null","","images/causal_sequence/coin_causal/coin_causal_0.png","null","",""
"","","","","","image-button-response","89","771663","0.0-14.0-1.0-0.0","F91D4B22CBCF44D2AFEF7E1320B30F57","F91D4B22CBCF44D2AFEF7E1320B30F57","0198ba0d-611b-7b49-ae2c-9f2d2061eeec","0198b9d0-29d4-7df3-8625-4b4515841beb","{""num_scrambled_semantic"":""8"",""num_scrambled_causal"":""4"",""num_scrambled_schematic"":""4"",""participantId"":""F91D4B22CBCF44D2AFEF7E1320B30F57"",""assignmentId"":""0198ba0d-611b-7b49-ae2c-9f2d2061eeec"",""projectId"":""0198b9d0-29d4-7df3-8625-4b4515841beb""}","https://test12345.live/?num_scrambled_semantic=8&num_scrambled_causal=4&num_scrambled_schematic=4&participantId=F91D4B22CBCF44D2AFEF7E1320B30F57&assignmentId=0198ba0d-611b-7b49-ae2c-9f2d2061eeec&projectId=0198b9d0-29d4-7df3-8625-4b4515841beb","F91D4B22CBCF44D2AFEF7E1320B30F57-2025-08-17-22-36-19","","null","","images/causal_sequence/coin_causal/coin_causal_2.png","null","",""
"","","","","","image-button-response","90","772828","0.0-14.0-1.0-1.0","F91D4B22CBCF44D2AFEF7E1320B30F57","F91D4B22CBCF44D2AFEF7E1320B30F57","0198ba0d-611b-7b49-ae2c-9f2d2061eeec","0198b9d0-29d4-7df3-8625-4b4515841beb","{""num_scrambled_semantic"":""8"",""num_scrambled_causal"":""4"",""num_scrambled_schematic"":""4"",""participantId"":""F91D4B22CBCF44D2AFEF7E1320B30F57"",""assignmentId"":""0198ba0d-611b-7b49-ae2c-9f2d2061eeec"",""projectId"":""0198b9d0-29d4-7df3-8625-4b4515841beb""}","https://test12345.live/?num_scrambled_semantic=8&num_scrambled_causal=4&num_scrambled_schematic=4&participantId=F91D4B22CBCF44D2AFEF7E1320B30F57&assignmentId=0198ba0d-611b-7b49-ae2c-9f2d2061eeec&projectId=0198b9d0-29d4-7df3-8625-4b4515841beb","F91D4B22CBCF44D2AFEF7E1320B30F57-2025-08-17-22-36-19","","1164","","images/causal_sequence/coin_causal/coin_causal_2.png","0","",""
"","","","","","image-button-response","91","778233","0.0-14.0-1.0-2.0","F91D4B22CBCF44D2AFEF7E1320B30F57","F91D4B22CBCF44D2AFEF7E1320B30F57","0198ba0d-611b-7b49-ae2c-9f2d2061eeec","0198b9d0-29d4-7df3-8625-4b4515841beb","{""num_scrambled_semantic"":""8"",""num_scrambled_causal"":""4"",""num_scrambled_schematic"":""4"",""participantId"":""F91D4B22CBCF44D2AFEF7E1320B30F57"",""assignmentId"":""0198ba0d-611b-7b49-ae2c-9f2d2061eeec"",""projectId"":""0198b9d0-29d4-7df3-8625-4b4515841beb""}","https://test12345.live/?num_scrambled_semantic=8&num_scrambled_causal=4&num_scrambled_schematic=4&participantId=F91D4B22CBCF44D2AFEF7E1320B30F57&assignmentId=0198ba0d-611b-7b49-ae2c-9f2d2061eeec&projectId=0198b9d0-29d4-7df3-8625-4b4515841beb","F91D4B22CBCF44D2AFEF7E1320B30F57-2025-08-17-22-36-19","","null","","[]","null","",""
"","","","","","image-button-response","92","782763","0.0-14.0-1.0-0.1","F91D4B22CBCF44D2AFEF7E1320B30F57","F91D4B22CBCF44D2AFEF7E1320B30F57","0198ba0d-611b-7b49-ae2c-9f2d2061eeec","0198b9d0-29d4-7df3-8625-4b4515841beb","{""num_scrambled_semantic"":""8"",""num_scrambled_causal"":""4"",""num_scrambled_schematic"":""4"",""participantId"":""F91D4B22CBCF44D2AFEF7E1320B30F57"",""assignmentId"":""0198ba0d-611b-7b49-ae2c-9f2d2061eeec"",""projectId"":""0198b9d0-29d4-7df3-8625-4b4515841beb""}","https://test12345.live/?num_scrambled_semantic=8&num_scrambled_causal=4&num_scrambled_schematic=4&participantId=F91D4B22CBCF44D2AFEF7E1320B30F57&assignmentId=0198ba0d-611b-7b49-ae2c-9f2d2061eeec&projectId=0198b9d0-29d4-7df3-8625-4b4515841beb","F91D4B22CBCF44D2AFEF7E1320B30F57-2025-08-17-22-36-19","","null","","images/causal_sequence/coin_causal/coin_causal_9.png","null","",""
"","","","","","image-button-response","93","783653","0.0-14.0-1.0-1.1","F91D4B22CBCF44D2AFEF7E1320B30F57","F91D4B22CBCF44D2AFEF7E1320B30F57","0198ba0d-611b-7b49-ae2c-9f2d2061eeec","0198b9d0-29d4-7df3-8625-4b4515841beb","{""num_scrambled_semantic"":""8"",""num_scrambled_causal"":""4"",""num_scrambled_schematic"":""4"",""participantId"":""F91D4B22CBCF44D2AFEF7E1320B30F57"",""assignmentId"":""0198ba0d-611b-7b49-ae2c-9f2d2061eeec"",""projectId"":""0198b9d0-29d4-7df3-8625-4b4515841beb""}","https://test12345.live/?num_scrambled_semantic=8&num_scrambled_causal=4&num_scrambled_schematic=4&participantId=F91D4B22CBCF44D2AFEF7E1320B30F57&assignmentId=0198ba0d-611b-7b49-ae2c-9f2d2061eeec&projectId=0198b9d0-29d4-7df3-8625-4b4515841beb","F91D4B22CBCF44D2AFEF7E1320B30F57-2025-08-17-22-36-19","","889","","images/causal_sequence/coin_causal/coin_causal_9.png","0","",""
"","","","","","image-button-response","94","789073","0.0-14.0-1.0-2.1","F91D4B22CBCF44D2AFEF7E1320B30F57","F91D4B22CBCF44D2AFEF7E1320B30F57","0198ba0d-611b-7b49-ae2c-9f2d2061eeec","0198b9d0-29d4-7df3-8625-4b4515841beb","{""num_scrambled_semantic"":""8"",""num_scrambled_causal"":""4"",""num_scrambled_schematic"":""4"",""participantId"":""F91D4B22CBCF44D2AFEF7E1320B30F57"",""assignmentId"":""0198ba0d-611b-7b49-ae2c-9f2d2061eeec"",""projectId"":""0198b9d0-29d4-7df3-8625-4b4515841beb""}","https://test12345.live/?num_scrambled_semantic=8&num_scrambled_causal=4&num_scrambled_schematic=4&participantId=F91D4B22CBCF44D2AFEF7E1320B30F57&assignmentId=0198ba0d-611b-7b49-ae2c-9f2d2061eeec&projectId=0198b9d0-29d4-7df3-8625-4b4515841beb","F91D4B22CBCF44D2AFEF7E1320B30F57-2025-08-17-22-36-19","","null","","[]","null","",""
"","","","","","image-button-response","95","793663","0.0-14.0-1.0-0.2","F91D4B22CBCF44D2AFEF7E1320B30F57","F91D4B22CBCF44D2AFEF7E1320B30F57","0198ba0d-611b-7b49-ae2c-9f2d2061eeec","0198b9d0-29d4-7df3-8625-4b4515841beb","{""num_scrambled_semantic"":""8"",""num_scrambled_causal"":""4"",""num_scrambled_schematic"":""4"",""participantId"":""F91D4B22CBCF44D2AFEF7E1320B30F57"",""assignmentId"":""0198ba0d-611b-7b49-ae2c-9f2d2061eeec"",""projectId"":""0198b9d0-29d4-7df3-8625-4b4515841beb""}","https://test12345.live/?num_scrambled_semantic=8&num_scrambled_causal=4&num_scrambled_schematic=4&participantId=F91D4B22CBCF44D2AFEF7E1320B30F57&assignmentId=0198ba0d-611b-7b49-ae2c-9f2d2061eeec&projectId=0198b9d0-29d4-7df3-8625-4b4515841beb","F91D4B22CBCF44D2AFEF7E1320B30F57-2025-08-17-22-36-19","","null","","images/causal_sequence/coin_causal/coin_causal_ten.png","null","",""
"","","","","","image-button-response","96","794452","0.0-14.0-1.0-1.2","F91D4B22CBCF44D2AFEF7E1320B30F57","F91D4B22CBCF44D2AFEF7E1320B30F57","0198ba0d-611b-7b49-ae2c-9f2d2061eeec","0198b9d0-29d4-7df3-8625-4b4515841beb","{""num_scrambled_semantic"":""8"",""num_scrambled_causal"":""4"",""num_scrambled_schematic"":""4"",""participantId"":""F91D4B22CBCF44D2AFEF7E1320B30F57"",""assignmentId"":""0198ba0d-611b-7b49-ae2c-9f2d2061eeec"",""projectId"":""0198b9d0-29d4-7df3-8625-4b4515841beb""}","https://test12345.live/?num_scrambled_semantic=8&num_scrambled_causal=4&num_scrambled_schematic=4&participantId=F91D4B22CBCF44D2AFEF7E1320B30F57&assignmentId=0198ba0d-611b-7b49-ae2c-9f2d2061eeec&projectId=0198b9d0-29d4-7df3-8625-4b4515841beb","F91D4B22CBCF44D2AFEF7E1320B30F57-2025-08-17-22-36-19","","788","","images/causal_sequence/coin_causal/coin_causal_ten.png","0","",""
"","","","","","image-button-response","97","799863","0.0-14.0-1.0-2.2","F91D4B22CBCF44D2AFEF7E1320B30F57","F91D4B22CBCF44D2AFEF7E1320B30F57","0198ba0d-611b-7b49-ae2c-9f2d2061eeec","0198b9d0-29d4-7df3-8625-4b4515841beb","{""num_scrambled_semantic"":""8"",""num_scrambled_causal"":""4"",""num_scrambled_schematic"":""4"",""participantId"":""F91D4B22CBCF44D2AFEF7E1320B30F57"",""assignmentId"":""0198ba0d-611b-7b49-ae2c-9f2d2061eeec"",""projectId"":""0198b9d0-29d4-7df3-8625-4b4515841beb""}","https://test12345.live/?num_scrambled_semantic=8&num_scrambled_causal=4&num_scrambled_schematic=4&participantId=F91D4B22CBCF44D2AFEF7E1320B30F57&assignmentId=0198ba0d-611b-7b49-ae2c-9f2d2061eeec&projectId=0198b9d0-29d4-7df3-8625-4b4515841beb","F91D4B22CBCF44D2AFEF7E1320B30F57-2025-08-17-22-36-19","","null","","[]","null","",""
"","","","","","image-button-response","98","804404","0.0-14.0-1.0-0.3","F91D4B22CBCF44D2AFEF7E1320B30F57","F91D4B22CBCF44D2AFEF7E1320B30F57","0198ba0d-611b-7b49-ae2c-9f2d2061eeec","0198b9d0-29d4-7df3-8625-4b4515841beb","{""num_scrambled_semantic"":""8"",""num_scrambled_causal"":""4"",""num_scrambled_schematic"":""4"",""participantId"":""F91D4B22CBCF44D2AFEF7E1320B30F57"",""assignmentId"":""0198ba0d-611b-7b49-ae2c-9f2d2061eeec"",""projectId"":""0198b9d0-29d4-7df3-8625-4b4515841beb""}","https://test12345.live/?num_scrambled_semantic=8&num_scrambled_causal=4&num_scrambled_schematic=4&participantId=F91D4B22CBCF44D2AFEF7E1320B30F57&assignmentId=0198ba0d-611b-7b49-ae2c-9f2d2061eeec&projectId=0198b9d0-29d4-7df3-8625-4b4515841beb","F91D4B22CBCF44D2AFEF7E1320B30F57-2025-08-17-22-36-19","","null","","images/causal_sequence/coin_causal/coin_causal_6.png","null","",""
"","","","","","image-button-response","99","805003","0.0-14.0-1.0-1.3","F91D4B22CBCF44D2AFEF7E1320B30F57","F91D4B22CBCF44D2AFEF7E1320B30F57","0198ba0d-611b-7b49-ae2c-9f2d2061eeec","0198b9d0-29d4-7df3-8625-4b4515841beb","{""num_scrambled_semantic"":""8"",""num_scrambled_causal"":""4"",""num_scrambled_schematic"":""4"",""participantId"":""F91D4B22CBCF44D2AFEF7E1320B30F57"",""assignmentId"":""0198ba0d-611b-7b49-ae2c-9f2d2061eeec"",""projectId"":""0198b9d0-29d4-7df3-8625-4b4515841beb""}","https://test12345.live/?num_scrambled_semantic=8&num_scrambled_causal=4&num_scrambled_schematic=4&participantId=F91D4B22CBCF44D2AFEF7E1320B30F57&assignmentId=0198ba0d-611b-7b49-ae2c-9f2d2061eeec&projectId=0198b9d0-29d4-7df3-8625-4b4515841beb","F91D4B22CBCF44D2AFEF7E1320B30F57-2025-08-17-22-36-19","","597","","images/causal_sequence/coin_causal/coin_causal_6.png","0","",""
"","","","","","image-button-response","100","810413","0.0-14.0-1.0-2.3","F91D4B22CBCF44D2AFEF7E1320B30F57","F91D4B22CBCF44D2AFEF7E1320B30F57","0198ba0d-611b-7b49-ae2c-9f2d2061eeec","0198b9d0-29d4-7df3-8625-4b4515841beb","{""num_scrambled_semantic"":""8"",""num_scrambled_causal"":""4"",""num_scrambled_schematic"":""4"",""participantId"":""F91D4B22CBCF44D2AFEF7E1320B30F57"",""assignmentId"":""0198ba0d-611b-7b49-ae2c-9f2d2061eeec"",""projectId"":""0198b9d0-29d4-7df3-8625-4b4515841beb""}","https://test12345.live/?num_scrambled_semantic=8&num_scrambled_causal=4&num_scrambled_schematic=4&participantId=F91D4B22CBCF44D2AFEF7E1320B30F57&assignmentId=0198ba0d-611b-7b49-ae2c-9f2d2061eeec&projectId=0198b9d0-29d4-7df3-8625-4b4515841beb","F91D4B22CBCF44D2AFEF7E1320B30F57-2025-08-17-22-36-19","","null","","[]","null","",""
"","","","","","image-button-response","101","814953","0.0-14.0-1.0-0.4","F91D4B22CBCF44D2AFEF7E1320B30F57","F91D4B22CBCF44D2AFEF7E1320B30F57","0198ba0d-611b-7b49-ae2c-9f2d2061eeec","0198b9d0-29d4-7df3-8625-4b4515841beb","{""num_scrambled_semantic"":""8"",""num_scrambled_causal"":""4"",""num_scrambled_schematic"":""4"",""participantId"":""F91D4B22CBCF44D2AFEF7E1320B30F57"",""assignmentId"":""0198ba0d-611b-7b49-ae2c-9f2d2061eeec"",""projectId"":""0198b9d0-29d4-7df3-8625-4b4515841beb""}","https://test12345.live/?num_scrambled_semantic=8&num_scrambled_causal=4&num_scrambled_schematic=4&participantId=F91D4B22CBCF44D2AFEF7E1320B30F57&assignmentId=0198ba0d-611b-7b49-ae2c-9f2d2061eeec&projectId=0198b9d0-29d4-7df3-8625-4b4515841beb","F91D4B22CBCF44D2AFEF7E1320B30F57-2025-08-17-22-36-19","","null","","images/causal_sequence/coin_causal/coin_causal_8.png","null","",""
"","","","","","image-button-response","102","815811","0.0-14.0-1.0-1.4","F91D4B22CBCF44D2AFEF7E1320B30F57","F91D4B22CBCF44D2AFEF7E1320B30F57","0198ba0d-611b-7b49-ae2c-9f2d2061eeec","0198b9d0-29d4-7df3-8625-4b4515841beb","{""num_scrambled_semantic"":""8"",""num_scrambled_causal"":""4"",""num_scrambled_schematic"":""4"",""participantId"":""F91D4B22CBCF44D2AFEF7E1320B30F57"",""assignmentId"":""0198ba0d-611b-7b49-ae2c-9f2d2061eeec"",""projectId"":""0198b9d0-29d4-7df3-8625-4b4515841beb""}","https://test12345.live/?num_scrambled_semantic=8&num_scrambled_causal=4&num_scrambled_schematic=4&participantId=F91D4B22CBCF44D2AFEF7E1320B30F57&assignmentId=0198ba0d-611b-7b49-ae2c-9f2d2061eeec&projectId=0198b9d0-29d4-7df3-8625-4b4515841beb","F91D4B22CBCF44D2AFEF7E1320B30F57-2025-08-17-22-36-19","","856","","images/causal_sequence/coin_causal/coin_causal_8.png","0","",""
"","","","","","image-button-response","103","821214","0.0-14.0-1.0-2.4","F91D4B22CBCF44D2AFEF7E1320B30F57","F91D4B22CBCF44D2AFEF7E1320B30F57","0198ba0d-611b-7b49-ae2c-9f2d2061eeec","0198b9d0-29d4-7df3-8625-4b4515841beb","{""num_scrambled_semantic"":""8"",""num_scrambled_causal"":""4"",""num_scrambled_schematic"":""4"",""participantId"":""F91D4B22CBCF44D2AFEF7E1320B30F57"",""assignmentId"":""0198ba0d-611b-7b49-ae2c-9f2d2061eeec"",""projectId"":""0198b9d0-29d4-7df3-8625-4b4515841beb""}","https://test12345.live/?num_scrambled_semantic=8&num_scrambled_causal=4&num_scrambled_schematic=4&participantId=F91D4B22CBCF44D2AFEF7E1320B30F57&assignmentId=0198ba0d-611b-7b49-ae2c-9f2d2061eeec&projectId=0198b9d0-29d4-7df3-8625-4b4515841beb","F91D4B22CBCF44D2AFEF7E1320B30F57-2025-08-17-22-36-19","","null","","[]","null","",""
"","","","","","image-button-response","104","825772","0.0-14.0-1.0-0.5","F91D4B22CBCF44D2AFEF7E1320B30F57","F91D4B22CBCF44D2AFEF7E1320B30F57","0198ba0d-611b-7b49-ae2c-9f2d2061eeec","0198b9d0-29d4-7df3-8625-4b4515841beb","{""num_scrambled_semantic"":""8"",""num_scrambled_causal"":""4"",""num_scrambled_schematic"":""4"",""participantId"":""F91D4B22CBCF44D2AFEF7E1320B30F57"",""assignmentId"":""0198ba0d-611b-7b49-ae2c-9f2d2061eeec"",""projectId"":""0198b9d0-29d4-7df3-8625-4b4515841beb""}","https://test12345.live/?num_scrambled_semantic=8&num_scrambled_causal=4&num_scrambled_schematic=4&participantId=F91D4B22CBCF44D2AFEF7E1320B30F57&assignmentId=0198ba0d-611b-7b49-ae2c-9f2d2061eeec&projectId=0198b9d0-29d4-7df3-8625-4b4515841beb","F91D4B22CBCF44D2AFEF7E1320B30F57-2025-08-17-22-36-19","","null","","images/causal_sequence/coin_causal/coin_causal_1.png","null","",""
"","","","","","image-button-response","105","826578","0.0-14.0-1.0-1.5","F91D4B22CBCF44D2AFEF7E1320B30F57","F91D4B22CBCF44D2AFEF7E1320B30F57","0198ba0d-611b-7b49-ae2c-9f2d2061eeec","0198b9d0-29d4-7df3-8625-4b4515841beb","{""num_scrambled_semantic"":""8"",""num_scrambled_causal"":""4"",""num_scrambled_schematic"":""4"",""participantId"":""F91D4B22CBCF44D2AFEF7E1320B30F57"",""assignmentId"":""0198ba0d-611b-7b49-ae2c-9f2d2061eeec"",""projectId"":""0198b9d0-29d4-7df3-8625-4b4515841beb""}","https://test12345.live/?num_scrambled_semantic=8&num_scrambled_causal=4&num_scrambled_schematic=4&participantId=F91D4B22CBCF44D2AFEF7E1320B30F57&assignmentId=0198ba0d-611b-7b49-ae2c-9f2d2061eeec&projectId=0198b9d0-29d4-7df3-8625-4b4515841beb","F91D4B22CBCF44D2AFEF7E1320B30F57-2025-08-17-22-36-19","","804","","images/causal_sequence/coin_causal/coin_causal_1.png","0","",""
"","","","","","image-button-response","106","831983","0.0-14.0-1.0-2.5","F91D4B22CBCF44D2AFEF7E1320B30F57","F91D4B22CBCF44D2AFEF7E1320B30F57","0198ba0d-611b-7b49-ae2c-9f2d2061eeec","0198b9d0-29d4-7df3-8625-4b4515841beb","{""num_scrambled_semantic"":""8"",""num_scrambled_causal"":""4"",""num_scrambled_schematic"":""4"",""participantId"":""F91D4B22CBCF44D2AFEF7E1320B30F57"",""assignmentId"":""0198ba0d-611b-7b49-ae2c-9f2d2061eeec"",""projectId"":""0198b9d0-29d4-7df3-8625-4b4515841beb""}","https://test12345.live/?num_scrambled_semantic=8&num_scrambled_causal=4&num_scrambled_schematic=4&participantId=F91D4B22CBCF44D2AFEF7E1320B30F57&assignmentId=0198ba0d-611b-7b49-ae2c-9f2d2061eeec&projectId=0198b9d0-29d4-7df3-8625-4b4515841beb","F91D4B22CBCF44D2AFEF7E1320B30F57-2025-08-17-22-36-19","","null","","[]","null","",""
"","","","","","image-button-response","107","836532","0.0-14.0-1.0-0.6","F91D4B22CBCF44D2AFEF7E1320B30F57","F91D4B22CBCF44D2AFEF7E1320B30F57","0198ba0d-611b-7b49-ae2c-9f2d2061eeec","0198b9d0-29d4-7df3-8625-4b4515841beb","{""num_scrambled_semantic"":""8"",""num_scrambled_causal"":""4"",""num_scrambled_schematic"":""4"",""participantId"":""F91D4B22CBCF44D2AFEF7E1320B30F57"",""assignmentId"":""0198ba0d-611b-7b49-ae2c-9f2d2061eeec"",""projectId"":""0198b9d0-29d4-7df3-8625-4b4515841beb""}","https://test12345.live/?num_scrambled_semantic=8&num_scrambled_causal=4&num_scrambled_schematic=4&participantId=F91D4B22CBCF44D2AFEF7E1320B30F57&assignmentId=0198ba0d-611b-7b49-ae2c-9f2d2061eeec&projectId=0198b9d0-29d4-7df3-8625-4b4515841beb","F91D4B22CBCF44D2AFEF7E1320B30F57-2025-08-17-22-36-19","","null","","images/causal_sequence/coin_causal/coin_causal_7.png","null","",""
"","","","","","image-button-response","108","837243","0.0-14.0-1.0-1.6","F91D4B22CBCF44D2AFEF7E1320B30F57","F91D4B22CBCF44D2AFEF7E1320B30F57","0198ba0d-611b-7b49-ae2c-9f2d2061eeec","0198b9d0-29d4-7df3-8625-4b4515841beb","{""num_scrambled_semantic"":""8"",""num_scrambled_causal"":""4"",""num_scrambled_schematic"":""4"",""participantId"":""F91D4B22CBCF44D2AFEF7E1320B30F57"",""assignmentId"":""0198ba0d-611b-7b49-ae2c-9f2d2061eeec"",""projectId"":""0198b9d0-29d4-7df3-8625-4b4515841beb""}","https://test12345.live/?num_scrambled_semantic=8&num_scrambled_causal=4&num_scrambled_schematic=4&participantId=F91D4B22CBCF44D2AFEF7E1320B30F57&assignmentId=0198ba0d-611b-7b49-ae2c-9f2d2061eeec&projectId=0198b9d0-29d4-7df3-8625-4b4515841beb","F91D4B22CBCF44D2AFEF7E1320B30F57-2025-08-17-22-36-19","","709","","images/causal_sequence/coin_causal/coin_causal_7.png","1","",""
"","","","","","image-button-response","109","842664","0.0-14.0-1.0-2.6","F91D4B22CBCF44D2AFEF7E1320B30F57","F91D4B22CBCF44D2AFEF7E1320B30F57","0198ba0d-611b-7b49-ae2c-9f2d2061eeec","0198b9d0-29d4-7df3-8625-4b4515841beb","{""num_scrambled_semantic"":""8"",""num_scrambled_causal"":""4"",""num_scrambled_schematic"":""4"",""participantId"":""F91D4B22CBCF44D2AFEF7E1320B30F57"",""assignmentId"":""0198ba0d-611b-7b49-ae2c-9f2d2061eeec"",""projectId"":""0198b9d0-29d4-7df3-8625-4b4515841beb""}","https://test12345.live/?num_scrambled_semantic=8&num_scrambled_causal=4&num_scrambled_schematic=4&participantId=F91D4B22CBCF44D2AFEF7E1320B30F57&assignmentId=0198ba0d-611b-7b49-ae2c-9f2d2061eeec&projectId=0198b9d0-29d4-7df3-8625-4b4515841beb","F91D4B22CBCF44D2AFEF7E1320B30F57-2025-08-17-22-36-19","","null","","[]","null","",""
"","","","","","image-button-response","110","847223","0.0-14.0-1.0-0.7","F91D4B22CBCF44D2AFEF7E1320B30F57","F91D4B22CBCF44D2AFEF7E1320B30F57","0198ba0d-611b-7b49-ae2c-9f2d2061eeec","0198b9d0-29d4-7df3-8625-4b4515841beb","{""num_scrambled_semantic"":""8"",""num_scrambled_causal"":""4"",""num_scrambled_schematic"":""4"",""participantId"":""F91D4B22CBCF44D2AFEF7E1320B30F57"",""assignmentId"":""0198ba0d-611b-7b49-ae2c-9f2d2061eeec"",""projectId"":""0198b9d0-29d4-7df3-8625-4b4515841beb""}","https://test12345.live/?num_scrambled_semantic=8&num_scrambled_causal=4&num_scrambled_schematic=4&participantId=F91D4B22CBCF44D2AFEF7E1320B30F57&assignmentId=0198ba0d-611b-7b49-ae2c-9f2d2061eeec&projectId=0198b9d0-29d4-7df3-8625-4b4515841beb","F91D4B22CBCF44D2AFEF7E1320B30F57-2025-08-17-22-36-19","","null","","images/causal_sequence/coin_causal/coin_causal_4.png","null","",""
"","","","","","image-button-response","111","848090","0.0-14.0-1.0-1.7","F91D4B22CBCF44D2AFEF7E1320B30F57","F91D4B22CBCF44D2AFEF7E1320B30F57","0198ba0d-611b-7b49-ae2c-9f2d2061eeec","0198b9d0-29d4-7df3-8625-4b4515841beb","{""num_scrambled_semantic"":""8"",""num_scrambled_causal"":""4"",""num_scrambled_schematic"":""4"",""participantId"":""F91D4B22CBCF44D2AFEF7E1320B30F57"",""assignmentId"":""0198ba0d-611b-7b49-ae2c-9f2d2061eeec"",""projectId"":""0198b9d0-29d4-7df3-8625-4b4515841beb""}","https://test12345.live/?num_scrambled_semantic=8&num_scrambled_causal=4&num_scrambled_schematic=4&participantId=F91D4B22CBCF44D2AFEF7E1320B30F57&assignmentId=0198ba0d-611b-7b49-ae2c-9f2d2061eeec&projectId=0198b9d0-29d4-7df3-8625-4b4515841beb","F91D4B22CBCF44D2AFEF7E1320B30F57-2025-08-17-22-36-19","","866","","images/causal_sequence/coin_causal/coin_causal_4.png","0","",""
"","","","","","image-button-response","112","853499","0.0-14.0-1.0-2.7","F91D4B22CBCF44D2AFEF7E1320B30F57","F91D4B22CBCF44D2AFEF7E1320B30F57","0198ba0d-611b-7b49-ae2c-9f2d2061eeec","0198b9d0-29d4-7df3-8625-4b4515841beb","{""num_scrambled_semantic"":""8"",""num_scrambled_causal"":""4"",""num_scrambled_schematic"":""4"",""participantId"":""F91D4B22CBCF44D2AFEF7E1320B30F57"",""assignmentId"":""0198ba0d-611b-7b49-ae2c-9f2d2061eeec"",""projectId"":""0198b9d0-29d4-7df3-8625-4b4515841beb""}","https://test12345.live/?num_scrambled_semantic=8&num_scrambled_causal=4&num_scrambled_schematic=4&participantId=F91D4B22CBCF44D2AFEF7E1320B30F57&assignmentId=0198ba0d-611b-7b49-ae2c-9f2d2061eeec&projectId=0198b9d0-29d4-7df3-8625-4b4515841beb","F91D4B22CBCF44D2AFEF7E1320B30F57-2025-08-17-22-36-19","","null","","[]","null","",""
"","","","","","image-button-response","113","858043","0.0-14.0-1.0-0.8","F91D4B22CBCF44D2AFEF7E1320B30F57","F91D4B22CBCF44D2AFEF7E1320B30F57","0198ba0d-611b-7b49-ae2c-9f2d2061eeec","0198b9d0-29d4-7df3-8625-4b4515841beb","{""num_scrambled_semantic"":""8"",""num_scrambled_causal"":""4"",""num_scrambled_schematic"":""4"",""participantId"":""F91D4B22CBCF44D2AFEF7E1320B30F57"",""assignmentId"":""0198ba0d-611b-7b49-ae2c-9f2d2061eeec"",""projectId"":""0198b9d0-29d4-7df3-8625-4b4515841beb""}","https://test12345.live/?num_scrambled_semantic=8&num_scrambled_causal=4&num_scrambled_schematic=4&participantId=F91D4B22CBCF44D2AFEF7E1320B30F57&assignmentId=0198ba0d-611b-7b49-ae2c-9f2d2061eeec&projectId=0198b9d0-29d4-7df3-8625-4b4515841beb","F91D4B22CBCF44D2AFEF7E1320B30F57-2025-08-17-22-36-19","","null","","images/causal_sequence/coin_causal/coin_causal_3.png","null","",""
"","","","","","image-button-response","114","858589","0.0-14.0-1.0-1.8","F91D4B22CBCF44D2AFEF7E1320B30F57","F91D4B22CBCF44D2AFEF7E1320B30F57","0198ba0d-611b-7b49-ae2c-9f2d2061eeec","0198b9d0-29d4-7df3-8625-4b4515841beb","{""num_scrambled_semantic"":""8"",""num_scrambled_causal"":""4"",""num_scrambled_schematic"":""4"",""participantId"":""F91D4B22CBCF44D2AFEF7E1320B30F57"",""assignmentId"":""0198ba0d-611b-7b49-ae2c-9f2d2061eeec"",""projectId"":""0198b9d0-29d4-7df3-8625-4b4515841beb""}","https://test12345.live/?num_scrambled_semantic=8&num_scrambled_causal=4&num_scrambled_schematic=4&participantId=F91D4B22CBCF44D2AFEF7E1320B30F57&assignmentId=0198ba0d-611b-7b49-ae2c-9f2d2061eeec&projectId=0198b9d0-29d4-7df3-8625-4b4515841beb","F91D4B22CBCF44D2AFEF7E1320B30F57-2025-08-17-22-36-19","","545","","images/causal_sequence/coin_causal/coin_causal_3.png","0","",""
"","","","","","image-button-response","115","863993","0.0-14.0-1.0-2.8","F91D4B22CBCF44D2AFEF7E1320B30F57","F91D4B22CBCF44D2AFEF7E1320B30F57","0198ba0d-611b-7b49-ae2c-9f2d2061eeec","0198b9d0-29d4-7df3-8625-4b4515841beb","{""num_scrambled_semantic"":""8"",""num_scrambled_causal"":""4"",""num_scrambled_schematic"":""4"",""participantId"":""F91D4B22CBCF44D2AFEF7E1320B30F57"",""assignmentId"":""0198ba0d-611b-7b49-ae2c-9f2d2061eeec"",""projectId"":""0198b9d0-29d4-7df3-8625-4b4515841beb""}","https://test12345.live/?num_scrambled_semantic=8&num_scrambled_causal=4&num_scrambled_schematic=4&participantId=F91D4B22CBCF44D2AFEF7E1320B30F57&assignmentId=0198ba0d-611b-7b49-ae2c-9f2d2061eeec&projectId=0198b9d0-29d4-7df3-8625-4b4515841beb","F91D4B22CBCF44D2AFEF7E1320B30F57-2025-08-17-22-36-19","","null","","[]","null","",""
