"success","timeout","failed_images","failed_audio","failed_video","trial_type","trial_index","time_elapsed","internal_node_id","subject","subject_id","study_id","session_id","urlvar","current_url","audio_id","view_history","rt","device_id","stimulus","response","estimated_stimulus_onset","seq_name"
"true","false","[]","[]","[]","preload","0","24692","0.0-0.0","FA89614C7189452A8C1F1E553E47B67A","FA89614C7189452A8C1F1E553E47B67A","43a91994-7a45-48a4-bf2a-39b3c2d5e11e","5e631737-0fa4-44a6-b227-7ba1d7345015","{""num_scrambled_semantic"":""8"",""num_scrambled_causal"":""4"",""num_scrambled_schematic"":""4"",""participantId"":""FA89614C7189452A8C1F1E553E47B67A"",""assignmentId"":""43a91994-7a45-48a4-bf2a-39b3c2d5e11e"",""projectId"":""5e631737-0fa4-44a6-b227-7ba1d7345015""}","https://test12345.live/?num_scrambled_semantic=8&num_scrambled_causal=4&num_scrambled_schematic=4&participantId=FA89614C7189452A8C1F1E553E47B67A&assignmentId=43a91994-7a45-48a4-bf2a-39b3c2d5e11e&projectId=5e631737-0fa4-44a6-b227-7ba1d7345015","FA89614C7189452A8C1F1E553E47B67A-2025-05-27-18-39-40","","","","","","",""
"","","","","","instructions","1","61986","0.0-1.0","FA89614C7189452A8C1F1E553E47B67A","FA89614C7189452A8C1F1E553E47B67A","43a91994-7a45-48a4-bf2a-39b3c2d5e11e","5e631737-0fa4-44a6-b227-7ba1d7345015","{""num_scrambled_semantic"":""8"",""num_scrambled_causal"":""4"",""num_scrambled_schematic"":""4"",""participantId"":""FA89614C7189452A8C1F1E553E47B67A"",""assignmentId"":""43a91994-7a45-48a4-bf2a-39b3c2d5e11e"",""projectId"":""5e631737-0fa4-44a6-b227-7ba1d7345015""}","https://test12345.live/?num_scrambled_semantic=8&num_scrambled_causal=4&num_scrambled_schematic=4&participantId=FA89614C7189452A8C1F1E553E47B67A&assignmentId=43a91994-7a45-48a4-bf2a-39b3c2d5e11e&projectId=5e631737-0fa4-44a6-b227-7ba1d7345015","FA89614C7189452A8C1F1E553E47B67A-2025-05-27-18-39-40","[{""page_index"":0,""viewing_time"":37292}]","37292","","","","",""
"","","","","","instructions","2","66064","0.0-2.0","FA89614C7189452A8C1F1E553E47B67A","FA89614C7189452A8C1F1E553E47B67A","43a91994-7a45-48a4-bf2a-39b3c2d5e11e","5e631737-0fa4-44a6-b227-7ba1d7345015","{""num_scrambled_semantic"":""8"",""num_scrambled_causal"":""4"",""num_scrambled_schematic"":""4"",""participantId"":""FA89614C7189452A8C1F1E553E47B67A"",""assignmentId"":""43a91994-7a45-48a4-bf2a-39b3c2d5e11e"",""projectId"":""5e631737-0fa4-44a6-b227-7ba1d7345015""}","https://test12345.live/?num_scrambled_semantic=8&num_scrambled_causal=4&num_scrambled_schematic=4&participantId=FA89614C7189452A8C1F1E553E47B67A&assignmentId=43a91994-7a45-48a4-bf2a-39b3c2d5e11e&projectId=5e631737-0fa4-44a6-b227-7ba1d7345015","FA89614C7189452A8C1F1E553E47B67A-2025-05-27-18-39-40","[{""page_index"":0,""viewing_time"":4074}]","4075","","","","",""
"true","","","","","fullscreen","3","69491","0.0-3.0","FA89614C7189452A8C1F1E553E47B67A","FA89614C7189452A8C1F1E553E47B67A","43a91994-7a45-48a4-bf2a-39b3c2d5e11e","5e631737-0fa4-44a6-b227-7ba1d7345015","{""num_scrambled_semantic"":""8"",""num_scrambled_causal"":""4"",""num_scrambled_schematic"":""4"",""participantId"":""FA89614C7189452A8C1F1E553E47B67A"",""assignmentId"":""43a91994-7a45-48a4-bf2a-39b3c2d5e11e"",""projectId"":""5e631737-0fa4-44a6-b227-7ba1d7345015""}","https://test12345.live/?num_scrambled_semantic=8&num_scrambled_causal=4&num_scrambled_schematic=4&participantId=FA89614C7189452A8C1F1E553E47B67A&assignmentId=43a91994-7a45-48a4-bf2a-39b3c2d5e11e&projectId=5e631737-0fa4-44a6-b227-7ba1d7345015","FA89614C7189452A8C1F1E553E47B67A-2025-05-27-18-39-40","","2419","","","","",""
"","","","","","initialize-microphone","4","75690","0.0-4.0-0.0","FA89614C7189452A8C1F1E553E47B67A","FA89614C7189452A8C1F1E553E47B67A","43a91994-7a45-48a4-bf2a-39b3c2d5e11e","5e631737-0fa4-44a6-b227-7ba1d7345015","{""num_scrambled_semantic"":""8"",""num_scrambled_causal"":""4"",""num_scrambled_schematic"":""4"",""participantId"":""FA89614C7189452A8C1F1E553E47B67A"",""assignmentId"":""43a91994-7a45-48a4-bf2a-39b3c2d5e11e"",""projectId"":""5e631737-0fa4-44a6-b227-7ba1d7345015""}","https://test12345.live/?num_scrambled_semantic=8&num_scrambled_causal=4&num_scrambled_schematic=4&participantId=FA89614C7189452A8C1F1E553E47B67A&assignmentId=43a91994-7a45-48a4-bf2a-39b3c2d5e11e&projectId=5e631737-0fa4-44a6-b227-7ba1d7345015","FA89614C7189452A8C1F1E553E47B67A-2025-05-27-18-39-40","","","f2ccb1dcb5d34f6452993783b4ad7ed2b9ea1d2e1348f4db48f4a27423c449da","","","",""
"","","","","","html-audio-response","5","86449","0.0-4.0-1.0","FA89614C7189452A8C1F1E553E47B67A","FA89614C7189452A8C1F1E553E47B67A","43a91994-7a45-48a4-bf2a-39b3c2d5e11e","5e631737-0fa4-44a6-b227-7ba1d7345015","{""num_scrambled_semantic"":""8"",""num_scrambled_causal"":""4"",""num_scrambled_schematic"":""4"",""participantId"":""FA89614C7189452A8C1F1E553E47B67A"",""assignmentId"":""43a91994-7a45-48a4-bf2a-39b3c2d5e11e"",""projectId"":""5e631737-0fa4-44a6-b227-7ba1d7345015""}","https://test12345.live/?num_scrambled_semantic=8&num_scrambled_causal=4&num_scrambled_schematic=4&participantId=FA89614C7189452A8C1F1E553E47B67A&assignmentId=43a91994-7a45-48a4-bf2a-39b3c2d5e11e&projectId=5e631737-0fa4-44a6-b227-7ba1d7345015","FA89614C7189452A8C1F1E553E47B67A-2025-05-27-18-39-40","","7210","","<span style=""color: red; font-size: 24px""> NOW RECORDING</span>
        <p>Please test Microphone</p>","","4",""
"","","","","","html-button-response","6","87935","0.0-4.0-2.0","FA89614C7189452A8C1F1E553E47B67A","FA89614C7189452A8C1F1E553E47B67A","43a91994-7a45-48a4-bf2a-39b3c2d5e11e","5e631737-0fa4-44a6-b227-7ba1d7345015","{""num_scrambled_semantic"":""8"",""num_scrambled_causal"":""4"",""num_scrambled_schematic"":""4"",""participantId"":""FA89614C7189452A8C1F1E553E47B67A"",""assignmentId"":""43a91994-7a45-48a4-bf2a-39b3c2d5e11e"",""projectId"":""5e631737-0fa4-44a6-b227-7ba1d7345015""}","https://test12345.live/?num_scrambled_semantic=8&num_scrambled_causal=4&num_scrambled_schematic=4&participantId=FA89614C7189452A8C1F1E553E47B67A&assignmentId=43a91994-7a45-48a4-bf2a-39b3c2d5e11e&projectId=5e631737-0fa4-44a6-b227-7ba1d7345015","FA89614C7189452A8C1F1E553E47B67A-2025-05-27-18-39-40","","1472","","<p style=""font-size:48px; color:red;"">Is Microphone OK?</p>","1","",""
"","","","","","instructions","7","98235","0.0-5.0","FA89614C7189452A8C1F1E553E47B67A","FA89614C7189452A8C1F1E553E47B67A","43a91994-7a45-48a4-bf2a-39b3c2d5e11e","5e631737-0fa4-44a6-b227-7ba1d7345015","{""num_scrambled_semantic"":""8"",""num_scrambled_causal"":""4"",""num_scrambled_schematic"":""4"",""participantId"":""FA89614C7189452A8C1F1E553E47B67A"",""assignmentId"":""43a91994-7a45-48a4-bf2a-39b3c2d5e11e"",""projectId"":""5e631737-0fa4-44a6-b227-7ba1d7345015""}","https://test12345.live/?num_scrambled_semantic=8&num_scrambled_causal=4&num_scrambled_schematic=4&participantId=FA89614C7189452A8C1F1E553E47B67A&assignmentId=43a91994-7a45-48a4-bf2a-39b3c2d5e11e&projectId=5e631737-0fa4-44a6-b227-7ba1d7345015","FA89614C7189452A8C1F1E553E47B67A-2025-05-27-18-39-40","[{""page_index"":0,""viewing_time"":3003},{""page_index"":1,""viewing_time"":7295}]","10298","","","","",""
"","","","","","image-button-response","8","104242","0.0-6.0-0.0","FA89614C7189452A8C1F1E553E47B67A","FA89614C7189452A8C1F1E553E47B67A","43a91994-7a45-48a4-bf2a-39b3c2d5e11e","5e631737-0fa4-44a6-b227-7ba1d7345015","{""num_scrambled_semantic"":""8"",""num_scrambled_causal"":""4"",""num_scrambled_schematic"":""4"",""participantId"":""FA89614C7189452A8C1F1E553E47B67A"",""assignmentId"":""43a91994-7a45-48a4-bf2a-39b3c2d5e11e"",""projectId"":""5e631737-0fa4-44a6-b227-7ba1d7345015""}","https://test12345.live/?num_scrambled_semantic=8&num_scrambled_causal=4&num_scrambled_schematic=4&participantId=FA89614C7189452A8C1F1E553E47B67A&assignmentId=43a91994-7a45-48a4-bf2a-39b3c2d5e11e&projectId=5e631737-0fa4-44a6-b227-7ba1d7345015","FA89614C7189452A8C1F1E553E47B67A-2025-05-27-18-39-40","","null","","images/instructions/movie_0.png","null","",""
"","","","","","image-button-response","9","108762","0.0-6.0-1.0-0.0","FA89614C7189452A8C1F1E553E47B67A","FA89614C7189452A8C1F1E553E47B67A","43a91994-7a45-48a4-bf2a-39b3c2d5e11e","5e631737-0fa4-44a6-b227-7ba1d7345015","{""num_scrambled_semantic"":""8"",""num_scrambled_causal"":""4"",""num_scrambled_schematic"":""4"",""participantId"":""FA89614C7189452A8C1F1E553E47B67A"",""assignmentId"":""43a91994-7a45-48a4-bf2a-39b3c2d5e11e"",""projectId"":""5e631737-0fa4-44a6-b227-7ba1d7345015""}","https://test12345.live/?num_scrambled_semantic=8&num_scrambled_causal=4&num_scrambled_schematic=4&participantId=FA89614C7189452A8C1F1E553E47B67A&assignmentId=43a91994-7a45-48a4-bf2a-39b3c2d5e11e&projectId=5e631737-0fa4-44a6-b227-7ba1d7345015","FA89614C7189452A8C1F1E553E47B67A-2025-05-27-18-39-40","","null","","images/instructions/movie_1.png","null","",""
"","","","","","image-button-response","10","111243","0.0-6.0-1.0-1.0","FA89614C7189452A8C1F1E553E47B67A","FA89614C7189452A8C1F1E553E47B67A","43a91994-7a45-48a4-bf2a-39b3c2d5e11e","5e631737-0fa4-44a6-b227-7ba1d7345015","{""num_scrambled_semantic"":""8"",""num_scrambled_causal"":""4"",""num_scrambled_schematic"":""4"",""participantId"":""FA89614C7189452A8C1F1E553E47B67A"",""assignmentId"":""43a91994-7a45-48a4-bf2a-39b3c2d5e11e"",""projectId"":""5e631737-0fa4-44a6-b227-7ba1d7345015""}","https://test12345.live/?num_scrambled_semantic=8&num_scrambled_causal=4&num_scrambled_schematic=4&participantId=FA89614C7189452A8C1F1E553E47B67A&assignmentId=43a91994-7a45-48a4-bf2a-39b3c2d5e11e&projectId=5e631737-0fa4-44a6-b227-7ba1d7345015","FA89614C7189452A8C1F1E553E47B67A-2025-05-27-18-39-40","","2474","","images/instructions/movie_1.png","0","",""
"","","","","","image-button-response","11","113050","0.0-6.0-1.0-2.0","FA89614C7189452A8C1F1E553E47B67A","FA89614C7189452A8C1F1E553E47B67A","43a91994-7a45-48a4-bf2a-39b3c2d5e11e","5e631737-0fa4-44a6-b227-7ba1d7345015","{""num_scrambled_semantic"":""8"",""num_scrambled_causal"":""4"",""num_scrambled_schematic"":""4"",""participantId"":""FA89614C7189452A8C1F1E553E47B67A"",""assignmentId"":""43a91994-7a45-48a4-bf2a-39b3c2d5e11e"",""projectId"":""5e631737-0fa4-44a6-b227-7ba1d7345015""}","https://test12345.live/?num_scrambled_semantic=8&num_scrambled_causal=4&num_scrambled_schematic=4&participantId=FA89614C7189452A8C1F1E553E47B67A&assignmentId=43a91994-7a45-48a4-bf2a-39b3c2d5e11e&projectId=5e631737-0fa4-44a6-b227-7ba1d7345015","FA89614C7189452A8C1F1E553E47B67A-2025-05-27-18-39-40","","null","","[]","null","",""
"","","","","","image-button-response","12","117568","0.0-6.0-1.0-0.1","FA89614C7189452A8C1F1E553E47B67A","FA89614C7189452A8C1F1E553E47B67A","43a91994-7a45-48a4-bf2a-39b3c2d5e11e","5e631737-0fa4-44a6-b227-7ba1d7345015","{""num_scrambled_semantic"":""8"",""num_scrambled_causal"":""4"",""num_scrambled_schematic"":""4"",""participantId"":""FA89614C7189452A8C1F1E553E47B67A"",""assignmentId"":""43a91994-7a45-48a4-bf2a-39b3c2d5e11e"",""projectId"":""5e631737-0fa4-44a6-b227-7ba1d7345015""}","https://test12345.live/?num_scrambled_semantic=8&num_scrambled_causal=4&num_scrambled_schematic=4&participantId=FA89614C7189452A8C1F1E553E47B67A&assignmentId=43a91994-7a45-48a4-bf2a-39b3c2d5e11e&projectId=5e631737-0fa4-44a6-b227-7ba1d7345015","FA89614C7189452A8C1F1E553E47B67A-2025-05-27-18-39-40","","null","","images/instructions/movie_2.png","null","",""
"","","","","","image-button-response","13","121512","0.0-6.0-1.0-1.1","FA89614C7189452A8C1F1E553E47B67A","FA89614C7189452A8C1F1E553E47B67A","43a91994-7a45-48a4-bf2a-39b3c2d5e11e","5e631737-0fa4-44a6-b227-7ba1d7345015","{""num_scrambled_semantic"":""8"",""num_scrambled_causal"":""4"",""num_scrambled_schematic"":""4"",""participantId"":""FA89614C7189452A8C1F1E553E47B67A"",""assignmentId"":""43a91994-7a45-48a4-bf2a-39b3c2d5e11e"",""projectId"":""5e631737-0fa4-44a6-b227-7ba1d7345015""}","https://test12345.live/?num_scrambled_semantic=8&num_scrambled_causal=4&num_scrambled_schematic=4&participantId=FA89614C7189452A8C1F1E553E47B67A&assignmentId=43a91994-7a45-48a4-bf2a-39b3c2d5e11e&projectId=5e631737-0fa4-44a6-b227-7ba1d7345015","FA89614C7189452A8C1F1E553E47B67A-2025-05-27-18-39-40","","3943","","images/instructions/movie_2.png","1","",""
"","","","","","image-button-response","14","123316","0.0-6.0-1.0-2.1","FA89614C7189452A8C1F1E553E47B67A","FA89614C7189452A8C1F1E553E47B67A","43a91994-7a45-48a4-bf2a-39b3c2d5e11e","5e631737-0fa4-44a6-b227-7ba1d7345015","{""num_scrambled_semantic"":""8"",""num_scrambled_causal"":""4"",""num_scrambled_schematic"":""4"",""participantId"":""FA89614C7189452A8C1F1E553E47B67A"",""assignmentId"":""43a91994-7a45-48a4-bf2a-39b3c2d5e11e"",""projectId"":""5e631737-0fa4-44a6-b227-7ba1d7345015""}","https://test12345.live/?num_scrambled_semantic=8&num_scrambled_causal=4&num_scrambled_schematic=4&participantId=FA89614C7189452A8C1F1E553E47B67A&assignmentId=43a91994-7a45-48a4-bf2a-39b3c2d5e11e&projectId=5e631737-0fa4-44a6-b227-7ba1d7345015","FA89614C7189452A8C1F1E553E47B67A-2025-05-27-18-39-40","","null","","[]","null","",""
"","","","","","image-button-response","15","127826","0.0-6.0-1.0-0.2","FA89614C7189452A8C1F1E553E47B67A","FA89614C7189452A8C1F1E553E47B67A","43a91994-7a45-48a4-bf2a-39b3c2d5e11e","5e631737-0fa4-44a6-b227-7ba1d7345015","{""num_scrambled_semantic"":""8"",""num_scrambled_causal"":""4"",""num_scrambled_schematic"":""4"",""participantId"":""FA89614C7189452A8C1F1E553E47B67A"",""assignmentId"":""43a91994-7a45-48a4-bf2a-39b3c2d5e11e"",""projectId"":""5e631737-0fa4-44a6-b227-7ba1d7345015""}","https://test12345.live/?num_scrambled_semantic=8&num_scrambled_causal=4&num_scrambled_schematic=4&participantId=FA89614C7189452A8C1F1E553E47B67A&assignmentId=43a91994-7a45-48a4-bf2a-39b3c2d5e11e&projectId=5e631737-0fa4-44a6-b227-7ba1d7345015","FA89614C7189452A8C1F1E553E47B67A-2025-05-27-18-39-40","","null","","images/instructions/movie_3.png","null","",""
"","","","","","image-button-response","16","129097","0.0-6.0-1.0-1.2","FA89614C7189452A8C1F1E553E47B67A","FA89614C7189452A8C1F1E553E47B67A","43a91994-7a45-48a4-bf2a-39b3c2d5e11e","5e631737-0fa4-44a6-b227-7ba1d7345015","{""num_scrambled_semantic"":""8"",""num_scrambled_causal"":""4"",""num_scrambled_schematic"":""4"",""participantId"":""FA89614C7189452A8C1F1E553E47B67A"",""assignmentId"":""43a91994-7a45-48a4-bf2a-39b3c2d5e11e"",""projectId"":""5e631737-0fa4-44a6-b227-7ba1d7345015""}","https://test12345.live/?num_scrambled_semantic=8&num_scrambled_causal=4&num_scrambled_schematic=4&participantId=FA89614C7189452A8C1F1E553E47B67A&assignmentId=43a91994-7a45-48a4-bf2a-39b3c2d5e11e&projectId=5e631737-0fa4-44a6-b227-7ba1d7345015","FA89614C7189452A8C1F1E553E47B67A-2025-05-27-18-39-40","","1268","","images/instructions/movie_3.png","0","",""
"","","","","","image-button-response","17","130906","0.0-6.0-1.0-2.2","FA89614C7189452A8C1F1E553E47B67A","FA89614C7189452A8C1F1E553E47B67A","43a91994-7a45-48a4-bf2a-39b3c2d5e11e","5e631737-0fa4-44a6-b227-7ba1d7345015","{""num_scrambled_semantic"":""8"",""num_scrambled_causal"":""4"",""num_scrambled_schematic"":""4"",""participantId"":""FA89614C7189452A8C1F1E553E47B67A"",""assignmentId"":""43a91994-7a45-48a4-bf2a-39b3c2d5e11e"",""projectId"":""5e631737-0fa4-44a6-b227-7ba1d7345015""}","https://test12345.live/?num_scrambled_semantic=8&num_scrambled_causal=4&num_scrambled_schematic=4&participantId=FA89614C7189452A8C1F1E553E47B67A&assignmentId=43a91994-7a45-48a4-bf2a-39b3c2d5e11e&projectId=5e631737-0fa4-44a6-b227-7ba1d7345015","FA89614C7189452A8C1F1E553E47B67A-2025-05-27-18-39-40","","null","","[]","null","",""
"","","","","","image-button-response","18","135410","0.0-6.0-1.0-0.3","FA89614C7189452A8C1F1E553E47B67A","FA89614C7189452A8C1F1E553E47B67A","43a91994-7a45-48a4-bf2a-39b3c2d5e11e","5e631737-0fa4-44a6-b227-7ba1d7345015","{""num_scrambled_semantic"":""8"",""num_scrambled_causal"":""4"",""num_scrambled_schematic"":""4"",""participantId"":""FA89614C7189452A8C1F1E553E47B67A"",""assignmentId"":""43a91994-7a45-48a4-bf2a-39b3c2d5e11e"",""projectId"":""5e631737-0fa4-44a6-b227-7ba1d7345015""}","https://test12345.live/?num_scrambled_semantic=8&num_scrambled_causal=4&num_scrambled_schematic=4&participantId=FA89614C7189452A8C1F1E553E47B67A&assignmentId=43a91994-7a45-48a4-bf2a-39b3c2d5e11e&projectId=5e631737-0fa4-44a6-b227-7ba1d7345015","FA89614C7189452A8C1F1E553E47B67A-2025-05-27-18-39-40","","null","","images/instructions/movie_4.png","null","",""
"","","","","","image-button-response","19","136158","0.0-6.0-1.0-1.3","FA89614C7189452A8C1F1E553E47B67A","FA89614C7189452A8C1F1E553E47B67A","43a91994-7a45-48a4-bf2a-39b3c2d5e11e","5e631737-0fa4-44a6-b227-7ba1d7345015","{""num_scrambled_semantic"":""8"",""num_scrambled_causal"":""4"",""num_scrambled_schematic"":""4"",""participantId"":""FA89614C7189452A8C1F1E553E47B67A"",""assignmentId"":""43a91994-7a45-48a4-bf2a-39b3c2d5e11e"",""projectId"":""5e631737-0fa4-44a6-b227-7ba1d7345015""}","https://test12345.live/?num_scrambled_semantic=8&num_scrambled_causal=4&num_scrambled_schematic=4&participantId=FA89614C7189452A8C1F1E553E47B67A&assignmentId=43a91994-7a45-48a4-bf2a-39b3c2d5e11e&projectId=5e631737-0fa4-44a6-b227-7ba1d7345015","FA89614C7189452A8C1F1E553E47B67A-2025-05-27-18-39-40","","744","","images/instructions/movie_4.png","0","",""
"","","","","","image-button-response","20","137967","0.0-6.0-1.0-2.3","FA89614C7189452A8C1F1E553E47B67A","FA89614C7189452A8C1F1E553E47B67A","43a91994-7a45-48a4-bf2a-39b3c2d5e11e","5e631737-0fa4-44a6-b227-7ba1d7345015","{""num_scrambled_semantic"":""8"",""num_scrambled_causal"":""4"",""num_scrambled_schematic"":""4"",""participantId"":""FA89614C7189452A8C1F1E553E47B67A"",""assignmentId"":""43a91994-7a45-48a4-bf2a-39b3c2d5e11e"",""projectId"":""5e631737-0fa4-44a6-b227-7ba1d7345015""}","https://test12345.live/?num_scrambled_semantic=8&num_scrambled_causal=4&num_scrambled_schematic=4&participantId=FA89614C7189452A8C1F1E553E47B67A&assignmentId=43a91994-7a45-48a4-bf2a-39b3c2d5e11e&projectId=5e631737-0fa4-44a6-b227-7ba1d7345015","FA89614C7189452A8C1F1E553E47B67A-2025-05-27-18-39-40","","null","","[]","null","",""
"","","","","","instructions","21","163969","0.0-7.0","FA89614C7189452A8C1F1E553E47B67A","FA89614C7189452A8C1F1E553E47B67A","43a91994-7a45-48a4-bf2a-39b3c2d5e11e","5e631737-0fa4-44a6-b227-7ba1d7345015","{""num_scrambled_semantic"":""8"",""num_scrambled_causal"":""4"",""num_scrambled_schematic"":""4"",""participantId"":""FA89614C7189452A8C1F1E553E47B67A"",""assignmentId"":""43a91994-7a45-48a4-bf2a-39b3c2d5e11e"",""projectId"":""5e631737-0fa4-44a6-b227-7ba1d7345015""}","https://test12345.live/?num_scrambled_semantic=8&num_scrambled_causal=4&num_scrambled_schematic=4&participantId=FA89614C7189452A8C1F1E553E47B67A&assignmentId=43a91994-7a45-48a4-bf2a-39b3c2d5e11e&projectId=5e631737-0fa4-44a6-b227-7ba1d7345015","FA89614C7189452A8C1F1E553E47B67A-2025-05-27-18-39-40","[{""page_index"":0,""viewing_time"":24559},{""page_index"":1,""viewing_time"":1442}]","26001","","","","",""
"","","","","","html-audio-response","22","170596","0.0-8.0","FA89614C7189452A8C1F1E553E47B67A","FA89614C7189452A8C1F1E553E47B67A","43a91994-7a45-48a4-bf2a-39b3c2d5e11e","5e631737-0fa4-44a6-b227-7ba1d7345015","{""num_scrambled_semantic"":""8"",""num_scrambled_causal"":""4"",""num_scrambled_schematic"":""4"",""participantId"":""FA89614C7189452A8C1F1E553E47B67A"",""assignmentId"":""43a91994-7a45-48a4-bf2a-39b3c2d5e11e"",""projectId"":""5e631737-0fa4-44a6-b227-7ba1d7345015""}","https://test12345.live/?num_scrambled_semantic=8&num_scrambled_causal=4&num_scrambled_schematic=4&participantId=FA89614C7189452A8C1F1E553E47B67A&assignmentId=43a91994-7a45-48a4-bf2a-39b3c2d5e11e&projectId=5e631737-0fa4-44a6-b227-7ba1d7345015","FA89614C7189452A8C1F1E553E47B67A-2025-05-27-18-39-40","","4875","","[""<span style=\""color: red; font-size: 24px\""> NOW RECORDING</span><p>Please say out loud all the images you saw in the exact order you saw them. Try to recall as many images as you can, but remember: getting the order right is more important than the number of images you recall.</p>""]","","2",""
"","","","","","instructions","23","173129","0.0-9.0","FA89614C7189452A8C1F1E553E47B67A","FA89614C7189452A8C1F1E553E47B67A","43a91994-7a45-48a4-bf2a-39b3c2d5e11e","5e631737-0fa4-44a6-b227-7ba1d7345015","{""num_scrambled_semantic"":""8"",""num_scrambled_causal"":""4"",""num_scrambled_schematic"":""4"",""participantId"":""FA89614C7189452A8C1F1E553E47B67A"",""assignmentId"":""43a91994-7a45-48a4-bf2a-39b3c2d5e11e"",""projectId"":""5e631737-0fa4-44a6-b227-7ba1d7345015""}","https://test12345.live/?num_scrambled_semantic=8&num_scrambled_causal=4&num_scrambled_schematic=4&participantId=FA89614C7189452A8C1F1E553E47B67A&assignmentId=43a91994-7a45-48a4-bf2a-39b3c2d5e11e&projectId=5e631737-0fa4-44a6-b227-7ba1d7345015","FA89614C7189452A8C1F1E553E47B67A-2025-05-27-18-39-40","[{""page_index"":0,""viewing_time"":2523}]","2523","","","","",""
"","","","","","image-button-response","24","179154","0.0-10.0-0.0","FA89614C7189452A8C1F1E553E47B67A","FA89614C7189452A8C1F1E553E47B67A","43a91994-7a45-48a4-bf2a-39b3c2d5e11e","5e631737-0fa4-44a6-b227-7ba1d7345015","{""num_scrambled_semantic"":""8"",""num_scrambled_causal"":""4"",""num_scrambled_schematic"":""4"",""participantId"":""FA89614C7189452A8C1F1E553E47B67A"",""assignmentId"":""43a91994-7a45-48a4-bf2a-39b3c2d5e11e"",""projectId"":""5e631737-0fa4-44a6-b227-7ba1d7345015""}","https://test12345.live/?num_scrambled_semantic=8&num_scrambled_causal=4&num_scrambled_schematic=4&participantId=FA89614C7189452A8C1F1E553E47B67A&assignmentId=43a91994-7a45-48a4-bf2a-39b3c2d5e11e&projectId=5e631737-0fa4-44a6-b227-7ba1d7345015","FA89614C7189452A8C1F1E553E47B67A-2025-05-27-18-39-40","","null","","images/semantic_sequence/cat_care_semantic/cat_care_semantic_0.png","null","",""
"","","","","","image-button-response","25","183669","0.0-10.0-1.0-0.0","FA89614C7189452A8C1F1E553E47B67A","FA89614C7189452A8C1F1E553E47B67A","43a91994-7a45-48a4-bf2a-39b3c2d5e11e","5e631737-0fa4-44a6-b227-7ba1d7345015","{""num_scrambled_semantic"":""8"",""num_scrambled_causal"":""4"",""num_scrambled_schematic"":""4"",""participantId"":""FA89614C7189452A8C1F1E553E47B67A"",""assignmentId"":""43a91994-7a45-48a4-bf2a-39b3c2d5e11e"",""projectId"":""5e631737-0fa4-44a6-b227-7ba1d7345015""}","https://test12345.live/?num_scrambled_semantic=8&num_scrambled_causal=4&num_scrambled_schematic=4&participantId=FA89614C7189452A8C1F1E553E47B67A&assignmentId=43a91994-7a45-48a4-bf2a-39b3c2d5e11e&projectId=5e631737-0fa4-44a6-b227-7ba1d7345015","FA89614C7189452A8C1F1E553E47B67A-2025-05-27-18-39-40","","null","","images/semantic_sequence/cat_care_semantic/cat_care_semantic_6.png","null","",""
"","","","","","image-button-response","26","187683","0.0-10.0-1.0-1.0","FA89614C7189452A8C1F1E553E47B67A","FA89614C7189452A8C1F1E553E47B67A","43a91994-7a45-48a4-bf2a-39b3c2d5e11e","5e631737-0fa4-44a6-b227-7ba1d7345015","{""num_scrambled_semantic"":""8"",""num_scrambled_causal"":""4"",""num_scrambled_schematic"":""4"",""participantId"":""FA89614C7189452A8C1F1E553E47B67A"",""assignmentId"":""43a91994-7a45-48a4-bf2a-39b3c2d5e11e"",""projectId"":""5e631737-0fa4-44a6-b227-7ba1d7345015""}","https://test12345.live/?num_scrambled_semantic=8&num_scrambled_causal=4&num_scrambled_schematic=4&participantId=FA89614C7189452A8C1F1E553E47B67A&assignmentId=43a91994-7a45-48a4-bf2a-39b3c2d5e11e&projectId=5e631737-0fa4-44a6-b227-7ba1d7345015","FA89614C7189452A8C1F1E553E47B67A-2025-05-27-18-39-40","","null","","images/semantic_sequence/cat_care_semantic/cat_care_semantic_6.png","null","",""
"","","","","","image-button-response","27","189498","0.0-10.0-1.0-2.0","FA89614C7189452A8C1F1E553E47B67A","FA89614C7189452A8C1F1E553E47B67A","43a91994-7a45-48a4-bf2a-39b3c2d5e11e","5e631737-0fa4-44a6-b227-7ba1d7345015","{""num_scrambled_semantic"":""8"",""num_scrambled_causal"":""4"",""num_scrambled_schematic"":""4"",""participantId"":""FA89614C7189452A8C1F1E553E47B67A"",""assignmentId"":""43a91994-7a45-48a4-bf2a-39b3c2d5e11e"",""projectId"":""5e631737-0fa4-44a6-b227-7ba1d7345015""}","https://test12345.live/?num_scrambled_semantic=8&num_scrambled_causal=4&num_scrambled_schematic=4&participantId=FA89614C7189452A8C1F1E553E47B67A&assignmentId=43a91994-7a45-48a4-bf2a-39b3c2d5e11e&projectId=5e631737-0fa4-44a6-b227-7ba1d7345015","FA89614C7189452A8C1F1E553E47B67A-2025-05-27-18-39-40","","null","","[]","null","",""
"","","","","","image-button-response","28","194011","0.0-10.0-1.0-0.1","FA89614C7189452A8C1F1E553E47B67A","FA89614C7189452A8C1F1E553E47B67A","43a91994-7a45-48a4-bf2a-39b3c2d5e11e","5e631737-0fa4-44a6-b227-7ba1d7345015","{""num_scrambled_semantic"":""8"",""num_scrambled_causal"":""4"",""num_scrambled_schematic"":""4"",""participantId"":""FA89614C7189452A8C1F1E553E47B67A"",""assignmentId"":""43a91994-7a45-48a4-bf2a-39b3c2d5e11e"",""projectId"":""5e631737-0fa4-44a6-b227-7ba1d7345015""}","https://test12345.live/?num_scrambled_semantic=8&num_scrambled_causal=4&num_scrambled_schematic=4&participantId=FA89614C7189452A8C1F1E553E47B67A&assignmentId=43a91994-7a45-48a4-bf2a-39b3c2d5e11e&projectId=5e631737-0fa4-44a6-b227-7ba1d7345015","FA89614C7189452A8C1F1E553E47B67A-2025-05-27-18-39-40","","null","","images/semantic_sequence/cat_care_semantic/cat_care_semantic_4.png","null","",""
"","","","","","image-button-response","29","194788","0.0-10.0-1.0-1.1","FA89614C7189452A8C1F1E553E47B67A","FA89614C7189452A8C1F1E553E47B67A","43a91994-7a45-48a4-bf2a-39b3c2d5e11e","5e631737-0fa4-44a6-b227-7ba1d7345015","{""num_scrambled_semantic"":""8"",""num_scrambled_causal"":""4"",""num_scrambled_schematic"":""4"",""participantId"":""FA89614C7189452A8C1F1E553E47B67A"",""assignmentId"":""43a91994-7a45-48a4-bf2a-39b3c2d5e11e"",""projectId"":""5e631737-0fa4-44a6-b227-7ba1d7345015""}","https://test12345.live/?num_scrambled_semantic=8&num_scrambled_causal=4&num_scrambled_schematic=4&participantId=FA89614C7189452A8C1F1E553E47B67A&assignmentId=43a91994-7a45-48a4-bf2a-39b3c2d5e11e&projectId=5e631737-0fa4-44a6-b227-7ba1d7345015","FA89614C7189452A8C1F1E553E47B67A-2025-05-27-18-39-40","","774","","images/semantic_sequence/cat_care_semantic/cat_care_semantic_4.png","0","",""
"","","","","","image-button-response","30","196607","0.0-10.0-1.0-2.1","FA89614C7189452A8C1F1E553E47B67A","FA89614C7189452A8C1F1E553E47B67A","43a91994-7a45-48a4-bf2a-39b3c2d5e11e","5e631737-0fa4-44a6-b227-7ba1d7345015","{""num_scrambled_semantic"":""8"",""num_scrambled_causal"":""4"",""num_scrambled_schematic"":""4"",""participantId"":""FA89614C7189452A8C1F1E553E47B67A"",""assignmentId"":""43a91994-7a45-48a4-bf2a-39b3c2d5e11e"",""projectId"":""5e631737-0fa4-44a6-b227-7ba1d7345015""}","https://test12345.live/?num_scrambled_semantic=8&num_scrambled_causal=4&num_scrambled_schematic=4&participantId=FA89614C7189452A8C1F1E553E47B67A&assignmentId=43a91994-7a45-48a4-bf2a-39b3c2d5e11e&projectId=5e631737-0fa4-44a6-b227-7ba1d7345015","FA89614C7189452A8C1F1E553E47B67A-2025-05-27-18-39-40","","null","","[]","null","",""
"","","","","","image-button-response","31","201121","0.0-10.0-1.0-0.2","FA89614C7189452A8C1F1E553E47B67A","FA89614C7189452A8C1F1E553E47B67A","43a91994-7a45-48a4-bf2a-39b3c2d5e11e","5e631737-0fa4-44a6-b227-7ba1d7345015","{""num_scrambled_semantic"":""8"",""num_scrambled_causal"":""4"",""num_scrambled_schematic"":""4"",""participantId"":""FA89614C7189452A8C1F1E553E47B67A"",""assignmentId"":""43a91994-7a45-48a4-bf2a-39b3c2d5e11e"",""projectId"":""5e631737-0fa4-44a6-b227-7ba1d7345015""}","https://test12345.live/?num_scrambled_semantic=8&num_scrambled_causal=4&num_scrambled_schematic=4&participantId=FA89614C7189452A8C1F1E553E47B67A&assignmentId=43a91994-7a45-48a4-bf2a-39b3c2d5e11e&projectId=5e631737-0fa4-44a6-b227-7ba1d7345015","FA89614C7189452A8C1F1E553E47B67A-2025-05-27-18-39-40","","null","","images/semantic_sequence/cat_care_semantic/cat_care_semantic_7.png","null","",""
"","","","","","image-button-response","32","201894","0.0-10.0-1.0-1.2","FA89614C7189452A8C1F1E553E47B67A","FA89614C7189452A8C1F1E553E47B67A","43a91994-7a45-48a4-bf2a-39b3c2d5e11e","5e631737-0fa4-44a6-b227-7ba1d7345015","{""num_scrambled_semantic"":""8"",""num_scrambled_causal"":""4"",""num_scrambled_schematic"":""4"",""participantId"":""FA89614C7189452A8C1F1E553E47B67A"",""assignmentId"":""43a91994-7a45-48a4-bf2a-39b3c2d5e11e"",""projectId"":""5e631737-0fa4-44a6-b227-7ba1d7345015""}","https://test12345.live/?num_scrambled_semantic=8&num_scrambled_causal=4&num_scrambled_schematic=4&participantId=FA89614C7189452A8C1F1E553E47B67A&assignmentId=43a91994-7a45-48a4-bf2a-39b3c2d5e11e&projectId=5e631737-0fa4-44a6-b227-7ba1d7345015","FA89614C7189452A8C1F1E553E47B67A-2025-05-27-18-39-40","","770","","images/semantic_sequence/cat_care_semantic/cat_care_semantic_7.png","0","",""
"","","","","","image-button-response","33","203705","0.0-10.0-1.0-2.2","FA89614C7189452A8C1F1E553E47B67A","FA89614C7189452A8C1F1E553E47B67A","43a91994-7a45-48a4-bf2a-39b3c2d5e11e","5e631737-0fa4-44a6-b227-7ba1d7345015","{""num_scrambled_semantic"":""8"",""num_scrambled_causal"":""4"",""num_scrambled_schematic"":""4"",""participantId"":""FA89614C7189452A8C1F1E553E47B67A"",""assignmentId"":""43a91994-7a45-48a4-bf2a-39b3c2d5e11e"",""projectId"":""5e631737-0fa4-44a6-b227-7ba1d7345015""}","https://test12345.live/?num_scrambled_semantic=8&num_scrambled_causal=4&num_scrambled_schematic=4&participantId=FA89614C7189452A8C1F1E553E47B67A&assignmentId=43a91994-7a45-48a4-bf2a-39b3c2d5e11e&projectId=5e631737-0fa4-44a6-b227-7ba1d7345015","FA89614C7189452A8C1F1E553E47B67A-2025-05-27-18-39-40","","null","","[]","null","",""
"","","","","","image-button-response","34","208217","0.0-10.0-1.0-0.3","FA89614C7189452A8C1F1E553E47B67A","FA89614C7189452A8C1F1E553E47B67A","43a91994-7a45-48a4-bf2a-39b3c2d5e11e","5e631737-0fa4-44a6-b227-7ba1d7345015","{""num_scrambled_semantic"":""8"",""num_scrambled_causal"":""4"",""num_scrambled_schematic"":""4"",""participantId"":""FA89614C7189452A8C1F1E553E47B67A"",""assignmentId"":""43a91994-7a45-48a4-bf2a-39b3c2d5e11e"",""projectId"":""5e631737-0fa4-44a6-b227-7ba1d7345015""}","https://test12345.live/?num_scrambled_semantic=8&num_scrambled_causal=4&num_scrambled_schematic=4&participantId=FA89614C7189452A8C1F1E553E47B67A&assignmentId=43a91994-7a45-48a4-bf2a-39b3c2d5e11e&projectId=5e631737-0fa4-44a6-b227-7ba1d7345015","FA89614C7189452A8C1F1E553E47B67A-2025-05-27-18-39-40","","null","","images/semantic_sequence/cat_care_semantic/cat_care_semantic_3.png","null","",""
"","","","","","image-button-response","35","208976","0.0-10.0-1.0-1.3","FA89614C7189452A8C1F1E553E47B67A","FA89614C7189452A8C1F1E553E47B67A","43a91994-7a45-48a4-bf2a-39b3c2d5e11e","5e631737-0fa4-44a6-b227-7ba1d7345015","{""num_scrambled_semantic"":""8"",""num_scrambled_causal"":""4"",""num_scrambled_schematic"":""4"",""participantId"":""FA89614C7189452A8C1F1E553E47B67A"",""assignmentId"":""43a91994-7a45-48a4-bf2a-39b3c2d5e11e"",""projectId"":""5e631737-0fa4-44a6-b227-7ba1d7345015""}","https://test12345.live/?num_scrambled_semantic=8&num_scrambled_causal=4&num_scrambled_schematic=4&participantId=FA89614C7189452A8C1F1E553E47B67A&assignmentId=43a91994-7a45-48a4-bf2a-39b3c2d5e11e&projectId=5e631737-0fa4-44a6-b227-7ba1d7345015","FA89614C7189452A8C1F1E553E47B67A-2025-05-27-18-39-40","","757","","images/semantic_sequence/cat_care_semantic/cat_care_semantic_3.png","0","",""
"","","","","","image-button-response","36","210785","0.0-10.0-1.0-2.3","FA89614C7189452A8C1F1E553E47B67A","FA89614C7189452A8C1F1E553E47B67A","43a91994-7a45-48a4-bf2a-39b3c2d5e11e","5e631737-0fa4-44a6-b227-7ba1d7345015","{""num_scrambled_semantic"":""8"",""num_scrambled_causal"":""4"",""num_scrambled_schematic"":""4"",""participantId"":""FA89614C7189452A8C1F1E553E47B67A"",""assignmentId"":""43a91994-7a45-48a4-bf2a-39b3c2d5e11e"",""projectId"":""5e631737-0fa4-44a6-b227-7ba1d7345015""}","https://test12345.live/?num_scrambled_semantic=8&num_scrambled_causal=4&num_scrambled_schematic=4&participantId=FA89614C7189452A8C1F1E553E47B67A&assignmentId=43a91994-7a45-48a4-bf2a-39b3c2d5e11e&projectId=5e631737-0fa4-44a6-b227-7ba1d7345015","FA89614C7189452A8C1F1E553E47B67A-2025-05-27-18-39-40","","null","","[]","null","",""
"","","","","","image-button-response","37","215295","0.0-10.0-1.0-0.4","FA89614C7189452A8C1F1E553E47B67A","FA89614C7189452A8C1F1E553E47B67A","43a91994-7a45-48a4-bf2a-39b3c2d5e11e","5e631737-0fa4-44a6-b227-7ba1d7345015","{""num_scrambled_semantic"":""8"",""num_scrambled_causal"":""4"",""num_scrambled_schematic"":""4"",""participantId"":""FA89614C7189452A8C1F1E553E47B67A"",""assignmentId"":""43a91994-7a45-48a4-bf2a-39b3c2d5e11e"",""projectId"":""5e631737-0fa4-44a6-b227-7ba1d7345015""}","https://test12345.live/?num_scrambled_semantic=8&num_scrambled_causal=4&num_scrambled_schematic=4&participantId=FA89614C7189452A8C1F1E553E47B67A&assignmentId=43a91994-7a45-48a4-bf2a-39b3c2d5e11e&projectId=5e631737-0fa4-44a6-b227-7ba1d7345015","FA89614C7189452A8C1F1E553E47B67A-2025-05-27-18-39-40","","null","","images/semantic_sequence/cat_care_semantic/cat_care_semantic_8.png","null","",""
"","","","","","image-button-response","38","216233","0.0-10.0-1.0-1.4","FA89614C7189452A8C1F1E553E47B67A","FA89614C7189452A8C1F1E553E47B67A","43a91994-7a45-48a4-bf2a-39b3c2d5e11e","5e631737-0fa4-44a6-b227-7ba1d7345015","{""num_scrambled_semantic"":""8"",""num_scrambled_causal"":""4"",""num_scrambled_schematic"":""4"",""participantId"":""FA89614C7189452A8C1F1E553E47B67A"",""assignmentId"":""43a91994-7a45-48a4-bf2a-39b3c2d5e11e"",""projectId"":""5e631737-0fa4-44a6-b227-7ba1d7345015""}","https://test12345.live/?num_scrambled_semantic=8&num_scrambled_causal=4&num_scrambled_schematic=4&participantId=FA89614C7189452A8C1F1E553E47B67A&assignmentId=43a91994-7a45-48a4-bf2a-39b3c2d5e11e&projectId=5e631737-0fa4-44a6-b227-7ba1d7345015","FA89614C7189452A8C1F1E553E47B67A-2025-05-27-18-39-40","","935","","images/semantic_sequence/cat_care_semantic/cat_care_semantic_8.png","0","",""
"","","","","","image-button-response","39","218042","0.0-10.0-1.0-2.4","FA89614C7189452A8C1F1E553E47B67A","FA89614C7189452A8C1F1E553E47B67A","43a91994-7a45-48a4-bf2a-39b3c2d5e11e","5e631737-0fa4-44a6-b227-7ba1d7345015","{""num_scrambled_semantic"":""8"",""num_scrambled_causal"":""4"",""num_scrambled_schematic"":""4"",""participantId"":""FA89614C7189452A8C1F1E553E47B67A"",""assignmentId"":""43a91994-7a45-48a4-bf2a-39b3c2d5e11e"",""projectId"":""5e631737-0fa4-44a6-b227-7ba1d7345015""}","https://test12345.live/?num_scrambled_semantic=8&num_scrambled_causal=4&num_scrambled_schematic=4&participantId=FA89614C7189452A8C1F1E553E47B67A&assignmentId=43a91994-7a45-48a4-bf2a-39b3c2d5e11e&projectId=5e631737-0fa4-44a6-b227-7ba1d7345015","FA89614C7189452A8C1F1E553E47B67A-2025-05-27-18-39-40","","null","","[]","null","",""
"","","","","","image-button-response","40","222551","0.0-10.0-1.0-0.5","FA89614C7189452A8C1F1E553E47B67A","FA89614C7189452A8C1F1E553E47B67A","43a91994-7a45-48a4-bf2a-39b3c2d5e11e","5e631737-0fa4-44a6-b227-7ba1d7345015","{""num_scrambled_semantic"":""8"",""num_scrambled_causal"":""4"",""num_scrambled_schematic"":""4"",""participantId"":""FA89614C7189452A8C1F1E553E47B67A"",""assignmentId"":""43a91994-7a45-48a4-bf2a-39b3c2d5e11e"",""projectId"":""5e631737-0fa4-44a6-b227-7ba1d7345015""}","https://test12345.live/?num_scrambled_semantic=8&num_scrambled_causal=4&num_scrambled_schematic=4&participantId=FA89614C7189452A8C1F1E553E47B67A&assignmentId=43a91994-7a45-48a4-bf2a-39b3c2d5e11e&projectId=5e631737-0fa4-44a6-b227-7ba1d7345015","FA89614C7189452A8C1F1E553E47B67A-2025-05-27-18-39-40","","null","","images/semantic_sequence/cat_care_semantic/cat_care_semantic_1.png","null","",""
"","","","","","image-button-response","41","223540","0.0-10.0-1.0-1.5","FA89614C7189452A8C1F1E553E47B67A","FA89614C7189452A8C1F1E553E47B67A","43a91994-7a45-48a4-bf2a-39b3c2d5e11e","5e631737-0fa4-44a6-b227-7ba1d7345015","{""num_scrambled_semantic"":""8"",""num_scrambled_causal"":""4"",""num_scrambled_schematic"":""4"",""participantId"":""FA89614C7189452A8C1F1E553E47B67A"",""assignmentId"":""43a91994-7a45-48a4-bf2a-39b3c2d5e11e"",""projectId"":""5e631737-0fa4-44a6-b227-7ba1d7345015""}","https://test12345.live/?num_scrambled_semantic=8&num_scrambled_causal=4&num_scrambled_schematic=4&participantId=FA89614C7189452A8C1F1E553E47B67A&assignmentId=43a91994-7a45-48a4-bf2a-39b3c2d5e11e&projectId=5e631737-0fa4-44a6-b227-7ba1d7345015","FA89614C7189452A8C1F1E553E47B67A-2025-05-27-18-39-40","","987","","images/semantic_sequence/cat_care_semantic/cat_care_semantic_1.png","0","",""
"","","","","","image-button-response","42","225353","0.0-10.0-1.0-2.5","FA89614C7189452A8C1F1E553E47B67A","FA89614C7189452A8C1F1E553E47B67A","43a91994-7a45-48a4-bf2a-39b3c2d5e11e","5e631737-0fa4-44a6-b227-7ba1d7345015","{""num_scrambled_semantic"":""8"",""num_scrambled_causal"":""4"",""num_scrambled_schematic"":""4"",""participantId"":""FA89614C7189452A8C1F1E553E47B67A"",""assignmentId"":""43a91994-7a45-48a4-bf2a-39b3c2d5e11e"",""projectId"":""5e631737-0fa4-44a6-b227-7ba1d7345015""}","https://test12345.live/?num_scrambled_semantic=8&num_scrambled_causal=4&num_scrambled_schematic=4&participantId=FA89614C7189452A8C1F1E553E47B67A&assignmentId=43a91994-7a45-48a4-bf2a-39b3c2d5e11e&projectId=5e631737-0fa4-44a6-b227-7ba1d7345015","FA89614C7189452A8C1F1E553E47B67A-2025-05-27-18-39-40","","null","","[]","null","",""
"","","","","","image-button-response","43","229863","0.0-10.0-1.0-0.6","FA89614C7189452A8C1F1E553E47B67A","FA89614C7189452A8C1F1E553E47B67A","43a91994-7a45-48a4-bf2a-39b3c2d5e11e","5e631737-0fa4-44a6-b227-7ba1d7345015","{""num_scrambled_semantic"":""8"",""num_scrambled_causal"":""4"",""num_scrambled_schematic"":""4"",""participantId"":""FA89614C7189452A8C1F1E553E47B67A"",""assignmentId"":""43a91994-7a45-48a4-bf2a-39b3c2d5e11e"",""projectId"":""5e631737-0fa4-44a6-b227-7ba1d7345015""}","https://test12345.live/?num_scrambled_semantic=8&num_scrambled_causal=4&num_scrambled_schematic=4&participantId=FA89614C7189452A8C1F1E553E47B67A&assignmentId=43a91994-7a45-48a4-bf2a-39b3c2d5e11e&projectId=5e631737-0fa4-44a6-b227-7ba1d7345015","FA89614C7189452A8C1F1E553E47B67A-2025-05-27-18-39-40","","null","","images/semantic_sequence/cat_care_semantic/cat_care_semantic_2.png","null","",""
"","","","","","image-button-response","44","230729","0.0-10.0-1.0-1.6","FA89614C7189452A8C1F1E553E47B67A","FA89614C7189452A8C1F1E553E47B67A","43a91994-7a45-48a4-bf2a-39b3c2d5e11e","5e631737-0fa4-44a6-b227-7ba1d7345015","{""num_scrambled_semantic"":""8"",""num_scrambled_causal"":""4"",""num_scrambled_schematic"":""4"",""participantId"":""FA89614C7189452A8C1F1E553E47B67A"",""assignmentId"":""43a91994-7a45-48a4-bf2a-39b3c2d5e11e"",""projectId"":""5e631737-0fa4-44a6-b227-7ba1d7345015""}","https://test12345.live/?num_scrambled_semantic=8&num_scrambled_causal=4&num_scrambled_schematic=4&participantId=FA89614C7189452A8C1F1E553E47B67A&assignmentId=43a91994-7a45-48a4-bf2a-39b3c2d5e11e&projectId=5e631737-0fa4-44a6-b227-7ba1d7345015","FA89614C7189452A8C1F1E553E47B67A-2025-05-27-18-39-40","","865","","images/semantic_sequence/cat_care_semantic/cat_care_semantic_2.png","0","",""
"","","","","","image-button-response","45","232544","0.0-10.0-1.0-2.6","FA89614C7189452A8C1F1E553E47B67A","FA89614C7189452A8C1F1E553E47B67A","43a91994-7a45-48a4-bf2a-39b3c2d5e11e","5e631737-0fa4-44a6-b227-7ba1d7345015","{""num_scrambled_semantic"":""8"",""num_scrambled_causal"":""4"",""num_scrambled_schematic"":""4"",""participantId"":""FA89614C7189452A8C1F1E553E47B67A"",""assignmentId"":""43a91994-7a45-48a4-bf2a-39b3c2d5e11e"",""projectId"":""5e631737-0fa4-44a6-b227-7ba1d7345015""}","https://test12345.live/?num_scrambled_semantic=8&num_scrambled_causal=4&num_scrambled_schematic=4&participantId=FA89614C7189452A8C1F1E553E47B67A&assignmentId=43a91994-7a45-48a4-bf2a-39b3c2d5e11e&projectId=5e631737-0fa4-44a6-b227-7ba1d7345015","FA89614C7189452A8C1F1E553E47B67A-2025-05-27-18-39-40","","null","","[]","null","",""
"","","","","","image-button-response","46","237049","0.0-10.0-1.0-0.7","FA89614C7189452A8C1F1E553E47B67A","FA89614C7189452A8C1F1E553E47B67A","43a91994-7a45-48a4-bf2a-39b3c2d5e11e","5e631737-0fa4-44a6-b227-7ba1d7345015","{""num_scrambled_semantic"":""8"",""num_scrambled_causal"":""4"",""num_scrambled_schematic"":""4"",""participantId"":""FA89614C7189452A8C1F1E553E47B67A"",""assignmentId"":""43a91994-7a45-48a4-bf2a-39b3c2d5e11e"",""projectId"":""5e631737-0fa4-44a6-b227-7ba1d7345015""}","https://test12345.live/?num_scrambled_semantic=8&num_scrambled_causal=4&num_scrambled_schematic=4&participantId=FA89614C7189452A8C1F1E553E47B67A&assignmentId=43a91994-7a45-48a4-bf2a-39b3c2d5e11e&projectId=5e631737-0fa4-44a6-b227-7ba1d7345015","FA89614C7189452A8C1F1E553E47B67A-2025-05-27-18-39-40","","null","","images/semantic_sequence/cat_care_semantic/cat_care_semantic_9.png","null","",""
"","","","","","image-button-response","47","238564","0.0-10.0-1.0-1.7","FA89614C7189452A8C1F1E553E47B67A","FA89614C7189452A8C1F1E553E47B67A","43a91994-7a45-48a4-bf2a-39b3c2d5e11e","5e631737-0fa4-44a6-b227-7ba1d7345015","{""num_scrambled_semantic"":""8"",""num_scrambled_causal"":""4"",""num_scrambled_schematic"":""4"",""participantId"":""FA89614C7189452A8C1F1E553E47B67A"",""assignmentId"":""43a91994-7a45-48a4-bf2a-39b3c2d5e11e"",""projectId"":""5e631737-0fa4-44a6-b227-7ba1d7345015""}","https://test12345.live/?num_scrambled_semantic=8&num_scrambled_causal=4&num_scrambled_schematic=4&participantId=FA89614C7189452A8C1F1E553E47B67A&assignmentId=43a91994-7a45-48a4-bf2a-39b3c2d5e11e&projectId=5e631737-0fa4-44a6-b227-7ba1d7345015","FA89614C7189452A8C1F1E553E47B67A-2025-05-27-18-39-40","","1511","","images/semantic_sequence/cat_care_semantic/cat_care_semantic_9.png","0","",""
"","","","","","image-button-response","48","240374","0.0-10.0-1.0-2.7","FA89614C7189452A8C1F1E553E47B67A","FA89614C7189452A8C1F1E553E47B67A","43a91994-7a45-48a4-bf2a-39b3c2d5e11e","5e631737-0fa4-44a6-b227-7ba1d7345015","{""num_scrambled_semantic"":""8"",""num_scrambled_causal"":""4"",""num_scrambled_schematic"":""4"",""participantId"":""FA89614C7189452A8C1F1E553E47B67A"",""assignmentId"":""43a91994-7a45-48a4-bf2a-39b3c2d5e11e"",""projectId"":""5e631737-0fa4-44a6-b227-7ba1d7345015""}","https://test12345.live/?num_scrambled_semantic=8&num_scrambled_causal=4&num_scrambled_schematic=4&participantId=FA89614C7189452A8C1F1E553E47B67A&assignmentId=43a91994-7a45-48a4-bf2a-39b3c2d5e11e&projectId=5e631737-0fa4-44a6-b227-7ba1d7345015","FA89614C7189452A8C1F1E553E47B67A-2025-05-27-18-39-40","","null","","[]","null","",""
"","","","","","image-button-response","49","244877","0.0-10.0-1.0-0.8","FA89614C7189452A8C1F1E553E47B67A","FA89614C7189452A8C1F1E553E47B67A","43a91994-7a45-48a4-bf2a-39b3c2d5e11e","5e631737-0fa4-44a6-b227-7ba1d7345015","{""num_scrambled_semantic"":""8"",""num_scrambled_causal"":""4"",""num_scrambled_schematic"":""4"",""participantId"":""FA89614C7189452A8C1F1E553E47B67A"",""assignmentId"":""43a91994-7a45-48a4-bf2a-39b3c2d5e11e"",""projectId"":""5e631737-0fa4-44a6-b227-7ba1d7345015""}","https://test12345.live/?num_scrambled_semantic=8&num_scrambled_causal=4&num_scrambled_schematic=4&participantId=FA89614C7189452A8C1F1E553E47B67A&assignmentId=43a91994-7a45-48a4-bf2a-39b3c2d5e11e&projectId=5e631737-0fa4-44a6-b227-7ba1d7345015","FA89614C7189452A8C1F1E553E47B67A-2025-05-27-18-39-40","","null","","images/semantic_sequence/cat_care_semantic/cat_care_semantic_ten.png","null","",""
"","","","","","image-button-response","50","245974","0.0-10.0-1.0-1.8","FA89614C7189452A8C1F1E553E47B67A","FA89614C7189452A8C1F1E553E47B67A","43a91994-7a45-48a4-bf2a-39b3c2d5e11e","5e631737-0fa4-44a6-b227-7ba1d7345015","{""num_scrambled_semantic"":""8"",""num_scrambled_causal"":""4"",""num_scrambled_schematic"":""4"",""participantId"":""FA89614C7189452A8C1F1E553E47B67A"",""assignmentId"":""43a91994-7a45-48a4-bf2a-39b3c2d5e11e"",""projectId"":""5e631737-0fa4-44a6-b227-7ba1d7345015""}","https://test12345.live/?num_scrambled_semantic=8&num_scrambled_causal=4&num_scrambled_schematic=4&participantId=FA89614C7189452A8C1F1E553E47B67A&assignmentId=43a91994-7a45-48a4-bf2a-39b3c2d5e11e&projectId=5e631737-0fa4-44a6-b227-7ba1d7345015","FA89614C7189452A8C1F1E553E47B67A-2025-05-27-18-39-40","","1094","","images/semantic_sequence/cat_care_semantic/cat_care_semantic_ten.png","0","",""
"","","","","","image-button-response","51","247784","0.0-10.0-1.0-2.8","FA89614C7189452A8C1F1E553E47B67A","FA89614C7189452A8C1F1E553E47B67A","43a91994-7a45-48a4-bf2a-39b3c2d5e11e","5e631737-0fa4-44a6-b227-7ba1d7345015","{""num_scrambled_semantic"":""8"",""num_scrambled_causal"":""4"",""num_scrambled_schematic"":""4"",""participantId"":""FA89614C7189452A8C1F1E553E47B67A"",""assignmentId"":""43a91994-7a45-48a4-bf2a-39b3c2d5e11e"",""projectId"":""5e631737-0fa4-44a6-b227-7ba1d7345015""}","https://test12345.live/?num_scrambled_semantic=8&num_scrambled_causal=4&num_scrambled_schematic=4&participantId=FA89614C7189452A8C1F1E553E47B67A&assignmentId=43a91994-7a45-48a4-bf2a-39b3c2d5e11e&projectId=5e631737-0fa4-44a6-b227-7ba1d7345015","FA89614C7189452A8C1F1E553E47B67A-2025-05-27-18-39-40","","null","","[]","null","",""
"","","","","","image-button-response","52","252292","0.0-10.0-1.0-0.9","FA89614C7189452A8C1F1E553E47B67A","FA89614C7189452A8C1F1E553E47B67A","43a91994-7a45-48a4-bf2a-39b3c2d5e11e","5e631737-0fa4-44a6-b227-7ba1d7345015","{""num_scrambled_semantic"":""8"",""num_scrambled_causal"":""4"",""num_scrambled_schematic"":""4"",""participantId"":""FA89614C7189452A8C1F1E553E47B67A"",""assignmentId"":""43a91994-7a45-48a4-bf2a-39b3c2d5e11e"",""projectId"":""5e631737-0fa4-44a6-b227-7ba1d7345015""}","https://test12345.live/?num_scrambled_semantic=8&num_scrambled_causal=4&num_scrambled_schematic=4&participantId=FA89614C7189452A8C1F1E553E47B67A&assignmentId=43a91994-7a45-48a4-bf2a-39b3c2d5e11e&projectId=5e631737-0fa4-44a6-b227-7ba1d7345015","FA89614C7189452A8C1F1E553E47B67A-2025-05-27-18-39-40","","null","","images/semantic_sequence/cat_care_semantic/cat_care_semantic_5.png","null","",""
"","","","","","image-button-response","53","253297","0.0-10.0-1.0-1.9","FA89614C7189452A8C1F1E553E47B67A","FA89614C7189452A8C1F1E553E47B67A","43a91994-7a45-48a4-bf2a-39b3c2d5e11e","5e631737-0fa4-44a6-b227-7ba1d7345015","{""num_scrambled_semantic"":""8"",""num_scrambled_causal"":""4"",""num_scrambled_schematic"":""4"",""participantId"":""FA89614C7189452A8C1F1E553E47B67A"",""assignmentId"":""43a91994-7a45-48a4-bf2a-39b3c2d5e11e"",""projectId"":""5e631737-0fa4-44a6-b227-7ba1d7345015""}","https://test12345.live/?num_scrambled_semantic=8&num_scrambled_causal=4&num_scrambled_schematic=4&participantId=FA89614C7189452A8C1F1E553E47B67A&assignmentId=43a91994-7a45-48a4-bf2a-39b3c2d5e11e&projectId=5e631737-0fa4-44a6-b227-7ba1d7345015","FA89614C7189452A8C1F1E553E47B67A-2025-05-27-18-39-40","","1001","","images/semantic_sequence/cat_care_semantic/cat_care_semantic_5.png","0","",""
"","","","","","image-button-response","54","255111","0.0-10.0-1.0-2.9","FA89614C7189452A8C1F1E553E47B67A","FA89614C7189452A8C1F1E553E47B67A","43a91994-7a45-48a4-bf2a-39b3c2d5e11e","5e631737-0fa4-44a6-b227-7ba1d7345015","{""num_scrambled_semantic"":""8"",""num_scrambled_causal"":""4"",""num_scrambled_schematic"":""4"",""participantId"":""FA89614C7189452A8C1F1E553E47B67A"",""assignmentId"":""43a91994-7a45-48a4-bf2a-39b3c2d5e11e"",""projectId"":""5e631737-0fa4-44a6-b227-7ba1d7345015""}","https://test12345.live/?num_scrambled_semantic=8&num_scrambled_causal=4&num_scrambled_schematic=4&participantId=FA89614C7189452A8C1F1E553E47B67A&assignmentId=43a91994-7a45-48a4-bf2a-39b3c2d5e11e&projectId=5e631737-0fa4-44a6-b227-7ba1d7345015","FA89614C7189452A8C1F1E553E47B67A-2025-05-27-18-39-40","","null","","[]","null","",""
"","","","","","html-audio-response","55","290829","0.0-11.0","FA89614C7189452A8C1F1E553E47B67A","FA89614C7189452A8C1F1E553E47B67A","43a91994-7a45-48a4-bf2a-39b3c2d5e11e","5e631737-0fa4-44a6-b227-7ba1d7345015","{""num_scrambled_semantic"":""8"",""num_scrambled_causal"":""4"",""num_scrambled_schematic"":""4"",""participantId"":""FA89614C7189452A8C1F1E553E47B67A"",""assignmentId"":""43a91994-7a45-48a4-bf2a-39b3c2d5e11e"",""projectId"":""5e631737-0fa4-44a6-b227-7ba1d7345015""}","https://test12345.live/?num_scrambled_semantic=8&num_scrambled_causal=4&num_scrambled_schematic=4&participantId=FA89614C7189452A8C1F1E553E47B67A&assignmentId=43a91994-7a45-48a4-bf2a-39b3c2d5e11e&projectId=5e631737-0fa4-44a6-b227-7ba1d7345015","FA89614C7189452A8C1F1E553E47B67A-2025-05-27-18-39-40","","23529","","[""<span style=\""color: red; font-size: 24px\""> NOW RECORDING</span><p>Please say out loud all the images you saw, in the exact order you saw them. Try to recall as many images as you can, but remember: getting the order right is more important than the number of images you recall.</p>""]","","4","cat_care_semantic"
"","","","","","image-button-response","56","296838","0.0-12.0-0.0","FA89614C7189452A8C1F1E553E47B67A","FA89614C7189452A8C1F1E553E47B67A","43a91994-7a45-48a4-bf2a-39b3c2d5e11e","5e631737-0fa4-44a6-b227-7ba1d7345015","{""num_scrambled_semantic"":""8"",""num_scrambled_causal"":""4"",""num_scrambled_schematic"":""4"",""participantId"":""FA89614C7189452A8C1F1E553E47B67A"",""assignmentId"":""43a91994-7a45-48a4-bf2a-39b3c2d5e11e"",""projectId"":""5e631737-0fa4-44a6-b227-7ba1d7345015""}","https://test12345.live/?num_scrambled_semantic=8&num_scrambled_causal=4&num_scrambled_schematic=4&participantId=FA89614C7189452A8C1F1E553E47B67A&assignmentId=43a91994-7a45-48a4-bf2a-39b3c2d5e11e&projectId=5e631737-0fa4-44a6-b227-7ba1d7345015","FA89614C7189452A8C1F1E553E47B67A-2025-05-27-18-39-40","","null","","images/semantic_sequence/visiting_cities_semantic/visiting_cities_semantic_0.png","null","",""
"","","","","","image-button-response","57","301341","0.0-12.0-1.0-0.0","FA89614C7189452A8C1F1E553E47B67A","FA89614C7189452A8C1F1E553E47B67A","43a91994-7a45-48a4-bf2a-39b3c2d5e11e","5e631737-0fa4-44a6-b227-7ba1d7345015","{""num_scrambled_semantic"":""8"",""num_scrambled_causal"":""4"",""num_scrambled_schematic"":""4"",""participantId"":""FA89614C7189452A8C1F1E553E47B67A"",""assignmentId"":""43a91994-7a45-48a4-bf2a-39b3c2d5e11e"",""projectId"":""5e631737-0fa4-44a6-b227-7ba1d7345015""}","https://test12345.live/?num_scrambled_semantic=8&num_scrambled_causal=4&num_scrambled_schematic=4&participantId=FA89614C7189452A8C1F1E553E47B67A&assignmentId=43a91994-7a45-48a4-bf2a-39b3c2d5e11e&projectId=5e631737-0fa4-44a6-b227-7ba1d7345015","FA89614C7189452A8C1F1E553E47B67A-2025-05-27-18-39-40","","null","","images/semantic_sequence/visiting_cities_semantic/visiting_cities_semantic_4.png","null","",""
"","","","","","image-button-response","58","302526","0.0-12.0-1.0-1.0","FA89614C7189452A8C1F1E553E47B67A","FA89614C7189452A8C1F1E553E47B67A","43a91994-7a45-48a4-bf2a-39b3c2d5e11e","5e631737-0fa4-44a6-b227-7ba1d7345015","{""num_scrambled_semantic"":""8"",""num_scrambled_causal"":""4"",""num_scrambled_schematic"":""4"",""participantId"":""FA89614C7189452A8C1F1E553E47B67A"",""assignmentId"":""43a91994-7a45-48a4-bf2a-39b3c2d5e11e"",""projectId"":""5e631737-0fa4-44a6-b227-7ba1d7345015""}","https://test12345.live/?num_scrambled_semantic=8&num_scrambled_causal=4&num_scrambled_schematic=4&participantId=FA89614C7189452A8C1F1E553E47B67A&assignmentId=43a91994-7a45-48a4-bf2a-39b3c2d5e11e&projectId=5e631737-0fa4-44a6-b227-7ba1d7345015","FA89614C7189452A8C1F1E553E47B67A-2025-05-27-18-39-40","","1182","","images/semantic_sequence/visiting_cities_semantic/visiting_cities_semantic_4.png","1","",""
"","","","","","image-button-response","59","304332","0.0-12.0-1.0-2.0","FA89614C7189452A8C1F1E553E47B67A","FA89614C7189452A8C1F1E553E47B67A","43a91994-7a45-48a4-bf2a-39b3c2d5e11e","5e631737-0fa4-44a6-b227-7ba1d7345015","{""num_scrambled_semantic"":""8"",""num_scrambled_causal"":""4"",""num_scrambled_schematic"":""4"",""participantId"":""FA89614C7189452A8C1F1E553E47B67A"",""assignmentId"":""43a91994-7a45-48a4-bf2a-39b3c2d5e11e"",""projectId"":""5e631737-0fa4-44a6-b227-7ba1d7345015""}","https://test12345.live/?num_scrambled_semantic=8&num_scrambled_causal=4&num_scrambled_schematic=4&participantId=FA89614C7189452A8C1F1E553E47B67A&assignmentId=43a91994-7a45-48a4-bf2a-39b3c2d5e11e&projectId=5e631737-0fa4-44a6-b227-7ba1d7345015","FA89614C7189452A8C1F1E553E47B67A-2025-05-27-18-39-40","","null","","[]","null","",""
"","","","","","image-button-response","60","308844","0.0-12.0-1.0-0.1","FA89614C7189452A8C1F1E553E47B67A","FA89614C7189452A8C1F1E553E47B67A","43a91994-7a45-48a4-bf2a-39b3c2d5e11e","5e631737-0fa4-44a6-b227-7ba1d7345015","{""num_scrambled_semantic"":""8"",""num_scrambled_causal"":""4"",""num_scrambled_schematic"":""4"",""participantId"":""FA89614C7189452A8C1F1E553E47B67A"",""assignmentId"":""43a91994-7a45-48a4-bf2a-39b3c2d5e11e"",""projectId"":""5e631737-0fa4-44a6-b227-7ba1d7345015""}","https://test12345.live/?num_scrambled_semantic=8&num_scrambled_causal=4&num_scrambled_schematic=4&participantId=FA89614C7189452A8C1F1E553E47B67A&assignmentId=43a91994-7a45-48a4-bf2a-39b3c2d5e11e&projectId=5e631737-0fa4-44a6-b227-7ba1d7345015","FA89614C7189452A8C1F1E553E47B67A-2025-05-27-18-39-40","","null","","images/semantic_sequence/visiting_cities_semantic/visiting_cities_semantic_6.png","null","",""
"","","","","","image-button-response","61","309725","0.0-12.0-1.0-1.1","FA89614C7189452A8C1F1E553E47B67A","FA89614C7189452A8C1F1E553E47B67A","43a91994-7a45-48a4-bf2a-39b3c2d5e11e","5e631737-0fa4-44a6-b227-7ba1d7345015","{""num_scrambled_semantic"":""8"",""num_scrambled_causal"":""4"",""num_scrambled_schematic"":""4"",""participantId"":""FA89614C7189452A8C1F1E553E47B67A"",""assignmentId"":""43a91994-7a45-48a4-bf2a-39b3c2d5e11e"",""projectId"":""5e631737-0fa4-44a6-b227-7ba1d7345015""}","https://test12345.live/?num_scrambled_semantic=8&num_scrambled_causal=4&num_scrambled_schematic=4&participantId=FA89614C7189452A8C1F1E553E47B67A&assignmentId=43a91994-7a45-48a4-bf2a-39b3c2d5e11e&projectId=5e631737-0fa4-44a6-b227-7ba1d7345015","FA89614C7189452A8C1F1E553E47B67A-2025-05-27-18-39-40","","878","","images/semantic_sequence/visiting_cities_semantic/visiting_cities_semantic_6.png","1","",""
"","","","","","image-button-response","62","311533","0.0-12.0-1.0-2.1","FA89614C7189452A8C1F1E553E47B67A","FA89614C7189452A8C1F1E553E47B67A","43a91994-7a45-48a4-bf2a-39b3c2d5e11e","5e631737-0fa4-44a6-b227-7ba1d7345015","{""num_scrambled_semantic"":""8"",""num_scrambled_causal"":""4"",""num_scrambled_schematic"":""4"",""participantId"":""FA89614C7189452A8C1F1E553E47B67A"",""assignmentId"":""43a91994-7a45-48a4-bf2a-39b3c2d5e11e"",""projectId"":""5e631737-0fa4-44a6-b227-7ba1d7345015""}","https://test12345.live/?num_scrambled_semantic=8&num_scrambled_causal=4&num_scrambled_schematic=4&participantId=FA89614C7189452A8C1F1E553E47B67A&assignmentId=43a91994-7a45-48a4-bf2a-39b3c2d5e11e&projectId=5e631737-0fa4-44a6-b227-7ba1d7345015","FA89614C7189452A8C1F1E553E47B67A-2025-05-27-18-39-40","","null","","[]","null","",""
"","","","","","image-button-response","63","316047","0.0-12.0-1.0-0.2","FA89614C7189452A8C1F1E553E47B67A","FA89614C7189452A8C1F1E553E47B67A","43a91994-7a45-48a4-bf2a-39b3c2d5e11e","5e631737-0fa4-44a6-b227-7ba1d7345015","{""num_scrambled_semantic"":""8"",""num_scrambled_causal"":""4"",""num_scrambled_schematic"":""4"",""participantId"":""FA89614C7189452A8C1F1E553E47B67A"",""assignmentId"":""43a91994-7a45-48a4-bf2a-39b3c2d5e11e"",""projectId"":""5e631737-0fa4-44a6-b227-7ba1d7345015""}","https://test12345.live/?num_scrambled_semantic=8&num_scrambled_causal=4&num_scrambled_schematic=4&participantId=FA89614C7189452A8C1F1E553E47B67A&assignmentId=43a91994-7a45-48a4-bf2a-39b3c2d5e11e&projectId=5e631737-0fa4-44a6-b227-7ba1d7345015","FA89614C7189452A8C1F1E553E47B67A-2025-05-27-18-39-40","","null","","images/semantic_sequence/visiting_cities_semantic/visiting_cities_semantic_8.png","null","",""
"","","","","","image-button-response","64","316922","0.0-12.0-1.0-1.2","FA89614C7189452A8C1F1E553E47B67A","FA89614C7189452A8C1F1E553E47B67A","43a91994-7a45-48a4-bf2a-39b3c2d5e11e","5e631737-0fa4-44a6-b227-7ba1d7345015","{""num_scrambled_semantic"":""8"",""num_scrambled_causal"":""4"",""num_scrambled_schematic"":""4"",""participantId"":""FA89614C7189452A8C1F1E553E47B67A"",""assignmentId"":""43a91994-7a45-48a4-bf2a-39b3c2d5e11e"",""projectId"":""5e631737-0fa4-44a6-b227-7ba1d7345015""}","https://test12345.live/?num_scrambled_semantic=8&num_scrambled_causal=4&num_scrambled_schematic=4&participantId=FA89614C7189452A8C1F1E553E47B67A&assignmentId=43a91994-7a45-48a4-bf2a-39b3c2d5e11e&projectId=5e631737-0fa4-44a6-b227-7ba1d7345015","FA89614C7189452A8C1F1E553E47B67A-2025-05-27-18-39-40","","869","","images/semantic_sequence/visiting_cities_semantic/visiting_cities_semantic_8.png","1","",""
"","","","","","image-button-response","65","318728","0.0-12.0-1.0-2.2","FA89614C7189452A8C1F1E553E47B67A","FA89614C7189452A8C1F1E553E47B67A","43a91994-7a45-48a4-bf2a-39b3c2d5e11e","5e631737-0fa4-44a6-b227-7ba1d7345015","{""num_scrambled_semantic"":""8"",""num_scrambled_causal"":""4"",""num_scrambled_schematic"":""4"",""participantId"":""FA89614C7189452A8C1F1E553E47B67A"",""assignmentId"":""43a91994-7a45-48a4-bf2a-39b3c2d5e11e"",""projectId"":""5e631737-0fa4-44a6-b227-7ba1d7345015""}","https://test12345.live/?num_scrambled_semantic=8&num_scrambled_causal=4&num_scrambled_schematic=4&participantId=FA89614C7189452A8C1F1E553E47B67A&assignmentId=43a91994-7a45-48a4-bf2a-39b3c2d5e11e&projectId=5e631737-0fa4-44a6-b227-7ba1d7345015","FA89614C7189452A8C1F1E553E47B67A-2025-05-27-18-39-40","","null","","[]","null","",""
"","","","","","image-button-response","66","323242","0.0-12.0-1.0-0.3","FA89614C7189452A8C1F1E553E47B67A","FA89614C7189452A8C1F1E553E47B67A","43a91994-7a45-48a4-bf2a-39b3c2d5e11e","5e631737-0fa4-44a6-b227-7ba1d7345015","{""num_scrambled_semantic"":""8"",""num_scrambled_causal"":""4"",""num_scrambled_schematic"":""4"",""participantId"":""FA89614C7189452A8C1F1E553E47B67A"",""assignmentId"":""43a91994-7a45-48a4-bf2a-39b3c2d5e11e"",""projectId"":""5e631737-0fa4-44a6-b227-7ba1d7345015""}","https://test12345.live/?num_scrambled_semantic=8&num_scrambled_causal=4&num_scrambled_schematic=4&participantId=FA89614C7189452A8C1F1E553E47B67A&assignmentId=43a91994-7a45-48a4-bf2a-39b3c2d5e11e&projectId=5e631737-0fa4-44a6-b227-7ba1d7345015","FA89614C7189452A8C1F1E553E47B67A-2025-05-27-18-39-40","","null","","images/semantic_sequence/visiting_cities_semantic/visiting_cities_semantic_2.png","null","",""
"","","","","","image-button-response","67","324125","0.0-12.0-1.0-1.3","FA89614C7189452A8C1F1E553E47B67A","FA89614C7189452A8C1F1E553E47B67A","43a91994-7a45-48a4-bf2a-39b3c2d5e11e","5e631737-0fa4-44a6-b227-7ba1d7345015","{""num_scrambled_semantic"":""8"",""num_scrambled_causal"":""4"",""num_scrambled_schematic"":""4"",""participantId"":""FA89614C7189452A8C1F1E553E47B67A"",""assignmentId"":""43a91994-7a45-48a4-bf2a-39b3c2d5e11e"",""projectId"":""5e631737-0fa4-44a6-b227-7ba1d7345015""}","https://test12345.live/?num_scrambled_semantic=8&num_scrambled_causal=4&num_scrambled_schematic=4&participantId=FA89614C7189452A8C1F1E553E47B67A&assignmentId=43a91994-7a45-48a4-bf2a-39b3c2d5e11e&projectId=5e631737-0fa4-44a6-b227-7ba1d7345015","FA89614C7189452A8C1F1E553E47B67A-2025-05-27-18-39-40","","880","","images/semantic_sequence/visiting_cities_semantic/visiting_cities_semantic_2.png","1","",""
"","","","","","image-button-response","68","325939","0.0-12.0-1.0-2.3","FA89614C7189452A8C1F1E553E47B67A","FA89614C7189452A8C1F1E553E47B67A","43a91994-7a45-48a4-bf2a-39b3c2d5e11e","5e631737-0fa4-44a6-b227-7ba1d7345015","{""num_scrambled_semantic"":""8"",""num_scrambled_causal"":""4"",""num_scrambled_schematic"":""4"",""participantId"":""FA89614C7189452A8C1F1E553E47B67A"",""assignmentId"":""43a91994-7a45-48a4-bf2a-39b3c2d5e11e"",""projectId"":""5e631737-0fa4-44a6-b227-7ba1d7345015""}","https://test12345.live/?num_scrambled_semantic=8&num_scrambled_causal=4&num_scrambled_schematic=4&participantId=FA89614C7189452A8C1F1E553E47B67A&assignmentId=43a91994-7a45-48a4-bf2a-39b3c2d5e11e&projectId=5e631737-0fa4-44a6-b227-7ba1d7345015","FA89614C7189452A8C1F1E553E47B67A-2025-05-27-18-39-40","","null","","[]","null","",""
"","","","","","image-button-response","69","330452","0.0-12.0-1.0-0.4","FA89614C7189452A8C1F1E553E47B67A","FA89614C7189452A8C1F1E553E47B67A","43a91994-7a45-48a4-bf2a-39b3c2d5e11e","5e631737-0fa4-44a6-b227-7ba1d7345015","{""num_scrambled_semantic"":""8"",""num_scrambled_causal"":""4"",""num_scrambled_schematic"":""4"",""participantId"":""FA89614C7189452A8C1F1E553E47B67A"",""assignmentId"":""43a91994-7a45-48a4-bf2a-39b3c2d5e11e"",""projectId"":""5e631737-0fa4-44a6-b227-7ba1d7345015""}","https://test12345.live/?num_scrambled_semantic=8&num_scrambled_causal=4&num_scrambled_schematic=4&participantId=FA89614C7189452A8C1F1E553E47B67A&assignmentId=43a91994-7a45-48a4-bf2a-39b3c2d5e11e&projectId=5e631737-0fa4-44a6-b227-7ba1d7345015","FA89614C7189452A8C1F1E553E47B67A-2025-05-27-18-39-40","","null","","images/semantic_sequence/visiting_cities_semantic/visiting_cities_semantic_5.png","null","",""
"","","","","","image-button-response","70","331289","0.0-12.0-1.0-1.4","FA89614C7189452A8C1F1E553E47B67A","FA89614C7189452A8C1F1E553E47B67A","43a91994-7a45-48a4-bf2a-39b3c2d5e11e","5e631737-0fa4-44a6-b227-7ba1d7345015","{""num_scrambled_semantic"":""8"",""num_scrambled_causal"":""4"",""num_scrambled_schematic"":""4"",""participantId"":""FA89614C7189452A8C1F1E553E47B67A"",""assignmentId"":""43a91994-7a45-48a4-bf2a-39b3c2d5e11e"",""projectId"":""5e631737-0fa4-44a6-b227-7ba1d7345015""}","https://test12345.live/?num_scrambled_semantic=8&num_scrambled_causal=4&num_scrambled_schematic=4&participantId=FA89614C7189452A8C1F1E553E47B67A&assignmentId=43a91994-7a45-48a4-bf2a-39b3c2d5e11e&projectId=5e631737-0fa4-44a6-b227-7ba1d7345015","FA89614C7189452A8C1F1E553E47B67A-2025-05-27-18-39-40","","834","","images/semantic_sequence/visiting_cities_semantic/visiting_cities_semantic_5.png","1","",""
"","","","","","image-button-response","71","333101","0.0-12.0-1.0-2.4","FA89614C7189452A8C1F1E553E47B67A","FA89614C7189452A8C1F1E553E47B67A","43a91994-7a45-48a4-bf2a-39b3c2d5e11e","5e631737-0fa4-44a6-b227-7ba1d7345015","{""num_scrambled_semantic"":""8"",""num_scrambled_causal"":""4"",""num_scrambled_schematic"":""4"",""participantId"":""FA89614C7189452A8C1F1E553E47B67A"",""assignmentId"":""43a91994-7a45-48a4-bf2a-39b3c2d5e11e"",""projectId"":""5e631737-0fa4-44a6-b227-7ba1d7345015""}","https://test12345.live/?num_scrambled_semantic=8&num_scrambled_causal=4&num_scrambled_schematic=4&participantId=FA89614C7189452A8C1F1E553E47B67A&assignmentId=43a91994-7a45-48a4-bf2a-39b3c2d5e11e&projectId=5e631737-0fa4-44a6-b227-7ba1d7345015","FA89614C7189452A8C1F1E553E47B67A-2025-05-27-18-39-40","","null","","[]","null","",""
"","","","","","image-button-response","72","337609","0.0-12.0-1.0-0.5","FA89614C7189452A8C1F1E553E47B67A","FA89614C7189452A8C1F1E553E47B67A","43a91994-7a45-48a4-bf2a-39b3c2d5e11e","5e631737-0fa4-44a6-b227-7ba1d7345015","{""num_scrambled_semantic"":""8"",""num_scrambled_causal"":""4"",""num_scrambled_schematic"":""4"",""participantId"":""FA89614C7189452A8C1F1E553E47B67A"",""assignmentId"":""43a91994-7a45-48a4-bf2a-39b3c2d5e11e"",""projectId"":""5e631737-0fa4-44a6-b227-7ba1d7345015""}","https://test12345.live/?num_scrambled_semantic=8&num_scrambled_causal=4&num_scrambled_schematic=4&participantId=FA89614C7189452A8C1F1E553E47B67A&assignmentId=43a91994-7a45-48a4-bf2a-39b3c2d5e11e&projectId=5e631737-0fa4-44a6-b227-7ba1d7345015","FA89614C7189452A8C1F1E553E47B67A-2025-05-27-18-39-40","","null","","images/semantic_sequence/visiting_cities_semantic/visiting_cities_semantic_9.png","null","",""
"","","","","","image-button-response","73","338692","0.0-12.0-1.0-1.5","FA89614C7189452A8C1F1E553E47B67A","FA89614C7189452A8C1F1E553E47B67A","43a91994-7a45-48a4-bf2a-39b3c2d5e11e","5e631737-0fa4-44a6-b227-7ba1d7345015","{""num_scrambled_semantic"":""8"",""num_scrambled_causal"":""4"",""num_scrambled_schematic"":""4"",""participantId"":""FA89614C7189452A8C1F1E553E47B67A"",""assignmentId"":""43a91994-7a45-48a4-bf2a-39b3c2d5e11e"",""projectId"":""5e631737-0fa4-44a6-b227-7ba1d7345015""}","https://test12345.live/?num_scrambled_semantic=8&num_scrambled_causal=4&num_scrambled_schematic=4&participantId=FA89614C7189452A8C1F1E553E47B67A&assignmentId=43a91994-7a45-48a4-bf2a-39b3c2d5e11e&projectId=5e631737-0fa4-44a6-b227-7ba1d7345015","FA89614C7189452A8C1F1E553E47B67A-2025-05-27-18-39-40","","1079","","images/semantic_sequence/visiting_cities_semantic/visiting_cities_semantic_9.png","1","",""
"","","","","","image-button-response","74","340502","0.0-12.0-1.0-2.5","FA89614C7189452A8C1F1E553E47B67A","FA89614C7189452A8C1F1E553E47B67A","43a91994-7a45-48a4-bf2a-39b3c2d5e11e","5e631737-0fa4-44a6-b227-7ba1d7345015","{""num_scrambled_semantic"":""8"",""num_scrambled_causal"":""4"",""num_scrambled_schematic"":""4"",""participantId"":""FA89614C7189452A8C1F1E553E47B67A"",""assignmentId"":""43a91994-7a45-48a4-bf2a-39b3c2d5e11e"",""projectId"":""5e631737-0fa4-44a6-b227-7ba1d7345015""}","https://test12345.live/?num_scrambled_semantic=8&num_scrambled_causal=4&num_scrambled_schematic=4&participantId=FA89614C7189452A8C1F1E553E47B67A&assignmentId=43a91994-7a45-48a4-bf2a-39b3c2d5e11e&projectId=5e631737-0fa4-44a6-b227-7ba1d7345015","FA89614C7189452A8C1F1E553E47B67A-2025-05-27-18-39-40","","null","","[]","null","",""
"","","","","","image-button-response","75","345012","0.0-12.0-1.0-0.6","FA89614C7189452A8C1F1E553E47B67A","FA89614C7189452A8C1F1E553E47B67A","43a91994-7a45-48a4-bf2a-39b3c2d5e11e","5e631737-0fa4-44a6-b227-7ba1d7345015","{""num_scrambled_semantic"":""8"",""num_scrambled_causal"":""4"",""num_scrambled_schematic"":""4"",""participantId"":""FA89614C7189452A8C1F1E553E47B67A"",""assignmentId"":""43a91994-7a45-48a4-bf2a-39b3c2d5e11e"",""projectId"":""5e631737-0fa4-44a6-b227-7ba1d7345015""}","https://test12345.live/?num_scrambled_semantic=8&num_scrambled_causal=4&num_scrambled_schematic=4&participantId=FA89614C7189452A8C1F1E553E47B67A&assignmentId=43a91994-7a45-48a4-bf2a-39b3c2d5e11e&projectId=5e631737-0fa4-44a6-b227-7ba1d7345015","FA89614C7189452A8C1F1E553E47B67A-2025-05-27-18-39-40","","null","","images/semantic_sequence/visiting_cities_semantic/visiting_cities_semantic_3.png","null","",""
"","","","","","image-button-response","76","345983","0.0-12.0-1.0-1.6","FA89614C7189452A8C1F1E553E47B67A","FA89614C7189452A8C1F1E553E47B67A","43a91994-7a45-48a4-bf2a-39b3c2d5e11e","5e631737-0fa4-44a6-b227-7ba1d7345015","{""num_scrambled_semantic"":""8"",""num_scrambled_causal"":""4"",""num_scrambled_schematic"":""4"",""participantId"":""FA89614C7189452A8C1F1E553E47B67A"",""assignmentId"":""43a91994-7a45-48a4-bf2a-39b3c2d5e11e"",""projectId"":""5e631737-0fa4-44a6-b227-7ba1d7345015""}","https://test12345.live/?num_scrambled_semantic=8&num_scrambled_causal=4&num_scrambled_schematic=4&participantId=FA89614C7189452A8C1F1E553E47B67A&assignmentId=43a91994-7a45-48a4-bf2a-39b3c2d5e11e&projectId=5e631737-0fa4-44a6-b227-7ba1d7345015","FA89614C7189452A8C1F1E553E47B67A-2025-05-27-18-39-40","","968","","images/semantic_sequence/visiting_cities_semantic/visiting_cities_semantic_3.png","1","",""
"","","","","","image-button-response","77","347792","0.0-12.0-1.0-2.6","FA89614C7189452A8C1F1E553E47B67A","FA89614C7189452A8C1F1E553E47B67A","43a91994-7a45-48a4-bf2a-39b3c2d5e11e","5e631737-0fa4-44a6-b227-7ba1d7345015","{""num_scrambled_semantic"":""8"",""num_scrambled_causal"":""4"",""num_scrambled_schematic"":""4"",""participantId"":""FA89614C7189452A8C1F1E553E47B67A"",""assignmentId"":""43a91994-7a45-48a4-bf2a-39b3c2d5e11e"",""projectId"":""5e631737-0fa4-44a6-b227-7ba1d7345015""}","https://test12345.live/?num_scrambled_semantic=8&num_scrambled_causal=4&num_scrambled_schematic=4&participantId=FA89614C7189452A8C1F1E553E47B67A&assignmentId=43a91994-7a45-48a4-bf2a-39b3c2d5e11e&projectId=5e631737-0fa4-44a6-b227-7ba1d7345015","FA89614C7189452A8C1F1E553E47B67A-2025-05-27-18-39-40","","null","","[]","null","",""
"","","","","","image-button-response","78","352306","0.0-12.0-1.0-0.7","FA89614C7189452A8C1F1E553E47B67A","FA89614C7189452A8C1F1E553E47B67A","43a91994-7a45-48a4-bf2a-39b3c2d5e11e","5e631737-0fa4-44a6-b227-7ba1d7345015","{""num_scrambled_semantic"":""8"",""num_scrambled_causal"":""4"",""num_scrambled_schematic"":""4"",""participantId"":""FA89614C7189452A8C1F1E553E47B67A"",""assignmentId"":""43a91994-7a45-48a4-bf2a-39b3c2d5e11e"",""projectId"":""5e631737-0fa4-44a6-b227-7ba1d7345015""}","https://test12345.live/?num_scrambled_semantic=8&num_scrambled_causal=4&num_scrambled_schematic=4&participantId=FA89614C7189452A8C1F1E553E47B67A&assignmentId=43a91994-7a45-48a4-bf2a-39b3c2d5e11e&projectId=5e631737-0fa4-44a6-b227-7ba1d7345015","FA89614C7189452A8C1F1E553E47B67A-2025-05-27-18-39-40","","null","","images/semantic_sequence/visiting_cities_semantic/visiting_cities_semantic_7.png","null","",""
"","","","","","image-button-response","79","353154","0.0-12.0-1.0-1.7","FA89614C7189452A8C1F1E553E47B67A","FA89614C7189452A8C1F1E553E47B67A","43a91994-7a45-48a4-bf2a-39b3c2d5e11e","5e631737-0fa4-44a6-b227-7ba1d7345015","{""num_scrambled_semantic"":""8"",""num_scrambled_causal"":""4"",""num_scrambled_schematic"":""4"",""participantId"":""FA89614C7189452A8C1F1E553E47B67A"",""assignmentId"":""43a91994-7a45-48a4-bf2a-39b3c2d5e11e"",""projectId"":""5e631737-0fa4-44a6-b227-7ba1d7345015""}","https://test12345.live/?num_scrambled_semantic=8&num_scrambled_causal=4&num_scrambled_schematic=4&participantId=FA89614C7189452A8C1F1E553E47B67A&assignmentId=43a91994-7a45-48a4-bf2a-39b3c2d5e11e&projectId=5e631737-0fa4-44a6-b227-7ba1d7345015","FA89614C7189452A8C1F1E553E47B67A-2025-05-27-18-39-40","","846","","images/semantic_sequence/visiting_cities_semantic/visiting_cities_semantic_7.png","0","",""
"","","","","","image-button-response","80","354958","0.0-12.0-1.0-2.7","FA89614C7189452A8C1F1E553E47B67A","FA89614C7189452A8C1F1E553E47B67A","43a91994-7a45-48a4-bf2a-39b3c2d5e11e","5e631737-0fa4-44a6-b227-7ba1d7345015","{""num_scrambled_semantic"":""8"",""num_scrambled_causal"":""4"",""num_scrambled_schematic"":""4"",""participantId"":""FA89614C7189452A8C1F1E553E47B67A"",""assignmentId"":""43a91994-7a45-48a4-bf2a-39b3c2d5e11e"",""projectId"":""5e631737-0fa4-44a6-b227-7ba1d7345015""}","https://test12345.live/?num_scrambled_semantic=8&num_scrambled_causal=4&num_scrambled_schematic=4&participantId=FA89614C7189452A8C1F1E553E47B67A&assignmentId=43a91994-7a45-48a4-bf2a-39b3c2d5e11e&projectId=5e631737-0fa4-44a6-b227-7ba1d7345015","FA89614C7189452A8C1F1E553E47B67A-2025-05-27-18-39-40","","null","","[]","null","",""
"","","","","","image-button-response","81","359476","0.0-12.0-1.0-0.8","FA89614C7189452A8C1F1E553E47B67A","FA89614C7189452A8C1F1E553E47B67A","43a91994-7a45-48a4-bf2a-39b3c2d5e11e","5e631737-0fa4-44a6-b227-7ba1d7345015","{""num_scrambled_semantic"":""8"",""num_scrambled_causal"":""4"",""num_scrambled_schematic"":""4"",""participantId"":""FA89614C7189452A8C1F1E553E47B67A"",""assignmentId"":""43a91994-7a45-48a4-bf2a-39b3c2d5e11e"",""projectId"":""5e631737-0fa4-44a6-b227-7ba1d7345015""}","https://test12345.live/?num_scrambled_semantic=8&num_scrambled_causal=4&num_scrambled_schematic=4&participantId=FA89614C7189452A8C1F1E553E47B67A&assignmentId=43a91994-7a45-48a4-bf2a-39b3c2d5e11e&projectId=5e631737-0fa4-44a6-b227-7ba1d7345015","FA89614C7189452A8C1F1E553E47B67A-2025-05-27-18-39-40","","null","","images/semantic_sequence/visiting_cities_semantic/visiting_cities_semantic_1.png","null","",""
"","","","","","image-button-response","82","360245","0.0-12.0-1.0-1.8","FA89614C7189452A8C1F1E553E47B67A","FA89614C7189452A8C1F1E553E47B67A","43a91994-7a45-48a4-bf2a-39b3c2d5e11e","5e631737-0fa4-44a6-b227-7ba1d7345015","{""num_scrambled_semantic"":""8"",""num_scrambled_causal"":""4"",""num_scrambled_schematic"":""4"",""participantId"":""FA89614C7189452A8C1F1E553E47B67A"",""assignmentId"":""43a91994-7a45-48a4-bf2a-39b3c2d5e11e"",""projectId"":""5e631737-0fa4-44a6-b227-7ba1d7345015""}","https://test12345.live/?num_scrambled_semantic=8&num_scrambled_causal=4&num_scrambled_schematic=4&participantId=FA89614C7189452A8C1F1E553E47B67A&assignmentId=43a91994-7a45-48a4-bf2a-39b3c2d5e11e&projectId=5e631737-0fa4-44a6-b227-7ba1d7345015","FA89614C7189452A8C1F1E553E47B67A-2025-05-27-18-39-40","","766","","images/semantic_sequence/visiting_cities_semantic/visiting_cities_semantic_1.png","0","",""
"","","","","","image-button-response","83","362052","0.0-12.0-1.0-2.8","FA89614C7189452A8C1F1E553E47B67A","FA89614C7189452A8C1F1E553E47B67A","43a91994-7a45-48a4-bf2a-39b3c2d5e11e","5e631737-0fa4-44a6-b227-7ba1d7345015","{""num_scrambled_semantic"":""8"",""num_scrambled_causal"":""4"",""num_scrambled_schematic"":""4"",""participantId"":""FA89614C7189452A8C1F1E553E47B67A"",""assignmentId"":""43a91994-7a45-48a4-bf2a-39b3c2d5e11e"",""projectId"":""5e631737-0fa4-44a6-b227-7ba1d7345015""}","https://test12345.live/?num_scrambled_semantic=8&num_scrambled_causal=4&num_scrambled_schematic=4&participantId=FA89614C7189452A8C1F1E553E47B67A&assignmentId=43a91994-7a45-48a4-bf2a-39b3c2d5e11e&projectId=5e631737-0fa4-44a6-b227-7ba1d7345015","FA89614C7189452A8C1F1E553E47B67A-2025-05-27-18-39-40","","null","","[]","null","",""
"","","","","","image-button-response","84","366555","0.0-12.0-1.0-0.9","FA89614C7189452A8C1F1E553E47B67A","FA89614C7189452A8C1F1E553E47B67A","43a91994-7a45-48a4-bf2a-39b3c2d5e11e","5e631737-0fa4-44a6-b227-7ba1d7345015","{""num_scrambled_semantic"":""8"",""num_scrambled_causal"":""4"",""num_scrambled_schematic"":""4"",""participantId"":""FA89614C7189452A8C1F1E553E47B67A"",""assignmentId"":""43a91994-7a45-48a4-bf2a-39b3c2d5e11e"",""projectId"":""5e631737-0fa4-44a6-b227-7ba1d7345015""}","https://test12345.live/?num_scrambled_semantic=8&num_scrambled_causal=4&num_scrambled_schematic=4&participantId=FA89614C7189452A8C1F1E553E47B67A&assignmentId=43a91994-7a45-48a4-bf2a-39b3c2d5e11e&projectId=5e631737-0fa4-44a6-b227-7ba1d7345015","FA89614C7189452A8C1F1E553E47B67A-2025-05-27-18-39-40","","null","","images/semantic_sequence/visiting_cities_semantic/visiting_cities_semantic_ten.png","null","",""
"","","","","","image-button-response","85","367425","0.0-12.0-1.0-1.9","FA89614C7189452A8C1F1E553E47B67A","FA89614C7189452A8C1F1E553E47B67A","43a91994-7a45-48a4-bf2a-39b3c2d5e11e","5e631737-0fa4-44a6-b227-7ba1d7345015","{""num_scrambled_semantic"":""8"",""num_scrambled_causal"":""4"",""num_scrambled_schematic"":""4"",""participantId"":""FA89614C7189452A8C1F1E553E47B67A"",""assignmentId"":""43a91994-7a45-48a4-bf2a-39b3c2d5e11e"",""projectId"":""5e631737-0fa4-44a6-b227-7ba1d7345015""}","https://test12345.live/?num_scrambled_semantic=8&num_scrambled_causal=4&num_scrambled_schematic=4&participantId=FA89614C7189452A8C1F1E553E47B67A&assignmentId=43a91994-7a45-48a4-bf2a-39b3c2d5e11e&projectId=5e631737-0fa4-44a6-b227-7ba1d7345015","FA89614C7189452A8C1F1E553E47B67A-2025-05-27-18-39-40","","865","","images/semantic_sequence/visiting_cities_semantic/visiting_cities_semantic_ten.png","1","",""
"","","","","","image-button-response","86","369235","0.0-12.0-1.0-2.9","FA89614C7189452A8C1F1E553E47B67A","FA89614C7189452A8C1F1E553E47B67A","43a91994-7a45-48a4-bf2a-39b3c2d5e11e","5e631737-0fa4-44a6-b227-7ba1d7345015","{""num_scrambled_semantic"":""8"",""num_scrambled_causal"":""4"",""num_scrambled_schematic"":""4"",""participantId"":""FA89614C7189452A8C1F1E553E47B67A"",""assignmentId"":""43a91994-7a45-48a4-bf2a-39b3c2d5e11e"",""projectId"":""5e631737-0fa4-44a6-b227-7ba1d7345015""}","https://test12345.live/?num_scrambled_semantic=8&num_scrambled_causal=4&num_scrambled_schematic=4&participantId=FA89614C7189452A8C1F1E553E47B67A&assignmentId=43a91994-7a45-48a4-bf2a-39b3c2d5e11e&projectId=5e631737-0fa4-44a6-b227-7ba1d7345015","FA89614C7189452A8C1F1E553E47B67A-2025-05-27-18-39-40","","null","","[]","null","",""
"","","","","","html-audio-response","87","402338","0.0-13.0","FA89614C7189452A8C1F1E553E47B67A","FA89614C7189452A8C1F1E553E47B67A","43a91994-7a45-48a4-bf2a-39b3c2d5e11e","5e631737-0fa4-44a6-b227-7ba1d7345015","{""num_scrambled_semantic"":""8"",""num_scrambled_causal"":""4"",""num_scrambled_schematic"":""4"",""participantId"":""FA89614C7189452A8C1F1E553E47B67A"",""assignmentId"":""43a91994-7a45-48a4-bf2a-39b3c2d5e11e"",""projectId"":""5e631737-0fa4-44a6-b227-7ba1d7345015""}","https://test12345.live/?num_scrambled_semantic=8&num_scrambled_causal=4&num_scrambled_schematic=4&participantId=FA89614C7189452A8C1F1E553E47B67A&assignmentId=43a91994-7a45-48a4-bf2a-39b3c2d5e11e&projectId=5e631737-0fa4-44a6-b227-7ba1d7345015","FA89614C7189452A8C1F1E553E47B67A-2025-05-27-18-39-40","","17901","","[""<span style=\""color: red; font-size: 24px\""> NOW RECORDING</span><p>Please say out loud all the images you saw, in the exact order you saw them. Try to recall as many images as you can, but remember: getting the order right is more important than the number of images you recall.</p>""]","","3","visiting_cities_semantic"
"","","","","","image-button-response","88","408368","0.0-14.0-0.0","FA89614C7189452A8C1F1E553E47B67A","FA89614C7189452A8C1F1E553E47B67A","43a91994-7a45-48a4-bf2a-39b3c2d5e11e","5e631737-0fa4-44a6-b227-7ba1d7345015","{""num_scrambled_semantic"":""8"",""num_scrambled_causal"":""4"",""num_scrambled_schematic"":""4"",""participantId"":""FA89614C7189452A8C1F1E553E47B67A"",""assignmentId"":""43a91994-7a45-48a4-bf2a-39b3c2d5e11e"",""projectId"":""5e631737-0fa4-44a6-b227-7ba1d7345015""}","https://test12345.live/?num_scrambled_semantic=8&num_scrambled_causal=4&num_scrambled_schematic=4&participantId=FA89614C7189452A8C1F1E553E47B67A&assignmentId=43a91994-7a45-48a4-bf2a-39b3c2d5e11e&projectId=5e631737-0fa4-44a6-b227-7ba1d7345015","FA89614C7189452A8C1F1E553E47B67A-2025-05-27-18-39-40","","null","","images/schematic_sequence/supermarket_scheme/supermarket_scheme_0.png","null","",""
"","","","","","image-button-response","89","412878","0.0-14.0-1.0-0.0","FA89614C7189452A8C1F1E553E47B67A","FA89614C7189452A8C1F1E553E47B67A","43a91994-7a45-48a4-bf2a-39b3c2d5e11e","5e631737-0fa4-44a6-b227-7ba1d7345015","{""num_scrambled_semantic"":""8"",""num_scrambled_causal"":""4"",""num_scrambled_schematic"":""4"",""participantId"":""FA89614C7189452A8C1F1E553E47B67A"",""assignmentId"":""43a91994-7a45-48a4-bf2a-39b3c2d5e11e"",""projectId"":""5e631737-0fa4-44a6-b227-7ba1d7345015""}","https://test12345.live/?num_scrambled_semantic=8&num_scrambled_causal=4&num_scrambled_schematic=4&participantId=FA89614C7189452A8C1F1E553E47B67A&assignmentId=43a91994-7a45-48a4-bf2a-39b3c2d5e11e&projectId=5e631737-0fa4-44a6-b227-7ba1d7345015","FA89614C7189452A8C1F1E553E47B67A-2025-05-27-18-39-40","","null","","images/schematic_sequence/supermarket_scheme/supermarket_scheme_1.png","null","",""
"","","","","","image-button-response","90","414536","0.0-14.0-1.0-1.0","FA89614C7189452A8C1F1E553E47B67A","FA89614C7189452A8C1F1E553E47B67A","43a91994-7a45-48a4-bf2a-39b3c2d5e11e","5e631737-0fa4-44a6-b227-7ba1d7345015","{""num_scrambled_semantic"":""8"",""num_scrambled_causal"":""4"",""num_scrambled_schematic"":""4"",""participantId"":""FA89614C7189452A8C1F1E553E47B67A"",""assignmentId"":""43a91994-7a45-48a4-bf2a-39b3c2d5e11e"",""projectId"":""5e631737-0fa4-44a6-b227-7ba1d7345015""}","https://test12345.live/?num_scrambled_semantic=8&num_scrambled_causal=4&num_scrambled_schematic=4&participantId=FA89614C7189452A8C1F1E553E47B67A&assignmentId=43a91994-7a45-48a4-bf2a-39b3c2d5e11e&projectId=5e631737-0fa4-44a6-b227-7ba1d7345015","FA89614C7189452A8C1F1E553E47B67A-2025-05-27-18-39-40","","1657","","images/schematic_sequence/supermarket_scheme/supermarket_scheme_1.png","1","",""
"","","","","","image-button-response","91","416346","0.0-14.0-1.0-2.0","FA89614C7189452A8C1F1E553E47B67A","FA89614C7189452A8C1F1E553E47B67A","43a91994-7a45-48a4-bf2a-39b3c2d5e11e","5e631737-0fa4-44a6-b227-7ba1d7345015","{""num_scrambled_semantic"":""8"",""num_scrambled_causal"":""4"",""num_scrambled_schematic"":""4"",""participantId"":""FA89614C7189452A8C1F1E553E47B67A"",""assignmentId"":""43a91994-7a45-48a4-bf2a-39b3c2d5e11e"",""projectId"":""5e631737-0fa4-44a6-b227-7ba1d7345015""}","https://test12345.live/?num_scrambled_semantic=8&num_scrambled_causal=4&num_scrambled_schematic=4&participantId=FA89614C7189452A8C1F1E553E47B67A&assignmentId=43a91994-7a45-48a4-bf2a-39b3c2d5e11e&projectId=5e631737-0fa4-44a6-b227-7ba1d7345015","FA89614C7189452A8C1F1E553E47B67A-2025-05-27-18-39-40","","null","","[]","null","",""
"","","","","","image-button-response","92","420850","0.0-14.0-1.0-0.1","FA89614C7189452A8C1F1E553E47B67A","FA89614C7189452A8C1F1E553E47B67A","43a91994-7a45-48a4-bf2a-39b3c2d5e11e","5e631737-0fa4-44a6-b227-7ba1d7345015","{""num_scrambled_semantic"":""8"",""num_scrambled_causal"":""4"",""num_scrambled_schematic"":""4"",""participantId"":""FA89614C7189452A8C1F1E553E47B67A"",""assignmentId"":""43a91994-7a45-48a4-bf2a-39b3c2d5e11e"",""projectId"":""5e631737-0fa4-44a6-b227-7ba1d7345015""}","https://test12345.live/?num_scrambled_semantic=8&num_scrambled_causal=4&num_scrambled_schematic=4&participantId=FA89614C7189452A8C1F1E553E47B67A&assignmentId=43a91994-7a45-48a4-bf2a-39b3c2d5e11e&projectId=5e631737-0fa4-44a6-b227-7ba1d7345015","FA89614C7189452A8C1F1E553E47B67A-2025-05-27-18-39-40","","null","","images/schematic_sequence/supermarket_scheme/supermarket_scheme_2.png","null","",""
"","","","","","image-button-response","93","421835","0.0-14.0-1.0-1.1","FA89614C7189452A8C1F1E553E47B67A","FA89614C7189452A8C1F1E553E47B67A","43a91994-7a45-48a4-bf2a-39b3c2d5e11e","5e631737-0fa4-44a6-b227-7ba1d7345015","{""num_scrambled_semantic"":""8"",""num_scrambled_causal"":""4"",""num_scrambled_schematic"":""4"",""participantId"":""FA89614C7189452A8C1F1E553E47B67A"",""assignmentId"":""43a91994-7a45-48a4-bf2a-39b3c2d5e11e"",""projectId"":""5e631737-0fa4-44a6-b227-7ba1d7345015""}","https://test12345.live/?num_scrambled_semantic=8&num_scrambled_causal=4&num_scrambled_schematic=4&participantId=FA89614C7189452A8C1F1E553E47B67A&assignmentId=43a91994-7a45-48a4-bf2a-39b3c2d5e11e&projectId=5e631737-0fa4-44a6-b227-7ba1d7345015","FA89614C7189452A8C1F1E553E47B67A-2025-05-27-18-39-40","","982","","images/schematic_sequence/supermarket_scheme/supermarket_scheme_2.png","1","",""
"","","","","","image-button-response","94","423648","0.0-14.0-1.0-2.1","FA89614C7189452A8C1F1E553E47B67A","FA89614C7189452A8C1F1E553E47B67A","43a91994-7a45-48a4-bf2a-39b3c2d5e11e","5e631737-0fa4-44a6-b227-7ba1d7345015","{""num_scrambled_semantic"":""8"",""num_scrambled_causal"":""4"",""num_scrambled_schematic"":""4"",""participantId"":""FA89614C7189452A8C1F1E553E47B67A"",""assignmentId"":""43a91994-7a45-48a4-bf2a-39b3c2d5e11e"",""projectId"":""5e631737-0fa4-44a6-b227-7ba1d7345015""}","https://test12345.live/?num_scrambled_semantic=8&num_scrambled_causal=4&num_scrambled_schematic=4&participantId=FA89614C7189452A8C1F1E553E47B67A&assignmentId=43a91994-7a45-48a4-bf2a-39b3c2d5e11e&projectId=5e631737-0fa4-44a6-b227-7ba1d7345015","FA89614C7189452A8C1F1E553E47B67A-2025-05-27-18-39-40","","null","","[]","null","",""
"","","","","","image-button-response","95","428158","0.0-14.0-1.0-0.2","FA89614C7189452A8C1F1E553E47B67A","FA89614C7189452A8C1F1E553E47B67A","43a91994-7a45-48a4-bf2a-39b3c2d5e11e","5e631737-0fa4-44a6-b227-7ba1d7345015","{""num_scrambled_semantic"":""8"",""num_scrambled_causal"":""4"",""num_scrambled_schematic"":""4"",""participantId"":""FA89614C7189452A8C1F1E553E47B67A"",""assignmentId"":""43a91994-7a45-48a4-bf2a-39b3c2d5e11e"",""projectId"":""5e631737-0fa4-44a6-b227-7ba1d7345015""}","https://test12345.live/?num_scrambled_semantic=8&num_scrambled_causal=4&num_scrambled_schematic=4&participantId=FA89614C7189452A8C1F1E553E47B67A&assignmentId=43a91994-7a45-48a4-bf2a-39b3c2d5e11e&projectId=5e631737-0fa4-44a6-b227-7ba1d7345015","FA89614C7189452A8C1F1E553E47B67A-2025-05-27-18-39-40","","null","","images/schematic_sequence/supermarket_scheme/supermarket_scheme_3.png","null","",""
"","","","","","image-button-response","96","429157","0.0-14.0-1.0-1.2","FA89614C7189452A8C1F1E553E47B67A","FA89614C7189452A8C1F1E553E47B67A","43a91994-7a45-48a4-bf2a-39b3c2d5e11e","5e631737-0fa4-44a6-b227-7ba1d7345015","{""num_scrambled_semantic"":""8"",""num_scrambled_causal"":""4"",""num_scrambled_schematic"":""4"",""participantId"":""FA89614C7189452A8C1F1E553E47B67A"",""assignmentId"":""43a91994-7a45-48a4-bf2a-39b3c2d5e11e"",""projectId"":""5e631737-0fa4-44a6-b227-7ba1d7345015""}","https://test12345.live/?num_scrambled_semantic=8&num_scrambled_causal=4&num_scrambled_schematic=4&participantId=FA89614C7189452A8C1F1E553E47B67A&assignmentId=43a91994-7a45-48a4-bf2a-39b3c2d5e11e&projectId=5e631737-0fa4-44a6-b227-7ba1d7345015","FA89614C7189452A8C1F1E553E47B67A-2025-05-27-18-39-40","","996","","images/schematic_sequence/supermarket_scheme/supermarket_scheme_3.png","1","",""
"","","","","","image-button-response","97","430967","0.0-14.0-1.0-2.2","FA89614C7189452A8C1F1E553E47B67A","FA89614C7189452A8C1F1E553E47B67A","43a91994-7a45-48a4-bf2a-39b3c2d5e11e","5e631737-0fa4-44a6-b227-7ba1d7345015","{""num_scrambled_semantic"":""8"",""num_scrambled_causal"":""4"",""num_scrambled_schematic"":""4"",""participantId"":""FA89614C7189452A8C1F1E553E47B67A"",""assignmentId"":""43a91994-7a45-48a4-bf2a-39b3c2d5e11e"",""projectId"":""5e631737-0fa4-44a6-b227-7ba1d7345015""}","https://test12345.live/?num_scrambled_semantic=8&num_scrambled_causal=4&num_scrambled_schematic=4&participantId=FA89614C7189452A8C1F1E553E47B67A&assignmentId=43a91994-7a45-48a4-bf2a-39b3c2d5e11e&projectId=5e631737-0fa4-44a6-b227-7ba1d7345015","FA89614C7189452A8C1F1E553E47B67A-2025-05-27-18-39-40","","null","","[]","null","",""
"","","","","","image-button-response","98","435479","0.0-14.0-1.0-0.3","FA89614C7189452A8C1F1E553E47B67A","FA89614C7189452A8C1F1E553E47B67A","43a91994-7a45-48a4-bf2a-39b3c2d5e11e","5e631737-0fa4-44a6-b227-7ba1d7345015","{""num_scrambled_semantic"":""8"",""num_scrambled_causal"":""4"",""num_scrambled_schematic"":""4"",""participantId"":""FA89614C7189452A8C1F1E553E47B67A"",""assignmentId"":""43a91994-7a45-48a4-bf2a-39b3c2d5e11e"",""projectId"":""5e631737-0fa4-44a6-b227-7ba1d7345015""}","https://test12345.live/?num_scrambled_semantic=8&num_scrambled_causal=4&num_scrambled_schematic=4&participantId=FA89614C7189452A8C1F1E553E47B67A&assignmentId=43a91994-7a45-48a4-bf2a-39b3c2d5e11e&projectId=5e631737-0fa4-44a6-b227-7ba1d7345015","FA89614C7189452A8C1F1E553E47B67A-2025-05-27-18-39-40","","null","","images/schematic_sequence/supermarket_scheme/supermarket_scheme_4.png","null","",""
"","","","","","image-button-response","99","437005","0.0-14.0-1.0-1.3","FA89614C7189452A8C1F1E553E47B67A","FA89614C7189452A8C1F1E553E47B67A","43a91994-7a45-48a4-bf2a-39b3c2d5e11e","5e631737-0fa4-44a6-b227-7ba1d7345015","{""num_scrambled_semantic"":""8"",""num_scrambled_causal"":""4"",""num_scrambled_schematic"":""4"",""participantId"":""FA89614C7189452A8C1F1E553E47B67A"",""assignmentId"":""43a91994-7a45-48a4-bf2a-39b3c2d5e11e"",""projectId"":""5e631737-0fa4-44a6-b227-7ba1d7345015""}","https://test12345.live/?num_scrambled_semantic=8&num_scrambled_causal=4&num_scrambled_schematic=4&participantId=FA89614C7189452A8C1F1E553E47B67A&assignmentId=43a91994-7a45-48a4-bf2a-39b3c2d5e11e&projectId=5e631737-0fa4-44a6-b227-7ba1d7345015","FA89614C7189452A8C1F1E553E47B67A-2025-05-27-18-39-40","","1520","","images/schematic_sequence/supermarket_scheme/supermarket_scheme_4.png","0","",""
"","","","","","image-button-response","100","438810","0.0-14.0-1.0-2.3","FA89614C7189452A8C1F1E553E47B67A","FA89614C7189452A8C1F1E553E47B67A","43a91994-7a45-48a4-bf2a-39b3c2d5e11e","5e631737-0fa4-44a6-b227-7ba1d7345015","{""num_scrambled_semantic"":""8"",""num_scrambled_causal"":""4"",""num_scrambled_schematic"":""4"",""participantId"":""FA89614C7189452A8C1F1E553E47B67A"",""assignmentId"":""43a91994-7a45-48a4-bf2a-39b3c2d5e11e"",""projectId"":""5e631737-0fa4-44a6-b227-7ba1d7345015""}","https://test12345.live/?num_scrambled_semantic=8&num_scrambled_causal=4&num_scrambled_schematic=4&participantId=FA89614C7189452A8C1F1E553E47B67A&assignmentId=43a91994-7a45-48a4-bf2a-39b3c2d5e11e&projectId=5e631737-0fa4-44a6-b227-7ba1d7345015","FA89614C7189452A8C1F1E553E47B67A-2025-05-27-18-39-40","","null","","[]","null","",""
"","","","","","image-button-response","101","443316","0.0-14.0-1.0-0.4","FA89614C7189452A8C1F1E553E47B67A","FA89614C7189452A8C1F1E553E47B67A","43a91994-7a45-48a4-bf2a-39b3c2d5e11e","5e631737-0fa4-44a6-b227-7ba1d7345015","{""num_scrambled_semantic"":""8"",""num_scrambled_causal"":""4"",""num_scrambled_schematic"":""4"",""participantId"":""FA89614C7189452A8C1F1E553E47B67A"",""assignmentId"":""43a91994-7a45-48a4-bf2a-39b3c2d5e11e"",""projectId"":""5e631737-0fa4-44a6-b227-7ba1d7345015""}","https://test12345.live/?num_scrambled_semantic=8&num_scrambled_causal=4&num_scrambled_schematic=4&participantId=FA89614C7189452A8C1F1E553E47B67A&assignmentId=43a91994-7a45-48a4-bf2a-39b3c2d5e11e&projectId=5e631737-0fa4-44a6-b227-7ba1d7345015","FA89614C7189452A8C1F1E553E47B67A-2025-05-27-18-39-40","","null","","images/schematic_sequence/supermarket_scheme/supermarket_scheme_5.png","null","",""
"","","","","","image-button-response","102","444807","0.0-14.0-1.0-1.4","FA89614C7189452A8C1F1E553E47B67A","FA89614C7189452A8C1F1E553E47B67A","43a91994-7a45-48a4-bf2a-39b3c2d5e11e","5e631737-0fa4-44a6-b227-7ba1d7345015","{""num_scrambled_semantic"":""8"",""num_scrambled_causal"":""4"",""num_scrambled_schematic"":""4"",""participantId"":""FA89614C7189452A8C1F1E553E47B67A"",""assignmentId"":""43a91994-7a45-48a4-bf2a-39b3c2d5e11e"",""projectId"":""5e631737-0fa4-44a6-b227-7ba1d7345015""}","https://test12345.live/?num_scrambled_semantic=8&num_scrambled_causal=4&num_scrambled_schematic=4&participantId=FA89614C7189452A8C1F1E553E47B67A&assignmentId=43a91994-7a45-48a4-bf2a-39b3c2d5e11e&projectId=5e631737-0fa4-44a6-b227-7ba1d7345015","FA89614C7189452A8C1F1E553E47B67A-2025-05-27-18-39-40","","1487","","images/schematic_sequence/supermarket_scheme/supermarket_scheme_5.png","1","",""
"","","","","","image-button-response","103","446612","0.0-14.0-1.0-2.4","FA89614C7189452A8C1F1E553E47B67A","FA89614C7189452A8C1F1E553E47B67A","43a91994-7a45-48a4-bf2a-39b3c2d5e11e","5e631737-0fa4-44a6-b227-7ba1d7345015","{""num_scrambled_semantic"":""8"",""num_scrambled_causal"":""4"",""num_scrambled_schematic"":""4"",""participantId"":""FA89614C7189452A8C1F1E553E47B67A"",""assignmentId"":""43a91994-7a45-48a4-bf2a-39b3c2d5e11e"",""projectId"":""5e631737-0fa4-44a6-b227-7ba1d7345015""}","https://test12345.live/?num_scrambled_semantic=8&num_scrambled_causal=4&num_scrambled_schematic=4&participantId=FA89614C7189452A8C1F1E553E47B67A&assignmentId=43a91994-7a45-48a4-bf2a-39b3c2d5e11e&projectId=5e631737-0fa4-44a6-b227-7ba1d7345015","FA89614C7189452A8C1F1E553E47B67A-2025-05-27-18-39-40","","null","","[]","null","",""
"","","","","","image-button-response","104","451118","0.0-14.0-1.0-0.5","FA89614C7189452A8C1F1E553E47B67A","FA89614C7189452A8C1F1E553E47B67A","43a91994-7a45-48a4-bf2a-39b3c2d5e11e","5e631737-0fa4-44a6-b227-7ba1d7345015","{""num_scrambled_semantic"":""8"",""num_scrambled_causal"":""4"",""num_scrambled_schematic"":""4"",""participantId"":""FA89614C7189452A8C1F1E553E47B67A"",""assignmentId"":""43a91994-7a45-48a4-bf2a-39b3c2d5e11e"",""projectId"":""5e631737-0fa4-44a6-b227-7ba1d7345015""}","https://test12345.live/?num_scrambled_semantic=8&num_scrambled_causal=4&num_scrambled_schematic=4&participantId=FA89614C7189452A8C1F1E553E47B67A&assignmentId=43a91994-7a45-48a4-bf2a-39b3c2d5e11e&projectId=5e631737-0fa4-44a6-b227-7ba1d7345015","FA89614C7189452A8C1F1E553E47B67A-2025-05-27-18-39-40","","null","","images/schematic_sequence/supermarket_scheme/supermarket_scheme_6.png","null","",""
"","","","","","image-button-response","105","452004","0.0-14.0-1.0-1.5","FA89614C7189452A8C1F1E553E47B67A","FA89614C7189452A8C1F1E553E47B67A","43a91994-7a45-48a4-bf2a-39b3c2d5e11e","5e631737-0fa4-44a6-b227-7ba1d7345015","{""num_scrambled_semantic"":""8"",""num_scrambled_causal"":""4"",""num_scrambled_schematic"":""4"",""participantId"":""FA89614C7189452A8C1F1E553E47B67A"",""assignmentId"":""43a91994-7a45-48a4-bf2a-39b3c2d5e11e"",""projectId"":""5e631737-0fa4-44a6-b227-7ba1d7345015""}","https://test12345.live/?num_scrambled_semantic=8&num_scrambled_causal=4&num_scrambled_schematic=4&participantId=FA89614C7189452A8C1F1E553E47B67A&assignmentId=43a91994-7a45-48a4-bf2a-39b3c2d5e11e&projectId=5e631737-0fa4-44a6-b227-7ba1d7345015","FA89614C7189452A8C1F1E553E47B67A-2025-05-27-18-39-40","","884","","images/schematic_sequence/supermarket_scheme/supermarket_scheme_6.png","0","",""
"","","","","","image-button-response","106","453822","0.0-14.0-1.0-2.5","FA89614C7189452A8C1F1E553E47B67A","FA89614C7189452A8C1F1E553E47B67A","43a91994-7a45-48a4-bf2a-39b3c2d5e11e","5e631737-0fa4-44a6-b227-7ba1d7345015","{""num_scrambled_semantic"":""8"",""num_scrambled_causal"":""4"",""num_scrambled_schematic"":""4"",""participantId"":""FA89614C7189452A8C1F1E553E47B67A"",""assignmentId"":""43a91994-7a45-48a4-bf2a-39b3c2d5e11e"",""projectId"":""5e631737-0fa4-44a6-b227-7ba1d7345015""}","https://test12345.live/?num_scrambled_semantic=8&num_scrambled_causal=4&num_scrambled_schematic=4&participantId=FA89614C7189452A8C1F1E553E47B67A&assignmentId=43a91994-7a45-48a4-bf2a-39b3c2d5e11e&projectId=5e631737-0fa4-44a6-b227-7ba1d7345015","FA89614C7189452A8C1F1E553E47B67A-2025-05-27-18-39-40","","null","","[]","null","",""
"","","","","","image-button-response","107","458326","0.0-14.0-1.0-0.6","FA89614C7189452A8C1F1E553E47B67A","FA89614C7189452A8C1F1E553E47B67A","43a91994-7a45-48a4-bf2a-39b3c2d5e11e","5e631737-0fa4-44a6-b227-7ba1d7345015","{""num_scrambled_semantic"":""8"",""num_scrambled_causal"":""4"",""num_scrambled_schematic"":""4"",""participantId"":""FA89614C7189452A8C1F1E553E47B67A"",""assignmentId"":""43a91994-7a45-48a4-bf2a-39b3c2d5e11e"",""projectId"":""5e631737-0fa4-44a6-b227-7ba1d7345015""}","https://test12345.live/?num_scrambled_semantic=8&num_scrambled_causal=4&num_scrambled_schematic=4&participantId=FA89614C7189452A8C1F1E553E47B67A&assignmentId=43a91994-7a45-48a4-bf2a-39b3c2d5e11e&projectId=5e631737-0fa4-44a6-b227-7ba1d7345015","FA89614C7189452A8C1F1E553E47B67A-2025-05-27-18-39-40","","null","","images/schematic_sequence/supermarket_scheme/supermarket_scheme_7.png","null","",""
"","","","","","image-button-response","108","459149","0.0-14.0-1.0-1.6","FA89614C7189452A8C1F1E553E47B67A","FA89614C7189452A8C1F1E553E47B67A","43a91994-7a45-48a4-bf2a-39b3c2d5e11e","5e631737-0fa4-44a6-b227-7ba1d7345015","{""num_scrambled_semantic"":""8"",""num_scrambled_causal"":""4"",""num_scrambled_schematic"":""4"",""participantId"":""FA89614C7189452A8C1F1E553E47B67A"",""assignmentId"":""43a91994-7a45-48a4-bf2a-39b3c2d5e11e"",""projectId"":""5e631737-0fa4-44a6-b227-7ba1d7345015""}","https://test12345.live/?num_scrambled_semantic=8&num_scrambled_causal=4&num_scrambled_schematic=4&participantId=FA89614C7189452A8C1F1E553E47B67A&assignmentId=43a91994-7a45-48a4-bf2a-39b3c2d5e11e&projectId=5e631737-0fa4-44a6-b227-7ba1d7345015","FA89614C7189452A8C1F1E553E47B67A-2025-05-27-18-39-40","","822","","images/schematic_sequence/supermarket_scheme/supermarket_scheme_7.png","0","",""
"","","","","","image-button-response","109","460953","0.0-14.0-1.0-2.6","FA89614C7189452A8C1F1E553E47B67A","FA89614C7189452A8C1F1E553E47B67A","43a91994-7a45-48a4-bf2a-39b3c2d5e11e","5e631737-0fa4-44a6-b227-7ba1d7345015","{""num_scrambled_semantic"":""8"",""num_scrambled_causal"":""4"",""num_scrambled_schematic"":""4"",""participantId"":""FA89614C7189452A8C1F1E553E47B67A"",""assignmentId"":""43a91994-7a45-48a4-bf2a-39b3c2d5e11e"",""projectId"":""5e631737-0fa4-44a6-b227-7ba1d7345015""}","https://test12345.live/?num_scrambled_semantic=8&num_scrambled_causal=4&num_scrambled_schematic=4&participantId=FA89614C7189452A8C1F1E553E47B67A&assignmentId=43a91994-7a45-48a4-bf2a-39b3c2d5e11e&projectId=5e631737-0fa4-44a6-b227-7ba1d7345015","FA89614C7189452A8C1F1E553E47B67A-2025-05-27-18-39-40","","null","","[]","null","",""
"","","","","","image-button-response","110","465456","0.0-14.0-1.0-0.7","FA89614C7189452A8C1F1E553E47B67A","FA89614C7189452A8C1F1E553E47B67A","43a91994-7a45-48a4-bf2a-39b3c2d5e11e","5e631737-0fa4-44a6-b227-7ba1d7345015","{""num_scrambled_semantic"":""8"",""num_scrambled_causal"":""4"",""num_scrambled_schematic"":""4"",""participantId"":""FA89614C7189452A8C1F1E553E47B67A"",""assignmentId"":""43a91994-7a45-48a4-bf2a-39b3c2d5e11e"",""projectId"":""5e631737-0fa4-44a6-b227-7ba1d7345015""}","https://test12345.live/?num_scrambled_semantic=8&num_scrambled_causal=4&num_scrambled_schematic=4&participantId=FA89614C7189452A8C1F1E553E47B67A&assignmentId=43a91994-7a45-48a4-bf2a-39b3c2d5e11e&projectId=5e631737-0fa4-44a6-b227-7ba1d7345015","FA89614C7189452A8C1F1E553E47B67A-2025-05-27-18-39-40","","null","","images/schematic_sequence/supermarket_scheme/supermarket_scheme_8.png","null","",""
"","","","","","image-button-response","111","467185","0.0-14.0-1.0-1.7","FA89614C7189452A8C1F1E553E47B67A","FA89614C7189452A8C1F1E553E47B67A","43a91994-7a45-48a4-bf2a-39b3c2d5e11e","5e631737-0fa4-44a6-b227-7ba1d7345015","{""num_scrambled_semantic"":""8"",""num_scrambled_causal"":""4"",""num_scrambled_schematic"":""4"",""participantId"":""FA89614C7189452A8C1F1E553E47B67A"",""assignmentId"":""43a91994-7a45-48a4-bf2a-39b3c2d5e11e"",""projectId"":""5e631737-0fa4-44a6-b227-7ba1d7345015""}","https://test12345.live/?num_scrambled_semantic=8&num_scrambled_causal=4&num_scrambled_schematic=4&participantId=FA89614C7189452A8C1F1E553E47B67A&assignmentId=43a91994-7a45-48a4-bf2a-39b3c2d5e11e&projectId=5e631737-0fa4-44a6-b227-7ba1d7345015","FA89614C7189452A8C1F1E553E47B67A-2025-05-27-18-39-40","","1727","","images/schematic_sequence/supermarket_scheme/supermarket_scheme_8.png","0","",""
"","","","","","image-button-response","112","468992","0.0-14.0-1.0-2.7","FA89614C7189452A8C1F1E553E47B67A","FA89614C7189452A8C1F1E553E47B67A","43a91994-7a45-48a4-bf2a-39b3c2d5e11e","5e631737-0fa4-44a6-b227-7ba1d7345015","{""num_scrambled_semantic"":""8"",""num_scrambled_causal"":""4"",""num_scrambled_schematic"":""4"",""participantId"":""FA89614C7189452A8C1F1E553E47B67A"",""assignmentId"":""43a91994-7a45-48a4-bf2a-39b3c2d5e11e"",""projectId"":""5e631737-0fa4-44a6-b227-7ba1d7345015""}","https://test12345.live/?num_scrambled_semantic=8&num_scrambled_causal=4&num_scrambled_schematic=4&participantId=FA89614C7189452A8C1F1E553E47B67A&assignmentId=43a91994-7a45-48a4-bf2a-39b3c2d5e11e&projectId=5e631737-0fa4-44a6-b227-7ba1d7345015","FA89614C7189452A8C1F1E553E47B67A-2025-05-27-18-39-40","","null","","[]","null","",""
"","","","","","image-button-response","113","473499","0.0-14.0-1.0-0.8","FA89614C7189452A8C1F1E553E47B67A","FA89614C7189452A8C1F1E553E47B67A","43a91994-7a45-48a4-bf2a-39b3c2d5e11e","5e631737-0fa4-44a6-b227-7ba1d7345015","{""num_scrambled_semantic"":""8"",""num_scrambled_causal"":""4"",""num_scrambled_schematic"":""4"",""participantId"":""FA89614C7189452A8C1F1E553E47B67A"",""assignmentId"":""43a91994-7a45-48a4-bf2a-39b3c2d5e11e"",""projectId"":""5e631737-0fa4-44a6-b227-7ba1d7345015""}","https://test12345.live/?num_scrambled_semantic=8&num_scrambled_causal=4&num_scrambled_schematic=4&participantId=FA89614C7189452A8C1F1E553E47B67A&assignmentId=43a91994-7a45-48a4-bf2a-39b3c2d5e11e&projectId=5e631737-0fa4-44a6-b227-7ba1d7345015","FA89614C7189452A8C1F1E553E47B67A-2025-05-27-18-39-40","","null","","images/schematic_sequence/supermarket_scheme/supermarket_scheme_9.png","null","",""
