"success","timeout","failed_images","failed_audio","failed_video","trial_type","trial_index","time_elapsed","internal_node_id","subject","subject_id","study_id","session_id","urlvar","current_url","audio_id","view_history","rt","device_id","stimulus","response","estimated_stimulus_onset","seq_name"
"true","false","[]","[]","[]","preload","0","1522","0.0-0.0","FBA0BCAAADAD440CBD8168E75C806FBE","FBA0BCAAADAD440CBD8168E75C806FBE","c9760423-e9ff-4040-a6d3-db5eda1fb10e","a9f3d40c-5730-405c-b25e-1034c4c56f3f","{""num_scrambled_semantic"":""8"",""num_scrambled_causal"":""4"",""num_scrambled_schematic"":""4"",""participantId"":""FBA0BCAAADAD440CBD8168E75C806FBE"",""assignmentId"":""c9760423-e9ff-4040-a6d3-db5eda1fb10e"",""projectId"":""a9f3d40c-5730-405c-b25e-1034c4c56f3f""}","https://test12345.live/?num_scrambled_semantic=8&num_scrambled_causal=4&num_scrambled_schematic=4&participantId=FBA0BCAAADAD440CBD8168E75C806FBE&assignmentId=c9760423-e9ff-4040-a6d3-db5eda1fb10e&projectId=a9f3d40c-5730-405c-b25e-1034c4c56f3f","FBA0BCAAADAD440CBD8168E75C806FBE-2025-08-07-19-04-57","","","","","","",""
"","","","","","instructions","1","250672","0.0-1.0","FBA0BCAAADAD440CBD8168E75C806FBE","FBA0BCAAADAD440CBD8168E75C806FBE","c9760423-e9ff-4040-a6d3-db5eda1fb10e","a9f3d40c-5730-405c-b25e-1034c4c56f3f","{""num_scrambled_semantic"":""8"",""num_scrambled_causal"":""4"",""num_scrambled_schematic"":""4"",""participantId"":""FBA0BCAAADAD440CBD8168E75C806FBE"",""assignmentId"":""c9760423-e9ff-4040-a6d3-db5eda1fb10e"",""projectId"":""a9f3d40c-5730-405c-b25e-1034c4c56f3f""}","https://test12345.live/?num_scrambled_semantic=8&num_scrambled_causal=4&num_scrambled_schematic=4&participantId=FBA0BCAAADAD440CBD8168E75C806FBE&assignmentId=c9760423-e9ff-4040-a6d3-db5eda1fb10e&projectId=a9f3d40c-5730-405c-b25e-1034c4c56f3f","FBA0BCAAADAD440CBD8168E75C806FBE-2025-08-07-19-04-57","[{""page_index"":0,""viewing_time"":249149}]","249150","","","","",""
"","","","","","instructions","2","260553","0.0-2.0","FBA0BCAAADAD440CBD8168E75C806FBE","FBA0BCAAADAD440CBD8168E75C806FBE","c9760423-e9ff-4040-a6d3-db5eda1fb10e","a9f3d40c-5730-405c-b25e-1034c4c56f3f","{""num_scrambled_semantic"":""8"",""num_scrambled_causal"":""4"",""num_scrambled_schematic"":""4"",""participantId"":""FBA0BCAAADAD440CBD8168E75C806FBE"",""assignmentId"":""c9760423-e9ff-4040-a6d3-db5eda1fb10e"",""projectId"":""a9f3d40c-5730-405c-b25e-1034c4c56f3f""}","https://test12345.live/?num_scrambled_semantic=8&num_scrambled_causal=4&num_scrambled_schematic=4&participantId=FBA0BCAAADAD440CBD8168E75C806FBE&assignmentId=c9760423-e9ff-4040-a6d3-db5eda1fb10e&projectId=a9f3d40c-5730-405c-b25e-1034c4c56f3f","FBA0BCAAADAD440CBD8168E75C806FBE-2025-08-07-19-04-57","[{""page_index"":0,""viewing_time"":9881}]","9881","","","","",""
"true","","","","","fullscreen","3","262794","0.0-3.0","FBA0BCAAADAD440CBD8168E75C806FBE","FBA0BCAAADAD440CBD8168E75C806FBE","c9760423-e9ff-4040-a6d3-db5eda1fb10e","a9f3d40c-5730-405c-b25e-1034c4c56f3f","{""num_scrambled_semantic"":""8"",""num_scrambled_causal"":""4"",""num_scrambled_schematic"":""4"",""participantId"":""FBA0BCAAADAD440CBD8168E75C806FBE"",""assignmentId"":""c9760423-e9ff-4040-a6d3-db5eda1fb10e"",""projectId"":""a9f3d40c-5730-405c-b25e-1034c4c56f3f""}","https://test12345.live/?num_scrambled_semantic=8&num_scrambled_causal=4&num_scrambled_schematic=4&participantId=FBA0BCAAADAD440CBD8168E75C806FBE&assignmentId=c9760423-e9ff-4040-a6d3-db5eda1fb10e&projectId=a9f3d40c-5730-405c-b25e-1034c4c56f3f","FBA0BCAAADAD440CBD8168E75C806FBE-2025-08-07-19-04-57","","1239","","","","",""
"","","","","","initialize-microphone","4","268875","0.0-4.0-0.0","FBA0BCAAADAD440CBD8168E75C806FBE","FBA0BCAAADAD440CBD8168E75C806FBE","c9760423-e9ff-4040-a6d3-db5eda1fb10e","a9f3d40c-5730-405c-b25e-1034c4c56f3f","{""num_scrambled_semantic"":""8"",""num_scrambled_causal"":""4"",""num_scrambled_schematic"":""4"",""participantId"":""FBA0BCAAADAD440CBD8168E75C806FBE"",""assignmentId"":""c9760423-e9ff-4040-a6d3-db5eda1fb10e"",""projectId"":""a9f3d40c-5730-405c-b25e-1034c4c56f3f""}","https://test12345.live/?num_scrambled_semantic=8&num_scrambled_causal=4&num_scrambled_schematic=4&participantId=FBA0BCAAADAD440CBD8168E75C806FBE&assignmentId=c9760423-e9ff-4040-a6d3-db5eda1fb10e&projectId=a9f3d40c-5730-405c-b25e-1034c4c56f3f","FBA0BCAAADAD440CBD8168E75C806FBE-2025-08-07-19-04-57","","","53d882567c9cd01c9530f68e1abc1022964954cbc0dd88bae0d07ba5903dd095","","","",""
"","","","","","html-audio-response","5","276911","0.0-4.0-1.0","FBA0BCAAADAD440CBD8168E75C806FBE","FBA0BCAAADAD440CBD8168E75C806FBE","c9760423-e9ff-4040-a6d3-db5eda1fb10e","a9f3d40c-5730-405c-b25e-1034c4c56f3f","{""num_scrambled_semantic"":""8"",""num_scrambled_causal"":""4"",""num_scrambled_schematic"":""4"",""participantId"":""FBA0BCAAADAD440CBD8168E75C806FBE"",""assignmentId"":""c9760423-e9ff-4040-a6d3-db5eda1fb10e"",""projectId"":""a9f3d40c-5730-405c-b25e-1034c4c56f3f""}","https://test12345.live/?num_scrambled_semantic=8&num_scrambled_causal=4&num_scrambled_schematic=4&participantId=FBA0BCAAADAD440CBD8168E75C806FBE&assignmentId=c9760423-e9ff-4040-a6d3-db5eda1fb10e&projectId=a9f3d40c-5730-405c-b25e-1034c4c56f3f","FBA0BCAAADAD440CBD8168E75C806FBE-2025-08-07-19-04-57","","3437","","<span style=""color: red; font-size: 24px""> NOW RECORDING</span>
        <p>Please test Microphone</p>","","11",""
"","","","","","html-button-response","6","280347","0.0-4.0-2.0","FBA0BCAAADAD440CBD8168E75C806FBE","FBA0BCAAADAD440CBD8168E75C806FBE","c9760423-e9ff-4040-a6d3-db5eda1fb10e","a9f3d40c-5730-405c-b25e-1034c4c56f3f","{""num_scrambled_semantic"":""8"",""num_scrambled_causal"":""4"",""num_scrambled_schematic"":""4"",""participantId"":""FBA0BCAAADAD440CBD8168E75C806FBE"",""assignmentId"":""c9760423-e9ff-4040-a6d3-db5eda1fb10e"",""projectId"":""a9f3d40c-5730-405c-b25e-1034c4c56f3f""}","https://test12345.live/?num_scrambled_semantic=8&num_scrambled_causal=4&num_scrambled_schematic=4&participantId=FBA0BCAAADAD440CBD8168E75C806FBE&assignmentId=c9760423-e9ff-4040-a6d3-db5eda1fb10e&projectId=a9f3d40c-5730-405c-b25e-1034c4c56f3f","FBA0BCAAADAD440CBD8168E75C806FBE-2025-08-07-19-04-57","","3435","","<p style=""font-size:48px; color:red;"">Is Microphone OK?</p>","1","",""
"","","","","","instructions","7","287324","0.0-5.0","FBA0BCAAADAD440CBD8168E75C806FBE","FBA0BCAAADAD440CBD8168E75C806FBE","c9760423-e9ff-4040-a6d3-db5eda1fb10e","a9f3d40c-5730-405c-b25e-1034c4c56f3f","{""num_scrambled_semantic"":""8"",""num_scrambled_causal"":""4"",""num_scrambled_schematic"":""4"",""participantId"":""FBA0BCAAADAD440CBD8168E75C806FBE"",""assignmentId"":""c9760423-e9ff-4040-a6d3-db5eda1fb10e"",""projectId"":""a9f3d40c-5730-405c-b25e-1034c4c56f3f""}","https://test12345.live/?num_scrambled_semantic=8&num_scrambled_causal=4&num_scrambled_schematic=4&participantId=FBA0BCAAADAD440CBD8168E75C806FBE&assignmentId=c9760423-e9ff-4040-a6d3-db5eda1fb10e&projectId=a9f3d40c-5730-405c-b25e-1034c4c56f3f","FBA0BCAAADAD440CBD8168E75C806FBE-2025-08-07-19-04-57","[{""page_index"":0,""viewing_time"":2492},{""page_index"":1,""viewing_time"":4484}]","6977","","","","",""
"","","","","","image-button-response","8","293328","0.0-6.0-0.0","FBA0BCAAADAD440CBD8168E75C806FBE","FBA0BCAAADAD440CBD8168E75C806FBE","c9760423-e9ff-4040-a6d3-db5eda1fb10e","a9f3d40c-5730-405c-b25e-1034c4c56f3f","{""num_scrambled_semantic"":""8"",""num_scrambled_causal"":""4"",""num_scrambled_schematic"":""4"",""participantId"":""FBA0BCAAADAD440CBD8168E75C806FBE"",""assignmentId"":""c9760423-e9ff-4040-a6d3-db5eda1fb10e"",""projectId"":""a9f3d40c-5730-405c-b25e-1034c4c56f3f""}","https://test12345.live/?num_scrambled_semantic=8&num_scrambled_causal=4&num_scrambled_schematic=4&participantId=FBA0BCAAADAD440CBD8168E75C806FBE&assignmentId=c9760423-e9ff-4040-a6d3-db5eda1fb10e&projectId=a9f3d40c-5730-405c-b25e-1034c4c56f3f","FBA0BCAAADAD440CBD8168E75C806FBE-2025-08-07-19-04-57","","null","","images/instructions/movie_0.png","null","",""
"","","","","","image-button-response","9","297844","0.0-6.0-1.0-0.0","FBA0BCAAADAD440CBD8168E75C806FBE","FBA0BCAAADAD440CBD8168E75C806FBE","c9760423-e9ff-4040-a6d3-db5eda1fb10e","a9f3d40c-5730-405c-b25e-1034c4c56f3f","{""num_scrambled_semantic"":""8"",""num_scrambled_causal"":""4"",""num_scrambled_schematic"":""4"",""participantId"":""FBA0BCAAADAD440CBD8168E75C806FBE"",""assignmentId"":""c9760423-e9ff-4040-a6d3-db5eda1fb10e"",""projectId"":""a9f3d40c-5730-405c-b25e-1034c4c56f3f""}","https://test12345.live/?num_scrambled_semantic=8&num_scrambled_causal=4&num_scrambled_schematic=4&participantId=FBA0BCAAADAD440CBD8168E75C806FBE&assignmentId=c9760423-e9ff-4040-a6d3-db5eda1fb10e&projectId=a9f3d40c-5730-405c-b25e-1034c4c56f3f","FBA0BCAAADAD440CBD8168E75C806FBE-2025-08-07-19-04-57","","null","","images/instructions/movie_1.png","null","",""
"","","","","","image-button-response","10","300342","0.0-6.0-1.0-1.0","FBA0BCAAADAD440CBD8168E75C806FBE","FBA0BCAAADAD440CBD8168E75C806FBE","c9760423-e9ff-4040-a6d3-db5eda1fb10e","a9f3d40c-5730-405c-b25e-1034c4c56f3f","{""num_scrambled_semantic"":""8"",""num_scrambled_causal"":""4"",""num_scrambled_schematic"":""4"",""participantId"":""FBA0BCAAADAD440CBD8168E75C806FBE"",""assignmentId"":""c9760423-e9ff-4040-a6d3-db5eda1fb10e"",""projectId"":""a9f3d40c-5730-405c-b25e-1034c4c56f3f""}","https://test12345.live/?num_scrambled_semantic=8&num_scrambled_causal=4&num_scrambled_schematic=4&participantId=FBA0BCAAADAD440CBD8168E75C806FBE&assignmentId=c9760423-e9ff-4040-a6d3-db5eda1fb10e&projectId=a9f3d40c-5730-405c-b25e-1034c4c56f3f","FBA0BCAAADAD440CBD8168E75C806FBE-2025-08-07-19-04-57","","2497","","images/instructions/movie_1.png","0","",""
"","","","","","image-button-response","11","302155","0.0-6.0-1.0-2.0","FBA0BCAAADAD440CBD8168E75C806FBE","FBA0BCAAADAD440CBD8168E75C806FBE","c9760423-e9ff-4040-a6d3-db5eda1fb10e","a9f3d40c-5730-405c-b25e-1034c4c56f3f","{""num_scrambled_semantic"":""8"",""num_scrambled_causal"":""4"",""num_scrambled_schematic"":""4"",""participantId"":""FBA0BCAAADAD440CBD8168E75C806FBE"",""assignmentId"":""c9760423-e9ff-4040-a6d3-db5eda1fb10e"",""projectId"":""a9f3d40c-5730-405c-b25e-1034c4c56f3f""}","https://test12345.live/?num_scrambled_semantic=8&num_scrambled_causal=4&num_scrambled_schematic=4&participantId=FBA0BCAAADAD440CBD8168E75C806FBE&assignmentId=c9760423-e9ff-4040-a6d3-db5eda1fb10e&projectId=a9f3d40c-5730-405c-b25e-1034c4c56f3f","FBA0BCAAADAD440CBD8168E75C806FBE-2025-08-07-19-04-57","","null","","[]","null","",""
"","","","","","image-button-response","12","306672","0.0-6.0-1.0-0.1","FBA0BCAAADAD440CBD8168E75C806FBE","FBA0BCAAADAD440CBD8168E75C806FBE","c9760423-e9ff-4040-a6d3-db5eda1fb10e","a9f3d40c-5730-405c-b25e-1034c4c56f3f","{""num_scrambled_semantic"":""8"",""num_scrambled_causal"":""4"",""num_scrambled_schematic"":""4"",""participantId"":""FBA0BCAAADAD440CBD8168E75C806FBE"",""assignmentId"":""c9760423-e9ff-4040-a6d3-db5eda1fb10e"",""projectId"":""a9f3d40c-5730-405c-b25e-1034c4c56f3f""}","https://test12345.live/?num_scrambled_semantic=8&num_scrambled_causal=4&num_scrambled_schematic=4&participantId=FBA0BCAAADAD440CBD8168E75C806FBE&assignmentId=c9760423-e9ff-4040-a6d3-db5eda1fb10e&projectId=a9f3d40c-5730-405c-b25e-1034c4c56f3f","FBA0BCAAADAD440CBD8168E75C806FBE-2025-08-07-19-04-57","","null","","images/instructions/movie_2.png","null","",""
"","","","","","image-button-response","13","308018","0.0-6.0-1.0-1.1","FBA0BCAAADAD440CBD8168E75C806FBE","FBA0BCAAADAD440CBD8168E75C806FBE","c9760423-e9ff-4040-a6d3-db5eda1fb10e","a9f3d40c-5730-405c-b25e-1034c4c56f3f","{""num_scrambled_semantic"":""8"",""num_scrambled_causal"":""4"",""num_scrambled_schematic"":""4"",""participantId"":""FBA0BCAAADAD440CBD8168E75C806FBE"",""assignmentId"":""c9760423-e9ff-4040-a6d3-db5eda1fb10e"",""projectId"":""a9f3d40c-5730-405c-b25e-1034c4c56f3f""}","https://test12345.live/?num_scrambled_semantic=8&num_scrambled_causal=4&num_scrambled_schematic=4&participantId=FBA0BCAAADAD440CBD8168E75C806FBE&assignmentId=c9760423-e9ff-4040-a6d3-db5eda1fb10e&projectId=a9f3d40c-5730-405c-b25e-1034c4c56f3f","FBA0BCAAADAD440CBD8168E75C806FBE-2025-08-07-19-04-57","","1345","","images/instructions/movie_2.png","0","",""
"","","","","","image-button-response","14","309824","0.0-6.0-1.0-2.1","FBA0BCAAADAD440CBD8168E75C806FBE","FBA0BCAAADAD440CBD8168E75C806FBE","c9760423-e9ff-4040-a6d3-db5eda1fb10e","a9f3d40c-5730-405c-b25e-1034c4c56f3f","{""num_scrambled_semantic"":""8"",""num_scrambled_causal"":""4"",""num_scrambled_schematic"":""4"",""participantId"":""FBA0BCAAADAD440CBD8168E75C806FBE"",""assignmentId"":""c9760423-e9ff-4040-a6d3-db5eda1fb10e"",""projectId"":""a9f3d40c-5730-405c-b25e-1034c4c56f3f""}","https://test12345.live/?num_scrambled_semantic=8&num_scrambled_causal=4&num_scrambled_schematic=4&participantId=FBA0BCAAADAD440CBD8168E75C806FBE&assignmentId=c9760423-e9ff-4040-a6d3-db5eda1fb10e&projectId=a9f3d40c-5730-405c-b25e-1034c4c56f3f","FBA0BCAAADAD440CBD8168E75C806FBE-2025-08-07-19-04-57","","null","","[]","null","",""
"","","","","","image-button-response","15","314333","0.0-6.0-1.0-0.2","FBA0BCAAADAD440CBD8168E75C806FBE","FBA0BCAAADAD440CBD8168E75C806FBE","c9760423-e9ff-4040-a6d3-db5eda1fb10e","a9f3d40c-5730-405c-b25e-1034c4c56f3f","{""num_scrambled_semantic"":""8"",""num_scrambled_causal"":""4"",""num_scrambled_schematic"":""4"",""participantId"":""FBA0BCAAADAD440CBD8168E75C806FBE"",""assignmentId"":""c9760423-e9ff-4040-a6d3-db5eda1fb10e"",""projectId"":""a9f3d40c-5730-405c-b25e-1034c4c56f3f""}","https://test12345.live/?num_scrambled_semantic=8&num_scrambled_causal=4&num_scrambled_schematic=4&participantId=FBA0BCAAADAD440CBD8168E75C806FBE&assignmentId=c9760423-e9ff-4040-a6d3-db5eda1fb10e&projectId=a9f3d40c-5730-405c-b25e-1034c4c56f3f","FBA0BCAAADAD440CBD8168E75C806FBE-2025-08-07-19-04-57","","null","","images/instructions/movie_3.png","null","",""
"","","","","","image-button-response","16","318347","0.0-6.0-1.0-1.2","FBA0BCAAADAD440CBD8168E75C806FBE","FBA0BCAAADAD440CBD8168E75C806FBE","c9760423-e9ff-4040-a6d3-db5eda1fb10e","a9f3d40c-5730-405c-b25e-1034c4c56f3f","{""num_scrambled_semantic"":""8"",""num_scrambled_causal"":""4"",""num_scrambled_schematic"":""4"",""participantId"":""FBA0BCAAADAD440CBD8168E75C806FBE"",""assignmentId"":""c9760423-e9ff-4040-a6d3-db5eda1fb10e"",""projectId"":""a9f3d40c-5730-405c-b25e-1034c4c56f3f""}","https://test12345.live/?num_scrambled_semantic=8&num_scrambled_causal=4&num_scrambled_schematic=4&participantId=FBA0BCAAADAD440CBD8168E75C806FBE&assignmentId=c9760423-e9ff-4040-a6d3-db5eda1fb10e&projectId=a9f3d40c-5730-405c-b25e-1034c4c56f3f","FBA0BCAAADAD440CBD8168E75C806FBE-2025-08-07-19-04-57","","null","","images/instructions/movie_3.png","null","",""
"","","","","","image-button-response","17","320151","0.0-6.0-1.0-2.2","FBA0BCAAADAD440CBD8168E75C806FBE","FBA0BCAAADAD440CBD8168E75C806FBE","c9760423-e9ff-4040-a6d3-db5eda1fb10e","a9f3d40c-5730-405c-b25e-1034c4c56f3f","{""num_scrambled_semantic"":""8"",""num_scrambled_causal"":""4"",""num_scrambled_schematic"":""4"",""participantId"":""FBA0BCAAADAD440CBD8168E75C806FBE"",""assignmentId"":""c9760423-e9ff-4040-a6d3-db5eda1fb10e"",""projectId"":""a9f3d40c-5730-405c-b25e-1034c4c56f3f""}","https://test12345.live/?num_scrambled_semantic=8&num_scrambled_causal=4&num_scrambled_schematic=4&participantId=FBA0BCAAADAD440CBD8168E75C806FBE&assignmentId=c9760423-e9ff-4040-a6d3-db5eda1fb10e&projectId=a9f3d40c-5730-405c-b25e-1034c4c56f3f","FBA0BCAAADAD440CBD8168E75C806FBE-2025-08-07-19-04-57","","null","","[]","null","",""
"","","","","","image-button-response","18","324661","0.0-6.0-1.0-0.3","FBA0BCAAADAD440CBD8168E75C806FBE","FBA0BCAAADAD440CBD8168E75C806FBE","c9760423-e9ff-4040-a6d3-db5eda1fb10e","a9f3d40c-5730-405c-b25e-1034c4c56f3f","{""num_scrambled_semantic"":""8"",""num_scrambled_causal"":""4"",""num_scrambled_schematic"":""4"",""participantId"":""FBA0BCAAADAD440CBD8168E75C806FBE"",""assignmentId"":""c9760423-e9ff-4040-a6d3-db5eda1fb10e"",""projectId"":""a9f3d40c-5730-405c-b25e-1034c4c56f3f""}","https://test12345.live/?num_scrambled_semantic=8&num_scrambled_causal=4&num_scrambled_schematic=4&participantId=FBA0BCAAADAD440CBD8168E75C806FBE&assignmentId=c9760423-e9ff-4040-a6d3-db5eda1fb10e&projectId=a9f3d40c-5730-405c-b25e-1034c4c56f3f","FBA0BCAAADAD440CBD8168E75C806FBE-2025-08-07-19-04-57","","null","","images/instructions/movie_4.png","null","",""
"","","","","","image-button-response","19","326662","0.0-6.0-1.0-1.3","FBA0BCAAADAD440CBD8168E75C806FBE","FBA0BCAAADAD440CBD8168E75C806FBE","c9760423-e9ff-4040-a6d3-db5eda1fb10e","a9f3d40c-5730-405c-b25e-1034c4c56f3f","{""num_scrambled_semantic"":""8"",""num_scrambled_causal"":""4"",""num_scrambled_schematic"":""4"",""participantId"":""FBA0BCAAADAD440CBD8168E75C806FBE"",""assignmentId"":""c9760423-e9ff-4040-a6d3-db5eda1fb10e"",""projectId"":""a9f3d40c-5730-405c-b25e-1034c4c56f3f""}","https://test12345.live/?num_scrambled_semantic=8&num_scrambled_causal=4&num_scrambled_schematic=4&participantId=FBA0BCAAADAD440CBD8168E75C806FBE&assignmentId=c9760423-e9ff-4040-a6d3-db5eda1fb10e&projectId=a9f3d40c-5730-405c-b25e-1034c4c56f3f","FBA0BCAAADAD440CBD8168E75C806FBE-2025-08-07-19-04-57","","2000","","images/instructions/movie_4.png","0","",""
"","","","","","image-button-response","20","328470","0.0-6.0-1.0-2.3","FBA0BCAAADAD440CBD8168E75C806FBE","FBA0BCAAADAD440CBD8168E75C806FBE","c9760423-e9ff-4040-a6d3-db5eda1fb10e","a9f3d40c-5730-405c-b25e-1034c4c56f3f","{""num_scrambled_semantic"":""8"",""num_scrambled_causal"":""4"",""num_scrambled_schematic"":""4"",""participantId"":""FBA0BCAAADAD440CBD8168E75C806FBE"",""assignmentId"":""c9760423-e9ff-4040-a6d3-db5eda1fb10e"",""projectId"":""a9f3d40c-5730-405c-b25e-1034c4c56f3f""}","https://test12345.live/?num_scrambled_semantic=8&num_scrambled_causal=4&num_scrambled_schematic=4&participantId=FBA0BCAAADAD440CBD8168E75C806FBE&assignmentId=c9760423-e9ff-4040-a6d3-db5eda1fb10e&projectId=a9f3d40c-5730-405c-b25e-1034c4c56f3f","FBA0BCAAADAD440CBD8168E75C806FBE-2025-08-07-19-04-57","","null","","[]","null","",""
"","","","","","instructions","21","331565","0.0-7.0","FBA0BCAAADAD440CBD8168E75C806FBE","FBA0BCAAADAD440CBD8168E75C806FBE","c9760423-e9ff-4040-a6d3-db5eda1fb10e","a9f3d40c-5730-405c-b25e-1034c4c56f3f","{""num_scrambled_semantic"":""8"",""num_scrambled_causal"":""4"",""num_scrambled_schematic"":""4"",""participantId"":""FBA0BCAAADAD440CBD8168E75C806FBE"",""assignmentId"":""c9760423-e9ff-4040-a6d3-db5eda1fb10e"",""projectId"":""a9f3d40c-5730-405c-b25e-1034c4c56f3f""}","https://test12345.live/?num_scrambled_semantic=8&num_scrambled_causal=4&num_scrambled_schematic=4&participantId=FBA0BCAAADAD440CBD8168E75C806FBE&assignmentId=c9760423-e9ff-4040-a6d3-db5eda1fb10e&projectId=a9f3d40c-5730-405c-b25e-1034c4c56f3f","FBA0BCAAADAD440CBD8168E75C806FBE-2025-08-07-19-04-57","[{""page_index"":0,""viewing_time"":2395},{""page_index"":1,""viewing_time"":700}]","3095","","","","",""
"","","","","","html-audio-response","22","372374","0.0-8.0","FBA0BCAAADAD440CBD8168E75C806FBE","FBA0BCAAADAD440CBD8168E75C806FBE","c9760423-e9ff-4040-a6d3-db5eda1fb10e","a9f3d40c-5730-405c-b25e-1034c4c56f3f","{""num_scrambled_semantic"":""8"",""num_scrambled_causal"":""4"",""num_scrambled_schematic"":""4"",""participantId"":""FBA0BCAAADAD440CBD8168E75C806FBE"",""assignmentId"":""c9760423-e9ff-4040-a6d3-db5eda1fb10e"",""projectId"":""a9f3d40c-5730-405c-b25e-1034c4c56f3f""}","https://test12345.live/?num_scrambled_semantic=8&num_scrambled_causal=4&num_scrambled_schematic=4&participantId=FBA0BCAAADAD440CBD8168E75C806FBE&assignmentId=c9760423-e9ff-4040-a6d3-db5eda1fb10e&projectId=a9f3d40c-5730-405c-b25e-1034c4c56f3f","FBA0BCAAADAD440CBD8168E75C806FBE-2025-08-07-19-04-57","","12440","","[""<span style=\""color: red; font-size: 24px\""> NOW RECORDING</span><p>Please say out loud all the images you saw, as many as you can remember. The images can be said in any order.</p>""]","","4",""
"","","","","","instructions","23","373156","0.0-9.0","FBA0BCAAADAD440CBD8168E75C806FBE","FBA0BCAAADAD440CBD8168E75C806FBE","c9760423-e9ff-4040-a6d3-db5eda1fb10e","a9f3d40c-5730-405c-b25e-1034c4c56f3f","{""num_scrambled_semantic"":""8"",""num_scrambled_causal"":""4"",""num_scrambled_schematic"":""4"",""participantId"":""FBA0BCAAADAD440CBD8168E75C806FBE"",""assignmentId"":""c9760423-e9ff-4040-a6d3-db5eda1fb10e"",""projectId"":""a9f3d40c-5730-405c-b25e-1034c4c56f3f""}","https://test12345.live/?num_scrambled_semantic=8&num_scrambled_causal=4&num_scrambled_schematic=4&participantId=FBA0BCAAADAD440CBD8168E75C806FBE&assignmentId=c9760423-e9ff-4040-a6d3-db5eda1fb10e&projectId=a9f3d40c-5730-405c-b25e-1034c4c56f3f","FBA0BCAAADAD440CBD8168E75C806FBE-2025-08-07-19-04-57","[{""page_index"":0,""viewing_time"":780}]","780","","","","",""
"","","","","","image-button-response","24","379157","0.0-10.0-0.0","FBA0BCAAADAD440CBD8168E75C806FBE","FBA0BCAAADAD440CBD8168E75C806FBE","c9760423-e9ff-4040-a6d3-db5eda1fb10e","a9f3d40c-5730-405c-b25e-1034c4c56f3f","{""num_scrambled_semantic"":""8"",""num_scrambled_causal"":""4"",""num_scrambled_schematic"":""4"",""participantId"":""FBA0BCAAADAD440CBD8168E75C806FBE"",""assignmentId"":""c9760423-e9ff-4040-a6d3-db5eda1fb10e"",""projectId"":""a9f3d40c-5730-405c-b25e-1034c4c56f3f""}","https://test12345.live/?num_scrambled_semantic=8&num_scrambled_causal=4&num_scrambled_schematic=4&participantId=FBA0BCAAADAD440CBD8168E75C806FBE&assignmentId=c9760423-e9ff-4040-a6d3-db5eda1fb10e&projectId=a9f3d40c-5730-405c-b25e-1034c4c56f3f","FBA0BCAAADAD440CBD8168E75C806FBE-2025-08-07-19-04-57","","null","","images/causal_sequence/museum_causal/museum_causal_0.png","null","",""
"","","","","","image-button-response","25","383667","0.0-10.0-1.0-0.0","FBA0BCAAADAD440CBD8168E75C806FBE","FBA0BCAAADAD440CBD8168E75C806FBE","c9760423-e9ff-4040-a6d3-db5eda1fb10e","a9f3d40c-5730-405c-b25e-1034c4c56f3f","{""num_scrambled_semantic"":""8"",""num_scrambled_causal"":""4"",""num_scrambled_schematic"":""4"",""participantId"":""FBA0BCAAADAD440CBD8168E75C806FBE"",""assignmentId"":""c9760423-e9ff-4040-a6d3-db5eda1fb10e"",""projectId"":""a9f3d40c-5730-405c-b25e-1034c4c56f3f""}","https://test12345.live/?num_scrambled_semantic=8&num_scrambled_causal=4&num_scrambled_schematic=4&participantId=FBA0BCAAADAD440CBD8168E75C806FBE&assignmentId=c9760423-e9ff-4040-a6d3-db5eda1fb10e&projectId=a9f3d40c-5730-405c-b25e-1034c4c56f3f","FBA0BCAAADAD440CBD8168E75C806FBE-2025-08-07-19-04-57","","null","","images/causal_sequence/museum_causal/museum_causal_1.png","null","",""
"","","","","","image-button-response","26","386159","0.0-10.0-1.0-1.0","FBA0BCAAADAD440CBD8168E75C806FBE","FBA0BCAAADAD440CBD8168E75C806FBE","c9760423-e9ff-4040-a6d3-db5eda1fb10e","a9f3d40c-5730-405c-b25e-1034c4c56f3f","{""num_scrambled_semantic"":""8"",""num_scrambled_causal"":""4"",""num_scrambled_schematic"":""4"",""participantId"":""FBA0BCAAADAD440CBD8168E75C806FBE"",""assignmentId"":""c9760423-e9ff-4040-a6d3-db5eda1fb10e"",""projectId"":""a9f3d40c-5730-405c-b25e-1034c4c56f3f""}","https://test12345.live/?num_scrambled_semantic=8&num_scrambled_causal=4&num_scrambled_schematic=4&participantId=FBA0BCAAADAD440CBD8168E75C806FBE&assignmentId=c9760423-e9ff-4040-a6d3-db5eda1fb10e&projectId=a9f3d40c-5730-405c-b25e-1034c4c56f3f","FBA0BCAAADAD440CBD8168E75C806FBE-2025-08-07-19-04-57","","2491","","images/causal_sequence/museum_causal/museum_causal_1.png","0","",""
"","","","","","image-button-response","27","387972","0.0-10.0-1.0-2.0","FBA0BCAAADAD440CBD8168E75C806FBE","FBA0BCAAADAD440CBD8168E75C806FBE","c9760423-e9ff-4040-a6d3-db5eda1fb10e","a9f3d40c-5730-405c-b25e-1034c4c56f3f","{""num_scrambled_semantic"":""8"",""num_scrambled_causal"":""4"",""num_scrambled_schematic"":""4"",""participantId"":""FBA0BCAAADAD440CBD8168E75C806FBE"",""assignmentId"":""c9760423-e9ff-4040-a6d3-db5eda1fb10e"",""projectId"":""a9f3d40c-5730-405c-b25e-1034c4c56f3f""}","https://test12345.live/?num_scrambled_semantic=8&num_scrambled_causal=4&num_scrambled_schematic=4&participantId=FBA0BCAAADAD440CBD8168E75C806FBE&assignmentId=c9760423-e9ff-4040-a6d3-db5eda1fb10e&projectId=a9f3d40c-5730-405c-b25e-1034c4c56f3f","FBA0BCAAADAD440CBD8168E75C806FBE-2025-08-07-19-04-57","","null","","[]","null","",""
"","","","","","image-button-response","28","392480","0.0-10.0-1.0-0.1","FBA0BCAAADAD440CBD8168E75C806FBE","FBA0BCAAADAD440CBD8168E75C806FBE","c9760423-e9ff-4040-a6d3-db5eda1fb10e","a9f3d40c-5730-405c-b25e-1034c4c56f3f","{""num_scrambled_semantic"":""8"",""num_scrambled_causal"":""4"",""num_scrambled_schematic"":""4"",""participantId"":""FBA0BCAAADAD440CBD8168E75C806FBE"",""assignmentId"":""c9760423-e9ff-4040-a6d3-db5eda1fb10e"",""projectId"":""a9f3d40c-5730-405c-b25e-1034c4c56f3f""}","https://test12345.live/?num_scrambled_semantic=8&num_scrambled_causal=4&num_scrambled_schematic=4&participantId=FBA0BCAAADAD440CBD8168E75C806FBE&assignmentId=c9760423-e9ff-4040-a6d3-db5eda1fb10e&projectId=a9f3d40c-5730-405c-b25e-1034c4c56f3f","FBA0BCAAADAD440CBD8168E75C806FBE-2025-08-07-19-04-57","","null","","images/causal_sequence/museum_causal/museum_causal_2.png","null","",""
"","","","","","image-button-response","29","393487","0.0-10.0-1.0-1.1","FBA0BCAAADAD440CBD8168E75C806FBE","FBA0BCAAADAD440CBD8168E75C806FBE","c9760423-e9ff-4040-a6d3-db5eda1fb10e","a9f3d40c-5730-405c-b25e-1034c4c56f3f","{""num_scrambled_semantic"":""8"",""num_scrambled_causal"":""4"",""num_scrambled_schematic"":""4"",""participantId"":""FBA0BCAAADAD440CBD8168E75C806FBE"",""assignmentId"":""c9760423-e9ff-4040-a6d3-db5eda1fb10e"",""projectId"":""a9f3d40c-5730-405c-b25e-1034c4c56f3f""}","https://test12345.live/?num_scrambled_semantic=8&num_scrambled_causal=4&num_scrambled_schematic=4&participantId=FBA0BCAAADAD440CBD8168E75C806FBE&assignmentId=c9760423-e9ff-4040-a6d3-db5eda1fb10e&projectId=a9f3d40c-5730-405c-b25e-1034c4c56f3f","FBA0BCAAADAD440CBD8168E75C806FBE-2025-08-07-19-04-57","","1006","","images/causal_sequence/museum_causal/museum_causal_2.png","0","",""
"","","","","","image-button-response","30","395288","0.0-10.0-1.0-2.1","FBA0BCAAADAD440CBD8168E75C806FBE","FBA0BCAAADAD440CBD8168E75C806FBE","c9760423-e9ff-4040-a6d3-db5eda1fb10e","a9f3d40c-5730-405c-b25e-1034c4c56f3f","{""num_scrambled_semantic"":""8"",""num_scrambled_causal"":""4"",""num_scrambled_schematic"":""4"",""participantId"":""FBA0BCAAADAD440CBD8168E75C806FBE"",""assignmentId"":""c9760423-e9ff-4040-a6d3-db5eda1fb10e"",""projectId"":""a9f3d40c-5730-405c-b25e-1034c4c56f3f""}","https://test12345.live/?num_scrambled_semantic=8&num_scrambled_causal=4&num_scrambled_schematic=4&participantId=FBA0BCAAADAD440CBD8168E75C806FBE&assignmentId=c9760423-e9ff-4040-a6d3-db5eda1fb10e&projectId=a9f3d40c-5730-405c-b25e-1034c4c56f3f","FBA0BCAAADAD440CBD8168E75C806FBE-2025-08-07-19-04-57","","null","","[]","null","",""
"","","","","","image-button-response","31","399798","0.0-10.0-1.0-0.2","FBA0BCAAADAD440CBD8168E75C806FBE","FBA0BCAAADAD440CBD8168E75C806FBE","c9760423-e9ff-4040-a6d3-db5eda1fb10e","a9f3d40c-5730-405c-b25e-1034c4c56f3f","{""num_scrambled_semantic"":""8"",""num_scrambled_causal"":""4"",""num_scrambled_schematic"":""4"",""participantId"":""FBA0BCAAADAD440CBD8168E75C806FBE"",""assignmentId"":""c9760423-e9ff-4040-a6d3-db5eda1fb10e"",""projectId"":""a9f3d40c-5730-405c-b25e-1034c4c56f3f""}","https://test12345.live/?num_scrambled_semantic=8&num_scrambled_causal=4&num_scrambled_schematic=4&participantId=FBA0BCAAADAD440CBD8168E75C806FBE&assignmentId=c9760423-e9ff-4040-a6d3-db5eda1fb10e&projectId=a9f3d40c-5730-405c-b25e-1034c4c56f3f","FBA0BCAAADAD440CBD8168E75C806FBE-2025-08-07-19-04-57","","null","","images/causal_sequence/museum_causal/museum_causal_3.png","null","",""
"","","","","","image-button-response","32","401437","0.0-10.0-1.0-1.2","FBA0BCAAADAD440CBD8168E75C806FBE","FBA0BCAAADAD440CBD8168E75C806FBE","c9760423-e9ff-4040-a6d3-db5eda1fb10e","a9f3d40c-5730-405c-b25e-1034c4c56f3f","{""num_scrambled_semantic"":""8"",""num_scrambled_causal"":""4"",""num_scrambled_schematic"":""4"",""participantId"":""FBA0BCAAADAD440CBD8168E75C806FBE"",""assignmentId"":""c9760423-e9ff-4040-a6d3-db5eda1fb10e"",""projectId"":""a9f3d40c-5730-405c-b25e-1034c4c56f3f""}","https://test12345.live/?num_scrambled_semantic=8&num_scrambled_causal=4&num_scrambled_schematic=4&participantId=FBA0BCAAADAD440CBD8168E75C806FBE&assignmentId=c9760423-e9ff-4040-a6d3-db5eda1fb10e&projectId=a9f3d40c-5730-405c-b25e-1034c4c56f3f","FBA0BCAAADAD440CBD8168E75C806FBE-2025-08-07-19-04-57","","1638","","images/causal_sequence/museum_causal/museum_causal_3.png","0","",""
"","","","","","image-button-response","33","403246","0.0-10.0-1.0-2.2","FBA0BCAAADAD440CBD8168E75C806FBE","FBA0BCAAADAD440CBD8168E75C806FBE","c9760423-e9ff-4040-a6d3-db5eda1fb10e","a9f3d40c-5730-405c-b25e-1034c4c56f3f","{""num_scrambled_semantic"":""8"",""num_scrambled_causal"":""4"",""num_scrambled_schematic"":""4"",""participantId"":""FBA0BCAAADAD440CBD8168E75C806FBE"",""assignmentId"":""c9760423-e9ff-4040-a6d3-db5eda1fb10e"",""projectId"":""a9f3d40c-5730-405c-b25e-1034c4c56f3f""}","https://test12345.live/?num_scrambled_semantic=8&num_scrambled_causal=4&num_scrambled_schematic=4&participantId=FBA0BCAAADAD440CBD8168E75C806FBE&assignmentId=c9760423-e9ff-4040-a6d3-db5eda1fb10e&projectId=a9f3d40c-5730-405c-b25e-1034c4c56f3f","FBA0BCAAADAD440CBD8168E75C806FBE-2025-08-07-19-04-57","","null","","[]","null","",""
"","","","","","image-button-response","34","407747","0.0-10.0-1.0-0.3","FBA0BCAAADAD440CBD8168E75C806FBE","FBA0BCAAADAD440CBD8168E75C806FBE","c9760423-e9ff-4040-a6d3-db5eda1fb10e","a9f3d40c-5730-405c-b25e-1034c4c56f3f","{""num_scrambled_semantic"":""8"",""num_scrambled_causal"":""4"",""num_scrambled_schematic"":""4"",""participantId"":""FBA0BCAAADAD440CBD8168E75C806FBE"",""assignmentId"":""c9760423-e9ff-4040-a6d3-db5eda1fb10e"",""projectId"":""a9f3d40c-5730-405c-b25e-1034c4c56f3f""}","https://test12345.live/?num_scrambled_semantic=8&num_scrambled_causal=4&num_scrambled_schematic=4&participantId=FBA0BCAAADAD440CBD8168E75C806FBE&assignmentId=c9760423-e9ff-4040-a6d3-db5eda1fb10e&projectId=a9f3d40c-5730-405c-b25e-1034c4c56f3f","FBA0BCAAADAD440CBD8168E75C806FBE-2025-08-07-19-04-57","","null","","images/causal_sequence/museum_causal/museum_causal_4.png","null","",""
"","","","","","image-button-response","35","408583","0.0-10.0-1.0-1.3","FBA0BCAAADAD440CBD8168E75C806FBE","FBA0BCAAADAD440CBD8168E75C806FBE","c9760423-e9ff-4040-a6d3-db5eda1fb10e","a9f3d40c-5730-405c-b25e-1034c4c56f3f","{""num_scrambled_semantic"":""8"",""num_scrambled_causal"":""4"",""num_scrambled_schematic"":""4"",""participantId"":""FBA0BCAAADAD440CBD8168E75C806FBE"",""assignmentId"":""c9760423-e9ff-4040-a6d3-db5eda1fb10e"",""projectId"":""a9f3d40c-5730-405c-b25e-1034c4c56f3f""}","https://test12345.live/?num_scrambled_semantic=8&num_scrambled_causal=4&num_scrambled_schematic=4&participantId=FBA0BCAAADAD440CBD8168E75C806FBE&assignmentId=c9760423-e9ff-4040-a6d3-db5eda1fb10e&projectId=a9f3d40c-5730-405c-b25e-1034c4c56f3f","FBA0BCAAADAD440CBD8168E75C806FBE-2025-08-07-19-04-57","","835","","images/causal_sequence/museum_causal/museum_causal_4.png","1","",""
"","","","","","image-button-response","36","410388","0.0-10.0-1.0-2.3","FBA0BCAAADAD440CBD8168E75C806FBE","FBA0BCAAADAD440CBD8168E75C806FBE","c9760423-e9ff-4040-a6d3-db5eda1fb10e","a9f3d40c-5730-405c-b25e-1034c4c56f3f","{""num_scrambled_semantic"":""8"",""num_scrambled_causal"":""4"",""num_scrambled_schematic"":""4"",""participantId"":""FBA0BCAAADAD440CBD8168E75C806FBE"",""assignmentId"":""c9760423-e9ff-4040-a6d3-db5eda1fb10e"",""projectId"":""a9f3d40c-5730-405c-b25e-1034c4c56f3f""}","https://test12345.live/?num_scrambled_semantic=8&num_scrambled_causal=4&num_scrambled_schematic=4&participantId=FBA0BCAAADAD440CBD8168E75C806FBE&assignmentId=c9760423-e9ff-4040-a6d3-db5eda1fb10e&projectId=a9f3d40c-5730-405c-b25e-1034c4c56f3f","FBA0BCAAADAD440CBD8168E75C806FBE-2025-08-07-19-04-57","","null","","[]","null","",""
"","","","","","image-button-response","37","414892","0.0-10.0-1.0-0.4","FBA0BCAAADAD440CBD8168E75C806FBE","FBA0BCAAADAD440CBD8168E75C806FBE","c9760423-e9ff-4040-a6d3-db5eda1fb10e","a9f3d40c-5730-405c-b25e-1034c4c56f3f","{""num_scrambled_semantic"":""8"",""num_scrambled_causal"":""4"",""num_scrambled_schematic"":""4"",""participantId"":""FBA0BCAAADAD440CBD8168E75C806FBE"",""assignmentId"":""c9760423-e9ff-4040-a6d3-db5eda1fb10e"",""projectId"":""a9f3d40c-5730-405c-b25e-1034c4c56f3f""}","https://test12345.live/?num_scrambled_semantic=8&num_scrambled_causal=4&num_scrambled_schematic=4&participantId=FBA0BCAAADAD440CBD8168E75C806FBE&assignmentId=c9760423-e9ff-4040-a6d3-db5eda1fb10e&projectId=a9f3d40c-5730-405c-b25e-1034c4c56f3f","FBA0BCAAADAD440CBD8168E75C806FBE-2025-08-07-19-04-57","","null","","images/causal_sequence/museum_causal/museum_causal_5.png","null","",""
"","","","","","image-button-response","38","415586","0.0-10.0-1.0-1.4","FBA0BCAAADAD440CBD8168E75C806FBE","FBA0BCAAADAD440CBD8168E75C806FBE","c9760423-e9ff-4040-a6d3-db5eda1fb10e","a9f3d40c-5730-405c-b25e-1034c4c56f3f","{""num_scrambled_semantic"":""8"",""num_scrambled_causal"":""4"",""num_scrambled_schematic"":""4"",""participantId"":""FBA0BCAAADAD440CBD8168E75C806FBE"",""assignmentId"":""c9760423-e9ff-4040-a6d3-db5eda1fb10e"",""projectId"":""a9f3d40c-5730-405c-b25e-1034c4c56f3f""}","https://test12345.live/?num_scrambled_semantic=8&num_scrambled_causal=4&num_scrambled_schematic=4&participantId=FBA0BCAAADAD440CBD8168E75C806FBE&assignmentId=c9760423-e9ff-4040-a6d3-db5eda1fb10e&projectId=a9f3d40c-5730-405c-b25e-1034c4c56f3f","FBA0BCAAADAD440CBD8168E75C806FBE-2025-08-07-19-04-57","","693","","images/causal_sequence/museum_causal/museum_causal_5.png","0","",""
"","","","","","image-button-response","39","417390","0.0-10.0-1.0-2.4","FBA0BCAAADAD440CBD8168E75C806FBE","FBA0BCAAADAD440CBD8168E75C806FBE","c9760423-e9ff-4040-a6d3-db5eda1fb10e","a9f3d40c-5730-405c-b25e-1034c4c56f3f","{""num_scrambled_semantic"":""8"",""num_scrambled_causal"":""4"",""num_scrambled_schematic"":""4"",""participantId"":""FBA0BCAAADAD440CBD8168E75C806FBE"",""assignmentId"":""c9760423-e9ff-4040-a6d3-db5eda1fb10e"",""projectId"":""a9f3d40c-5730-405c-b25e-1034c4c56f3f""}","https://test12345.live/?num_scrambled_semantic=8&num_scrambled_causal=4&num_scrambled_schematic=4&participantId=FBA0BCAAADAD440CBD8168E75C806FBE&assignmentId=c9760423-e9ff-4040-a6d3-db5eda1fb10e&projectId=a9f3d40c-5730-405c-b25e-1034c4c56f3f","FBA0BCAAADAD440CBD8168E75C806FBE-2025-08-07-19-04-57","","null","","[]","null","",""
"","","","","","image-button-response","40","421900","0.0-10.0-1.0-0.5","FBA0BCAAADAD440CBD8168E75C806FBE","FBA0BCAAADAD440CBD8168E75C806FBE","c9760423-e9ff-4040-a6d3-db5eda1fb10e","a9f3d40c-5730-405c-b25e-1034c4c56f3f","{""num_scrambled_semantic"":""8"",""num_scrambled_causal"":""4"",""num_scrambled_schematic"":""4"",""participantId"":""FBA0BCAAADAD440CBD8168E75C806FBE"",""assignmentId"":""c9760423-e9ff-4040-a6d3-db5eda1fb10e"",""projectId"":""a9f3d40c-5730-405c-b25e-1034c4c56f3f""}","https://test12345.live/?num_scrambled_semantic=8&num_scrambled_causal=4&num_scrambled_schematic=4&participantId=FBA0BCAAADAD440CBD8168E75C806FBE&assignmentId=c9760423-e9ff-4040-a6d3-db5eda1fb10e&projectId=a9f3d40c-5730-405c-b25e-1034c4c56f3f","FBA0BCAAADAD440CBD8168E75C806FBE-2025-08-07-19-04-57","","null","","images/causal_sequence/museum_causal/museum_causal_6.png","null","",""
"","","","","","image-button-response","41","424991","0.0-10.0-1.0-1.5","FBA0BCAAADAD440CBD8168E75C806FBE","FBA0BCAAADAD440CBD8168E75C806FBE","c9760423-e9ff-4040-a6d3-db5eda1fb10e","a9f3d40c-5730-405c-b25e-1034c4c56f3f","{""num_scrambled_semantic"":""8"",""num_scrambled_causal"":""4"",""num_scrambled_schematic"":""4"",""participantId"":""FBA0BCAAADAD440CBD8168E75C806FBE"",""assignmentId"":""c9760423-e9ff-4040-a6d3-db5eda1fb10e"",""projectId"":""a9f3d40c-5730-405c-b25e-1034c4c56f3f""}","https://test12345.live/?num_scrambled_semantic=8&num_scrambled_causal=4&num_scrambled_schematic=4&participantId=FBA0BCAAADAD440CBD8168E75C806FBE&assignmentId=c9760423-e9ff-4040-a6d3-db5eda1fb10e&projectId=a9f3d40c-5730-405c-b25e-1034c4c56f3f","FBA0BCAAADAD440CBD8168E75C806FBE-2025-08-07-19-04-57","","3090","","images/causal_sequence/museum_causal/museum_causal_6.png","0","",""
"","","","","","image-button-response","42","426807","0.0-10.0-1.0-2.5","FBA0BCAAADAD440CBD8168E75C806FBE","FBA0BCAAADAD440CBD8168E75C806FBE","c9760423-e9ff-4040-a6d3-db5eda1fb10e","a9f3d40c-5730-405c-b25e-1034c4c56f3f","{""num_scrambled_semantic"":""8"",""num_scrambled_causal"":""4"",""num_scrambled_schematic"":""4"",""participantId"":""FBA0BCAAADAD440CBD8168E75C806FBE"",""assignmentId"":""c9760423-e9ff-4040-a6d3-db5eda1fb10e"",""projectId"":""a9f3d40c-5730-405c-b25e-1034c4c56f3f""}","https://test12345.live/?num_scrambled_semantic=8&num_scrambled_causal=4&num_scrambled_schematic=4&participantId=FBA0BCAAADAD440CBD8168E75C806FBE&assignmentId=c9760423-e9ff-4040-a6d3-db5eda1fb10e&projectId=a9f3d40c-5730-405c-b25e-1034c4c56f3f","FBA0BCAAADAD440CBD8168E75C806FBE-2025-08-07-19-04-57","","null","","[]","null","",""
"","","","","","image-button-response","43","431308","0.0-10.0-1.0-0.6","FBA0BCAAADAD440CBD8168E75C806FBE","FBA0BCAAADAD440CBD8168E75C806FBE","c9760423-e9ff-4040-a6d3-db5eda1fb10e","a9f3d40c-5730-405c-b25e-1034c4c56f3f","{""num_scrambled_semantic"":""8"",""num_scrambled_causal"":""4"",""num_scrambled_schematic"":""4"",""participantId"":""FBA0BCAAADAD440CBD8168E75C806FBE"",""assignmentId"":""c9760423-e9ff-4040-a6d3-db5eda1fb10e"",""projectId"":""a9f3d40c-5730-405c-b25e-1034c4c56f3f""}","https://test12345.live/?num_scrambled_semantic=8&num_scrambled_causal=4&num_scrambled_schematic=4&participantId=FBA0BCAAADAD440CBD8168E75C806FBE&assignmentId=c9760423-e9ff-4040-a6d3-db5eda1fb10e&projectId=a9f3d40c-5730-405c-b25e-1034c4c56f3f","FBA0BCAAADAD440CBD8168E75C806FBE-2025-08-07-19-04-57","","null","","images/causal_sequence/museum_causal/museum_causal_7.png","null","",""
"","","","","","image-button-response","44","432292","0.0-10.0-1.0-1.6","FBA0BCAAADAD440CBD8168E75C806FBE","FBA0BCAAADAD440CBD8168E75C806FBE","c9760423-e9ff-4040-a6d3-db5eda1fb10e","a9f3d40c-5730-405c-b25e-1034c4c56f3f","{""num_scrambled_semantic"":""8"",""num_scrambled_causal"":""4"",""num_scrambled_schematic"":""4"",""participantId"":""FBA0BCAAADAD440CBD8168E75C806FBE"",""assignmentId"":""c9760423-e9ff-4040-a6d3-db5eda1fb10e"",""projectId"":""a9f3d40c-5730-405c-b25e-1034c4c56f3f""}","https://test12345.live/?num_scrambled_semantic=8&num_scrambled_causal=4&num_scrambled_schematic=4&participantId=FBA0BCAAADAD440CBD8168E75C806FBE&assignmentId=c9760423-e9ff-4040-a6d3-db5eda1fb10e&projectId=a9f3d40c-5730-405c-b25e-1034c4c56f3f","FBA0BCAAADAD440CBD8168E75C806FBE-2025-08-07-19-04-57","","983","","images/causal_sequence/museum_causal/museum_causal_7.png","1","",""
"","","","","","image-button-response","45","434100","0.0-10.0-1.0-2.6","FBA0BCAAADAD440CBD8168E75C806FBE","FBA0BCAAADAD440CBD8168E75C806FBE","c9760423-e9ff-4040-a6d3-db5eda1fb10e","a9f3d40c-5730-405c-b25e-1034c4c56f3f","{""num_scrambled_semantic"":""8"",""num_scrambled_causal"":""4"",""num_scrambled_schematic"":""4"",""participantId"":""FBA0BCAAADAD440CBD8168E75C806FBE"",""assignmentId"":""c9760423-e9ff-4040-a6d3-db5eda1fb10e"",""projectId"":""a9f3d40c-5730-405c-b25e-1034c4c56f3f""}","https://test12345.live/?num_scrambled_semantic=8&num_scrambled_causal=4&num_scrambled_schematic=4&participantId=FBA0BCAAADAD440CBD8168E75C806FBE&assignmentId=c9760423-e9ff-4040-a6d3-db5eda1fb10e&projectId=a9f3d40c-5730-405c-b25e-1034c4c56f3f","FBA0BCAAADAD440CBD8168E75C806FBE-2025-08-07-19-04-57","","null","","[]","null","",""
"","","","","","image-button-response","46","438610","0.0-10.0-1.0-0.7","FBA0BCAAADAD440CBD8168E75C806FBE","FBA0BCAAADAD440CBD8168E75C806FBE","c9760423-e9ff-4040-a6d3-db5eda1fb10e","a9f3d40c-5730-405c-b25e-1034c4c56f3f","{""num_scrambled_semantic"":""8"",""num_scrambled_causal"":""4"",""num_scrambled_schematic"":""4"",""participantId"":""FBA0BCAAADAD440CBD8168E75C806FBE"",""assignmentId"":""c9760423-e9ff-4040-a6d3-db5eda1fb10e"",""projectId"":""a9f3d40c-5730-405c-b25e-1034c4c56f3f""}","https://test12345.live/?num_scrambled_semantic=8&num_scrambled_causal=4&num_scrambled_schematic=4&participantId=FBA0BCAAADAD440CBD8168E75C806FBE&assignmentId=c9760423-e9ff-4040-a6d3-db5eda1fb10e&projectId=a9f3d40c-5730-405c-b25e-1034c4c56f3f","FBA0BCAAADAD440CBD8168E75C806FBE-2025-08-07-19-04-57","","null","","images/causal_sequence/museum_causal/museum_causal_8.png","null","",""
"","","","","","image-button-response","47","439614","0.0-10.0-1.0-1.7","FBA0BCAAADAD440CBD8168E75C806FBE","FBA0BCAAADAD440CBD8168E75C806FBE","c9760423-e9ff-4040-a6d3-db5eda1fb10e","a9f3d40c-5730-405c-b25e-1034c4c56f3f","{""num_scrambled_semantic"":""8"",""num_scrambled_causal"":""4"",""num_scrambled_schematic"":""4"",""participantId"":""FBA0BCAAADAD440CBD8168E75C806FBE"",""assignmentId"":""c9760423-e9ff-4040-a6d3-db5eda1fb10e"",""projectId"":""a9f3d40c-5730-405c-b25e-1034c4c56f3f""}","https://test12345.live/?num_scrambled_semantic=8&num_scrambled_causal=4&num_scrambled_schematic=4&participantId=FBA0BCAAADAD440CBD8168E75C806FBE&assignmentId=c9760423-e9ff-4040-a6d3-db5eda1fb10e&projectId=a9f3d40c-5730-405c-b25e-1034c4c56f3f","FBA0BCAAADAD440CBD8168E75C806FBE-2025-08-07-19-04-57","","1003","","images/causal_sequence/museum_causal/museum_causal_8.png","0","",""
"","","","","","image-button-response","48","441416","0.0-10.0-1.0-2.7","FBA0BCAAADAD440CBD8168E75C806FBE","FBA0BCAAADAD440CBD8168E75C806FBE","c9760423-e9ff-4040-a6d3-db5eda1fb10e","a9f3d40c-5730-405c-b25e-1034c4c56f3f","{""num_scrambled_semantic"":""8"",""num_scrambled_causal"":""4"",""num_scrambled_schematic"":""4"",""participantId"":""FBA0BCAAADAD440CBD8168E75C806FBE"",""assignmentId"":""c9760423-e9ff-4040-a6d3-db5eda1fb10e"",""projectId"":""a9f3d40c-5730-405c-b25e-1034c4c56f3f""}","https://test12345.live/?num_scrambled_semantic=8&num_scrambled_causal=4&num_scrambled_schematic=4&participantId=FBA0BCAAADAD440CBD8168E75C806FBE&assignmentId=c9760423-e9ff-4040-a6d3-db5eda1fb10e&projectId=a9f3d40c-5730-405c-b25e-1034c4c56f3f","FBA0BCAAADAD440CBD8168E75C806FBE-2025-08-07-19-04-57","","null","","[]","null","",""
"","","","","","image-button-response","49","445931","0.0-10.0-1.0-0.8","FBA0BCAAADAD440CBD8168E75C806FBE","FBA0BCAAADAD440CBD8168E75C806FBE","c9760423-e9ff-4040-a6d3-db5eda1fb10e","a9f3d40c-5730-405c-b25e-1034c4c56f3f","{""num_scrambled_semantic"":""8"",""num_scrambled_causal"":""4"",""num_scrambled_schematic"":""4"",""participantId"":""FBA0BCAAADAD440CBD8168E75C806FBE"",""assignmentId"":""c9760423-e9ff-4040-a6d3-db5eda1fb10e"",""projectId"":""a9f3d40c-5730-405c-b25e-1034c4c56f3f""}","https://test12345.live/?num_scrambled_semantic=8&num_scrambled_causal=4&num_scrambled_schematic=4&participantId=FBA0BCAAADAD440CBD8168E75C806FBE&assignmentId=c9760423-e9ff-4040-a6d3-db5eda1fb10e&projectId=a9f3d40c-5730-405c-b25e-1034c4c56f3f","FBA0BCAAADAD440CBD8168E75C806FBE-2025-08-07-19-04-57","","null","","images/causal_sequence/museum_causal/museum_causal_9.png","null","",""
"","","","","","image-button-response","50","449918","0.0-10.0-1.0-1.8","FBA0BCAAADAD440CBD8168E75C806FBE","FBA0BCAAADAD440CBD8168E75C806FBE","c9760423-e9ff-4040-a6d3-db5eda1fb10e","a9f3d40c-5730-405c-b25e-1034c4c56f3f","{""num_scrambled_semantic"":""8"",""num_scrambled_causal"":""4"",""num_scrambled_schematic"":""4"",""participantId"":""FBA0BCAAADAD440CBD8168E75C806FBE"",""assignmentId"":""c9760423-e9ff-4040-a6d3-db5eda1fb10e"",""projectId"":""a9f3d40c-5730-405c-b25e-1034c4c56f3f""}","https://test12345.live/?num_scrambled_semantic=8&num_scrambled_causal=4&num_scrambled_schematic=4&participantId=FBA0BCAAADAD440CBD8168E75C806FBE&assignmentId=c9760423-e9ff-4040-a6d3-db5eda1fb10e&projectId=a9f3d40c-5730-405c-b25e-1034c4c56f3f","FBA0BCAAADAD440CBD8168E75C806FBE-2025-08-07-19-04-57","","3987","","images/causal_sequence/museum_causal/museum_causal_9.png","1","",""
"","","","","","image-button-response","51","451733","0.0-10.0-1.0-2.8","FBA0BCAAADAD440CBD8168E75C806FBE","FBA0BCAAADAD440CBD8168E75C806FBE","c9760423-e9ff-4040-a6d3-db5eda1fb10e","a9f3d40c-5730-405c-b25e-1034c4c56f3f","{""num_scrambled_semantic"":""8"",""num_scrambled_causal"":""4"",""num_scrambled_schematic"":""4"",""participantId"":""FBA0BCAAADAD440CBD8168E75C806FBE"",""assignmentId"":""c9760423-e9ff-4040-a6d3-db5eda1fb10e"",""projectId"":""a9f3d40c-5730-405c-b25e-1034c4c56f3f""}","https://test12345.live/?num_scrambled_semantic=8&num_scrambled_causal=4&num_scrambled_schematic=4&participantId=FBA0BCAAADAD440CBD8168E75C806FBE&assignmentId=c9760423-e9ff-4040-a6d3-db5eda1fb10e&projectId=a9f3d40c-5730-405c-b25e-1034c4c56f3f","FBA0BCAAADAD440CBD8168E75C806FBE-2025-08-07-19-04-57","","null","","[]","null","",""
"","","","","","image-button-response","52","456234","0.0-10.0-1.0-0.9","FBA0BCAAADAD440CBD8168E75C806FBE","FBA0BCAAADAD440CBD8168E75C806FBE","c9760423-e9ff-4040-a6d3-db5eda1fb10e","a9f3d40c-5730-405c-b25e-1034c4c56f3f","{""num_scrambled_semantic"":""8"",""num_scrambled_causal"":""4"",""num_scrambled_schematic"":""4"",""participantId"":""FBA0BCAAADAD440CBD8168E75C806FBE"",""assignmentId"":""c9760423-e9ff-4040-a6d3-db5eda1fb10e"",""projectId"":""a9f3d40c-5730-405c-b25e-1034c4c56f3f""}","https://test12345.live/?num_scrambled_semantic=8&num_scrambled_causal=4&num_scrambled_schematic=4&participantId=FBA0BCAAADAD440CBD8168E75C806FBE&assignmentId=c9760423-e9ff-4040-a6d3-db5eda1fb10e&projectId=a9f3d40c-5730-405c-b25e-1034c4c56f3f","FBA0BCAAADAD440CBD8168E75C806FBE-2025-08-07-19-04-57","","null","","images/causal_sequence/museum_causal/museum_causal_ten.png","null","",""
"","","","","","image-button-response","53","457448","0.0-10.0-1.0-1.9","FBA0BCAAADAD440CBD8168E75C806FBE","FBA0BCAAADAD440CBD8168E75C806FBE","c9760423-e9ff-4040-a6d3-db5eda1fb10e","a9f3d40c-5730-405c-b25e-1034c4c56f3f","{""num_scrambled_semantic"":""8"",""num_scrambled_causal"":""4"",""num_scrambled_schematic"":""4"",""participantId"":""FBA0BCAAADAD440CBD8168E75C806FBE"",""assignmentId"":""c9760423-e9ff-4040-a6d3-db5eda1fb10e"",""projectId"":""a9f3d40c-5730-405c-b25e-1034c4c56f3f""}","https://test12345.live/?num_scrambled_semantic=8&num_scrambled_causal=4&num_scrambled_schematic=4&participantId=FBA0BCAAADAD440CBD8168E75C806FBE&assignmentId=c9760423-e9ff-4040-a6d3-db5eda1fb10e&projectId=a9f3d40c-5730-405c-b25e-1034c4c56f3f","FBA0BCAAADAD440CBD8168E75C806FBE-2025-08-07-19-04-57","","1213","","images/causal_sequence/museum_causal/museum_causal_ten.png","0","",""
"","","","","","image-button-response","54","459251","0.0-10.0-1.0-2.9","FBA0BCAAADAD440CBD8168E75C806FBE","FBA0BCAAADAD440CBD8168E75C806FBE","c9760423-e9ff-4040-a6d3-db5eda1fb10e","a9f3d40c-5730-405c-b25e-1034c4c56f3f","{""num_scrambled_semantic"":""8"",""num_scrambled_causal"":""4"",""num_scrambled_schematic"":""4"",""participantId"":""FBA0BCAAADAD440CBD8168E75C806FBE"",""assignmentId"":""c9760423-e9ff-4040-a6d3-db5eda1fb10e"",""projectId"":""a9f3d40c-5730-405c-b25e-1034c4c56f3f""}","https://test12345.live/?num_scrambled_semantic=8&num_scrambled_causal=4&num_scrambled_schematic=4&participantId=FBA0BCAAADAD440CBD8168E75C806FBE&assignmentId=c9760423-e9ff-4040-a6d3-db5eda1fb10e&projectId=a9f3d40c-5730-405c-b25e-1034c4c56f3f","FBA0BCAAADAD440CBD8168E75C806FBE-2025-08-07-19-04-57","","null","","[]","null","",""
"","","","","","html-audio-response","55","521658","0.0-11.0","FBA0BCAAADAD440CBD8168E75C806FBE","FBA0BCAAADAD440CBD8168E75C806FBE","c9760423-e9ff-4040-a6d3-db5eda1fb10e","a9f3d40c-5730-405c-b25e-1034c4c56f3f","{""num_scrambled_semantic"":""8"",""num_scrambled_causal"":""4"",""num_scrambled_schematic"":""4"",""participantId"":""FBA0BCAAADAD440CBD8168E75C806FBE"",""assignmentId"":""c9760423-e9ff-4040-a6d3-db5eda1fb10e"",""projectId"":""a9f3d40c-5730-405c-b25e-1034c4c56f3f""}","https://test12345.live/?num_scrambled_semantic=8&num_scrambled_causal=4&num_scrambled_schematic=4&participantId=FBA0BCAAADAD440CBD8168E75C806FBE&assignmentId=c9760423-e9ff-4040-a6d3-db5eda1fb10e&projectId=a9f3d40c-5730-405c-b25e-1034c4c56f3f","FBA0BCAAADAD440CBD8168E75C806FBE-2025-08-07-19-04-57","","27266","","[""<span style=\""color: red; font-size: 24px\""> NOW RECORDING</span><p>Please say out loud all the images you saw, as many as you can remember. The images can be said in any order.</p>""]","","1","museum_causal"
"","","","","","image-button-response","56","527674","0.0-12.0-0.0","FBA0BCAAADAD440CBD8168E75C806FBE","FBA0BCAAADAD440CBD8168E75C806FBE","c9760423-e9ff-4040-a6d3-db5eda1fb10e","a9f3d40c-5730-405c-b25e-1034c4c56f3f","{""num_scrambled_semantic"":""8"",""num_scrambled_causal"":""4"",""num_scrambled_schematic"":""4"",""participantId"":""FBA0BCAAADAD440CBD8168E75C806FBE"",""assignmentId"":""c9760423-e9ff-4040-a6d3-db5eda1fb10e"",""projectId"":""a9f3d40c-5730-405c-b25e-1034c4c56f3f""}","https://test12345.live/?num_scrambled_semantic=8&num_scrambled_causal=4&num_scrambled_schematic=4&participantId=FBA0BCAAADAD440CBD8168E75C806FBE&assignmentId=c9760423-e9ff-4040-a6d3-db5eda1fb10e&projectId=a9f3d40c-5730-405c-b25e-1034c4c56f3f","FBA0BCAAADAD440CBD8168E75C806FBE-2025-08-07-19-04-57","","null","","images/semantic_sequence/using_technology_semantic/using_technology_semantic_0.png","null","",""
"","","","","","image-button-response","57","532180","0.0-12.0-1.0-0.0","FBA0BCAAADAD440CBD8168E75C806FBE","FBA0BCAAADAD440CBD8168E75C806FBE","c9760423-e9ff-4040-a6d3-db5eda1fb10e","a9f3d40c-5730-405c-b25e-1034c4c56f3f","{""num_scrambled_semantic"":""8"",""num_scrambled_causal"":""4"",""num_scrambled_schematic"":""4"",""participantId"":""FBA0BCAAADAD440CBD8168E75C806FBE"",""assignmentId"":""c9760423-e9ff-4040-a6d3-db5eda1fb10e"",""projectId"":""a9f3d40c-5730-405c-b25e-1034c4c56f3f""}","https://test12345.live/?num_scrambled_semantic=8&num_scrambled_causal=4&num_scrambled_schematic=4&participantId=FBA0BCAAADAD440CBD8168E75C806FBE&assignmentId=c9760423-e9ff-4040-a6d3-db5eda1fb10e&projectId=a9f3d40c-5730-405c-b25e-1034c4c56f3f","FBA0BCAAADAD440CBD8168E75C806FBE-2025-08-07-19-04-57","","null","","images/semantic_sequence/using_technology_semantic/using_technology_semantic_7.png","null","",""
"","","","","","image-button-response","58","536187","0.0-12.0-1.0-1.0","FBA0BCAAADAD440CBD8168E75C806FBE","FBA0BCAAADAD440CBD8168E75C806FBE","c9760423-e9ff-4040-a6d3-db5eda1fb10e","a9f3d40c-5730-405c-b25e-1034c4c56f3f","{""num_scrambled_semantic"":""8"",""num_scrambled_causal"":""4"",""num_scrambled_schematic"":""4"",""participantId"":""FBA0BCAAADAD440CBD8168E75C806FBE"",""assignmentId"":""c9760423-e9ff-4040-a6d3-db5eda1fb10e"",""projectId"":""a9f3d40c-5730-405c-b25e-1034c4c56f3f""}","https://test12345.live/?num_scrambled_semantic=8&num_scrambled_causal=4&num_scrambled_schematic=4&participantId=FBA0BCAAADAD440CBD8168E75C806FBE&assignmentId=c9760423-e9ff-4040-a6d3-db5eda1fb10e&projectId=a9f3d40c-5730-405c-b25e-1034c4c56f3f","FBA0BCAAADAD440CBD8168E75C806FBE-2025-08-07-19-04-57","","null","","images/semantic_sequence/using_technology_semantic/using_technology_semantic_7.png","null","",""
"","","","","","image-button-response","59","538003","0.0-12.0-1.0-2.0","FBA0BCAAADAD440CBD8168E75C806FBE","FBA0BCAAADAD440CBD8168E75C806FBE","c9760423-e9ff-4040-a6d3-db5eda1fb10e","a9f3d40c-5730-405c-b25e-1034c4c56f3f","{""num_scrambled_semantic"":""8"",""num_scrambled_causal"":""4"",""num_scrambled_schematic"":""4"",""participantId"":""FBA0BCAAADAD440CBD8168E75C806FBE"",""assignmentId"":""c9760423-e9ff-4040-a6d3-db5eda1fb10e"",""projectId"":""a9f3d40c-5730-405c-b25e-1034c4c56f3f""}","https://test12345.live/?num_scrambled_semantic=8&num_scrambled_causal=4&num_scrambled_schematic=4&participantId=FBA0BCAAADAD440CBD8168E75C806FBE&assignmentId=c9760423-e9ff-4040-a6d3-db5eda1fb10e&projectId=a9f3d40c-5730-405c-b25e-1034c4c56f3f","FBA0BCAAADAD440CBD8168E75C806FBE-2025-08-07-19-04-57","","null","","[]","null","",""
"","","","","","image-button-response","60","542504","0.0-12.0-1.0-0.1","FBA0BCAAADAD440CBD8168E75C806FBE","FBA0BCAAADAD440CBD8168E75C806FBE","c9760423-e9ff-4040-a6d3-db5eda1fb10e","a9f3d40c-5730-405c-b25e-1034c4c56f3f","{""num_scrambled_semantic"":""8"",""num_scrambled_causal"":""4"",""num_scrambled_schematic"":""4"",""participantId"":""FBA0BCAAADAD440CBD8168E75C806FBE"",""assignmentId"":""c9760423-e9ff-4040-a6d3-db5eda1fb10e"",""projectId"":""a9f3d40c-5730-405c-b25e-1034c4c56f3f""}","https://test12345.live/?num_scrambled_semantic=8&num_scrambled_causal=4&num_scrambled_schematic=4&participantId=FBA0BCAAADAD440CBD8168E75C806FBE&assignmentId=c9760423-e9ff-4040-a6d3-db5eda1fb10e&projectId=a9f3d40c-5730-405c-b25e-1034c4c56f3f","FBA0BCAAADAD440CBD8168E75C806FBE-2025-08-07-19-04-57","","null","","images/semantic_sequence/using_technology_semantic/using_technology_semantic_6.png","null","",""
"","","","","","image-button-response","61","543346","0.0-12.0-1.0-1.1","FBA0BCAAADAD440CBD8168E75C806FBE","FBA0BCAAADAD440CBD8168E75C806FBE","c9760423-e9ff-4040-a6d3-db5eda1fb10e","a9f3d40c-5730-405c-b25e-1034c4c56f3f","{""num_scrambled_semantic"":""8"",""num_scrambled_causal"":""4"",""num_scrambled_schematic"":""4"",""participantId"":""FBA0BCAAADAD440CBD8168E75C806FBE"",""assignmentId"":""c9760423-e9ff-4040-a6d3-db5eda1fb10e"",""projectId"":""a9f3d40c-5730-405c-b25e-1034c4c56f3f""}","https://test12345.live/?num_scrambled_semantic=8&num_scrambled_causal=4&num_scrambled_schematic=4&participantId=FBA0BCAAADAD440CBD8168E75C806FBE&assignmentId=c9760423-e9ff-4040-a6d3-db5eda1fb10e&projectId=a9f3d40c-5730-405c-b25e-1034c4c56f3f","FBA0BCAAADAD440CBD8168E75C806FBE-2025-08-07-19-04-57","","841","","images/semantic_sequence/using_technology_semantic/using_technology_semantic_6.png","0","",""
"","","","","","image-button-response","62","545153","0.0-12.0-1.0-2.1","FBA0BCAAADAD440CBD8168E75C806FBE","FBA0BCAAADAD440CBD8168E75C806FBE","c9760423-e9ff-4040-a6d3-db5eda1fb10e","a9f3d40c-5730-405c-b25e-1034c4c56f3f","{""num_scrambled_semantic"":""8"",""num_scrambled_causal"":""4"",""num_scrambled_schematic"":""4"",""participantId"":""FBA0BCAAADAD440CBD8168E75C806FBE"",""assignmentId"":""c9760423-e9ff-4040-a6d3-db5eda1fb10e"",""projectId"":""a9f3d40c-5730-405c-b25e-1034c4c56f3f""}","https://test12345.live/?num_scrambled_semantic=8&num_scrambled_causal=4&num_scrambled_schematic=4&participantId=FBA0BCAAADAD440CBD8168E75C806FBE&assignmentId=c9760423-e9ff-4040-a6d3-db5eda1fb10e&projectId=a9f3d40c-5730-405c-b25e-1034c4c56f3f","FBA0BCAAADAD440CBD8168E75C806FBE-2025-08-07-19-04-57","","null","","[]","null","",""
"","","","","","image-button-response","63","549668","0.0-12.0-1.0-0.2","FBA0BCAAADAD440CBD8168E75C806FBE","FBA0BCAAADAD440CBD8168E75C806FBE","c9760423-e9ff-4040-a6d3-db5eda1fb10e","a9f3d40c-5730-405c-b25e-1034c4c56f3f","{""num_scrambled_semantic"":""8"",""num_scrambled_causal"":""4"",""num_scrambled_schematic"":""4"",""participantId"":""FBA0BCAAADAD440CBD8168E75C806FBE"",""assignmentId"":""c9760423-e9ff-4040-a6d3-db5eda1fb10e"",""projectId"":""a9f3d40c-5730-405c-b25e-1034c4c56f3f""}","https://test12345.live/?num_scrambled_semantic=8&num_scrambled_causal=4&num_scrambled_schematic=4&participantId=FBA0BCAAADAD440CBD8168E75C806FBE&assignmentId=c9760423-e9ff-4040-a6d3-db5eda1fb10e&projectId=a9f3d40c-5730-405c-b25e-1034c4c56f3f","FBA0BCAAADAD440CBD8168E75C806FBE-2025-08-07-19-04-57","","null","","images/semantic_sequence/using_technology_semantic/using_technology_semantic_ten.png","null","",""
"","","","","","image-button-response","64","550355","0.0-12.0-1.0-1.2","FBA0BCAAADAD440CBD8168E75C806FBE","FBA0BCAAADAD440CBD8168E75C806FBE","c9760423-e9ff-4040-a6d3-db5eda1fb10e","a9f3d40c-5730-405c-b25e-1034c4c56f3f","{""num_scrambled_semantic"":""8"",""num_scrambled_causal"":""4"",""num_scrambled_schematic"":""4"",""participantId"":""FBA0BCAAADAD440CBD8168E75C806FBE"",""assignmentId"":""c9760423-e9ff-4040-a6d3-db5eda1fb10e"",""projectId"":""a9f3d40c-5730-405c-b25e-1034c4c56f3f""}","https://test12345.live/?num_scrambled_semantic=8&num_scrambled_causal=4&num_scrambled_schematic=4&participantId=FBA0BCAAADAD440CBD8168E75C806FBE&assignmentId=c9760423-e9ff-4040-a6d3-db5eda1fb10e&projectId=a9f3d40c-5730-405c-b25e-1034c4c56f3f","FBA0BCAAADAD440CBD8168E75C806FBE-2025-08-07-19-04-57","","686","","images/semantic_sequence/using_technology_semantic/using_technology_semantic_ten.png","0","",""
"","","","","","image-button-response","65","552163","0.0-12.0-1.0-2.2","FBA0BCAAADAD440CBD8168E75C806FBE","FBA0BCAAADAD440CBD8168E75C806FBE","c9760423-e9ff-4040-a6d3-db5eda1fb10e","a9f3d40c-5730-405c-b25e-1034c4c56f3f","{""num_scrambled_semantic"":""8"",""num_scrambled_causal"":""4"",""num_scrambled_schematic"":""4"",""participantId"":""FBA0BCAAADAD440CBD8168E75C806FBE"",""assignmentId"":""c9760423-e9ff-4040-a6d3-db5eda1fb10e"",""projectId"":""a9f3d40c-5730-405c-b25e-1034c4c56f3f""}","https://test12345.live/?num_scrambled_semantic=8&num_scrambled_causal=4&num_scrambled_schematic=4&participantId=FBA0BCAAADAD440CBD8168E75C806FBE&assignmentId=c9760423-e9ff-4040-a6d3-db5eda1fb10e&projectId=a9f3d40c-5730-405c-b25e-1034c4c56f3f","FBA0BCAAADAD440CBD8168E75C806FBE-2025-08-07-19-04-57","","null","","[]","null","",""
"","","","","","image-button-response","66","556678","0.0-12.0-1.0-0.3","FBA0BCAAADAD440CBD8168E75C806FBE","FBA0BCAAADAD440CBD8168E75C806FBE","c9760423-e9ff-4040-a6d3-db5eda1fb10e","a9f3d40c-5730-405c-b25e-1034c4c56f3f","{""num_scrambled_semantic"":""8"",""num_scrambled_causal"":""4"",""num_scrambled_schematic"":""4"",""participantId"":""FBA0BCAAADAD440CBD8168E75C806FBE"",""assignmentId"":""c9760423-e9ff-4040-a6d3-db5eda1fb10e"",""projectId"":""a9f3d40c-5730-405c-b25e-1034c4c56f3f""}","https://test12345.live/?num_scrambled_semantic=8&num_scrambled_causal=4&num_scrambled_schematic=4&participantId=FBA0BCAAADAD440CBD8168E75C806FBE&assignmentId=c9760423-e9ff-4040-a6d3-db5eda1fb10e&projectId=a9f3d40c-5730-405c-b25e-1034c4c56f3f","FBA0BCAAADAD440CBD8168E75C806FBE-2025-08-07-19-04-57","","null","","images/semantic_sequence/using_technology_semantic/using_technology_semantic_4.png","null","",""
"","","","","","image-button-response","67","557419","0.0-12.0-1.0-1.3","FBA0BCAAADAD440CBD8168E75C806FBE","FBA0BCAAADAD440CBD8168E75C806FBE","c9760423-e9ff-4040-a6d3-db5eda1fb10e","a9f3d40c-5730-405c-b25e-1034c4c56f3f","{""num_scrambled_semantic"":""8"",""num_scrambled_causal"":""4"",""num_scrambled_schematic"":""4"",""participantId"":""FBA0BCAAADAD440CBD8168E75C806FBE"",""assignmentId"":""c9760423-e9ff-4040-a6d3-db5eda1fb10e"",""projectId"":""a9f3d40c-5730-405c-b25e-1034c4c56f3f""}","https://test12345.live/?num_scrambled_semantic=8&num_scrambled_causal=4&num_scrambled_schematic=4&participantId=FBA0BCAAADAD440CBD8168E75C806FBE&assignmentId=c9760423-e9ff-4040-a6d3-db5eda1fb10e&projectId=a9f3d40c-5730-405c-b25e-1034c4c56f3f","FBA0BCAAADAD440CBD8168E75C806FBE-2025-08-07-19-04-57","","740","","images/semantic_sequence/using_technology_semantic/using_technology_semantic_4.png","0","",""
"","","","","","image-button-response","68","559229","0.0-12.0-1.0-2.3","FBA0BCAAADAD440CBD8168E75C806FBE","FBA0BCAAADAD440CBD8168E75C806FBE","c9760423-e9ff-4040-a6d3-db5eda1fb10e","a9f3d40c-5730-405c-b25e-1034c4c56f3f","{""num_scrambled_semantic"":""8"",""num_scrambled_causal"":""4"",""num_scrambled_schematic"":""4"",""participantId"":""FBA0BCAAADAD440CBD8168E75C806FBE"",""assignmentId"":""c9760423-e9ff-4040-a6d3-db5eda1fb10e"",""projectId"":""a9f3d40c-5730-405c-b25e-1034c4c56f3f""}","https://test12345.live/?num_scrambled_semantic=8&num_scrambled_causal=4&num_scrambled_schematic=4&participantId=FBA0BCAAADAD440CBD8168E75C806FBE&assignmentId=c9760423-e9ff-4040-a6d3-db5eda1fb10e&projectId=a9f3d40c-5730-405c-b25e-1034c4c56f3f","FBA0BCAAADAD440CBD8168E75C806FBE-2025-08-07-19-04-57","","null","","[]","null","",""
"","","","","","image-button-response","69","563744","0.0-12.0-1.0-0.4","FBA0BCAAADAD440CBD8168E75C806FBE","FBA0BCAAADAD440CBD8168E75C806FBE","c9760423-e9ff-4040-a6d3-db5eda1fb10e","a9f3d40c-5730-405c-b25e-1034c4c56f3f","{""num_scrambled_semantic"":""8"",""num_scrambled_causal"":""4"",""num_scrambled_schematic"":""4"",""participantId"":""FBA0BCAAADAD440CBD8168E75C806FBE"",""assignmentId"":""c9760423-e9ff-4040-a6d3-db5eda1fb10e"",""projectId"":""a9f3d40c-5730-405c-b25e-1034c4c56f3f""}","https://test12345.live/?num_scrambled_semantic=8&num_scrambled_causal=4&num_scrambled_schematic=4&participantId=FBA0BCAAADAD440CBD8168E75C806FBE&assignmentId=c9760423-e9ff-4040-a6d3-db5eda1fb10e&projectId=a9f3d40c-5730-405c-b25e-1034c4c56f3f","FBA0BCAAADAD440CBD8168E75C806FBE-2025-08-07-19-04-57","","null","","images/semantic_sequence/using_technology_semantic/using_technology_semantic_1.png","null","",""
"","","","","","image-button-response","70","565359","0.0-12.0-1.0-1.4","FBA0BCAAADAD440CBD8168E75C806FBE","FBA0BCAAADAD440CBD8168E75C806FBE","c9760423-e9ff-4040-a6d3-db5eda1fb10e","a9f3d40c-5730-405c-b25e-1034c4c56f3f","{""num_scrambled_semantic"":""8"",""num_scrambled_causal"":""4"",""num_scrambled_schematic"":""4"",""participantId"":""FBA0BCAAADAD440CBD8168E75C806FBE"",""assignmentId"":""c9760423-e9ff-4040-a6d3-db5eda1fb10e"",""projectId"":""a9f3d40c-5730-405c-b25e-1034c4c56f3f""}","https://test12345.live/?num_scrambled_semantic=8&num_scrambled_causal=4&num_scrambled_schematic=4&participantId=FBA0BCAAADAD440CBD8168E75C806FBE&assignmentId=c9760423-e9ff-4040-a6d3-db5eda1fb10e&projectId=a9f3d40c-5730-405c-b25e-1034c4c56f3f","FBA0BCAAADAD440CBD8168E75C806FBE-2025-08-07-19-04-57","","1614","","images/semantic_sequence/using_technology_semantic/using_technology_semantic_1.png","0","",""
"","","","","","image-button-response","71","567171","0.0-12.0-1.0-2.4","FBA0BCAAADAD440CBD8168E75C806FBE","FBA0BCAAADAD440CBD8168E75C806FBE","c9760423-e9ff-4040-a6d3-db5eda1fb10e","a9f3d40c-5730-405c-b25e-1034c4c56f3f","{""num_scrambled_semantic"":""8"",""num_scrambled_causal"":""4"",""num_scrambled_schematic"":""4"",""participantId"":""FBA0BCAAADAD440CBD8168E75C806FBE"",""assignmentId"":""c9760423-e9ff-4040-a6d3-db5eda1fb10e"",""projectId"":""a9f3d40c-5730-405c-b25e-1034c4c56f3f""}","https://test12345.live/?num_scrambled_semantic=8&num_scrambled_causal=4&num_scrambled_schematic=4&participantId=FBA0BCAAADAD440CBD8168E75C806FBE&assignmentId=c9760423-e9ff-4040-a6d3-db5eda1fb10e&projectId=a9f3d40c-5730-405c-b25e-1034c4c56f3f","FBA0BCAAADAD440CBD8168E75C806FBE-2025-08-07-19-04-57","","null","","[]","null","",""
"","","","","","image-button-response","72","571688","0.0-12.0-1.0-0.5","FBA0BCAAADAD440CBD8168E75C806FBE","FBA0BCAAADAD440CBD8168E75C806FBE","c9760423-e9ff-4040-a6d3-db5eda1fb10e","a9f3d40c-5730-405c-b25e-1034c4c56f3f","{""num_scrambled_semantic"":""8"",""num_scrambled_causal"":""4"",""num_scrambled_schematic"":""4"",""participantId"":""FBA0BCAAADAD440CBD8168E75C806FBE"",""assignmentId"":""c9760423-e9ff-4040-a6d3-db5eda1fb10e"",""projectId"":""a9f3d40c-5730-405c-b25e-1034c4c56f3f""}","https://test12345.live/?num_scrambled_semantic=8&num_scrambled_causal=4&num_scrambled_schematic=4&participantId=FBA0BCAAADAD440CBD8168E75C806FBE&assignmentId=c9760423-e9ff-4040-a6d3-db5eda1fb10e&projectId=a9f3d40c-5730-405c-b25e-1034c4c56f3f","FBA0BCAAADAD440CBD8168E75C806FBE-2025-08-07-19-04-57","","null","","images/semantic_sequence/using_technology_semantic/using_technology_semantic_9.png","null","",""
"","","","","","image-button-response","73","574066","0.0-12.0-1.0-1.5","FBA0BCAAADAD440CBD8168E75C806FBE","FBA0BCAAADAD440CBD8168E75C806FBE","c9760423-e9ff-4040-a6d3-db5eda1fb10e","a9f3d40c-5730-405c-b25e-1034c4c56f3f","{""num_scrambled_semantic"":""8"",""num_scrambled_causal"":""4"",""num_scrambled_schematic"":""4"",""participantId"":""FBA0BCAAADAD440CBD8168E75C806FBE"",""assignmentId"":""c9760423-e9ff-4040-a6d3-db5eda1fb10e"",""projectId"":""a9f3d40c-5730-405c-b25e-1034c4c56f3f""}","https://test12345.live/?num_scrambled_semantic=8&num_scrambled_causal=4&num_scrambled_schematic=4&participantId=FBA0BCAAADAD440CBD8168E75C806FBE&assignmentId=c9760423-e9ff-4040-a6d3-db5eda1fb10e&projectId=a9f3d40c-5730-405c-b25e-1034c4c56f3f","FBA0BCAAADAD440CBD8168E75C806FBE-2025-08-07-19-04-57","","2377","","images/semantic_sequence/using_technology_semantic/using_technology_semantic_9.png","0","",""
"","","","","","image-button-response","74","575871","0.0-12.0-1.0-2.5","FBA0BCAAADAD440CBD8168E75C806FBE","FBA0BCAAADAD440CBD8168E75C806FBE","c9760423-e9ff-4040-a6d3-db5eda1fb10e","a9f3d40c-5730-405c-b25e-1034c4c56f3f","{""num_scrambled_semantic"":""8"",""num_scrambled_causal"":""4"",""num_scrambled_schematic"":""4"",""participantId"":""FBA0BCAAADAD440CBD8168E75C806FBE"",""assignmentId"":""c9760423-e9ff-4040-a6d3-db5eda1fb10e"",""projectId"":""a9f3d40c-5730-405c-b25e-1034c4c56f3f""}","https://test12345.live/?num_scrambled_semantic=8&num_scrambled_causal=4&num_scrambled_schematic=4&participantId=FBA0BCAAADAD440CBD8168E75C806FBE&assignmentId=c9760423-e9ff-4040-a6d3-db5eda1fb10e&projectId=a9f3d40c-5730-405c-b25e-1034c4c56f3f","FBA0BCAAADAD440CBD8168E75C806FBE-2025-08-07-19-04-57","","null","","[]","null","",""
"","","","","","image-button-response","75","580384","0.0-12.0-1.0-0.6","FBA0BCAAADAD440CBD8168E75C806FBE","FBA0BCAAADAD440CBD8168E75C806FBE","c9760423-e9ff-4040-a6d3-db5eda1fb10e","a9f3d40c-5730-405c-b25e-1034c4c56f3f","{""num_scrambled_semantic"":""8"",""num_scrambled_causal"":""4"",""num_scrambled_schematic"":""4"",""participantId"":""FBA0BCAAADAD440CBD8168E75C806FBE"",""assignmentId"":""c9760423-e9ff-4040-a6d3-db5eda1fb10e"",""projectId"":""a9f3d40c-5730-405c-b25e-1034c4c56f3f""}","https://test12345.live/?num_scrambled_semantic=8&num_scrambled_causal=4&num_scrambled_schematic=4&participantId=FBA0BCAAADAD440CBD8168E75C806FBE&assignmentId=c9760423-e9ff-4040-a6d3-db5eda1fb10e&projectId=a9f3d40c-5730-405c-b25e-1034c4c56f3f","FBA0BCAAADAD440CBD8168E75C806FBE-2025-08-07-19-04-57","","null","","images/semantic_sequence/using_technology_semantic/using_technology_semantic_3.png","null","",""
"","","","","","image-button-response","76","581105","0.0-12.0-1.0-1.6","FBA0BCAAADAD440CBD8168E75C806FBE","FBA0BCAAADAD440CBD8168E75C806FBE","c9760423-e9ff-4040-a6d3-db5eda1fb10e","a9f3d40c-5730-405c-b25e-1034c4c56f3f","{""num_scrambled_semantic"":""8"",""num_scrambled_causal"":""4"",""num_scrambled_schematic"":""4"",""participantId"":""FBA0BCAAADAD440CBD8168E75C806FBE"",""assignmentId"":""c9760423-e9ff-4040-a6d3-db5eda1fb10e"",""projectId"":""a9f3d40c-5730-405c-b25e-1034c4c56f3f""}","https://test12345.live/?num_scrambled_semantic=8&num_scrambled_causal=4&num_scrambled_schematic=4&participantId=FBA0BCAAADAD440CBD8168E75C806FBE&assignmentId=c9760423-e9ff-4040-a6d3-db5eda1fb10e&projectId=a9f3d40c-5730-405c-b25e-1034c4c56f3f","FBA0BCAAADAD440CBD8168E75C806FBE-2025-08-07-19-04-57","","720","","images/semantic_sequence/using_technology_semantic/using_technology_semantic_3.png","0","",""
"","","","","","image-button-response","77","582906","0.0-12.0-1.0-2.6","FBA0BCAAADAD440CBD8168E75C806FBE","FBA0BCAAADAD440CBD8168E75C806FBE","c9760423-e9ff-4040-a6d3-db5eda1fb10e","a9f3d40c-5730-405c-b25e-1034c4c56f3f","{""num_scrambled_semantic"":""8"",""num_scrambled_causal"":""4"",""num_scrambled_schematic"":""4"",""participantId"":""FBA0BCAAADAD440CBD8168E75C806FBE"",""assignmentId"":""c9760423-e9ff-4040-a6d3-db5eda1fb10e"",""projectId"":""a9f3d40c-5730-405c-b25e-1034c4c56f3f""}","https://test12345.live/?num_scrambled_semantic=8&num_scrambled_causal=4&num_scrambled_schematic=4&participantId=FBA0BCAAADAD440CBD8168E75C806FBE&assignmentId=c9760423-e9ff-4040-a6d3-db5eda1fb10e&projectId=a9f3d40c-5730-405c-b25e-1034c4c56f3f","FBA0BCAAADAD440CBD8168E75C806FBE-2025-08-07-19-04-57","","null","","[]","null","",""
"","","","","","image-button-response","78","587407","0.0-12.0-1.0-0.7","FBA0BCAAADAD440CBD8168E75C806FBE","FBA0BCAAADAD440CBD8168E75C806FBE","c9760423-e9ff-4040-a6d3-db5eda1fb10e","a9f3d40c-5730-405c-b25e-1034c4c56f3f","{""num_scrambled_semantic"":""8"",""num_scrambled_causal"":""4"",""num_scrambled_schematic"":""4"",""participantId"":""FBA0BCAAADAD440CBD8168E75C806FBE"",""assignmentId"":""c9760423-e9ff-4040-a6d3-db5eda1fb10e"",""projectId"":""a9f3d40c-5730-405c-b25e-1034c4c56f3f""}","https://test12345.live/?num_scrambled_semantic=8&num_scrambled_causal=4&num_scrambled_schematic=4&participantId=FBA0BCAAADAD440CBD8168E75C806FBE&assignmentId=c9760423-e9ff-4040-a6d3-db5eda1fb10e&projectId=a9f3d40c-5730-405c-b25e-1034c4c56f3f","FBA0BCAAADAD440CBD8168E75C806FBE-2025-08-07-19-04-57","","null","","images/semantic_sequence/using_technology_semantic/using_technology_semantic_8.png","null","",""
"","","","","","image-button-response","79","588514","0.0-12.0-1.0-1.7","FBA0BCAAADAD440CBD8168E75C806FBE","FBA0BCAAADAD440CBD8168E75C806FBE","c9760423-e9ff-4040-a6d3-db5eda1fb10e","a9f3d40c-5730-405c-b25e-1034c4c56f3f","{""num_scrambled_semantic"":""8"",""num_scrambled_causal"":""4"",""num_scrambled_schematic"":""4"",""participantId"":""FBA0BCAAADAD440CBD8168E75C806FBE"",""assignmentId"":""c9760423-e9ff-4040-a6d3-db5eda1fb10e"",""projectId"":""a9f3d40c-5730-405c-b25e-1034c4c56f3f""}","https://test12345.live/?num_scrambled_semantic=8&num_scrambled_causal=4&num_scrambled_schematic=4&participantId=FBA0BCAAADAD440CBD8168E75C806FBE&assignmentId=c9760423-e9ff-4040-a6d3-db5eda1fb10e&projectId=a9f3d40c-5730-405c-b25e-1034c4c56f3f","FBA0BCAAADAD440CBD8168E75C806FBE-2025-08-07-19-04-57","","1106","","images/semantic_sequence/using_technology_semantic/using_technology_semantic_8.png","0","",""
"","","","","","image-button-response","80","590321","0.0-12.0-1.0-2.7","FBA0BCAAADAD440CBD8168E75C806FBE","FBA0BCAAADAD440CBD8168E75C806FBE","c9760423-e9ff-4040-a6d3-db5eda1fb10e","a9f3d40c-5730-405c-b25e-1034c4c56f3f","{""num_scrambled_semantic"":""8"",""num_scrambled_causal"":""4"",""num_scrambled_schematic"":""4"",""participantId"":""FBA0BCAAADAD440CBD8168E75C806FBE"",""assignmentId"":""c9760423-e9ff-4040-a6d3-db5eda1fb10e"",""projectId"":""a9f3d40c-5730-405c-b25e-1034c4c56f3f""}","https://test12345.live/?num_scrambled_semantic=8&num_scrambled_causal=4&num_scrambled_schematic=4&participantId=FBA0BCAAADAD440CBD8168E75C806FBE&assignmentId=c9760423-e9ff-4040-a6d3-db5eda1fb10e&projectId=a9f3d40c-5730-405c-b25e-1034c4c56f3f","FBA0BCAAADAD440CBD8168E75C806FBE-2025-08-07-19-04-57","","null","","[]","null","",""
"","","","","","image-button-response","81","594822","0.0-12.0-1.0-0.8","FBA0BCAAADAD440CBD8168E75C806FBE","FBA0BCAAADAD440CBD8168E75C806FBE","c9760423-e9ff-4040-a6d3-db5eda1fb10e","a9f3d40c-5730-405c-b25e-1034c4c56f3f","{""num_scrambled_semantic"":""8"",""num_scrambled_causal"":""4"",""num_scrambled_schematic"":""4"",""participantId"":""FBA0BCAAADAD440CBD8168E75C806FBE"",""assignmentId"":""c9760423-e9ff-4040-a6d3-db5eda1fb10e"",""projectId"":""a9f3d40c-5730-405c-b25e-1034c4c56f3f""}","https://test12345.live/?num_scrambled_semantic=8&num_scrambled_causal=4&num_scrambled_schematic=4&participantId=FBA0BCAAADAD440CBD8168E75C806FBE&assignmentId=c9760423-e9ff-4040-a6d3-db5eda1fb10e&projectId=a9f3d40c-5730-405c-b25e-1034c4c56f3f","FBA0BCAAADAD440CBD8168E75C806FBE-2025-08-07-19-04-57","","null","","images/semantic_sequence/using_technology_semantic/using_technology_semantic_2.png","null","",""
"","","","","","image-button-response","82","597666","0.0-12.0-1.0-1.8","FBA0BCAAADAD440CBD8168E75C806FBE","FBA0BCAAADAD440CBD8168E75C806FBE","c9760423-e9ff-4040-a6d3-db5eda1fb10e","a9f3d40c-5730-405c-b25e-1034c4c56f3f","{""num_scrambled_semantic"":""8"",""num_scrambled_causal"":""4"",""num_scrambled_schematic"":""4"",""participantId"":""FBA0BCAAADAD440CBD8168E75C806FBE"",""assignmentId"":""c9760423-e9ff-4040-a6d3-db5eda1fb10e"",""projectId"":""a9f3d40c-5730-405c-b25e-1034c4c56f3f""}","https://test12345.live/?num_scrambled_semantic=8&num_scrambled_causal=4&num_scrambled_schematic=4&participantId=FBA0BCAAADAD440CBD8168E75C806FBE&assignmentId=c9760423-e9ff-4040-a6d3-db5eda1fb10e&projectId=a9f3d40c-5730-405c-b25e-1034c4c56f3f","FBA0BCAAADAD440CBD8168E75C806FBE-2025-08-07-19-04-57","","2843","","images/semantic_sequence/using_technology_semantic/using_technology_semantic_2.png","0","",""
"","","","","","image-button-response","83","599475","0.0-12.0-1.0-2.8","FBA0BCAAADAD440CBD8168E75C806FBE","FBA0BCAAADAD440CBD8168E75C806FBE","c9760423-e9ff-4040-a6d3-db5eda1fb10e","a9f3d40c-5730-405c-b25e-1034c4c56f3f","{""num_scrambled_semantic"":""8"",""num_scrambled_causal"":""4"",""num_scrambled_schematic"":""4"",""participantId"":""FBA0BCAAADAD440CBD8168E75C806FBE"",""assignmentId"":""c9760423-e9ff-4040-a6d3-db5eda1fb10e"",""projectId"":""a9f3d40c-5730-405c-b25e-1034c4c56f3f""}","https://test12345.live/?num_scrambled_semantic=8&num_scrambled_causal=4&num_scrambled_schematic=4&participantId=FBA0BCAAADAD440CBD8168E75C806FBE&assignmentId=c9760423-e9ff-4040-a6d3-db5eda1fb10e&projectId=a9f3d40c-5730-405c-b25e-1034c4c56f3f","FBA0BCAAADAD440CBD8168E75C806FBE-2025-08-07-19-04-57","","null","","[]","null","",""
"","","","","","image-button-response","84","603987","0.0-12.0-1.0-0.9","FBA0BCAAADAD440CBD8168E75C806FBE","FBA0BCAAADAD440CBD8168E75C806FBE","c9760423-e9ff-4040-a6d3-db5eda1fb10e","a9f3d40c-5730-405c-b25e-1034c4c56f3f","{""num_scrambled_semantic"":""8"",""num_scrambled_causal"":""4"",""num_scrambled_schematic"":""4"",""participantId"":""FBA0BCAAADAD440CBD8168E75C806FBE"",""assignmentId"":""c9760423-e9ff-4040-a6d3-db5eda1fb10e"",""projectId"":""a9f3d40c-5730-405c-b25e-1034c4c56f3f""}","https://test12345.live/?num_scrambled_semantic=8&num_scrambled_causal=4&num_scrambled_schematic=4&participantId=FBA0BCAAADAD440CBD8168E75C806FBE&assignmentId=c9760423-e9ff-4040-a6d3-db5eda1fb10e&projectId=a9f3d40c-5730-405c-b25e-1034c4c56f3f","FBA0BCAAADAD440CBD8168E75C806FBE-2025-08-07-19-04-57","","null","","images/semantic_sequence/using_technology_semantic/using_technology_semantic_5.png","null","",""
"","","","","","image-button-response","85","606225","0.0-12.0-1.0-1.9","FBA0BCAAADAD440CBD8168E75C806FBE","FBA0BCAAADAD440CBD8168E75C806FBE","c9760423-e9ff-4040-a6d3-db5eda1fb10e","a9f3d40c-5730-405c-b25e-1034c4c56f3f","{""num_scrambled_semantic"":""8"",""num_scrambled_causal"":""4"",""num_scrambled_schematic"":""4"",""participantId"":""FBA0BCAAADAD440CBD8168E75C806FBE"",""assignmentId"":""c9760423-e9ff-4040-a6d3-db5eda1fb10e"",""projectId"":""a9f3d40c-5730-405c-b25e-1034c4c56f3f""}","https://test12345.live/?num_scrambled_semantic=8&num_scrambled_causal=4&num_scrambled_schematic=4&participantId=FBA0BCAAADAD440CBD8168E75C806FBE&assignmentId=c9760423-e9ff-4040-a6d3-db5eda1fb10e&projectId=a9f3d40c-5730-405c-b25e-1034c4c56f3f","FBA0BCAAADAD440CBD8168E75C806FBE-2025-08-07-19-04-57","","2237","","images/semantic_sequence/using_technology_semantic/using_technology_semantic_5.png","0","",""
"","","","","","image-button-response","86","608032","0.0-12.0-1.0-2.9","FBA0BCAAADAD440CBD8168E75C806FBE","FBA0BCAAADAD440CBD8168E75C806FBE","c9760423-e9ff-4040-a6d3-db5eda1fb10e","a9f3d40c-5730-405c-b25e-1034c4c56f3f","{""num_scrambled_semantic"":""8"",""num_scrambled_causal"":""4"",""num_scrambled_schematic"":""4"",""participantId"":""FBA0BCAAADAD440CBD8168E75C806FBE"",""assignmentId"":""c9760423-e9ff-4040-a6d3-db5eda1fb10e"",""projectId"":""a9f3d40c-5730-405c-b25e-1034c4c56f3f""}","https://test12345.live/?num_scrambled_semantic=8&num_scrambled_causal=4&num_scrambled_schematic=4&participantId=FBA0BCAAADAD440CBD8168E75C806FBE&assignmentId=c9760423-e9ff-4040-a6d3-db5eda1fb10e&projectId=a9f3d40c-5730-405c-b25e-1034c4c56f3f","FBA0BCAAADAD440CBD8168E75C806FBE-2025-08-07-19-04-57","","null","","[]","null","",""
"","","","","","html-audio-response","87","639698","0.0-13.0","FBA0BCAAADAD440CBD8168E75C806FBE","FBA0BCAAADAD440CBD8168E75C806FBE","c9760423-e9ff-4040-a6d3-db5eda1fb10e","a9f3d40c-5730-405c-b25e-1034c4c56f3f","{""num_scrambled_semantic"":""8"",""num_scrambled_causal"":""4"",""num_scrambled_schematic"":""4"",""participantId"":""FBA0BCAAADAD440CBD8168E75C806FBE"",""assignmentId"":""c9760423-e9ff-4040-a6d3-db5eda1fb10e"",""projectId"":""a9f3d40c-5730-405c-b25e-1034c4c56f3f""}","https://test12345.live/?num_scrambled_semantic=8&num_scrambled_causal=4&num_scrambled_schematic=4&participantId=FBA0BCAAADAD440CBD8168E75C806FBE&assignmentId=c9760423-e9ff-4040-a6d3-db5eda1fb10e&projectId=a9f3d40c-5730-405c-b25e-1034c4c56f3f","FBA0BCAAADAD440CBD8168E75C806FBE-2025-08-07-19-04-57","","25935","","[""<span style=\""color: red; font-size: 24px\""> NOW RECORDING</span><p>Please say out loud all the images you saw, as many as you can remember. The images can be said in any order.</p>""]","","1","using_technology_semantic"
"","","","","","image-button-response","88","645710","0.0-14.0-0.0","FBA0BCAAADAD440CBD8168E75C806FBE","FBA0BCAAADAD440CBD8168E75C806FBE","c9760423-e9ff-4040-a6d3-db5eda1fb10e","a9f3d40c-5730-405c-b25e-1034c4c56f3f","{""num_scrambled_semantic"":""8"",""num_scrambled_causal"":""4"",""num_scrambled_schematic"":""4"",""participantId"":""FBA0BCAAADAD440CBD8168E75C806FBE"",""assignmentId"":""c9760423-e9ff-4040-a6d3-db5eda1fb10e"",""projectId"":""a9f3d40c-5730-405c-b25e-1034c4c56f3f""}","https://test12345.live/?num_scrambled_semantic=8&num_scrambled_causal=4&num_scrambled_schematic=4&participantId=FBA0BCAAADAD440CBD8168E75C806FBE&assignmentId=c9760423-e9ff-4040-a6d3-db5eda1fb10e&projectId=a9f3d40c-5730-405c-b25e-1034c4c56f3f","FBA0BCAAADAD440CBD8168E75C806FBE-2025-08-07-19-04-57","","null","","images/causal_sequence/the_performance_causal/the_performance_causal_0.png","null","",""
"","","","","","image-button-response","89","650225","0.0-14.0-1.0-0.0","FBA0BCAAADAD440CBD8168E75C806FBE","FBA0BCAAADAD440CBD8168E75C806FBE","c9760423-e9ff-4040-a6d3-db5eda1fb10e","a9f3d40c-5730-405c-b25e-1034c4c56f3f","{""num_scrambled_semantic"":""8"",""num_scrambled_causal"":""4"",""num_scrambled_schematic"":""4"",""participantId"":""FBA0BCAAADAD440CBD8168E75C806FBE"",""assignmentId"":""c9760423-e9ff-4040-a6d3-db5eda1fb10e"",""projectId"":""a9f3d40c-5730-405c-b25e-1034c4c56f3f""}","https://test12345.live/?num_scrambled_semantic=8&num_scrambled_causal=4&num_scrambled_schematic=4&participantId=FBA0BCAAADAD440CBD8168E75C806FBE&assignmentId=c9760423-e9ff-4040-a6d3-db5eda1fb10e&projectId=a9f3d40c-5730-405c-b25e-1034c4c56f3f","FBA0BCAAADAD440CBD8168E75C806FBE-2025-08-07-19-04-57","","null","","images/causal_sequence/the_performance_causal/the_performance_causal_7.png","null","",""
"","","","","","image-button-response","90","652972","0.0-14.0-1.0-1.0","FBA0BCAAADAD440CBD8168E75C806FBE","FBA0BCAAADAD440CBD8168E75C806FBE","c9760423-e9ff-4040-a6d3-db5eda1fb10e","a9f3d40c-5730-405c-b25e-1034c4c56f3f","{""num_scrambled_semantic"":""8"",""num_scrambled_causal"":""4"",""num_scrambled_schematic"":""4"",""participantId"":""FBA0BCAAADAD440CBD8168E75C806FBE"",""assignmentId"":""c9760423-e9ff-4040-a6d3-db5eda1fb10e"",""projectId"":""a9f3d40c-5730-405c-b25e-1034c4c56f3f""}","https://test12345.live/?num_scrambled_semantic=8&num_scrambled_causal=4&num_scrambled_schematic=4&participantId=FBA0BCAAADAD440CBD8168E75C806FBE&assignmentId=c9760423-e9ff-4040-a6d3-db5eda1fb10e&projectId=a9f3d40c-5730-405c-b25e-1034c4c56f3f","FBA0BCAAADAD440CBD8168E75C806FBE-2025-08-07-19-04-57","","2745","","images/causal_sequence/the_performance_causal/the_performance_causal_7.png","0","",""
"","","","","","image-button-response","91","654787","0.0-14.0-1.0-2.0","FBA0BCAAADAD440CBD8168E75C806FBE","FBA0BCAAADAD440CBD8168E75C806FBE","c9760423-e9ff-4040-a6d3-db5eda1fb10e","a9f3d40c-5730-405c-b25e-1034c4c56f3f","{""num_scrambled_semantic"":""8"",""num_scrambled_causal"":""4"",""num_scrambled_schematic"":""4"",""participantId"":""FBA0BCAAADAD440CBD8168E75C806FBE"",""assignmentId"":""c9760423-e9ff-4040-a6d3-db5eda1fb10e"",""projectId"":""a9f3d40c-5730-405c-b25e-1034c4c56f3f""}","https://test12345.live/?num_scrambled_semantic=8&num_scrambled_causal=4&num_scrambled_schematic=4&participantId=FBA0BCAAADAD440CBD8168E75C806FBE&assignmentId=c9760423-e9ff-4040-a6d3-db5eda1fb10e&projectId=a9f3d40c-5730-405c-b25e-1034c4c56f3f","FBA0BCAAADAD440CBD8168E75C806FBE-2025-08-07-19-04-57","","null","","[]","null","",""
"","","","","","image-button-response","92","659296","0.0-14.0-1.0-0.1","FBA0BCAAADAD440CBD8168E75C806FBE","FBA0BCAAADAD440CBD8168E75C806FBE","c9760423-e9ff-4040-a6d3-db5eda1fb10e","a9f3d40c-5730-405c-b25e-1034c4c56f3f","{""num_scrambled_semantic"":""8"",""num_scrambled_causal"":""4"",""num_scrambled_schematic"":""4"",""participantId"":""FBA0BCAAADAD440CBD8168E75C806FBE"",""assignmentId"":""c9760423-e9ff-4040-a6d3-db5eda1fb10e"",""projectId"":""a9f3d40c-5730-405c-b25e-1034c4c56f3f""}","https://test12345.live/?num_scrambled_semantic=8&num_scrambled_causal=4&num_scrambled_schematic=4&participantId=FBA0BCAAADAD440CBD8168E75C806FBE&assignmentId=c9760423-e9ff-4040-a6d3-db5eda1fb10e&projectId=a9f3d40c-5730-405c-b25e-1034c4c56f3f","FBA0BCAAADAD440CBD8168E75C806FBE-2025-08-07-19-04-57","","null","","images/causal_sequence/the_performance_causal/the_performance_causal_9 (2).png","null","",""
"","","","","","image-button-response","93","663304","0.0-14.0-1.0-1.1","FBA0BCAAADAD440CBD8168E75C806FBE","FBA0BCAAADAD440CBD8168E75C806FBE","c9760423-e9ff-4040-a6d3-db5eda1fb10e","a9f3d40c-5730-405c-b25e-1034c4c56f3f","{""num_scrambled_semantic"":""8"",""num_scrambled_causal"":""4"",""num_scrambled_schematic"":""4"",""participantId"":""FBA0BCAAADAD440CBD8168E75C806FBE"",""assignmentId"":""c9760423-e9ff-4040-a6d3-db5eda1fb10e"",""projectId"":""a9f3d40c-5730-405c-b25e-1034c4c56f3f""}","https://test12345.live/?num_scrambled_semantic=8&num_scrambled_causal=4&num_scrambled_schematic=4&participantId=FBA0BCAAADAD440CBD8168E75C806FBE&assignmentId=c9760423-e9ff-4040-a6d3-db5eda1fb10e&projectId=a9f3d40c-5730-405c-b25e-1034c4c56f3f","FBA0BCAAADAD440CBD8168E75C806FBE-2025-08-07-19-04-57","","null","","images/causal_sequence/the_performance_causal/the_performance_causal_9 (2).png","null","",""
"","","","","","image-button-response","94","665105","0.0-14.0-1.0-2.1","FBA0BCAAADAD440CBD8168E75C806FBE","FBA0BCAAADAD440CBD8168E75C806FBE","c9760423-e9ff-4040-a6d3-db5eda1fb10e","a9f3d40c-5730-405c-b25e-1034c4c56f3f","{""num_scrambled_semantic"":""8"",""num_scrambled_causal"":""4"",""num_scrambled_schematic"":""4"",""participantId"":""FBA0BCAAADAD440CBD8168E75C806FBE"",""assignmentId"":""c9760423-e9ff-4040-a6d3-db5eda1fb10e"",""projectId"":""a9f3d40c-5730-405c-b25e-1034c4c56f3f""}","https://test12345.live/?num_scrambled_semantic=8&num_scrambled_causal=4&num_scrambled_schematic=4&participantId=FBA0BCAAADAD440CBD8168E75C806FBE&assignmentId=c9760423-e9ff-4040-a6d3-db5eda1fb10e&projectId=a9f3d40c-5730-405c-b25e-1034c4c56f3f","FBA0BCAAADAD440CBD8168E75C806FBE-2025-08-07-19-04-57","","null","","[]","null","",""
"","","","","","image-button-response","95","669610","0.0-14.0-1.0-0.2","FBA0BCAAADAD440CBD8168E75C806FBE","FBA0BCAAADAD440CBD8168E75C806FBE","c9760423-e9ff-4040-a6d3-db5eda1fb10e","a9f3d40c-5730-405c-b25e-1034c4c56f3f","{""num_scrambled_semantic"":""8"",""num_scrambled_causal"":""4"",""num_scrambled_schematic"":""4"",""participantId"":""FBA0BCAAADAD440CBD8168E75C806FBE"",""assignmentId"":""c9760423-e9ff-4040-a6d3-db5eda1fb10e"",""projectId"":""a9f3d40c-5730-405c-b25e-1034c4c56f3f""}","https://test12345.live/?num_scrambled_semantic=8&num_scrambled_causal=4&num_scrambled_schematic=4&participantId=FBA0BCAAADAD440CBD8168E75C806FBE&assignmentId=c9760423-e9ff-4040-a6d3-db5eda1fb10e&projectId=a9f3d40c-5730-405c-b25e-1034c4c56f3f","FBA0BCAAADAD440CBD8168E75C806FBE-2025-08-07-19-04-57","","null","","images/causal_sequence/the_performance_causal/the_performance_causal_5.png","null","",""
"","","","","","image-button-response","96","670413","0.0-14.0-1.0-1.2","FBA0BCAAADAD440CBD8168E75C806FBE","FBA0BCAAADAD440CBD8168E75C806FBE","c9760423-e9ff-4040-a6d3-db5eda1fb10e","a9f3d40c-5730-405c-b25e-1034c4c56f3f","{""num_scrambled_semantic"":""8"",""num_scrambled_causal"":""4"",""num_scrambled_schematic"":""4"",""participantId"":""FBA0BCAAADAD440CBD8168E75C806FBE"",""assignmentId"":""c9760423-e9ff-4040-a6d3-db5eda1fb10e"",""projectId"":""a9f3d40c-5730-405c-b25e-1034c4c56f3f""}","https://test12345.live/?num_scrambled_semantic=8&num_scrambled_causal=4&num_scrambled_schematic=4&participantId=FBA0BCAAADAD440CBD8168E75C806FBE&assignmentId=c9760423-e9ff-4040-a6d3-db5eda1fb10e&projectId=a9f3d40c-5730-405c-b25e-1034c4c56f3f","FBA0BCAAADAD440CBD8168E75C806FBE-2025-08-07-19-04-57","","801","","images/causal_sequence/the_performance_causal/the_performance_causal_5.png","0","",""
"","","","","","image-button-response","97","672215","0.0-14.0-1.0-2.2","FBA0BCAAADAD440CBD8168E75C806FBE","FBA0BCAAADAD440CBD8168E75C806FBE","c9760423-e9ff-4040-a6d3-db5eda1fb10e","a9f3d40c-5730-405c-b25e-1034c4c56f3f","{""num_scrambled_semantic"":""8"",""num_scrambled_causal"":""4"",""num_scrambled_schematic"":""4"",""participantId"":""FBA0BCAAADAD440CBD8168E75C806FBE"",""assignmentId"":""c9760423-e9ff-4040-a6d3-db5eda1fb10e"",""projectId"":""a9f3d40c-5730-405c-b25e-1034c4c56f3f""}","https://test12345.live/?num_scrambled_semantic=8&num_scrambled_causal=4&num_scrambled_schematic=4&participantId=FBA0BCAAADAD440CBD8168E75C806FBE&assignmentId=c9760423-e9ff-4040-a6d3-db5eda1fb10e&projectId=a9f3d40c-5730-405c-b25e-1034c4c56f3f","FBA0BCAAADAD440CBD8168E75C806FBE-2025-08-07-19-04-57","","null","","[]","null","",""
"","","","","","image-button-response","98","676720","0.0-14.0-1.0-0.3","FBA0BCAAADAD440CBD8168E75C806FBE","FBA0BCAAADAD440CBD8168E75C806FBE","c9760423-e9ff-4040-a6d3-db5eda1fb10e","a9f3d40c-5730-405c-b25e-1034c4c56f3f","{""num_scrambled_semantic"":""8"",""num_scrambled_causal"":""4"",""num_scrambled_schematic"":""4"",""participantId"":""FBA0BCAAADAD440CBD8168E75C806FBE"",""assignmentId"":""c9760423-e9ff-4040-a6d3-db5eda1fb10e"",""projectId"":""a9f3d40c-5730-405c-b25e-1034c4c56f3f""}","https://test12345.live/?num_scrambled_semantic=8&num_scrambled_causal=4&num_scrambled_schematic=4&participantId=FBA0BCAAADAD440CBD8168E75C806FBE&assignmentId=c9760423-e9ff-4040-a6d3-db5eda1fb10e&projectId=a9f3d40c-5730-405c-b25e-1034c4c56f3f","FBA0BCAAADAD440CBD8168E75C806FBE-2025-08-07-19-04-57","","null","","images/causal_sequence/the_performance_causal/the_performance_causal_4.png","null","",""
"","","","","","image-button-response","99","677592","0.0-14.0-1.0-1.3","FBA0BCAAADAD440CBD8168E75C806FBE","FBA0BCAAADAD440CBD8168E75C806FBE","c9760423-e9ff-4040-a6d3-db5eda1fb10e","a9f3d40c-5730-405c-b25e-1034c4c56f3f","{""num_scrambled_semantic"":""8"",""num_scrambled_causal"":""4"",""num_scrambled_schematic"":""4"",""participantId"":""FBA0BCAAADAD440CBD8168E75C806FBE"",""assignmentId"":""c9760423-e9ff-4040-a6d3-db5eda1fb10e"",""projectId"":""a9f3d40c-5730-405c-b25e-1034c4c56f3f""}","https://test12345.live/?num_scrambled_semantic=8&num_scrambled_causal=4&num_scrambled_schematic=4&participantId=FBA0BCAAADAD440CBD8168E75C806FBE&assignmentId=c9760423-e9ff-4040-a6d3-db5eda1fb10e&projectId=a9f3d40c-5730-405c-b25e-1034c4c56f3f","FBA0BCAAADAD440CBD8168E75C806FBE-2025-08-07-19-04-57","","872","","images/causal_sequence/the_performance_causal/the_performance_causal_4.png","0","",""
"","","","","","image-button-response","100","679407","0.0-14.0-1.0-2.3","FBA0BCAAADAD440CBD8168E75C806FBE","FBA0BCAAADAD440CBD8168E75C806FBE","c9760423-e9ff-4040-a6d3-db5eda1fb10e","a9f3d40c-5730-405c-b25e-1034c4c56f3f","{""num_scrambled_semantic"":""8"",""num_scrambled_causal"":""4"",""num_scrambled_schematic"":""4"",""participantId"":""FBA0BCAAADAD440CBD8168E75C806FBE"",""assignmentId"":""c9760423-e9ff-4040-a6d3-db5eda1fb10e"",""projectId"":""a9f3d40c-5730-405c-b25e-1034c4c56f3f""}","https://test12345.live/?num_scrambled_semantic=8&num_scrambled_causal=4&num_scrambled_schematic=4&participantId=FBA0BCAAADAD440CBD8168E75C806FBE&assignmentId=c9760423-e9ff-4040-a6d3-db5eda1fb10e&projectId=a9f3d40c-5730-405c-b25e-1034c4c56f3f","FBA0BCAAADAD440CBD8168E75C806FBE-2025-08-07-19-04-57","","null","","[]","null","",""
"","","","","","image-button-response","101","683910","0.0-14.0-1.0-0.4","FBA0BCAAADAD440CBD8168E75C806FBE","FBA0BCAAADAD440CBD8168E75C806FBE","c9760423-e9ff-4040-a6d3-db5eda1fb10e","a9f3d40c-5730-405c-b25e-1034c4c56f3f","{""num_scrambled_semantic"":""8"",""num_scrambled_causal"":""4"",""num_scrambled_schematic"":""4"",""participantId"":""FBA0BCAAADAD440CBD8168E75C806FBE"",""assignmentId"":""c9760423-e9ff-4040-a6d3-db5eda1fb10e"",""projectId"":""a9f3d40c-5730-405c-b25e-1034c4c56f3f""}","https://test12345.live/?num_scrambled_semantic=8&num_scrambled_causal=4&num_scrambled_schematic=4&participantId=FBA0BCAAADAD440CBD8168E75C806FBE&assignmentId=c9760423-e9ff-4040-a6d3-db5eda1fb10e&projectId=a9f3d40c-5730-405c-b25e-1034c4c56f3f","FBA0BCAAADAD440CBD8168E75C806FBE-2025-08-07-19-04-57","","null","","images/causal_sequence/the_performance_causal/the_performance_causal_6.png","null","",""
"","","","","","image-button-response","102","685396","0.0-14.0-1.0-1.4","FBA0BCAAADAD440CBD8168E75C806FBE","FBA0BCAAADAD440CBD8168E75C806FBE","c9760423-e9ff-4040-a6d3-db5eda1fb10e","a9f3d40c-5730-405c-b25e-1034c4c56f3f","{""num_scrambled_semantic"":""8"",""num_scrambled_causal"":""4"",""num_scrambled_schematic"":""4"",""participantId"":""FBA0BCAAADAD440CBD8168E75C806FBE"",""assignmentId"":""c9760423-e9ff-4040-a6d3-db5eda1fb10e"",""projectId"":""a9f3d40c-5730-405c-b25e-1034c4c56f3f""}","https://test12345.live/?num_scrambled_semantic=8&num_scrambled_causal=4&num_scrambled_schematic=4&participantId=FBA0BCAAADAD440CBD8168E75C806FBE&assignmentId=c9760423-e9ff-4040-a6d3-db5eda1fb10e&projectId=a9f3d40c-5730-405c-b25e-1034c4c56f3f","FBA0BCAAADAD440CBD8168E75C806FBE-2025-08-07-19-04-57","","1486","","images/causal_sequence/the_performance_causal/the_performance_causal_6.png","0","",""
"","","","","","image-button-response","103","687210","0.0-14.0-1.0-2.4","FBA0BCAAADAD440CBD8168E75C806FBE","FBA0BCAAADAD440CBD8168E75C806FBE","c9760423-e9ff-4040-a6d3-db5eda1fb10e","a9f3d40c-5730-405c-b25e-1034c4c56f3f","{""num_scrambled_semantic"":""8"",""num_scrambled_causal"":""4"",""num_scrambled_schematic"":""4"",""participantId"":""FBA0BCAAADAD440CBD8168E75C806FBE"",""assignmentId"":""c9760423-e9ff-4040-a6d3-db5eda1fb10e"",""projectId"":""a9f3d40c-5730-405c-b25e-1034c4c56f3f""}","https://test12345.live/?num_scrambled_semantic=8&num_scrambled_causal=4&num_scrambled_schematic=4&participantId=FBA0BCAAADAD440CBD8168E75C806FBE&assignmentId=c9760423-e9ff-4040-a6d3-db5eda1fb10e&projectId=a9f3d40c-5730-405c-b25e-1034c4c56f3f","FBA0BCAAADAD440CBD8168E75C806FBE-2025-08-07-19-04-57","","null","","[]","null","",""
"","","","","","image-button-response","104","691715","0.0-14.0-1.0-0.5","FBA0BCAAADAD440CBD8168E75C806FBE","FBA0BCAAADAD440CBD8168E75C806FBE","c9760423-e9ff-4040-a6d3-db5eda1fb10e","a9f3d40c-5730-405c-b25e-1034c4c56f3f","{""num_scrambled_semantic"":""8"",""num_scrambled_causal"":""4"",""num_scrambled_schematic"":""4"",""participantId"":""FBA0BCAAADAD440CBD8168E75C806FBE"",""assignmentId"":""c9760423-e9ff-4040-a6d3-db5eda1fb10e"",""projectId"":""a9f3d40c-5730-405c-b25e-1034c4c56f3f""}","https://test12345.live/?num_scrambled_semantic=8&num_scrambled_causal=4&num_scrambled_schematic=4&participantId=FBA0BCAAADAD440CBD8168E75C806FBE&assignmentId=c9760423-e9ff-4040-a6d3-db5eda1fb10e&projectId=a9f3d40c-5730-405c-b25e-1034c4c56f3f","FBA0BCAAADAD440CBD8168E75C806FBE-2025-08-07-19-04-57","","null","","images/causal_sequence/the_performance_causal/the_performance_causal_3.png","null","",""
"","","","","","image-button-response","105","693372","0.0-14.0-1.0-1.5","FBA0BCAAADAD440CBD8168E75C806FBE","FBA0BCAAADAD440CBD8168E75C806FBE","c9760423-e9ff-4040-a6d3-db5eda1fb10e","a9f3d40c-5730-405c-b25e-1034c4c56f3f","{""num_scrambled_semantic"":""8"",""num_scrambled_causal"":""4"",""num_scrambled_schematic"":""4"",""participantId"":""FBA0BCAAADAD440CBD8168E75C806FBE"",""assignmentId"":""c9760423-e9ff-4040-a6d3-db5eda1fb10e"",""projectId"":""a9f3d40c-5730-405c-b25e-1034c4c56f3f""}","https://test12345.live/?num_scrambled_semantic=8&num_scrambled_causal=4&num_scrambled_schematic=4&participantId=FBA0BCAAADAD440CBD8168E75C806FBE&assignmentId=c9760423-e9ff-4040-a6d3-db5eda1fb10e&projectId=a9f3d40c-5730-405c-b25e-1034c4c56f3f","FBA0BCAAADAD440CBD8168E75C806FBE-2025-08-07-19-04-57","","1656","","images/causal_sequence/the_performance_causal/the_performance_causal_3.png","0","",""
"","","","","","image-button-response","106","695187","0.0-14.0-1.0-2.5","FBA0BCAAADAD440CBD8168E75C806FBE","FBA0BCAAADAD440CBD8168E75C806FBE","c9760423-e9ff-4040-a6d3-db5eda1fb10e","a9f3d40c-5730-405c-b25e-1034c4c56f3f","{""num_scrambled_semantic"":""8"",""num_scrambled_causal"":""4"",""num_scrambled_schematic"":""4"",""participantId"":""FBA0BCAAADAD440CBD8168E75C806FBE"",""assignmentId"":""c9760423-e9ff-4040-a6d3-db5eda1fb10e"",""projectId"":""a9f3d40c-5730-405c-b25e-1034c4c56f3f""}","https://test12345.live/?num_scrambled_semantic=8&num_scrambled_causal=4&num_scrambled_schematic=4&participantId=FBA0BCAAADAD440CBD8168E75C806FBE&assignmentId=c9760423-e9ff-4040-a6d3-db5eda1fb10e&projectId=a9f3d40c-5730-405c-b25e-1034c4c56f3f","FBA0BCAAADAD440CBD8168E75C806FBE-2025-08-07-19-04-57","","null","","[]","null","",""
"","","","","","image-button-response","107","699692","0.0-14.0-1.0-0.6","FBA0BCAAADAD440CBD8168E75C806FBE","FBA0BCAAADAD440CBD8168E75C806FBE","c9760423-e9ff-4040-a6d3-db5eda1fb10e","a9f3d40c-5730-405c-b25e-1034c4c56f3f","{""num_scrambled_semantic"":""8"",""num_scrambled_causal"":""4"",""num_scrambled_schematic"":""4"",""participantId"":""FBA0BCAAADAD440CBD8168E75C806FBE"",""assignmentId"":""c9760423-e9ff-4040-a6d3-db5eda1fb10e"",""projectId"":""a9f3d40c-5730-405c-b25e-1034c4c56f3f""}","https://test12345.live/?num_scrambled_semantic=8&num_scrambled_causal=4&num_scrambled_schematic=4&participantId=FBA0BCAAADAD440CBD8168E75C806FBE&assignmentId=c9760423-e9ff-4040-a6d3-db5eda1fb10e&projectId=a9f3d40c-5730-405c-b25e-1034c4c56f3f","FBA0BCAAADAD440CBD8168E75C806FBE-2025-08-07-19-04-57","","null","","images/causal_sequence/the_performance_causal/the_performance_causal_2.png","null","",""
"","","","","","image-button-response","108","700527","0.0-14.0-1.0-1.6","FBA0BCAAADAD440CBD8168E75C806FBE","FBA0BCAAADAD440CBD8168E75C806FBE","c9760423-e9ff-4040-a6d3-db5eda1fb10e","a9f3d40c-5730-405c-b25e-1034c4c56f3f","{""num_scrambled_semantic"":""8"",""num_scrambled_causal"":""4"",""num_scrambled_schematic"":""4"",""participantId"":""FBA0BCAAADAD440CBD8168E75C806FBE"",""assignmentId"":""c9760423-e9ff-4040-a6d3-db5eda1fb10e"",""projectId"":""a9f3d40c-5730-405c-b25e-1034c4c56f3f""}","https://test12345.live/?num_scrambled_semantic=8&num_scrambled_causal=4&num_scrambled_schematic=4&participantId=FBA0BCAAADAD440CBD8168E75C806FBE&assignmentId=c9760423-e9ff-4040-a6d3-db5eda1fb10e&projectId=a9f3d40c-5730-405c-b25e-1034c4c56f3f","FBA0BCAAADAD440CBD8168E75C806FBE-2025-08-07-19-04-57","","834","","images/causal_sequence/the_performance_causal/the_performance_causal_2.png","0","",""
"","","","","","image-button-response","109","702342","0.0-14.0-1.0-2.6","FBA0BCAAADAD440CBD8168E75C806FBE","FBA0BCAAADAD440CBD8168E75C806FBE","c9760423-e9ff-4040-a6d3-db5eda1fb10e","a9f3d40c-5730-405c-b25e-1034c4c56f3f","{""num_scrambled_semantic"":""8"",""num_scrambled_causal"":""4"",""num_scrambled_schematic"":""4"",""participantId"":""FBA0BCAAADAD440CBD8168E75C806FBE"",""assignmentId"":""c9760423-e9ff-4040-a6d3-db5eda1fb10e"",""projectId"":""a9f3d40c-5730-405c-b25e-1034c4c56f3f""}","https://test12345.live/?num_scrambled_semantic=8&num_scrambled_causal=4&num_scrambled_schematic=4&participantId=FBA0BCAAADAD440CBD8168E75C806FBE&assignmentId=c9760423-e9ff-4040-a6d3-db5eda1fb10e&projectId=a9f3d40c-5730-405c-b25e-1034c4c56f3f","FBA0BCAAADAD440CBD8168E75C806FBE-2025-08-07-19-04-57","","null","","[]","null","",""
"","","","","","image-button-response","110","706844","0.0-14.0-1.0-0.7","FBA0BCAAADAD440CBD8168E75C806FBE","FBA0BCAAADAD440CBD8168E75C806FBE","c9760423-e9ff-4040-a6d3-db5eda1fb10e","a9f3d40c-5730-405c-b25e-1034c4c56f3f","{""num_scrambled_semantic"":""8"",""num_scrambled_causal"":""4"",""num_scrambled_schematic"":""4"",""participantId"":""FBA0BCAAADAD440CBD8168E75C806FBE"",""assignmentId"":""c9760423-e9ff-4040-a6d3-db5eda1fb10e"",""projectId"":""a9f3d40c-5730-405c-b25e-1034c4c56f3f""}","https://test12345.live/?num_scrambled_semantic=8&num_scrambled_causal=4&num_scrambled_schematic=4&participantId=FBA0BCAAADAD440CBD8168E75C806FBE&assignmentId=c9760423-e9ff-4040-a6d3-db5eda1fb10e&projectId=a9f3d40c-5730-405c-b25e-1034c4c56f3f","FBA0BCAAADAD440CBD8168E75C806FBE-2025-08-07-19-04-57","","null","","images/causal_sequence/the_performance_causal/the_performance_causal_1.png","null","",""
"","","","","","image-button-response","111","708807","0.0-14.0-1.0-1.7","FBA0BCAAADAD440CBD8168E75C806FBE","FBA0BCAAADAD440CBD8168E75C806FBE","c9760423-e9ff-4040-a6d3-db5eda1fb10e","a9f3d40c-5730-405c-b25e-1034c4c56f3f","{""num_scrambled_semantic"":""8"",""num_scrambled_causal"":""4"",""num_scrambled_schematic"":""4"",""participantId"":""FBA0BCAAADAD440CBD8168E75C806FBE"",""assignmentId"":""c9760423-e9ff-4040-a6d3-db5eda1fb10e"",""projectId"":""a9f3d40c-5730-405c-b25e-1034c4c56f3f""}","https://test12345.live/?num_scrambled_semantic=8&num_scrambled_causal=4&num_scrambled_schematic=4&participantId=FBA0BCAAADAD440CBD8168E75C806FBE&assignmentId=c9760423-e9ff-4040-a6d3-db5eda1fb10e&projectId=a9f3d40c-5730-405c-b25e-1034c4c56f3f","FBA0BCAAADAD440CBD8168E75C806FBE-2025-08-07-19-04-57","","1962","","images/causal_sequence/the_performance_causal/the_performance_causal_1.png","0","",""
"","","","","","image-button-response","112","710617","0.0-14.0-1.0-2.7","FBA0BCAAADAD440CBD8168E75C806FBE","FBA0BCAAADAD440CBD8168E75C806FBE","c9760423-e9ff-4040-a6d3-db5eda1fb10e","a9f3d40c-5730-405c-b25e-1034c4c56f3f","{""num_scrambled_semantic"":""8"",""num_scrambled_causal"":""4"",""num_scrambled_schematic"":""4"",""participantId"":""FBA0BCAAADAD440CBD8168E75C806FBE"",""assignmentId"":""c9760423-e9ff-4040-a6d3-db5eda1fb10e"",""projectId"":""a9f3d40c-5730-405c-b25e-1034c4c56f3f""}","https://test12345.live/?num_scrambled_semantic=8&num_scrambled_causal=4&num_scrambled_schematic=4&participantId=FBA0BCAAADAD440CBD8168E75C806FBE&assignmentId=c9760423-e9ff-4040-a6d3-db5eda1fb10e&projectId=a9f3d40c-5730-405c-b25e-1034c4c56f3f","FBA0BCAAADAD440CBD8168E75C806FBE-2025-08-07-19-04-57","","null","","[]","null","",""
"","","","","","image-button-response","113","715126","0.0-14.0-1.0-0.8","FBA0BCAAADAD440CBD8168E75C806FBE","FBA0BCAAADAD440CBD8168E75C806FBE","c9760423-e9ff-4040-a6d3-db5eda1fb10e","a9f3d40c-5730-405c-b25e-1034c4c56f3f","{""num_scrambled_semantic"":""8"",""num_scrambled_causal"":""4"",""num_scrambled_schematic"":""4"",""participantId"":""FBA0BCAAADAD440CBD8168E75C806FBE"",""assignmentId"":""c9760423-e9ff-4040-a6d3-db5eda1fb10e"",""projectId"":""a9f3d40c-5730-405c-b25e-1034c4c56f3f""}","https://test12345.live/?num_scrambled_semantic=8&num_scrambled_causal=4&num_scrambled_schematic=4&participantId=FBA0BCAAADAD440CBD8168E75C806FBE&assignmentId=c9760423-e9ff-4040-a6d3-db5eda1fb10e&projectId=a9f3d40c-5730-405c-b25e-1034c4c56f3f","FBA0BCAAADAD440CBD8168E75C806FBE-2025-08-07-19-04-57","","null","","images/causal_sequence/the_performance_causal/the_performance_causal_9.png","null","",""
"","","","","","image-button-response","114","718550","0.0-14.0-1.0-1.8","FBA0BCAAADAD440CBD8168E75C806FBE","FBA0BCAAADAD440CBD8168E75C806FBE","c9760423-e9ff-4040-a6d3-db5eda1fb10e","a9f3d40c-5730-405c-b25e-1034c4c56f3f","{""num_scrambled_semantic"":""8"",""num_scrambled_causal"":""4"",""num_scrambled_schematic"":""4"",""participantId"":""FBA0BCAAADAD440CBD8168E75C806FBE"",""assignmentId"":""c9760423-e9ff-4040-a6d3-db5eda1fb10e"",""projectId"":""a9f3d40c-5730-405c-b25e-1034c4c56f3f""}","https://test12345.live/?num_scrambled_semantic=8&num_scrambled_causal=4&num_scrambled_schematic=4&participantId=FBA0BCAAADAD440CBD8168E75C806FBE&assignmentId=c9760423-e9ff-4040-a6d3-db5eda1fb10e&projectId=a9f3d40c-5730-405c-b25e-1034c4c56f3f","FBA0BCAAADAD440CBD8168E75C806FBE-2025-08-07-19-04-57","","3422","","images/causal_sequence/the_performance_causal/the_performance_causal_9.png","0","",""
