"success","timeout","failed_images","failed_audio","failed_video","trial_type","trial_index","time_elapsed","internal_node_id","subject","subject_id","study_id","session_id","urlvar","current_url","audio_id","view_history","rt","device_id","stimulus","response","estimated_stimulus_onset","seq_name"
"true","false","[]","[]","[]","preload","0","2262","0.0-0.0","FE63079ABABB4127A56A3267CD5022D9","FE63079ABABB4127A56A3267CD5022D9","6e69ca83-665f-45e3-9449-4dc725f7b516","051c06f1-75cc-4548-856d-4923ddaba0dc","{""num_scrambled_semantic"":""8"",""num_scrambled_causal"":""4"",""num_scrambled_schematic"":""4"",""participantId"":""FE63079ABABB4127A56A3267CD5022D9"",""assignmentId"":""6e69ca83-665f-45e3-9449-4dc725f7b516"",""projectId"":""051c06f1-75cc-4548-856d-4923ddaba0dc""}","https://test12345.live/?num_scrambled_semantic=8&num_scrambled_causal=4&num_scrambled_schematic=4&participantId=FE63079ABABB4127A56A3267CD5022D9&assignmentId=6e69ca83-665f-45e3-9449-4dc725f7b516&projectId=051c06f1-75cc-4548-856d-4923ddaba0dc","FE63079ABABB4127A56A3267CD5022D9-2025-05-15-18-55-20","","","","","","",""
"","","","","","instructions","1","16436","0.0-1.0","FE63079ABABB4127A56A3267CD5022D9","FE63079ABABB4127A56A3267CD5022D9","6e69ca83-665f-45e3-9449-4dc725f7b516","051c06f1-75cc-4548-856d-4923ddaba0dc","{""num_scrambled_semantic"":""8"",""num_scrambled_causal"":""4"",""num_scrambled_schematic"":""4"",""participantId"":""FE63079ABABB4127A56A3267CD5022D9"",""assignmentId"":""6e69ca83-665f-45e3-9449-4dc725f7b516"",""projectId"":""051c06f1-75cc-4548-856d-4923ddaba0dc""}","https://test12345.live/?num_scrambled_semantic=8&num_scrambled_causal=4&num_scrambled_schematic=4&participantId=FE63079ABABB4127A56A3267CD5022D9&assignmentId=6e69ca83-665f-45e3-9449-4dc725f7b516&projectId=051c06f1-75cc-4548-856d-4923ddaba0dc","FE63079ABABB4127A56A3267CD5022D9-2025-05-15-18-55-20","[{""page_index"":0,""viewing_time"":14172}]","14173","","","","",""
"","","","","","instructions","2","22451","0.0-2.0","FE63079ABABB4127A56A3267CD5022D9","FE63079ABABB4127A56A3267CD5022D9","6e69ca83-665f-45e3-9449-4dc725f7b516","051c06f1-75cc-4548-856d-4923ddaba0dc","{""num_scrambled_semantic"":""8"",""num_scrambled_causal"":""4"",""num_scrambled_schematic"":""4"",""participantId"":""FE63079ABABB4127A56A3267CD5022D9"",""assignmentId"":""6e69ca83-665f-45e3-9449-4dc725f7b516"",""projectId"":""051c06f1-75cc-4548-856d-4923ddaba0dc""}","https://test12345.live/?num_scrambled_semantic=8&num_scrambled_causal=4&num_scrambled_schematic=4&participantId=FE63079ABABB4127A56A3267CD5022D9&assignmentId=6e69ca83-665f-45e3-9449-4dc725f7b516&projectId=051c06f1-75cc-4548-856d-4923ddaba0dc","FE63079ABABB4127A56A3267CD5022D9-2025-05-15-18-55-20","[{""page_index"":0,""viewing_time"":6014}]","6015","","","","",""
"true","","","","","fullscreen","3","26170","0.0-3.0","FE63079ABABB4127A56A3267CD5022D9","FE63079ABABB4127A56A3267CD5022D9","6e69ca83-665f-45e3-9449-4dc725f7b516","051c06f1-75cc-4548-856d-4923ddaba0dc","{""num_scrambled_semantic"":""8"",""num_scrambled_causal"":""4"",""num_scrambled_schematic"":""4"",""participantId"":""FE63079ABABB4127A56A3267CD5022D9"",""assignmentId"":""6e69ca83-665f-45e3-9449-4dc725f7b516"",""projectId"":""051c06f1-75cc-4548-856d-4923ddaba0dc""}","https://test12345.live/?num_scrambled_semantic=8&num_scrambled_causal=4&num_scrambled_schematic=4&participantId=FE63079ABABB4127A56A3267CD5022D9&assignmentId=6e69ca83-665f-45e3-9449-4dc725f7b516&projectId=051c06f1-75cc-4548-856d-4923ddaba0dc","FE63079ABABB4127A56A3267CD5022D9-2025-05-15-18-55-20","","2708","","","","",""
"","","","","","initialize-microphone","4","31281","0.0-4.0-0.0","FE63079ABABB4127A56A3267CD5022D9","FE63079ABABB4127A56A3267CD5022D9","6e69ca83-665f-45e3-9449-4dc725f7b516","051c06f1-75cc-4548-856d-4923ddaba0dc","{""num_scrambled_semantic"":""8"",""num_scrambled_causal"":""4"",""num_scrambled_schematic"":""4"",""participantId"":""FE63079ABABB4127A56A3267CD5022D9"",""assignmentId"":""6e69ca83-665f-45e3-9449-4dc725f7b516"",""projectId"":""051c06f1-75cc-4548-856d-4923ddaba0dc""}","https://test12345.live/?num_scrambled_semantic=8&num_scrambled_causal=4&num_scrambled_schematic=4&participantId=FE63079ABABB4127A56A3267CD5022D9&assignmentId=6e69ca83-665f-45e3-9449-4dc725f7b516&projectId=051c06f1-75cc-4548-856d-4923ddaba0dc","FE63079ABABB4127A56A3267CD5022D9-2025-05-15-18-55-20","","","87be8820e5578a2f572eec7414cff2e59975ee86a303fafd711f7e2e2c302e2e","","","",""
"","","","","","html-audio-response","5","43567","0.0-4.0-1.0","FE63079ABABB4127A56A3267CD5022D9","FE63079ABABB4127A56A3267CD5022D9","6e69ca83-665f-45e3-9449-4dc725f7b516","051c06f1-75cc-4548-856d-4923ddaba0dc","{""num_scrambled_semantic"":""8"",""num_scrambled_causal"":""4"",""num_scrambled_schematic"":""4"",""participantId"":""FE63079ABABB4127A56A3267CD5022D9"",""assignmentId"":""6e69ca83-665f-45e3-9449-4dc725f7b516"",""projectId"":""051c06f1-75cc-4548-856d-4923ddaba0dc""}","https://test12345.live/?num_scrambled_semantic=8&num_scrambled_causal=4&num_scrambled_schematic=4&participantId=FE63079ABABB4127A56A3267CD5022D9&assignmentId=6e69ca83-665f-45e3-9449-4dc725f7b516&projectId=051c06f1-75cc-4548-856d-4923ddaba0dc","FE63079ABABB4127A56A3267CD5022D9-2025-05-15-18-55-20","","4642","","<span style=""color: red; font-size: 24px""> NOW RECORDING</span>
        <p>Please test Microphone</p>","","29",""
"","","","","","html-button-response","6","45506","0.0-4.0-2.0","FE63079ABABB4127A56A3267CD5022D9","FE63079ABABB4127A56A3267CD5022D9","6e69ca83-665f-45e3-9449-4dc725f7b516","051c06f1-75cc-4548-856d-4923ddaba0dc","{""num_scrambled_semantic"":""8"",""num_scrambled_causal"":""4"",""num_scrambled_schematic"":""4"",""participantId"":""FE63079ABABB4127A56A3267CD5022D9"",""assignmentId"":""6e69ca83-665f-45e3-9449-4dc725f7b516"",""projectId"":""051c06f1-75cc-4548-856d-4923ddaba0dc""}","https://test12345.live/?num_scrambled_semantic=8&num_scrambled_causal=4&num_scrambled_schematic=4&participantId=FE63079ABABB4127A56A3267CD5022D9&assignmentId=6e69ca83-665f-45e3-9449-4dc725f7b516&projectId=051c06f1-75cc-4548-856d-4923ddaba0dc","FE63079ABABB4127A56A3267CD5022D9-2025-05-15-18-55-20","","1938","","<p style=""font-size:48px; color:red;"">Is Microphone OK?</p>","1","",""
"","","","","","instructions","7","51789","0.0-5.0","FE63079ABABB4127A56A3267CD5022D9","FE63079ABABB4127A56A3267CD5022D9","6e69ca83-665f-45e3-9449-4dc725f7b516","051c06f1-75cc-4548-856d-4923ddaba0dc","{""num_scrambled_semantic"":""8"",""num_scrambled_causal"":""4"",""num_scrambled_schematic"":""4"",""participantId"":""FE63079ABABB4127A56A3267CD5022D9"",""assignmentId"":""6e69ca83-665f-45e3-9449-4dc725f7b516"",""projectId"":""051c06f1-75cc-4548-856d-4923ddaba0dc""}","https://test12345.live/?num_scrambled_semantic=8&num_scrambled_causal=4&num_scrambled_schematic=4&participantId=FE63079ABABB4127A56A3267CD5022D9&assignmentId=6e69ca83-665f-45e3-9449-4dc725f7b516&projectId=051c06f1-75cc-4548-856d-4923ddaba0dc","FE63079ABABB4127A56A3267CD5022D9-2025-05-15-18-55-20","[{""page_index"":0,""viewing_time"":2906},{""page_index"":1,""viewing_time"":3376}]","6282","","","","",""
"","","","","","image-button-response","8","57811","0.0-6.0-0.0","FE63079ABABB4127A56A3267CD5022D9","FE63079ABABB4127A56A3267CD5022D9","6e69ca83-665f-45e3-9449-4dc725f7b516","051c06f1-75cc-4548-856d-4923ddaba0dc","{""num_scrambled_semantic"":""8"",""num_scrambled_causal"":""4"",""num_scrambled_schematic"":""4"",""participantId"":""FE63079ABABB4127A56A3267CD5022D9"",""assignmentId"":""6e69ca83-665f-45e3-9449-4dc725f7b516"",""projectId"":""051c06f1-75cc-4548-856d-4923ddaba0dc""}","https://test12345.live/?num_scrambled_semantic=8&num_scrambled_causal=4&num_scrambled_schematic=4&participantId=FE63079ABABB4127A56A3267CD5022D9&assignmentId=6e69ca83-665f-45e3-9449-4dc725f7b516&projectId=051c06f1-75cc-4548-856d-4923ddaba0dc","FE63079ABABB4127A56A3267CD5022D9-2025-05-15-18-55-20","","null","","images/instructions/movie_0.png","null","",""
"","","","","","image-button-response","9","62326","0.0-6.0-1.0-0.0","FE63079ABABB4127A56A3267CD5022D9","FE63079ABABB4127A56A3267CD5022D9","6e69ca83-665f-45e3-9449-4dc725f7b516","051c06f1-75cc-4548-856d-4923ddaba0dc","{""num_scrambled_semantic"":""8"",""num_scrambled_causal"":""4"",""num_scrambled_schematic"":""4"",""participantId"":""FE63079ABABB4127A56A3267CD5022D9"",""assignmentId"":""6e69ca83-665f-45e3-9449-4dc725f7b516"",""projectId"":""051c06f1-75cc-4548-856d-4923ddaba0dc""}","https://test12345.live/?num_scrambled_semantic=8&num_scrambled_causal=4&num_scrambled_schematic=4&participantId=FE63079ABABB4127A56A3267CD5022D9&assignmentId=6e69ca83-665f-45e3-9449-4dc725f7b516&projectId=051c06f1-75cc-4548-856d-4923ddaba0dc","FE63079ABABB4127A56A3267CD5022D9-2025-05-15-18-55-20","","null","","images/instructions/movie_1.png","null","",""
"","","","","","image-button-response","10","64417","0.0-6.0-1.0-1.0","FE63079ABABB4127A56A3267CD5022D9","FE63079ABABB4127A56A3267CD5022D9","6e69ca83-665f-45e3-9449-4dc725f7b516","051c06f1-75cc-4548-856d-4923ddaba0dc","{""num_scrambled_semantic"":""8"",""num_scrambled_causal"":""4"",""num_scrambled_schematic"":""4"",""participantId"":""FE63079ABABB4127A56A3267CD5022D9"",""assignmentId"":""6e69ca83-665f-45e3-9449-4dc725f7b516"",""projectId"":""051c06f1-75cc-4548-856d-4923ddaba0dc""}","https://test12345.live/?num_scrambled_semantic=8&num_scrambled_causal=4&num_scrambled_schematic=4&participantId=FE63079ABABB4127A56A3267CD5022D9&assignmentId=6e69ca83-665f-45e3-9449-4dc725f7b516&projectId=051c06f1-75cc-4548-856d-4923ddaba0dc","FE63079ABABB4127A56A3267CD5022D9-2025-05-15-18-55-20","","2089","","images/instructions/movie_1.png","0","",""
"","","","","","image-button-response","11","66221","0.0-6.0-1.0-2.0","FE63079ABABB4127A56A3267CD5022D9","FE63079ABABB4127A56A3267CD5022D9","6e69ca83-665f-45e3-9449-4dc725f7b516","051c06f1-75cc-4548-856d-4923ddaba0dc","{""num_scrambled_semantic"":""8"",""num_scrambled_causal"":""4"",""num_scrambled_schematic"":""4"",""participantId"":""FE63079ABABB4127A56A3267CD5022D9"",""assignmentId"":""6e69ca83-665f-45e3-9449-4dc725f7b516"",""projectId"":""051c06f1-75cc-4548-856d-4923ddaba0dc""}","https://test12345.live/?num_scrambled_semantic=8&num_scrambled_causal=4&num_scrambled_schematic=4&participantId=FE63079ABABB4127A56A3267CD5022D9&assignmentId=6e69ca83-665f-45e3-9449-4dc725f7b516&projectId=051c06f1-75cc-4548-856d-4923ddaba0dc","FE63079ABABB4127A56A3267CD5022D9-2025-05-15-18-55-20","","null","","[]","null","",""
"","","","","","image-button-response","12","70731","0.0-6.0-1.0-0.1","FE63079ABABB4127A56A3267CD5022D9","FE63079ABABB4127A56A3267CD5022D9","6e69ca83-665f-45e3-9449-4dc725f7b516","051c06f1-75cc-4548-856d-4923ddaba0dc","{""num_scrambled_semantic"":""8"",""num_scrambled_causal"":""4"",""num_scrambled_schematic"":""4"",""participantId"":""FE63079ABABB4127A56A3267CD5022D9"",""assignmentId"":""6e69ca83-665f-45e3-9449-4dc725f7b516"",""projectId"":""051c06f1-75cc-4548-856d-4923ddaba0dc""}","https://test12345.live/?num_scrambled_semantic=8&num_scrambled_causal=4&num_scrambled_schematic=4&participantId=FE63079ABABB4127A56A3267CD5022D9&assignmentId=6e69ca83-665f-45e3-9449-4dc725f7b516&projectId=051c06f1-75cc-4548-856d-4923ddaba0dc","FE63079ABABB4127A56A3267CD5022D9-2025-05-15-18-55-20","","null","","images/instructions/movie_2.png","null","",""
"","","","","","image-button-response","13","71985","0.0-6.0-1.0-1.1","FE63079ABABB4127A56A3267CD5022D9","FE63079ABABB4127A56A3267CD5022D9","6e69ca83-665f-45e3-9449-4dc725f7b516","051c06f1-75cc-4548-856d-4923ddaba0dc","{""num_scrambled_semantic"":""8"",""num_scrambled_causal"":""4"",""num_scrambled_schematic"":""4"",""participantId"":""FE63079ABABB4127A56A3267CD5022D9"",""assignmentId"":""6e69ca83-665f-45e3-9449-4dc725f7b516"",""projectId"":""051c06f1-75cc-4548-856d-4923ddaba0dc""}","https://test12345.live/?num_scrambled_semantic=8&num_scrambled_causal=4&num_scrambled_schematic=4&participantId=FE63079ABABB4127A56A3267CD5022D9&assignmentId=6e69ca83-665f-45e3-9449-4dc725f7b516&projectId=051c06f1-75cc-4548-856d-4923ddaba0dc","FE63079ABABB4127A56A3267CD5022D9-2025-05-15-18-55-20","","1253","","images/instructions/movie_2.png","0","",""
"","","","","","image-button-response","14","73800","0.0-6.0-1.0-2.1","FE63079ABABB4127A56A3267CD5022D9","FE63079ABABB4127A56A3267CD5022D9","6e69ca83-665f-45e3-9449-4dc725f7b516","051c06f1-75cc-4548-856d-4923ddaba0dc","{""num_scrambled_semantic"":""8"",""num_scrambled_causal"":""4"",""num_scrambled_schematic"":""4"",""participantId"":""FE63079ABABB4127A56A3267CD5022D9"",""assignmentId"":""6e69ca83-665f-45e3-9449-4dc725f7b516"",""projectId"":""051c06f1-75cc-4548-856d-4923ddaba0dc""}","https://test12345.live/?num_scrambled_semantic=8&num_scrambled_causal=4&num_scrambled_schematic=4&participantId=FE63079ABABB4127A56A3267CD5022D9&assignmentId=6e69ca83-665f-45e3-9449-4dc725f7b516&projectId=051c06f1-75cc-4548-856d-4923ddaba0dc","FE63079ABABB4127A56A3267CD5022D9-2025-05-15-18-55-20","","null","","[]","null","",""
"","","","","","image-button-response","15","78304","0.0-6.0-1.0-0.2","FE63079ABABB4127A56A3267CD5022D9","FE63079ABABB4127A56A3267CD5022D9","6e69ca83-665f-45e3-9449-4dc725f7b516","051c06f1-75cc-4548-856d-4923ddaba0dc","{""num_scrambled_semantic"":""8"",""num_scrambled_causal"":""4"",""num_scrambled_schematic"":""4"",""participantId"":""FE63079ABABB4127A56A3267CD5022D9"",""assignmentId"":""6e69ca83-665f-45e3-9449-4dc725f7b516"",""projectId"":""051c06f1-75cc-4548-856d-4923ddaba0dc""}","https://test12345.live/?num_scrambled_semantic=8&num_scrambled_causal=4&num_scrambled_schematic=4&participantId=FE63079ABABB4127A56A3267CD5022D9&assignmentId=6e69ca83-665f-45e3-9449-4dc725f7b516&projectId=051c06f1-75cc-4548-856d-4923ddaba0dc","FE63079ABABB4127A56A3267CD5022D9-2025-05-15-18-55-20","","null","","images/instructions/movie_3.png","null","",""
"","","","","","image-button-response","16","79044","0.0-6.0-1.0-1.2","FE63079ABABB4127A56A3267CD5022D9","FE63079ABABB4127A56A3267CD5022D9","6e69ca83-665f-45e3-9449-4dc725f7b516","051c06f1-75cc-4548-856d-4923ddaba0dc","{""num_scrambled_semantic"":""8"",""num_scrambled_causal"":""4"",""num_scrambled_schematic"":""4"",""participantId"":""FE63079ABABB4127A56A3267CD5022D9"",""assignmentId"":""6e69ca83-665f-45e3-9449-4dc725f7b516"",""projectId"":""051c06f1-75cc-4548-856d-4923ddaba0dc""}","https://test12345.live/?num_scrambled_semantic=8&num_scrambled_causal=4&num_scrambled_schematic=4&participantId=FE63079ABABB4127A56A3267CD5022D9&assignmentId=6e69ca83-665f-45e3-9449-4dc725f7b516&projectId=051c06f1-75cc-4548-856d-4923ddaba0dc","FE63079ABABB4127A56A3267CD5022D9-2025-05-15-18-55-20","","739","","images/instructions/movie_3.png","0","",""
"","","","","","image-button-response","17","80849","0.0-6.0-1.0-2.2","FE63079ABABB4127A56A3267CD5022D9","FE63079ABABB4127A56A3267CD5022D9","6e69ca83-665f-45e3-9449-4dc725f7b516","051c06f1-75cc-4548-856d-4923ddaba0dc","{""num_scrambled_semantic"":""8"",""num_scrambled_causal"":""4"",""num_scrambled_schematic"":""4"",""participantId"":""FE63079ABABB4127A56A3267CD5022D9"",""assignmentId"":""6e69ca83-665f-45e3-9449-4dc725f7b516"",""projectId"":""051c06f1-75cc-4548-856d-4923ddaba0dc""}","https://test12345.live/?num_scrambled_semantic=8&num_scrambled_causal=4&num_scrambled_schematic=4&participantId=FE63079ABABB4127A56A3267CD5022D9&assignmentId=6e69ca83-665f-45e3-9449-4dc725f7b516&projectId=051c06f1-75cc-4548-856d-4923ddaba0dc","FE63079ABABB4127A56A3267CD5022D9-2025-05-15-18-55-20","","null","","[]","null","",""
"","","","","","image-button-response","18","85365","0.0-6.0-1.0-0.3","FE63079ABABB4127A56A3267CD5022D9","FE63079ABABB4127A56A3267CD5022D9","6e69ca83-665f-45e3-9449-4dc725f7b516","051c06f1-75cc-4548-856d-4923ddaba0dc","{""num_scrambled_semantic"":""8"",""num_scrambled_causal"":""4"",""num_scrambled_schematic"":""4"",""participantId"":""FE63079ABABB4127A56A3267CD5022D9"",""assignmentId"":""6e69ca83-665f-45e3-9449-4dc725f7b516"",""projectId"":""051c06f1-75cc-4548-856d-4923ddaba0dc""}","https://test12345.live/?num_scrambled_semantic=8&num_scrambled_causal=4&num_scrambled_schematic=4&participantId=FE63079ABABB4127A56A3267CD5022D9&assignmentId=6e69ca83-665f-45e3-9449-4dc725f7b516&projectId=051c06f1-75cc-4548-856d-4923ddaba0dc","FE63079ABABB4127A56A3267CD5022D9-2025-05-15-18-55-20","","null","","images/instructions/movie_4.png","null","",""
"","","","","","image-button-response","19","86668","0.0-6.0-1.0-1.3","FE63079ABABB4127A56A3267CD5022D9","FE63079ABABB4127A56A3267CD5022D9","6e69ca83-665f-45e3-9449-4dc725f7b516","051c06f1-75cc-4548-856d-4923ddaba0dc","{""num_scrambled_semantic"":""8"",""num_scrambled_causal"":""4"",""num_scrambled_schematic"":""4"",""participantId"":""FE63079ABABB4127A56A3267CD5022D9"",""assignmentId"":""6e69ca83-665f-45e3-9449-4dc725f7b516"",""projectId"":""051c06f1-75cc-4548-856d-4923ddaba0dc""}","https://test12345.live/?num_scrambled_semantic=8&num_scrambled_causal=4&num_scrambled_schematic=4&participantId=FE63079ABABB4127A56A3267CD5022D9&assignmentId=6e69ca83-665f-45e3-9449-4dc725f7b516&projectId=051c06f1-75cc-4548-856d-4923ddaba0dc","FE63079ABABB4127A56A3267CD5022D9-2025-05-15-18-55-20","","1302","","images/instructions/movie_4.png","0","",""
"","","","","","image-button-response","20","88482","0.0-6.0-1.0-2.3","FE63079ABABB4127A56A3267CD5022D9","FE63079ABABB4127A56A3267CD5022D9","6e69ca83-665f-45e3-9449-4dc725f7b516","051c06f1-75cc-4548-856d-4923ddaba0dc","{""num_scrambled_semantic"":""8"",""num_scrambled_causal"":""4"",""num_scrambled_schematic"":""4"",""participantId"":""FE63079ABABB4127A56A3267CD5022D9"",""assignmentId"":""6e69ca83-665f-45e3-9449-4dc725f7b516"",""projectId"":""051c06f1-75cc-4548-856d-4923ddaba0dc""}","https://test12345.live/?num_scrambled_semantic=8&num_scrambled_causal=4&num_scrambled_schematic=4&participantId=FE63079ABABB4127A56A3267CD5022D9&assignmentId=6e69ca83-665f-45e3-9449-4dc725f7b516&projectId=051c06f1-75cc-4548-856d-4923ddaba0dc","FE63079ABABB4127A56A3267CD5022D9-2025-05-15-18-55-20","","null","","[]","null","",""
"","","","","","instructions","21","96164","0.0-7.0","FE63079ABABB4127A56A3267CD5022D9","FE63079ABABB4127A56A3267CD5022D9","6e69ca83-665f-45e3-9449-4dc725f7b516","051c06f1-75cc-4548-856d-4923ddaba0dc","{""num_scrambled_semantic"":""8"",""num_scrambled_causal"":""4"",""num_scrambled_schematic"":""4"",""participantId"":""FE63079ABABB4127A56A3267CD5022D9"",""assignmentId"":""6e69ca83-665f-45e3-9449-4dc725f7b516"",""projectId"":""051c06f1-75cc-4548-856d-4923ddaba0dc""}","https://test12345.live/?num_scrambled_semantic=8&num_scrambled_causal=4&num_scrambled_schematic=4&participantId=FE63079ABABB4127A56A3267CD5022D9&assignmentId=6e69ca83-665f-45e3-9449-4dc725f7b516&projectId=051c06f1-75cc-4548-856d-4923ddaba0dc","FE63079ABABB4127A56A3267CD5022D9-2025-05-15-18-55-20","[{""page_index"":0,""viewing_time"":6586},{""page_index"":1,""viewing_time"":1095}]","7681","","","","",""
"","","","","","html-audio-response","22","132094","0.0-8.0","FE63079ABABB4127A56A3267CD5022D9","FE63079ABABB4127A56A3267CD5022D9","6e69ca83-665f-45e3-9449-4dc725f7b516","051c06f1-75cc-4548-856d-4923ddaba0dc","{""num_scrambled_semantic"":""8"",""num_scrambled_causal"":""4"",""num_scrambled_schematic"":""4"",""participantId"":""FE63079ABABB4127A56A3267CD5022D9"",""assignmentId"":""6e69ca83-665f-45e3-9449-4dc725f7b516"",""projectId"":""051c06f1-75cc-4548-856d-4923ddaba0dc""}","https://test12345.live/?num_scrambled_semantic=8&num_scrambled_causal=4&num_scrambled_schematic=4&participantId=FE63079ABABB4127A56A3267CD5022D9&assignmentId=6e69ca83-665f-45e3-9449-4dc725f7b516&projectId=051c06f1-75cc-4548-856d-4923ddaba0dc","FE63079ABABB4127A56A3267CD5022D9-2025-05-15-18-55-20","","11560","","[""<span style=\""color: red; font-size: 24px\""> NOW RECORDING</span><p>Please say out loud all the images you saw, as many as you can remember. The images can be said in any order.</p>""]","","8",""
"","","","","","instructions","23","133183","0.0-9.0","FE63079ABABB4127A56A3267CD5022D9","FE63079ABABB4127A56A3267CD5022D9","6e69ca83-665f-45e3-9449-4dc725f7b516","051c06f1-75cc-4548-856d-4923ddaba0dc","{""num_scrambled_semantic"":""8"",""num_scrambled_causal"":""4"",""num_scrambled_schematic"":""4"",""participantId"":""FE63079ABABB4127A56A3267CD5022D9"",""assignmentId"":""6e69ca83-665f-45e3-9449-4dc725f7b516"",""projectId"":""051c06f1-75cc-4548-856d-4923ddaba0dc""}","https://test12345.live/?num_scrambled_semantic=8&num_scrambled_causal=4&num_scrambled_schematic=4&participantId=FE63079ABABB4127A56A3267CD5022D9&assignmentId=6e69ca83-665f-45e3-9449-4dc725f7b516&projectId=051c06f1-75cc-4548-856d-4923ddaba0dc","FE63079ABABB4127A56A3267CD5022D9-2025-05-15-18-55-20","[{""page_index"":0,""viewing_time"":1083}]","1083","","","","",""
"","","","","","image-button-response","24","139199","0.0-10.0-0.0","FE63079ABABB4127A56A3267CD5022D9","FE63079ABABB4127A56A3267CD5022D9","6e69ca83-665f-45e3-9449-4dc725f7b516","051c06f1-75cc-4548-856d-4923ddaba0dc","{""num_scrambled_semantic"":""8"",""num_scrambled_causal"":""4"",""num_scrambled_schematic"":""4"",""participantId"":""FE63079ABABB4127A56A3267CD5022D9"",""assignmentId"":""6e69ca83-665f-45e3-9449-4dc725f7b516"",""projectId"":""051c06f1-75cc-4548-856d-4923ddaba0dc""}","https://test12345.live/?num_scrambled_semantic=8&num_scrambled_causal=4&num_scrambled_schematic=4&participantId=FE63079ABABB4127A56A3267CD5022D9&assignmentId=6e69ca83-665f-45e3-9449-4dc725f7b516&projectId=051c06f1-75cc-4548-856d-4923ddaba0dc","FE63079ABABB4127A56A3267CD5022D9-2025-05-15-18-55-20","","null","","images/semantic_sequence/kitchen_operations_semantic/kitchen_operations_semantic_0.png","null","",""
"","","","","","image-button-response","25","143704","0.0-10.0-1.0-0.0","FE63079ABABB4127A56A3267CD5022D9","FE63079ABABB4127A56A3267CD5022D9","6e69ca83-665f-45e3-9449-4dc725f7b516","051c06f1-75cc-4548-856d-4923ddaba0dc","{""num_scrambled_semantic"":""8"",""num_scrambled_causal"":""4"",""num_scrambled_schematic"":""4"",""participantId"":""FE63079ABABB4127A56A3267CD5022D9"",""assignmentId"":""6e69ca83-665f-45e3-9449-4dc725f7b516"",""projectId"":""051c06f1-75cc-4548-856d-4923ddaba0dc""}","https://test12345.live/?num_scrambled_semantic=8&num_scrambled_causal=4&num_scrambled_schematic=4&participantId=FE63079ABABB4127A56A3267CD5022D9&assignmentId=6e69ca83-665f-45e3-9449-4dc725f7b516&projectId=051c06f1-75cc-4548-856d-4923ddaba0dc","FE63079ABABB4127A56A3267CD5022D9-2025-05-15-18-55-20","","null","","images/semantic_sequence/kitchen_operations_semantic/kitchen_operations_semantic_4.png","null","",""
"","","","","","image-button-response","26","145200","0.0-10.0-1.0-1.0","FE63079ABABB4127A56A3267CD5022D9","FE63079ABABB4127A56A3267CD5022D9","6e69ca83-665f-45e3-9449-4dc725f7b516","051c06f1-75cc-4548-856d-4923ddaba0dc","{""num_scrambled_semantic"":""8"",""num_scrambled_causal"":""4"",""num_scrambled_schematic"":""4"",""participantId"":""FE63079ABABB4127A56A3267CD5022D9"",""assignmentId"":""6e69ca83-665f-45e3-9449-4dc725f7b516"",""projectId"":""051c06f1-75cc-4548-856d-4923ddaba0dc""}","https://test12345.live/?num_scrambled_semantic=8&num_scrambled_causal=4&num_scrambled_schematic=4&participantId=FE63079ABABB4127A56A3267CD5022D9&assignmentId=6e69ca83-665f-45e3-9449-4dc725f7b516&projectId=051c06f1-75cc-4548-856d-4923ddaba0dc","FE63079ABABB4127A56A3267CD5022D9-2025-05-15-18-55-20","","1494","","images/semantic_sequence/kitchen_operations_semantic/kitchen_operations_semantic_4.png","0","",""
"","","","","","image-button-response","27","147004","0.0-10.0-1.0-2.0","FE63079ABABB4127A56A3267CD5022D9","FE63079ABABB4127A56A3267CD5022D9","6e69ca83-665f-45e3-9449-4dc725f7b516","051c06f1-75cc-4548-856d-4923ddaba0dc","{""num_scrambled_semantic"":""8"",""num_scrambled_causal"":""4"",""num_scrambled_schematic"":""4"",""participantId"":""FE63079ABABB4127A56A3267CD5022D9"",""assignmentId"":""6e69ca83-665f-45e3-9449-4dc725f7b516"",""projectId"":""051c06f1-75cc-4548-856d-4923ddaba0dc""}","https://test12345.live/?num_scrambled_semantic=8&num_scrambled_causal=4&num_scrambled_schematic=4&participantId=FE63079ABABB4127A56A3267CD5022D9&assignmentId=6e69ca83-665f-45e3-9449-4dc725f7b516&projectId=051c06f1-75cc-4548-856d-4923ddaba0dc","FE63079ABABB4127A56A3267CD5022D9-2025-05-15-18-55-20","","null","","[]","null","",""
"","","","","","image-button-response","28","151513","0.0-10.0-1.0-0.1","FE63079ABABB4127A56A3267CD5022D9","FE63079ABABB4127A56A3267CD5022D9","6e69ca83-665f-45e3-9449-4dc725f7b516","051c06f1-75cc-4548-856d-4923ddaba0dc","{""num_scrambled_semantic"":""8"",""num_scrambled_causal"":""4"",""num_scrambled_schematic"":""4"",""participantId"":""FE63079ABABB4127A56A3267CD5022D9"",""assignmentId"":""6e69ca83-665f-45e3-9449-4dc725f7b516"",""projectId"":""051c06f1-75cc-4548-856d-4923ddaba0dc""}","https://test12345.live/?num_scrambled_semantic=8&num_scrambled_causal=4&num_scrambled_schematic=4&participantId=FE63079ABABB4127A56A3267CD5022D9&assignmentId=6e69ca83-665f-45e3-9449-4dc725f7b516&projectId=051c06f1-75cc-4548-856d-4923ddaba0dc","FE63079ABABB4127A56A3267CD5022D9-2025-05-15-18-55-20","","null","","images/semantic_sequence/kitchen_operations_semantic/kitchen_operations_semantic_9.png","null","",""
"","","","","","image-button-response","29","152479","0.0-10.0-1.0-1.1","FE63079ABABB4127A56A3267CD5022D9","FE63079ABABB4127A56A3267CD5022D9","6e69ca83-665f-45e3-9449-4dc725f7b516","051c06f1-75cc-4548-856d-4923ddaba0dc","{""num_scrambled_semantic"":""8"",""num_scrambled_causal"":""4"",""num_scrambled_schematic"":""4"",""participantId"":""FE63079ABABB4127A56A3267CD5022D9"",""assignmentId"":""6e69ca83-665f-45e3-9449-4dc725f7b516"",""projectId"":""051c06f1-75cc-4548-856d-4923ddaba0dc""}","https://test12345.live/?num_scrambled_semantic=8&num_scrambled_causal=4&num_scrambled_schematic=4&participantId=FE63079ABABB4127A56A3267CD5022D9&assignmentId=6e69ca83-665f-45e3-9449-4dc725f7b516&projectId=051c06f1-75cc-4548-856d-4923ddaba0dc","FE63079ABABB4127A56A3267CD5022D9-2025-05-15-18-55-20","","964","","images/semantic_sequence/kitchen_operations_semantic/kitchen_operations_semantic_9.png","0","",""
"","","","","","image-button-response","30","154307","0.0-10.0-1.0-2.1","FE63079ABABB4127A56A3267CD5022D9","FE63079ABABB4127A56A3267CD5022D9","6e69ca83-665f-45e3-9449-4dc725f7b516","051c06f1-75cc-4548-856d-4923ddaba0dc","{""num_scrambled_semantic"":""8"",""num_scrambled_causal"":""4"",""num_scrambled_schematic"":""4"",""participantId"":""FE63079ABABB4127A56A3267CD5022D9"",""assignmentId"":""6e69ca83-665f-45e3-9449-4dc725f7b516"",""projectId"":""051c06f1-75cc-4548-856d-4923ddaba0dc""}","https://test12345.live/?num_scrambled_semantic=8&num_scrambled_causal=4&num_scrambled_schematic=4&participantId=FE63079ABABB4127A56A3267CD5022D9&assignmentId=6e69ca83-665f-45e3-9449-4dc725f7b516&projectId=051c06f1-75cc-4548-856d-4923ddaba0dc","FE63079ABABB4127A56A3267CD5022D9-2025-05-15-18-55-20","","null","","[]","null","",""
"","","","","","image-button-response","31","158819","0.0-10.0-1.0-0.2","FE63079ABABB4127A56A3267CD5022D9","FE63079ABABB4127A56A3267CD5022D9","6e69ca83-665f-45e3-9449-4dc725f7b516","051c06f1-75cc-4548-856d-4923ddaba0dc","{""num_scrambled_semantic"":""8"",""num_scrambled_causal"":""4"",""num_scrambled_schematic"":""4"",""participantId"":""FE63079ABABB4127A56A3267CD5022D9"",""assignmentId"":""6e69ca83-665f-45e3-9449-4dc725f7b516"",""projectId"":""051c06f1-75cc-4548-856d-4923ddaba0dc""}","https://test12345.live/?num_scrambled_semantic=8&num_scrambled_causal=4&num_scrambled_schematic=4&participantId=FE63079ABABB4127A56A3267CD5022D9&assignmentId=6e69ca83-665f-45e3-9449-4dc725f7b516&projectId=051c06f1-75cc-4548-856d-4923ddaba0dc","FE63079ABABB4127A56A3267CD5022D9-2025-05-15-18-55-20","","null","","images/semantic_sequence/kitchen_operations_semantic/kitchen_operations_semantic_2.png","null","",""
"","","","","","image-button-response","32","159805","0.0-10.0-1.0-1.2","FE63079ABABB4127A56A3267CD5022D9","FE63079ABABB4127A56A3267CD5022D9","6e69ca83-665f-45e3-9449-4dc725f7b516","051c06f1-75cc-4548-856d-4923ddaba0dc","{""num_scrambled_semantic"":""8"",""num_scrambled_causal"":""4"",""num_scrambled_schematic"":""4"",""participantId"":""FE63079ABABB4127A56A3267CD5022D9"",""assignmentId"":""6e69ca83-665f-45e3-9449-4dc725f7b516"",""projectId"":""051c06f1-75cc-4548-856d-4923ddaba0dc""}","https://test12345.live/?num_scrambled_semantic=8&num_scrambled_causal=4&num_scrambled_schematic=4&participantId=FE63079ABABB4127A56A3267CD5022D9&assignmentId=6e69ca83-665f-45e3-9449-4dc725f7b516&projectId=051c06f1-75cc-4548-856d-4923ddaba0dc","FE63079ABABB4127A56A3267CD5022D9-2025-05-15-18-55-20","","985","","images/semantic_sequence/kitchen_operations_semantic/kitchen_operations_semantic_2.png","0","",""
"","","","","","image-button-response","33","161613","0.0-10.0-1.0-2.2","FE63079ABABB4127A56A3267CD5022D9","FE63079ABABB4127A56A3267CD5022D9","6e69ca83-665f-45e3-9449-4dc725f7b516","051c06f1-75cc-4548-856d-4923ddaba0dc","{""num_scrambled_semantic"":""8"",""num_scrambled_causal"":""4"",""num_scrambled_schematic"":""4"",""participantId"":""FE63079ABABB4127A56A3267CD5022D9"",""assignmentId"":""6e69ca83-665f-45e3-9449-4dc725f7b516"",""projectId"":""051c06f1-75cc-4548-856d-4923ddaba0dc""}","https://test12345.live/?num_scrambled_semantic=8&num_scrambled_causal=4&num_scrambled_schematic=4&participantId=FE63079ABABB4127A56A3267CD5022D9&assignmentId=6e69ca83-665f-45e3-9449-4dc725f7b516&projectId=051c06f1-75cc-4548-856d-4923ddaba0dc","FE63079ABABB4127A56A3267CD5022D9-2025-05-15-18-55-20","","null","","[]","null","",""
"","","","","","image-button-response","34","166132","0.0-10.0-1.0-0.3","FE63079ABABB4127A56A3267CD5022D9","FE63079ABABB4127A56A3267CD5022D9","6e69ca83-665f-45e3-9449-4dc725f7b516","051c06f1-75cc-4548-856d-4923ddaba0dc","{""num_scrambled_semantic"":""8"",""num_scrambled_causal"":""4"",""num_scrambled_schematic"":""4"",""participantId"":""FE63079ABABB4127A56A3267CD5022D9"",""assignmentId"":""6e69ca83-665f-45e3-9449-4dc725f7b516"",""projectId"":""051c06f1-75cc-4548-856d-4923ddaba0dc""}","https://test12345.live/?num_scrambled_semantic=8&num_scrambled_causal=4&num_scrambled_schematic=4&participantId=FE63079ABABB4127A56A3267CD5022D9&assignmentId=6e69ca83-665f-45e3-9449-4dc725f7b516&projectId=051c06f1-75cc-4548-856d-4923ddaba0dc","FE63079ABABB4127A56A3267CD5022D9-2025-05-15-18-55-20","","null","","images/semantic_sequence/kitchen_operations_semantic/kitchen_operations_semantic_1.png","null","",""
"","","","","","image-button-response","35","167024","0.0-10.0-1.0-1.3","FE63079ABABB4127A56A3267CD5022D9","FE63079ABABB4127A56A3267CD5022D9","6e69ca83-665f-45e3-9449-4dc725f7b516","051c06f1-75cc-4548-856d-4923ddaba0dc","{""num_scrambled_semantic"":""8"",""num_scrambled_causal"":""4"",""num_scrambled_schematic"":""4"",""participantId"":""FE63079ABABB4127A56A3267CD5022D9"",""assignmentId"":""6e69ca83-665f-45e3-9449-4dc725f7b516"",""projectId"":""051c06f1-75cc-4548-856d-4923ddaba0dc""}","https://test12345.live/?num_scrambled_semantic=8&num_scrambled_causal=4&num_scrambled_schematic=4&participantId=FE63079ABABB4127A56A3267CD5022D9&assignmentId=6e69ca83-665f-45e3-9449-4dc725f7b516&projectId=051c06f1-75cc-4548-856d-4923ddaba0dc","FE63079ABABB4127A56A3267CD5022D9-2025-05-15-18-55-20","","890","","images/semantic_sequence/kitchen_operations_semantic/kitchen_operations_semantic_1.png","0","",""
"","","","","","image-button-response","36","168831","0.0-10.0-1.0-2.3","FE63079ABABB4127A56A3267CD5022D9","FE63079ABABB4127A56A3267CD5022D9","6e69ca83-665f-45e3-9449-4dc725f7b516","051c06f1-75cc-4548-856d-4923ddaba0dc","{""num_scrambled_semantic"":""8"",""num_scrambled_causal"":""4"",""num_scrambled_schematic"":""4"",""participantId"":""FE63079ABABB4127A56A3267CD5022D9"",""assignmentId"":""6e69ca83-665f-45e3-9449-4dc725f7b516"",""projectId"":""051c06f1-75cc-4548-856d-4923ddaba0dc""}","https://test12345.live/?num_scrambled_semantic=8&num_scrambled_causal=4&num_scrambled_schematic=4&participantId=FE63079ABABB4127A56A3267CD5022D9&assignmentId=6e69ca83-665f-45e3-9449-4dc725f7b516&projectId=051c06f1-75cc-4548-856d-4923ddaba0dc","FE63079ABABB4127A56A3267CD5022D9-2025-05-15-18-55-20","","null","","[]","null","",""
"","","","","","image-button-response","37","173338","0.0-10.0-1.0-0.4","FE63079ABABB4127A56A3267CD5022D9","FE63079ABABB4127A56A3267CD5022D9","6e69ca83-665f-45e3-9449-4dc725f7b516","051c06f1-75cc-4548-856d-4923ddaba0dc","{""num_scrambled_semantic"":""8"",""num_scrambled_causal"":""4"",""num_scrambled_schematic"":""4"",""participantId"":""FE63079ABABB4127A56A3267CD5022D9"",""assignmentId"":""6e69ca83-665f-45e3-9449-4dc725f7b516"",""projectId"":""051c06f1-75cc-4548-856d-4923ddaba0dc""}","https://test12345.live/?num_scrambled_semantic=8&num_scrambled_causal=4&num_scrambled_schematic=4&participantId=FE63079ABABB4127A56A3267CD5022D9&assignmentId=6e69ca83-665f-45e3-9449-4dc725f7b516&projectId=051c06f1-75cc-4548-856d-4923ddaba0dc","FE63079ABABB4127A56A3267CD5022D9-2025-05-15-18-55-20","","null","","images/semantic_sequence/kitchen_operations_semantic/kitchen_operations_semantic_3.png","null","",""
"","","","","","image-button-response","38","174165","0.0-10.0-1.0-1.4","FE63079ABABB4127A56A3267CD5022D9","FE63079ABABB4127A56A3267CD5022D9","6e69ca83-665f-45e3-9449-4dc725f7b516","051c06f1-75cc-4548-856d-4923ddaba0dc","{""num_scrambled_semantic"":""8"",""num_scrambled_causal"":""4"",""num_scrambled_schematic"":""4"",""participantId"":""FE63079ABABB4127A56A3267CD5022D9"",""assignmentId"":""6e69ca83-665f-45e3-9449-4dc725f7b516"",""projectId"":""051c06f1-75cc-4548-856d-4923ddaba0dc""}","https://test12345.live/?num_scrambled_semantic=8&num_scrambled_causal=4&num_scrambled_schematic=4&participantId=FE63079ABABB4127A56A3267CD5022D9&assignmentId=6e69ca83-665f-45e3-9449-4dc725f7b516&projectId=051c06f1-75cc-4548-856d-4923ddaba0dc","FE63079ABABB4127A56A3267CD5022D9-2025-05-15-18-55-20","","825","","images/semantic_sequence/kitchen_operations_semantic/kitchen_operations_semantic_3.png","0","",""
"","","","","","image-button-response","39","175976","0.0-10.0-1.0-2.4","FE63079ABABB4127A56A3267CD5022D9","FE63079ABABB4127A56A3267CD5022D9","6e69ca83-665f-45e3-9449-4dc725f7b516","051c06f1-75cc-4548-856d-4923ddaba0dc","{""num_scrambled_semantic"":""8"",""num_scrambled_causal"":""4"",""num_scrambled_schematic"":""4"",""participantId"":""FE63079ABABB4127A56A3267CD5022D9"",""assignmentId"":""6e69ca83-665f-45e3-9449-4dc725f7b516"",""projectId"":""051c06f1-75cc-4548-856d-4923ddaba0dc""}","https://test12345.live/?num_scrambled_semantic=8&num_scrambled_causal=4&num_scrambled_schematic=4&participantId=FE63079ABABB4127A56A3267CD5022D9&assignmentId=6e69ca83-665f-45e3-9449-4dc725f7b516&projectId=051c06f1-75cc-4548-856d-4923ddaba0dc","FE63079ABABB4127A56A3267CD5022D9-2025-05-15-18-55-20","","null","","[]","null","",""
"","","","","","image-button-response","40","180478","0.0-10.0-1.0-0.5","FE63079ABABB4127A56A3267CD5022D9","FE63079ABABB4127A56A3267CD5022D9","6e69ca83-665f-45e3-9449-4dc725f7b516","051c06f1-75cc-4548-856d-4923ddaba0dc","{""num_scrambled_semantic"":""8"",""num_scrambled_causal"":""4"",""num_scrambled_schematic"":""4"",""participantId"":""FE63079ABABB4127A56A3267CD5022D9"",""assignmentId"":""6e69ca83-665f-45e3-9449-4dc725f7b516"",""projectId"":""051c06f1-75cc-4548-856d-4923ddaba0dc""}","https://test12345.live/?num_scrambled_semantic=8&num_scrambled_causal=4&num_scrambled_schematic=4&participantId=FE63079ABABB4127A56A3267CD5022D9&assignmentId=6e69ca83-665f-45e3-9449-4dc725f7b516&projectId=051c06f1-75cc-4548-856d-4923ddaba0dc","FE63079ABABB4127A56A3267CD5022D9-2025-05-15-18-55-20","","null","","images/semantic_sequence/kitchen_operations_semantic/kitchen_operations_semantic_8.png","null","",""
"","","","","","image-button-response","41","181790","0.0-10.0-1.0-1.5","FE63079ABABB4127A56A3267CD5022D9","FE63079ABABB4127A56A3267CD5022D9","6e69ca83-665f-45e3-9449-4dc725f7b516","051c06f1-75cc-4548-856d-4923ddaba0dc","{""num_scrambled_semantic"":""8"",""num_scrambled_causal"":""4"",""num_scrambled_schematic"":""4"",""participantId"":""FE63079ABABB4127A56A3267CD5022D9"",""assignmentId"":""6e69ca83-665f-45e3-9449-4dc725f7b516"",""projectId"":""051c06f1-75cc-4548-856d-4923ddaba0dc""}","https://test12345.live/?num_scrambled_semantic=8&num_scrambled_causal=4&num_scrambled_schematic=4&participantId=FE63079ABABB4127A56A3267CD5022D9&assignmentId=6e69ca83-665f-45e3-9449-4dc725f7b516&projectId=051c06f1-75cc-4548-856d-4923ddaba0dc","FE63079ABABB4127A56A3267CD5022D9-2025-05-15-18-55-20","","1310","","images/semantic_sequence/kitchen_operations_semantic/kitchen_operations_semantic_8.png","0","",""
"","","","","","image-button-response","42","183605","0.0-10.0-1.0-2.5","FE63079ABABB4127A56A3267CD5022D9","FE63079ABABB4127A56A3267CD5022D9","6e69ca83-665f-45e3-9449-4dc725f7b516","051c06f1-75cc-4548-856d-4923ddaba0dc","{""num_scrambled_semantic"":""8"",""num_scrambled_causal"":""4"",""num_scrambled_schematic"":""4"",""participantId"":""FE63079ABABB4127A56A3267CD5022D9"",""assignmentId"":""6e69ca83-665f-45e3-9449-4dc725f7b516"",""projectId"":""051c06f1-75cc-4548-856d-4923ddaba0dc""}","https://test12345.live/?num_scrambled_semantic=8&num_scrambled_causal=4&num_scrambled_schematic=4&participantId=FE63079ABABB4127A56A3267CD5022D9&assignmentId=6e69ca83-665f-45e3-9449-4dc725f7b516&projectId=051c06f1-75cc-4548-856d-4923ddaba0dc","FE63079ABABB4127A56A3267CD5022D9-2025-05-15-18-55-20","","null","","[]","null","",""
"","","","","","image-button-response","43","188121","0.0-10.0-1.0-0.6","FE63079ABABB4127A56A3267CD5022D9","FE63079ABABB4127A56A3267CD5022D9","6e69ca83-665f-45e3-9449-4dc725f7b516","051c06f1-75cc-4548-856d-4923ddaba0dc","{""num_scrambled_semantic"":""8"",""num_scrambled_causal"":""4"",""num_scrambled_schematic"":""4"",""participantId"":""FE63079ABABB4127A56A3267CD5022D9"",""assignmentId"":""6e69ca83-665f-45e3-9449-4dc725f7b516"",""projectId"":""051c06f1-75cc-4548-856d-4923ddaba0dc""}","https://test12345.live/?num_scrambled_semantic=8&num_scrambled_causal=4&num_scrambled_schematic=4&participantId=FE63079ABABB4127A56A3267CD5022D9&assignmentId=6e69ca83-665f-45e3-9449-4dc725f7b516&projectId=051c06f1-75cc-4548-856d-4923ddaba0dc","FE63079ABABB4127A56A3267CD5022D9-2025-05-15-18-55-20","","null","","images/semantic_sequence/kitchen_operations_semantic/kitchen_operations_semantic_6.png","null","",""
"","","","","","image-button-response","44","188690","0.0-10.0-1.0-1.6","FE63079ABABB4127A56A3267CD5022D9","FE63079ABABB4127A56A3267CD5022D9","6e69ca83-665f-45e3-9449-4dc725f7b516","051c06f1-75cc-4548-856d-4923ddaba0dc","{""num_scrambled_semantic"":""8"",""num_scrambled_causal"":""4"",""num_scrambled_schematic"":""4"",""participantId"":""FE63079ABABB4127A56A3267CD5022D9"",""assignmentId"":""6e69ca83-665f-45e3-9449-4dc725f7b516"",""projectId"":""051c06f1-75cc-4548-856d-4923ddaba0dc""}","https://test12345.live/?num_scrambled_semantic=8&num_scrambled_causal=4&num_scrambled_schematic=4&participantId=FE63079ABABB4127A56A3267CD5022D9&assignmentId=6e69ca83-665f-45e3-9449-4dc725f7b516&projectId=051c06f1-75cc-4548-856d-4923ddaba0dc","FE63079ABABB4127A56A3267CD5022D9-2025-05-15-18-55-20","","567","","images/semantic_sequence/kitchen_operations_semantic/kitchen_operations_semantic_6.png","0","",""
"","","","","","image-button-response","45","190499","0.0-10.0-1.0-2.6","FE63079ABABB4127A56A3267CD5022D9","FE63079ABABB4127A56A3267CD5022D9","6e69ca83-665f-45e3-9449-4dc725f7b516","051c06f1-75cc-4548-856d-4923ddaba0dc","{""num_scrambled_semantic"":""8"",""num_scrambled_causal"":""4"",""num_scrambled_schematic"":""4"",""participantId"":""FE63079ABABB4127A56A3267CD5022D9"",""assignmentId"":""6e69ca83-665f-45e3-9449-4dc725f7b516"",""projectId"":""051c06f1-75cc-4548-856d-4923ddaba0dc""}","https://test12345.live/?num_scrambled_semantic=8&num_scrambled_causal=4&num_scrambled_schematic=4&participantId=FE63079ABABB4127A56A3267CD5022D9&assignmentId=6e69ca83-665f-45e3-9449-4dc725f7b516&projectId=051c06f1-75cc-4548-856d-4923ddaba0dc","FE63079ABABB4127A56A3267CD5022D9-2025-05-15-18-55-20","","null","","[]","null","",""
"","","","","","image-button-response","46","195008","0.0-10.0-1.0-0.7","FE63079ABABB4127A56A3267CD5022D9","FE63079ABABB4127A56A3267CD5022D9","6e69ca83-665f-45e3-9449-4dc725f7b516","051c06f1-75cc-4548-856d-4923ddaba0dc","{""num_scrambled_semantic"":""8"",""num_scrambled_causal"":""4"",""num_scrambled_schematic"":""4"",""participantId"":""FE63079ABABB4127A56A3267CD5022D9"",""assignmentId"":""6e69ca83-665f-45e3-9449-4dc725f7b516"",""projectId"":""051c06f1-75cc-4548-856d-4923ddaba0dc""}","https://test12345.live/?num_scrambled_semantic=8&num_scrambled_causal=4&num_scrambled_schematic=4&participantId=FE63079ABABB4127A56A3267CD5022D9&assignmentId=6e69ca83-665f-45e3-9449-4dc725f7b516&projectId=051c06f1-75cc-4548-856d-4923ddaba0dc","FE63079ABABB4127A56A3267CD5022D9-2025-05-15-18-55-20","","null","","images/semantic_sequence/kitchen_operations_semantic/kitchen_operations_semantic_5.png","null","",""
"","","","","","image-button-response","47","195720","0.0-10.0-1.0-1.7","FE63079ABABB4127A56A3267CD5022D9","FE63079ABABB4127A56A3267CD5022D9","6e69ca83-665f-45e3-9449-4dc725f7b516","051c06f1-75cc-4548-856d-4923ddaba0dc","{""num_scrambled_semantic"":""8"",""num_scrambled_causal"":""4"",""num_scrambled_schematic"":""4"",""participantId"":""FE63079ABABB4127A56A3267CD5022D9"",""assignmentId"":""6e69ca83-665f-45e3-9449-4dc725f7b516"",""projectId"":""051c06f1-75cc-4548-856d-4923ddaba0dc""}","https://test12345.live/?num_scrambled_semantic=8&num_scrambled_causal=4&num_scrambled_schematic=4&participantId=FE63079ABABB4127A56A3267CD5022D9&assignmentId=6e69ca83-665f-45e3-9449-4dc725f7b516&projectId=051c06f1-75cc-4548-856d-4923ddaba0dc","FE63079ABABB4127A56A3267CD5022D9-2025-05-15-18-55-20","","710","","images/semantic_sequence/kitchen_operations_semantic/kitchen_operations_semantic_5.png","0","",""
"","","","","","image-button-response","48","197526","0.0-10.0-1.0-2.7","FE63079ABABB4127A56A3267CD5022D9","FE63079ABABB4127A56A3267CD5022D9","6e69ca83-665f-45e3-9449-4dc725f7b516","051c06f1-75cc-4548-856d-4923ddaba0dc","{""num_scrambled_semantic"":""8"",""num_scrambled_causal"":""4"",""num_scrambled_schematic"":""4"",""participantId"":""FE63079ABABB4127A56A3267CD5022D9"",""assignmentId"":""6e69ca83-665f-45e3-9449-4dc725f7b516"",""projectId"":""051c06f1-75cc-4548-856d-4923ddaba0dc""}","https://test12345.live/?num_scrambled_semantic=8&num_scrambled_causal=4&num_scrambled_schematic=4&participantId=FE63079ABABB4127A56A3267CD5022D9&assignmentId=6e69ca83-665f-45e3-9449-4dc725f7b516&projectId=051c06f1-75cc-4548-856d-4923ddaba0dc","FE63079ABABB4127A56A3267CD5022D9-2025-05-15-18-55-20","","null","","[]","null","",""
"","","","","","image-button-response","49","202034","0.0-10.0-1.0-0.8","FE63079ABABB4127A56A3267CD5022D9","FE63079ABABB4127A56A3267CD5022D9","6e69ca83-665f-45e3-9449-4dc725f7b516","051c06f1-75cc-4548-856d-4923ddaba0dc","{""num_scrambled_semantic"":""8"",""num_scrambled_causal"":""4"",""num_scrambled_schematic"":""4"",""participantId"":""FE63079ABABB4127A56A3267CD5022D9"",""assignmentId"":""6e69ca83-665f-45e3-9449-4dc725f7b516"",""projectId"":""051c06f1-75cc-4548-856d-4923ddaba0dc""}","https://test12345.live/?num_scrambled_semantic=8&num_scrambled_causal=4&num_scrambled_schematic=4&participantId=FE63079ABABB4127A56A3267CD5022D9&assignmentId=6e69ca83-665f-45e3-9449-4dc725f7b516&projectId=051c06f1-75cc-4548-856d-4923ddaba0dc","FE63079ABABB4127A56A3267CD5022D9-2025-05-15-18-55-20","","null","","images/semantic_sequence/kitchen_operations_semantic/kitchen_operations_semantic_ten.png","null","",""
"","","","","","image-button-response","50","203009","0.0-10.0-1.0-1.8","FE63079ABABB4127A56A3267CD5022D9","FE63079ABABB4127A56A3267CD5022D9","6e69ca83-665f-45e3-9449-4dc725f7b516","051c06f1-75cc-4548-856d-4923ddaba0dc","{""num_scrambled_semantic"":""8"",""num_scrambled_causal"":""4"",""num_scrambled_schematic"":""4"",""participantId"":""FE63079ABABB4127A56A3267CD5022D9"",""assignmentId"":""6e69ca83-665f-45e3-9449-4dc725f7b516"",""projectId"":""051c06f1-75cc-4548-856d-4923ddaba0dc""}","https://test12345.live/?num_scrambled_semantic=8&num_scrambled_causal=4&num_scrambled_schematic=4&participantId=FE63079ABABB4127A56A3267CD5022D9&assignmentId=6e69ca83-665f-45e3-9449-4dc725f7b516&projectId=051c06f1-75cc-4548-856d-4923ddaba0dc","FE63079ABABB4127A56A3267CD5022D9-2025-05-15-18-55-20","","973","","images/semantic_sequence/kitchen_operations_semantic/kitchen_operations_semantic_ten.png","0","",""
"","","","","","image-button-response","51","204814","0.0-10.0-1.0-2.8","FE63079ABABB4127A56A3267CD5022D9","FE63079ABABB4127A56A3267CD5022D9","6e69ca83-665f-45e3-9449-4dc725f7b516","051c06f1-75cc-4548-856d-4923ddaba0dc","{""num_scrambled_semantic"":""8"",""num_scrambled_causal"":""4"",""num_scrambled_schematic"":""4"",""participantId"":""FE63079ABABB4127A56A3267CD5022D9"",""assignmentId"":""6e69ca83-665f-45e3-9449-4dc725f7b516"",""projectId"":""051c06f1-75cc-4548-856d-4923ddaba0dc""}","https://test12345.live/?num_scrambled_semantic=8&num_scrambled_causal=4&num_scrambled_schematic=4&participantId=FE63079ABABB4127A56A3267CD5022D9&assignmentId=6e69ca83-665f-45e3-9449-4dc725f7b516&projectId=051c06f1-75cc-4548-856d-4923ddaba0dc","FE63079ABABB4127A56A3267CD5022D9-2025-05-15-18-55-20","","null","","[]","null","",""
"","","","","","image-button-response","52","209325","0.0-10.0-1.0-0.9","FE63079ABABB4127A56A3267CD5022D9","FE63079ABABB4127A56A3267CD5022D9","6e69ca83-665f-45e3-9449-4dc725f7b516","051c06f1-75cc-4548-856d-4923ddaba0dc","{""num_scrambled_semantic"":""8"",""num_scrambled_causal"":""4"",""num_scrambled_schematic"":""4"",""participantId"":""FE63079ABABB4127A56A3267CD5022D9"",""assignmentId"":""6e69ca83-665f-45e3-9449-4dc725f7b516"",""projectId"":""051c06f1-75cc-4548-856d-4923ddaba0dc""}","https://test12345.live/?num_scrambled_semantic=8&num_scrambled_causal=4&num_scrambled_schematic=4&participantId=FE63079ABABB4127A56A3267CD5022D9&assignmentId=6e69ca83-665f-45e3-9449-4dc725f7b516&projectId=051c06f1-75cc-4548-856d-4923ddaba0dc","FE63079ABABB4127A56A3267CD5022D9-2025-05-15-18-55-20","","null","","images/semantic_sequence/kitchen_operations_semantic/kitchen_operations_semantic_7.png","null","",""
"","","","","","image-button-response","53","209960","0.0-10.0-1.0-1.9","FE63079ABABB4127A56A3267CD5022D9","FE63079ABABB4127A56A3267CD5022D9","6e69ca83-665f-45e3-9449-4dc725f7b516","051c06f1-75cc-4548-856d-4923ddaba0dc","{""num_scrambled_semantic"":""8"",""num_scrambled_causal"":""4"",""num_scrambled_schematic"":""4"",""participantId"":""FE63079ABABB4127A56A3267CD5022D9"",""assignmentId"":""6e69ca83-665f-45e3-9449-4dc725f7b516"",""projectId"":""051c06f1-75cc-4548-856d-4923ddaba0dc""}","https://test12345.live/?num_scrambled_semantic=8&num_scrambled_causal=4&num_scrambled_schematic=4&participantId=FE63079ABABB4127A56A3267CD5022D9&assignmentId=6e69ca83-665f-45e3-9449-4dc725f7b516&projectId=051c06f1-75cc-4548-856d-4923ddaba0dc","FE63079ABABB4127A56A3267CD5022D9-2025-05-15-18-55-20","","633","","images/semantic_sequence/kitchen_operations_semantic/kitchen_operations_semantic_7.png","0","",""
"","","","","","image-button-response","54","211767","0.0-10.0-1.0-2.9","FE63079ABABB4127A56A3267CD5022D9","FE63079ABABB4127A56A3267CD5022D9","6e69ca83-665f-45e3-9449-4dc725f7b516","051c06f1-75cc-4548-856d-4923ddaba0dc","{""num_scrambled_semantic"":""8"",""num_scrambled_causal"":""4"",""num_scrambled_schematic"":""4"",""participantId"":""FE63079ABABB4127A56A3267CD5022D9"",""assignmentId"":""6e69ca83-665f-45e3-9449-4dc725f7b516"",""projectId"":""051c06f1-75cc-4548-856d-4923ddaba0dc""}","https://test12345.live/?num_scrambled_semantic=8&num_scrambled_causal=4&num_scrambled_schematic=4&participantId=FE63079ABABB4127A56A3267CD5022D9&assignmentId=6e69ca83-665f-45e3-9449-4dc725f7b516&projectId=051c06f1-75cc-4548-856d-4923ddaba0dc","FE63079ABABB4127A56A3267CD5022D9-2025-05-15-18-55-20","","null","","[]","null","",""
"","","","","","html-audio-response","55","235370","0.0-11.0","FE63079ABABB4127A56A3267CD5022D9","FE63079ABABB4127A56A3267CD5022D9","6e69ca83-665f-45e3-9449-4dc725f7b516","051c06f1-75cc-4548-856d-4923ddaba0dc","{""num_scrambled_semantic"":""8"",""num_scrambled_causal"":""4"",""num_scrambled_schematic"":""4"",""participantId"":""FE63079ABABB4127A56A3267CD5022D9"",""assignmentId"":""6e69ca83-665f-45e3-9449-4dc725f7b516"",""projectId"":""051c06f1-75cc-4548-856d-4923ddaba0dc""}","https://test12345.live/?num_scrambled_semantic=8&num_scrambled_causal=4&num_scrambled_schematic=4&participantId=FE63079ABABB4127A56A3267CD5022D9&assignmentId=6e69ca83-665f-45e3-9449-4dc725f7b516&projectId=051c06f1-75cc-4548-856d-4923ddaba0dc","FE63079ABABB4127A56A3267CD5022D9-2025-05-15-18-55-20","","17956","","[""<span style=\""color: red; font-size: 24px\""> NOW RECORDING</span><p>Please say out loud all the images you saw, as many as you can remember. The images can be said in any order.</p>""]","","1","kitchen_operations_semantic"
"","","","","","image-button-response","56","241395","0.0-12.0-0.0","FE63079ABABB4127A56A3267CD5022D9","FE63079ABABB4127A56A3267CD5022D9","6e69ca83-665f-45e3-9449-4dc725f7b516","051c06f1-75cc-4548-856d-4923ddaba0dc","{""num_scrambled_semantic"":""8"",""num_scrambled_causal"":""4"",""num_scrambled_schematic"":""4"",""participantId"":""FE63079ABABB4127A56A3267CD5022D9"",""assignmentId"":""6e69ca83-665f-45e3-9449-4dc725f7b516"",""projectId"":""051c06f1-75cc-4548-856d-4923ddaba0dc""}","https://test12345.live/?num_scrambled_semantic=8&num_scrambled_causal=4&num_scrambled_schematic=4&participantId=FE63079ABABB4127A56A3267CD5022D9&assignmentId=6e69ca83-665f-45e3-9449-4dc725f7b516&projectId=051c06f1-75cc-4548-856d-4923ddaba0dc","FE63079ABABB4127A56A3267CD5022D9-2025-05-15-18-55-20","","null","","images/schematic_sequence/flight_scheme/flight_scheme_0.png","null","",""
"","","","","","image-button-response","57","245908","0.0-12.0-1.0-0.0","FE63079ABABB4127A56A3267CD5022D9","FE63079ABABB4127A56A3267CD5022D9","6e69ca83-665f-45e3-9449-4dc725f7b516","051c06f1-75cc-4548-856d-4923ddaba0dc","{""num_scrambled_semantic"":""8"",""num_scrambled_causal"":""4"",""num_scrambled_schematic"":""4"",""participantId"":""FE63079ABABB4127A56A3267CD5022D9"",""assignmentId"":""6e69ca83-665f-45e3-9449-4dc725f7b516"",""projectId"":""051c06f1-75cc-4548-856d-4923ddaba0dc""}","https://test12345.live/?num_scrambled_semantic=8&num_scrambled_causal=4&num_scrambled_schematic=4&participantId=FE63079ABABB4127A56A3267CD5022D9&assignmentId=6e69ca83-665f-45e3-9449-4dc725f7b516&projectId=051c06f1-75cc-4548-856d-4923ddaba0dc","FE63079ABABB4127A56A3267CD5022D9-2025-05-15-18-55-20","","null","","images/schematic_sequence/flight_scheme/flight_scheme_8.png","null","",""
"","","","","","image-button-response","58","247570","0.0-12.0-1.0-1.0","FE63079ABABB4127A56A3267CD5022D9","FE63079ABABB4127A56A3267CD5022D9","6e69ca83-665f-45e3-9449-4dc725f7b516","051c06f1-75cc-4548-856d-4923ddaba0dc","{""num_scrambled_semantic"":""8"",""num_scrambled_causal"":""4"",""num_scrambled_schematic"":""4"",""participantId"":""FE63079ABABB4127A56A3267CD5022D9"",""assignmentId"":""6e69ca83-665f-45e3-9449-4dc725f7b516"",""projectId"":""051c06f1-75cc-4548-856d-4923ddaba0dc""}","https://test12345.live/?num_scrambled_semantic=8&num_scrambled_causal=4&num_scrambled_schematic=4&participantId=FE63079ABABB4127A56A3267CD5022D9&assignmentId=6e69ca83-665f-45e3-9449-4dc725f7b516&projectId=051c06f1-75cc-4548-856d-4923ddaba0dc","FE63079ABABB4127A56A3267CD5022D9-2025-05-15-18-55-20","","1660","","images/schematic_sequence/flight_scheme/flight_scheme_8.png","1","",""
"","","","","","image-button-response","59","249387","0.0-12.0-1.0-2.0","FE63079ABABB4127A56A3267CD5022D9","FE63079ABABB4127A56A3267CD5022D9","6e69ca83-665f-45e3-9449-4dc725f7b516","051c06f1-75cc-4548-856d-4923ddaba0dc","{""num_scrambled_semantic"":""8"",""num_scrambled_causal"":""4"",""num_scrambled_schematic"":""4"",""participantId"":""FE63079ABABB4127A56A3267CD5022D9"",""assignmentId"":""6e69ca83-665f-45e3-9449-4dc725f7b516"",""projectId"":""051c06f1-75cc-4548-856d-4923ddaba0dc""}","https://test12345.live/?num_scrambled_semantic=8&num_scrambled_causal=4&num_scrambled_schematic=4&participantId=FE63079ABABB4127A56A3267CD5022D9&assignmentId=6e69ca83-665f-45e3-9449-4dc725f7b516&projectId=051c06f1-75cc-4548-856d-4923ddaba0dc","FE63079ABABB4127A56A3267CD5022D9-2025-05-15-18-55-20","","null","","[]","null","",""
"","","","","","image-button-response","60","253898","0.0-12.0-1.0-0.1","FE63079ABABB4127A56A3267CD5022D9","FE63079ABABB4127A56A3267CD5022D9","6e69ca83-665f-45e3-9449-4dc725f7b516","051c06f1-75cc-4548-856d-4923ddaba0dc","{""num_scrambled_semantic"":""8"",""num_scrambled_causal"":""4"",""num_scrambled_schematic"":""4"",""participantId"":""FE63079ABABB4127A56A3267CD5022D9"",""assignmentId"":""6e69ca83-665f-45e3-9449-4dc725f7b516"",""projectId"":""051c06f1-75cc-4548-856d-4923ddaba0dc""}","https://test12345.live/?num_scrambled_semantic=8&num_scrambled_causal=4&num_scrambled_schematic=4&participantId=FE63079ABABB4127A56A3267CD5022D9&assignmentId=6e69ca83-665f-45e3-9449-4dc725f7b516&projectId=051c06f1-75cc-4548-856d-4923ddaba0dc","FE63079ABABB4127A56A3267CD5022D9-2025-05-15-18-55-20","","null","","images/schematic_sequence/flight_scheme/flight_scheme_5.png","null","",""
"","","","","","image-button-response","61","254890","0.0-12.0-1.0-1.1","FE63079ABABB4127A56A3267CD5022D9","FE63079ABABB4127A56A3267CD5022D9","6e69ca83-665f-45e3-9449-4dc725f7b516","051c06f1-75cc-4548-856d-4923ddaba0dc","{""num_scrambled_semantic"":""8"",""num_scrambled_causal"":""4"",""num_scrambled_schematic"":""4"",""participantId"":""FE63079ABABB4127A56A3267CD5022D9"",""assignmentId"":""6e69ca83-665f-45e3-9449-4dc725f7b516"",""projectId"":""051c06f1-75cc-4548-856d-4923ddaba0dc""}","https://test12345.live/?num_scrambled_semantic=8&num_scrambled_causal=4&num_scrambled_schematic=4&participantId=FE63079ABABB4127A56A3267CD5022D9&assignmentId=6e69ca83-665f-45e3-9449-4dc725f7b516&projectId=051c06f1-75cc-4548-856d-4923ddaba0dc","FE63079ABABB4127A56A3267CD5022D9-2025-05-15-18-55-20","","991","","images/schematic_sequence/flight_scheme/flight_scheme_5.png","0","",""
"","","","","","image-button-response","62","256701","0.0-12.0-1.0-2.1","FE63079ABABB4127A56A3267CD5022D9","FE63079ABABB4127A56A3267CD5022D9","6e69ca83-665f-45e3-9449-4dc725f7b516","051c06f1-75cc-4548-856d-4923ddaba0dc","{""num_scrambled_semantic"":""8"",""num_scrambled_causal"":""4"",""num_scrambled_schematic"":""4"",""participantId"":""FE63079ABABB4127A56A3267CD5022D9"",""assignmentId"":""6e69ca83-665f-45e3-9449-4dc725f7b516"",""projectId"":""051c06f1-75cc-4548-856d-4923ddaba0dc""}","https://test12345.live/?num_scrambled_semantic=8&num_scrambled_causal=4&num_scrambled_schematic=4&participantId=FE63079ABABB4127A56A3267CD5022D9&assignmentId=6e69ca83-665f-45e3-9449-4dc725f7b516&projectId=051c06f1-75cc-4548-856d-4923ddaba0dc","FE63079ABABB4127A56A3267CD5022D9-2025-05-15-18-55-20","","null","","[]","null","",""
"","","","","","image-button-response","63","261212","0.0-12.0-1.0-0.2","FE63079ABABB4127A56A3267CD5022D9","FE63079ABABB4127A56A3267CD5022D9","6e69ca83-665f-45e3-9449-4dc725f7b516","051c06f1-75cc-4548-856d-4923ddaba0dc","{""num_scrambled_semantic"":""8"",""num_scrambled_causal"":""4"",""num_scrambled_schematic"":""4"",""participantId"":""FE63079ABABB4127A56A3267CD5022D9"",""assignmentId"":""6e69ca83-665f-45e3-9449-4dc725f7b516"",""projectId"":""051c06f1-75cc-4548-856d-4923ddaba0dc""}","https://test12345.live/?num_scrambled_semantic=8&num_scrambled_causal=4&num_scrambled_schematic=4&participantId=FE63079ABABB4127A56A3267CD5022D9&assignmentId=6e69ca83-665f-45e3-9449-4dc725f7b516&projectId=051c06f1-75cc-4548-856d-4923ddaba0dc","FE63079ABABB4127A56A3267CD5022D9-2025-05-15-18-55-20","","null","","images/schematic_sequence/flight_scheme/flight_scheme_9.png","null","",""
"","","","","","image-button-response","64","262805","0.0-12.0-1.0-1.2","FE63079ABABB4127A56A3267CD5022D9","FE63079ABABB4127A56A3267CD5022D9","6e69ca83-665f-45e3-9449-4dc725f7b516","051c06f1-75cc-4548-856d-4923ddaba0dc","{""num_scrambled_semantic"":""8"",""num_scrambled_causal"":""4"",""num_scrambled_schematic"":""4"",""participantId"":""FE63079ABABB4127A56A3267CD5022D9"",""assignmentId"":""6e69ca83-665f-45e3-9449-4dc725f7b516"",""projectId"":""051c06f1-75cc-4548-856d-4923ddaba0dc""}","https://test12345.live/?num_scrambled_semantic=8&num_scrambled_causal=4&num_scrambled_schematic=4&participantId=FE63079ABABB4127A56A3267CD5022D9&assignmentId=6e69ca83-665f-45e3-9449-4dc725f7b516&projectId=051c06f1-75cc-4548-856d-4923ddaba0dc","FE63079ABABB4127A56A3267CD5022D9-2025-05-15-18-55-20","","1591","","images/schematic_sequence/flight_scheme/flight_scheme_9.png","0","",""
"","","","","","image-button-response","65","264616","0.0-12.0-1.0-2.2","FE63079ABABB4127A56A3267CD5022D9","FE63079ABABB4127A56A3267CD5022D9","6e69ca83-665f-45e3-9449-4dc725f7b516","051c06f1-75cc-4548-856d-4923ddaba0dc","{""num_scrambled_semantic"":""8"",""num_scrambled_causal"":""4"",""num_scrambled_schematic"":""4"",""participantId"":""FE63079ABABB4127A56A3267CD5022D9"",""assignmentId"":""6e69ca83-665f-45e3-9449-4dc725f7b516"",""projectId"":""051c06f1-75cc-4548-856d-4923ddaba0dc""}","https://test12345.live/?num_scrambled_semantic=8&num_scrambled_causal=4&num_scrambled_schematic=4&participantId=FE63079ABABB4127A56A3267CD5022D9&assignmentId=6e69ca83-665f-45e3-9449-4dc725f7b516&projectId=051c06f1-75cc-4548-856d-4923ddaba0dc","FE63079ABABB4127A56A3267CD5022D9-2025-05-15-18-55-20","","null","","[]","null","",""
"","","","","","image-button-response","66","269130","0.0-12.0-1.0-0.3","FE63079ABABB4127A56A3267CD5022D9","FE63079ABABB4127A56A3267CD5022D9","6e69ca83-665f-45e3-9449-4dc725f7b516","051c06f1-75cc-4548-856d-4923ddaba0dc","{""num_scrambled_semantic"":""8"",""num_scrambled_causal"":""4"",""num_scrambled_schematic"":""4"",""participantId"":""FE63079ABABB4127A56A3267CD5022D9"",""assignmentId"":""6e69ca83-665f-45e3-9449-4dc725f7b516"",""projectId"":""051c06f1-75cc-4548-856d-4923ddaba0dc""}","https://test12345.live/?num_scrambled_semantic=8&num_scrambled_causal=4&num_scrambled_schematic=4&participantId=FE63079ABABB4127A56A3267CD5022D9&assignmentId=6e69ca83-665f-45e3-9449-4dc725f7b516&projectId=051c06f1-75cc-4548-856d-4923ddaba0dc","FE63079ABABB4127A56A3267CD5022D9-2025-05-15-18-55-20","","null","","images/schematic_sequence/flight_scheme/flight_scheme_2.png","null","",""
"","","","","","image-button-response","67","270716","0.0-12.0-1.0-1.3","FE63079ABABB4127A56A3267CD5022D9","FE63079ABABB4127A56A3267CD5022D9","6e69ca83-665f-45e3-9449-4dc725f7b516","051c06f1-75cc-4548-856d-4923ddaba0dc","{""num_scrambled_semantic"":""8"",""num_scrambled_causal"":""4"",""num_scrambled_schematic"":""4"",""participantId"":""FE63079ABABB4127A56A3267CD5022D9"",""assignmentId"":""6e69ca83-665f-45e3-9449-4dc725f7b516"",""projectId"":""051c06f1-75cc-4548-856d-4923ddaba0dc""}","https://test12345.live/?num_scrambled_semantic=8&num_scrambled_causal=4&num_scrambled_schematic=4&participantId=FE63079ABABB4127A56A3267CD5022D9&assignmentId=6e69ca83-665f-45e3-9449-4dc725f7b516&projectId=051c06f1-75cc-4548-856d-4923ddaba0dc","FE63079ABABB4127A56A3267CD5022D9-2025-05-15-18-55-20","","1584","","images/schematic_sequence/flight_scheme/flight_scheme_2.png","0","",""
"","","","","","image-button-response","68","272527","0.0-12.0-1.0-2.3","FE63079ABABB4127A56A3267CD5022D9","FE63079ABABB4127A56A3267CD5022D9","6e69ca83-665f-45e3-9449-4dc725f7b516","051c06f1-75cc-4548-856d-4923ddaba0dc","{""num_scrambled_semantic"":""8"",""num_scrambled_causal"":""4"",""num_scrambled_schematic"":""4"",""participantId"":""FE63079ABABB4127A56A3267CD5022D9"",""assignmentId"":""6e69ca83-665f-45e3-9449-4dc725f7b516"",""projectId"":""051c06f1-75cc-4548-856d-4923ddaba0dc""}","https://test12345.live/?num_scrambled_semantic=8&num_scrambled_causal=4&num_scrambled_schematic=4&participantId=FE63079ABABB4127A56A3267CD5022D9&assignmentId=6e69ca83-665f-45e3-9449-4dc725f7b516&projectId=051c06f1-75cc-4548-856d-4923ddaba0dc","FE63079ABABB4127A56A3267CD5022D9-2025-05-15-18-55-20","","null","","[]","null","",""
"","","","","","image-button-response","69","277040","0.0-12.0-1.0-0.4","FE63079ABABB4127A56A3267CD5022D9","FE63079ABABB4127A56A3267CD5022D9","6e69ca83-665f-45e3-9449-4dc725f7b516","051c06f1-75cc-4548-856d-4923ddaba0dc","{""num_scrambled_semantic"":""8"",""num_scrambled_causal"":""4"",""num_scrambled_schematic"":""4"",""participantId"":""FE63079ABABB4127A56A3267CD5022D9"",""assignmentId"":""6e69ca83-665f-45e3-9449-4dc725f7b516"",""projectId"":""051c06f1-75cc-4548-856d-4923ddaba0dc""}","https://test12345.live/?num_scrambled_semantic=8&num_scrambled_causal=4&num_scrambled_schematic=4&participantId=FE63079ABABB4127A56A3267CD5022D9&assignmentId=6e69ca83-665f-45e3-9449-4dc725f7b516&projectId=051c06f1-75cc-4548-856d-4923ddaba0dc","FE63079ABABB4127A56A3267CD5022D9-2025-05-15-18-55-20","","null","","images/schematic_sequence/flight_scheme/flight_scheme_1.png","null","",""
"","","","","","image-button-response","70","281051","0.0-12.0-1.0-1.4","FE63079ABABB4127A56A3267CD5022D9","FE63079ABABB4127A56A3267CD5022D9","6e69ca83-665f-45e3-9449-4dc725f7b516","051c06f1-75cc-4548-856d-4923ddaba0dc","{""num_scrambled_semantic"":""8"",""num_scrambled_causal"":""4"",""num_scrambled_schematic"":""4"",""participantId"":""FE63079ABABB4127A56A3267CD5022D9"",""assignmentId"":""6e69ca83-665f-45e3-9449-4dc725f7b516"",""projectId"":""051c06f1-75cc-4548-856d-4923ddaba0dc""}","https://test12345.live/?num_scrambled_semantic=8&num_scrambled_causal=4&num_scrambled_schematic=4&participantId=FE63079ABABB4127A56A3267CD5022D9&assignmentId=6e69ca83-665f-45e3-9449-4dc725f7b516&projectId=051c06f1-75cc-4548-856d-4923ddaba0dc","FE63079ABABB4127A56A3267CD5022D9-2025-05-15-18-55-20","","null","","images/schematic_sequence/flight_scheme/flight_scheme_1.png","null","",""
"","","","","","image-button-response","71","282867","0.0-12.0-1.0-2.4","FE63079ABABB4127A56A3267CD5022D9","FE63079ABABB4127A56A3267CD5022D9","6e69ca83-665f-45e3-9449-4dc725f7b516","051c06f1-75cc-4548-856d-4923ddaba0dc","{""num_scrambled_semantic"":""8"",""num_scrambled_causal"":""4"",""num_scrambled_schematic"":""4"",""participantId"":""FE63079ABABB4127A56A3267CD5022D9"",""assignmentId"":""6e69ca83-665f-45e3-9449-4dc725f7b516"",""projectId"":""051c06f1-75cc-4548-856d-4923ddaba0dc""}","https://test12345.live/?num_scrambled_semantic=8&num_scrambled_causal=4&num_scrambled_schematic=4&participantId=FE63079ABABB4127A56A3267CD5022D9&assignmentId=6e69ca83-665f-45e3-9449-4dc725f7b516&projectId=051c06f1-75cc-4548-856d-4923ddaba0dc","FE63079ABABB4127A56A3267CD5022D9-2025-05-15-18-55-20","","null","","[]","null","",""
"","","","","","image-button-response","72","287376","0.0-12.0-1.0-0.5","FE63079ABABB4127A56A3267CD5022D9","FE63079ABABB4127A56A3267CD5022D9","6e69ca83-665f-45e3-9449-4dc725f7b516","051c06f1-75cc-4548-856d-4923ddaba0dc","{""num_scrambled_semantic"":""8"",""num_scrambled_causal"":""4"",""num_scrambled_schematic"":""4"",""participantId"":""FE63079ABABB4127A56A3267CD5022D9"",""assignmentId"":""6e69ca83-665f-45e3-9449-4dc725f7b516"",""projectId"":""051c06f1-75cc-4548-856d-4923ddaba0dc""}","https://test12345.live/?num_scrambled_semantic=8&num_scrambled_causal=4&num_scrambled_schematic=4&participantId=FE63079ABABB4127A56A3267CD5022D9&assignmentId=6e69ca83-665f-45e3-9449-4dc725f7b516&projectId=051c06f1-75cc-4548-856d-4923ddaba0dc","FE63079ABABB4127A56A3267CD5022D9-2025-05-15-18-55-20","","null","","images/schematic_sequence/flight_scheme/flight_scheme_4.png","null","",""
"","","","","","image-button-response","73","288162","0.0-12.0-1.0-1.5","FE63079ABABB4127A56A3267CD5022D9","FE63079ABABB4127A56A3267CD5022D9","6e69ca83-665f-45e3-9449-4dc725f7b516","051c06f1-75cc-4548-856d-4923ddaba0dc","{""num_scrambled_semantic"":""8"",""num_scrambled_causal"":""4"",""num_scrambled_schematic"":""4"",""participantId"":""FE63079ABABB4127A56A3267CD5022D9"",""assignmentId"":""6e69ca83-665f-45e3-9449-4dc725f7b516"",""projectId"":""051c06f1-75cc-4548-856d-4923ddaba0dc""}","https://test12345.live/?num_scrambled_semantic=8&num_scrambled_causal=4&num_scrambled_schematic=4&participantId=FE63079ABABB4127A56A3267CD5022D9&assignmentId=6e69ca83-665f-45e3-9449-4dc725f7b516&projectId=051c06f1-75cc-4548-856d-4923ddaba0dc","FE63079ABABB4127A56A3267CD5022D9-2025-05-15-18-55-20","","784","","images/schematic_sequence/flight_scheme/flight_scheme_4.png","0","",""
"","","","","","image-button-response","74","289986","0.0-12.0-1.0-2.5","FE63079ABABB4127A56A3267CD5022D9","FE63079ABABB4127A56A3267CD5022D9","6e69ca83-665f-45e3-9449-4dc725f7b516","051c06f1-75cc-4548-856d-4923ddaba0dc","{""num_scrambled_semantic"":""8"",""num_scrambled_causal"":""4"",""num_scrambled_schematic"":""4"",""participantId"":""FE63079ABABB4127A56A3267CD5022D9"",""assignmentId"":""6e69ca83-665f-45e3-9449-4dc725f7b516"",""projectId"":""051c06f1-75cc-4548-856d-4923ddaba0dc""}","https://test12345.live/?num_scrambled_semantic=8&num_scrambled_causal=4&num_scrambled_schematic=4&participantId=FE63079ABABB4127A56A3267CD5022D9&assignmentId=6e69ca83-665f-45e3-9449-4dc725f7b516&projectId=051c06f1-75cc-4548-856d-4923ddaba0dc","FE63079ABABB4127A56A3267CD5022D9-2025-05-15-18-55-20","","null","","[]","null","",""
"","","","","","image-button-response","75","294493","0.0-12.0-1.0-0.6","FE63079ABABB4127A56A3267CD5022D9","FE63079ABABB4127A56A3267CD5022D9","6e69ca83-665f-45e3-9449-4dc725f7b516","051c06f1-75cc-4548-856d-4923ddaba0dc","{""num_scrambled_semantic"":""8"",""num_scrambled_causal"":""4"",""num_scrambled_schematic"":""4"",""participantId"":""FE63079ABABB4127A56A3267CD5022D9"",""assignmentId"":""6e69ca83-665f-45e3-9449-4dc725f7b516"",""projectId"":""051c06f1-75cc-4548-856d-4923ddaba0dc""}","https://test12345.live/?num_scrambled_semantic=8&num_scrambled_causal=4&num_scrambled_schematic=4&participantId=FE63079ABABB4127A56A3267CD5022D9&assignmentId=6e69ca83-665f-45e3-9449-4dc725f7b516&projectId=051c06f1-75cc-4548-856d-4923ddaba0dc","FE63079ABABB4127A56A3267CD5022D9-2025-05-15-18-55-20","","null","","images/schematic_sequence/flight_scheme/flight_scheme_6.png","null","",""
"","","","","","image-button-response","76","295852","0.0-12.0-1.0-1.6","FE63079ABABB4127A56A3267CD5022D9","FE63079ABABB4127A56A3267CD5022D9","6e69ca83-665f-45e3-9449-4dc725f7b516","051c06f1-75cc-4548-856d-4923ddaba0dc","{""num_scrambled_semantic"":""8"",""num_scrambled_causal"":""4"",""num_scrambled_schematic"":""4"",""participantId"":""FE63079ABABB4127A56A3267CD5022D9"",""assignmentId"":""6e69ca83-665f-45e3-9449-4dc725f7b516"",""projectId"":""051c06f1-75cc-4548-856d-4923ddaba0dc""}","https://test12345.live/?num_scrambled_semantic=8&num_scrambled_causal=4&num_scrambled_schematic=4&participantId=FE63079ABABB4127A56A3267CD5022D9&assignmentId=6e69ca83-665f-45e3-9449-4dc725f7b516&projectId=051c06f1-75cc-4548-856d-4923ddaba0dc","FE63079ABABB4127A56A3267CD5022D9-2025-05-15-18-55-20","","1357","","images/schematic_sequence/flight_scheme/flight_scheme_6.png","1","",""
"","","","","","image-button-response","77","297655","0.0-12.0-1.0-2.6","FE63079ABABB4127A56A3267CD5022D9","FE63079ABABB4127A56A3267CD5022D9","6e69ca83-665f-45e3-9449-4dc725f7b516","051c06f1-75cc-4548-856d-4923ddaba0dc","{""num_scrambled_semantic"":""8"",""num_scrambled_causal"":""4"",""num_scrambled_schematic"":""4"",""participantId"":""FE63079ABABB4127A56A3267CD5022D9"",""assignmentId"":""6e69ca83-665f-45e3-9449-4dc725f7b516"",""projectId"":""051c06f1-75cc-4548-856d-4923ddaba0dc""}","https://test12345.live/?num_scrambled_semantic=8&num_scrambled_causal=4&num_scrambled_schematic=4&participantId=FE63079ABABB4127A56A3267CD5022D9&assignmentId=6e69ca83-665f-45e3-9449-4dc725f7b516&projectId=051c06f1-75cc-4548-856d-4923ddaba0dc","FE63079ABABB4127A56A3267CD5022D9-2025-05-15-18-55-20","","null","","[]","null","",""
"","","","","","image-button-response","78","302169","0.0-12.0-1.0-0.7","FE63079ABABB4127A56A3267CD5022D9","FE63079ABABB4127A56A3267CD5022D9","6e69ca83-665f-45e3-9449-4dc725f7b516","051c06f1-75cc-4548-856d-4923ddaba0dc","{""num_scrambled_semantic"":""8"",""num_scrambled_causal"":""4"",""num_scrambled_schematic"":""4"",""participantId"":""FE63079ABABB4127A56A3267CD5022D9"",""assignmentId"":""6e69ca83-665f-45e3-9449-4dc725f7b516"",""projectId"":""051c06f1-75cc-4548-856d-4923ddaba0dc""}","https://test12345.live/?num_scrambled_semantic=8&num_scrambled_causal=4&num_scrambled_schematic=4&participantId=FE63079ABABB4127A56A3267CD5022D9&assignmentId=6e69ca83-665f-45e3-9449-4dc725f7b516&projectId=051c06f1-75cc-4548-856d-4923ddaba0dc","FE63079ABABB4127A56A3267CD5022D9-2025-05-15-18-55-20","","null","","images/schematic_sequence/flight_scheme/flight_scheme_ten.png","null","",""
"","","","","","image-button-response","79","302855","0.0-12.0-1.0-1.7","FE63079ABABB4127A56A3267CD5022D9","FE63079ABABB4127A56A3267CD5022D9","6e69ca83-665f-45e3-9449-4dc725f7b516","051c06f1-75cc-4548-856d-4923ddaba0dc","{""num_scrambled_semantic"":""8"",""num_scrambled_causal"":""4"",""num_scrambled_schematic"":""4"",""participantId"":""FE63079ABABB4127A56A3267CD5022D9"",""assignmentId"":""6e69ca83-665f-45e3-9449-4dc725f7b516"",""projectId"":""051c06f1-75cc-4548-856d-4923ddaba0dc""}","https://test12345.live/?num_scrambled_semantic=8&num_scrambled_causal=4&num_scrambled_schematic=4&participantId=FE63079ABABB4127A56A3267CD5022D9&assignmentId=6e69ca83-665f-45e3-9449-4dc725f7b516&projectId=051c06f1-75cc-4548-856d-4923ddaba0dc","FE63079ABABB4127A56A3267CD5022D9-2025-05-15-18-55-20","","684","","images/schematic_sequence/flight_scheme/flight_scheme_ten.png","0","",""
"","","","","","image-button-response","80","304665","0.0-12.0-1.0-2.7","FE63079ABABB4127A56A3267CD5022D9","FE63079ABABB4127A56A3267CD5022D9","6e69ca83-665f-45e3-9449-4dc725f7b516","051c06f1-75cc-4548-856d-4923ddaba0dc","{""num_scrambled_semantic"":""8"",""num_scrambled_causal"":""4"",""num_scrambled_schematic"":""4"",""participantId"":""FE63079ABABB4127A56A3267CD5022D9"",""assignmentId"":""6e69ca83-665f-45e3-9449-4dc725f7b516"",""projectId"":""051c06f1-75cc-4548-856d-4923ddaba0dc""}","https://test12345.live/?num_scrambled_semantic=8&num_scrambled_causal=4&num_scrambled_schematic=4&participantId=FE63079ABABB4127A56A3267CD5022D9&assignmentId=6e69ca83-665f-45e3-9449-4dc725f7b516&projectId=051c06f1-75cc-4548-856d-4923ddaba0dc","FE63079ABABB4127A56A3267CD5022D9-2025-05-15-18-55-20","","null","","[]","null","",""
"","","","","","image-button-response","81","309182","0.0-12.0-1.0-0.8","FE63079ABABB4127A56A3267CD5022D9","FE63079ABABB4127A56A3267CD5022D9","6e69ca83-665f-45e3-9449-4dc725f7b516","051c06f1-75cc-4548-856d-4923ddaba0dc","{""num_scrambled_semantic"":""8"",""num_scrambled_causal"":""4"",""num_scrambled_schematic"":""4"",""participantId"":""FE63079ABABB4127A56A3267CD5022D9"",""assignmentId"":""6e69ca83-665f-45e3-9449-4dc725f7b516"",""projectId"":""051c06f1-75cc-4548-856d-4923ddaba0dc""}","https://test12345.live/?num_scrambled_semantic=8&num_scrambled_causal=4&num_scrambled_schematic=4&participantId=FE63079ABABB4127A56A3267CD5022D9&assignmentId=6e69ca83-665f-45e3-9449-4dc725f7b516&projectId=051c06f1-75cc-4548-856d-4923ddaba0dc","FE63079ABABB4127A56A3267CD5022D9-2025-05-15-18-55-20","","null","","images/schematic_sequence/flight_scheme/flight_scheme_3.png","null","",""
"","","","","","image-button-response","82","310222","0.0-12.0-1.0-1.8","FE63079ABABB4127A56A3267CD5022D9","FE63079ABABB4127A56A3267CD5022D9","6e69ca83-665f-45e3-9449-4dc725f7b516","051c06f1-75cc-4548-856d-4923ddaba0dc","{""num_scrambled_semantic"":""8"",""num_scrambled_causal"":""4"",""num_scrambled_schematic"":""4"",""participantId"":""FE63079ABABB4127A56A3267CD5022D9"",""assignmentId"":""6e69ca83-665f-45e3-9449-4dc725f7b516"",""projectId"":""051c06f1-75cc-4548-856d-4923ddaba0dc""}","https://test12345.live/?num_scrambled_semantic=8&num_scrambled_causal=4&num_scrambled_schematic=4&participantId=FE63079ABABB4127A56A3267CD5022D9&assignmentId=6e69ca83-665f-45e3-9449-4dc725f7b516&projectId=051c06f1-75cc-4548-856d-4923ddaba0dc","FE63079ABABB4127A56A3267CD5022D9-2025-05-15-18-55-20","","1038","","images/schematic_sequence/flight_scheme/flight_scheme_3.png","0","",""
"","","","","","image-button-response","83","312027","0.0-12.0-1.0-2.8","FE63079ABABB4127A56A3267CD5022D9","FE63079ABABB4127A56A3267CD5022D9","6e69ca83-665f-45e3-9449-4dc725f7b516","051c06f1-75cc-4548-856d-4923ddaba0dc","{""num_scrambled_semantic"":""8"",""num_scrambled_causal"":""4"",""num_scrambled_schematic"":""4"",""participantId"":""FE63079ABABB4127A56A3267CD5022D9"",""assignmentId"":""6e69ca83-665f-45e3-9449-4dc725f7b516"",""projectId"":""051c06f1-75cc-4548-856d-4923ddaba0dc""}","https://test12345.live/?num_scrambled_semantic=8&num_scrambled_causal=4&num_scrambled_schematic=4&participantId=FE63079ABABB4127A56A3267CD5022D9&assignmentId=6e69ca83-665f-45e3-9449-4dc725f7b516&projectId=051c06f1-75cc-4548-856d-4923ddaba0dc","FE63079ABABB4127A56A3267CD5022D9-2025-05-15-18-55-20","","null","","[]","null","",""
"","","","","","image-button-response","84","316537","0.0-12.0-1.0-0.9","FE63079ABABB4127A56A3267CD5022D9","FE63079ABABB4127A56A3267CD5022D9","6e69ca83-665f-45e3-9449-4dc725f7b516","051c06f1-75cc-4548-856d-4923ddaba0dc","{""num_scrambled_semantic"":""8"",""num_scrambled_causal"":""4"",""num_scrambled_schematic"":""4"",""participantId"":""FE63079ABABB4127A56A3267CD5022D9"",""assignmentId"":""6e69ca83-665f-45e3-9449-4dc725f7b516"",""projectId"":""051c06f1-75cc-4548-856d-4923ddaba0dc""}","https://test12345.live/?num_scrambled_semantic=8&num_scrambled_causal=4&num_scrambled_schematic=4&participantId=FE63079ABABB4127A56A3267CD5022D9&assignmentId=6e69ca83-665f-45e3-9449-4dc725f7b516&projectId=051c06f1-75cc-4548-856d-4923ddaba0dc","FE63079ABABB4127A56A3267CD5022D9-2025-05-15-18-55-20","","null","","images/schematic_sequence/flight_scheme/flight_scheme_7.png","null","",""
"","","","","","image-button-response","85","318445","0.0-12.0-1.0-1.9","FE63079ABABB4127A56A3267CD5022D9","FE63079ABABB4127A56A3267CD5022D9","6e69ca83-665f-45e3-9449-4dc725f7b516","051c06f1-75cc-4548-856d-4923ddaba0dc","{""num_scrambled_semantic"":""8"",""num_scrambled_causal"":""4"",""num_scrambled_schematic"":""4"",""participantId"":""FE63079ABABB4127A56A3267CD5022D9"",""assignmentId"":""6e69ca83-665f-45e3-9449-4dc725f7b516"",""projectId"":""051c06f1-75cc-4548-856d-4923ddaba0dc""}","https://test12345.live/?num_scrambled_semantic=8&num_scrambled_causal=4&num_scrambled_schematic=4&participantId=FE63079ABABB4127A56A3267CD5022D9&assignmentId=6e69ca83-665f-45e3-9449-4dc725f7b516&projectId=051c06f1-75cc-4548-856d-4923ddaba0dc","FE63079ABABB4127A56A3267CD5022D9-2025-05-15-18-55-20","","1906","","images/schematic_sequence/flight_scheme/flight_scheme_7.png","1","",""
"","","","","","image-button-response","86","320252","0.0-12.0-1.0-2.9","FE63079ABABB4127A56A3267CD5022D9","FE63079ABABB4127A56A3267CD5022D9","6e69ca83-665f-45e3-9449-4dc725f7b516","051c06f1-75cc-4548-856d-4923ddaba0dc","{""num_scrambled_semantic"":""8"",""num_scrambled_causal"":""4"",""num_scrambled_schematic"":""4"",""participantId"":""FE63079ABABB4127A56A3267CD5022D9"",""assignmentId"":""6e69ca83-665f-45e3-9449-4dc725f7b516"",""projectId"":""051c06f1-75cc-4548-856d-4923ddaba0dc""}","https://test12345.live/?num_scrambled_semantic=8&num_scrambled_causal=4&num_scrambled_schematic=4&participantId=FE63079ABABB4127A56A3267CD5022D9&assignmentId=6e69ca83-665f-45e3-9449-4dc725f7b516&projectId=051c06f1-75cc-4548-856d-4923ddaba0dc","FE63079ABABB4127A56A3267CD5022D9-2025-05-15-18-55-20","","null","","[]","null","",""
"","","","","","html-audio-response","87","345541","0.0-13.0","FE63079ABABB4127A56A3267CD5022D9","FE63079ABABB4127A56A3267CD5022D9","6e69ca83-665f-45e3-9449-4dc725f7b516","051c06f1-75cc-4548-856d-4923ddaba0dc","{""num_scrambled_semantic"":""8"",""num_scrambled_causal"":""4"",""num_scrambled_schematic"":""4"",""participantId"":""FE63079ABABB4127A56A3267CD5022D9"",""assignmentId"":""6e69ca83-665f-45e3-9449-4dc725f7b516"",""projectId"":""051c06f1-75cc-4548-856d-4923ddaba0dc""}","https://test12345.live/?num_scrambled_semantic=8&num_scrambled_causal=4&num_scrambled_schematic=4&participantId=FE63079ABABB4127A56A3267CD5022D9&assignmentId=6e69ca83-665f-45e3-9449-4dc725f7b516&projectId=051c06f1-75cc-4548-856d-4923ddaba0dc","FE63079ABABB4127A56A3267CD5022D9-2025-05-15-18-55-20","","23948","","[""<span style=\""color: red; font-size: 24px\""> NOW RECORDING</span><p>Please say out loud all the images you saw, as many as you can remember. The images can be said in any order.</p>""]","","27","flight_scheme"
"","","","","","image-button-response","88","351564","0.0-14.0-0.0","FE63079ABABB4127A56A3267CD5022D9","FE63079ABABB4127A56A3267CD5022D9","6e69ca83-665f-45e3-9449-4dc725f7b516","051c06f1-75cc-4548-856d-4923ddaba0dc","{""num_scrambled_semantic"":""8"",""num_scrambled_causal"":""4"",""num_scrambled_schematic"":""4"",""participantId"":""FE63079ABABB4127A56A3267CD5022D9"",""assignmentId"":""6e69ca83-665f-45e3-9449-4dc725f7b516"",""projectId"":""051c06f1-75cc-4548-856d-4923ddaba0dc""}","https://test12345.live/?num_scrambled_semantic=8&num_scrambled_causal=4&num_scrambled_schematic=4&participantId=FE63079ABABB4127A56A3267CD5022D9&assignmentId=6e69ca83-665f-45e3-9449-4dc725f7b516&projectId=051c06f1-75cc-4548-856d-4923ddaba0dc","FE63079ABABB4127A56A3267CD5022D9-2025-05-15-18-55-20","","null","","images/causal_sequence/museum_causal/museum_causal_0.png","null","",""
"","","","","","image-button-response","89","356072","0.0-14.0-1.0-0.0","FE63079ABABB4127A56A3267CD5022D9","FE63079ABABB4127A56A3267CD5022D9","6e69ca83-665f-45e3-9449-4dc725f7b516","051c06f1-75cc-4548-856d-4923ddaba0dc","{""num_scrambled_semantic"":""8"",""num_scrambled_causal"":""4"",""num_scrambled_schematic"":""4"",""participantId"":""FE63079ABABB4127A56A3267CD5022D9"",""assignmentId"":""6e69ca83-665f-45e3-9449-4dc725f7b516"",""projectId"":""051c06f1-75cc-4548-856d-4923ddaba0dc""}","https://test12345.live/?num_scrambled_semantic=8&num_scrambled_causal=4&num_scrambled_schematic=4&participantId=FE63079ABABB4127A56A3267CD5022D9&assignmentId=6e69ca83-665f-45e3-9449-4dc725f7b516&projectId=051c06f1-75cc-4548-856d-4923ddaba0dc","FE63079ABABB4127A56A3267CD5022D9-2025-05-15-18-55-20","","null","","images/causal_sequence/museum_causal/museum_causal_1.png","null","",""
"","","","","","image-button-response","90","357305","0.0-14.0-1.0-1.0","FE63079ABABB4127A56A3267CD5022D9","FE63079ABABB4127A56A3267CD5022D9","6e69ca83-665f-45e3-9449-4dc725f7b516","051c06f1-75cc-4548-856d-4923ddaba0dc","{""num_scrambled_semantic"":""8"",""num_scrambled_causal"":""4"",""num_scrambled_schematic"":""4"",""participantId"":""FE63079ABABB4127A56A3267CD5022D9"",""assignmentId"":""6e69ca83-665f-45e3-9449-4dc725f7b516"",""projectId"":""051c06f1-75cc-4548-856d-4923ddaba0dc""}","https://test12345.live/?num_scrambled_semantic=8&num_scrambled_causal=4&num_scrambled_schematic=4&participantId=FE63079ABABB4127A56A3267CD5022D9&assignmentId=6e69ca83-665f-45e3-9449-4dc725f7b516&projectId=051c06f1-75cc-4548-856d-4923ddaba0dc","FE63079ABABB4127A56A3267CD5022D9-2025-05-15-18-55-20","","1231","","images/causal_sequence/museum_causal/museum_causal_1.png","0","",""
"","","","","","image-button-response","91","359110","0.0-14.0-1.0-2.0","FE63079ABABB4127A56A3267CD5022D9","FE63079ABABB4127A56A3267CD5022D9","6e69ca83-665f-45e3-9449-4dc725f7b516","051c06f1-75cc-4548-856d-4923ddaba0dc","{""num_scrambled_semantic"":""8"",""num_scrambled_causal"":""4"",""num_scrambled_schematic"":""4"",""participantId"":""FE63079ABABB4127A56A3267CD5022D9"",""assignmentId"":""6e69ca83-665f-45e3-9449-4dc725f7b516"",""projectId"":""051c06f1-75cc-4548-856d-4923ddaba0dc""}","https://test12345.live/?num_scrambled_semantic=8&num_scrambled_causal=4&num_scrambled_schematic=4&participantId=FE63079ABABB4127A56A3267CD5022D9&assignmentId=6e69ca83-665f-45e3-9449-4dc725f7b516&projectId=051c06f1-75cc-4548-856d-4923ddaba0dc","FE63079ABABB4127A56A3267CD5022D9-2025-05-15-18-55-20","","null","","[]","null","",""
"","","","","","image-button-response","92","363615","0.0-14.0-1.0-0.1","FE63079ABABB4127A56A3267CD5022D9","FE63079ABABB4127A56A3267CD5022D9","6e69ca83-665f-45e3-9449-4dc725f7b516","051c06f1-75cc-4548-856d-4923ddaba0dc","{""num_scrambled_semantic"":""8"",""num_scrambled_causal"":""4"",""num_scrambled_schematic"":""4"",""participantId"":""FE63079ABABB4127A56A3267CD5022D9"",""assignmentId"":""6e69ca83-665f-45e3-9449-4dc725f7b516"",""projectId"":""051c06f1-75cc-4548-856d-4923ddaba0dc""}","https://test12345.live/?num_scrambled_semantic=8&num_scrambled_causal=4&num_scrambled_schematic=4&participantId=FE63079ABABB4127A56A3267CD5022D9&assignmentId=6e69ca83-665f-45e3-9449-4dc725f7b516&projectId=051c06f1-75cc-4548-856d-4923ddaba0dc","FE63079ABABB4127A56A3267CD5022D9-2025-05-15-18-55-20","","null","","images/causal_sequence/museum_causal/museum_causal_2.png","null","",""
"","","","","","image-button-response","93","365380","0.0-14.0-1.0-1.1","FE63079ABABB4127A56A3267CD5022D9","FE63079ABABB4127A56A3267CD5022D9","6e69ca83-665f-45e3-9449-4dc725f7b516","051c06f1-75cc-4548-856d-4923ddaba0dc","{""num_scrambled_semantic"":""8"",""num_scrambled_causal"":""4"",""num_scrambled_schematic"":""4"",""participantId"":""FE63079ABABB4127A56A3267CD5022D9"",""assignmentId"":""6e69ca83-665f-45e3-9449-4dc725f7b516"",""projectId"":""051c06f1-75cc-4548-856d-4923ddaba0dc""}","https://test12345.live/?num_scrambled_semantic=8&num_scrambled_causal=4&num_scrambled_schematic=4&participantId=FE63079ABABB4127A56A3267CD5022D9&assignmentId=6e69ca83-665f-45e3-9449-4dc725f7b516&projectId=051c06f1-75cc-4548-856d-4923ddaba0dc","FE63079ABABB4127A56A3267CD5022D9-2025-05-15-18-55-20","","1764","","images/causal_sequence/museum_causal/museum_causal_2.png","0","",""
"","","","","","image-button-response","94","367188","0.0-14.0-1.0-2.1","FE63079ABABB4127A56A3267CD5022D9","FE63079ABABB4127A56A3267CD5022D9","6e69ca83-665f-45e3-9449-4dc725f7b516","051c06f1-75cc-4548-856d-4923ddaba0dc","{""num_scrambled_semantic"":""8"",""num_scrambled_causal"":""4"",""num_scrambled_schematic"":""4"",""participantId"":""FE63079ABABB4127A56A3267CD5022D9"",""assignmentId"":""6e69ca83-665f-45e3-9449-4dc725f7b516"",""projectId"":""051c06f1-75cc-4548-856d-4923ddaba0dc""}","https://test12345.live/?num_scrambled_semantic=8&num_scrambled_causal=4&num_scrambled_schematic=4&participantId=FE63079ABABB4127A56A3267CD5022D9&assignmentId=6e69ca83-665f-45e3-9449-4dc725f7b516&projectId=051c06f1-75cc-4548-856d-4923ddaba0dc","FE63079ABABB4127A56A3267CD5022D9-2025-05-15-18-55-20","","null","","[]","null","",""
"","","","","","image-button-response","95","371698","0.0-14.0-1.0-0.2","FE63079ABABB4127A56A3267CD5022D9","FE63079ABABB4127A56A3267CD5022D9","6e69ca83-665f-45e3-9449-4dc725f7b516","051c06f1-75cc-4548-856d-4923ddaba0dc","{""num_scrambled_semantic"":""8"",""num_scrambled_causal"":""4"",""num_scrambled_schematic"":""4"",""participantId"":""FE63079ABABB4127A56A3267CD5022D9"",""assignmentId"":""6e69ca83-665f-45e3-9449-4dc725f7b516"",""projectId"":""051c06f1-75cc-4548-856d-4923ddaba0dc""}","https://test12345.live/?num_scrambled_semantic=8&num_scrambled_causal=4&num_scrambled_schematic=4&participantId=FE63079ABABB4127A56A3267CD5022D9&assignmentId=6e69ca83-665f-45e3-9449-4dc725f7b516&projectId=051c06f1-75cc-4548-856d-4923ddaba0dc","FE63079ABABB4127A56A3267CD5022D9-2025-05-15-18-55-20","","null","","images/causal_sequence/museum_causal/museum_causal_3.png","null","",""
"","","","","","image-button-response","96","372404","0.0-14.0-1.0-1.2","FE63079ABABB4127A56A3267CD5022D9","FE63079ABABB4127A56A3267CD5022D9","6e69ca83-665f-45e3-9449-4dc725f7b516","051c06f1-75cc-4548-856d-4923ddaba0dc","{""num_scrambled_semantic"":""8"",""num_scrambled_causal"":""4"",""num_scrambled_schematic"":""4"",""participantId"":""FE63079ABABB4127A56A3267CD5022D9"",""assignmentId"":""6e69ca83-665f-45e3-9449-4dc725f7b516"",""projectId"":""051c06f1-75cc-4548-856d-4923ddaba0dc""}","https://test12345.live/?num_scrambled_semantic=8&num_scrambled_causal=4&num_scrambled_schematic=4&participantId=FE63079ABABB4127A56A3267CD5022D9&assignmentId=6e69ca83-665f-45e3-9449-4dc725f7b516&projectId=051c06f1-75cc-4548-856d-4923ddaba0dc","FE63079ABABB4127A56A3267CD5022D9-2025-05-15-18-55-20","","704","","images/causal_sequence/museum_causal/museum_causal_3.png","0","",""
"","","","","","image-button-response","97","374225","0.0-14.0-1.0-2.2","FE63079ABABB4127A56A3267CD5022D9","FE63079ABABB4127A56A3267CD5022D9","6e69ca83-665f-45e3-9449-4dc725f7b516","051c06f1-75cc-4548-856d-4923ddaba0dc","{""num_scrambled_semantic"":""8"",""num_scrambled_causal"":""4"",""num_scrambled_schematic"":""4"",""participantId"":""FE63079ABABB4127A56A3267CD5022D9"",""assignmentId"":""6e69ca83-665f-45e3-9449-4dc725f7b516"",""projectId"":""051c06f1-75cc-4548-856d-4923ddaba0dc""}","https://test12345.live/?num_scrambled_semantic=8&num_scrambled_causal=4&num_scrambled_schematic=4&participantId=FE63079ABABB4127A56A3267CD5022D9&assignmentId=6e69ca83-665f-45e3-9449-4dc725f7b516&projectId=051c06f1-75cc-4548-856d-4923ddaba0dc","FE63079ABABB4127A56A3267CD5022D9-2025-05-15-18-55-20","","null","","[]","null","",""
"","","","","","image-button-response","98","378733","0.0-14.0-1.0-0.3","FE63079ABABB4127A56A3267CD5022D9","FE63079ABABB4127A56A3267CD5022D9","6e69ca83-665f-45e3-9449-4dc725f7b516","051c06f1-75cc-4548-856d-4923ddaba0dc","{""num_scrambled_semantic"":""8"",""num_scrambled_causal"":""4"",""num_scrambled_schematic"":""4"",""participantId"":""FE63079ABABB4127A56A3267CD5022D9"",""assignmentId"":""6e69ca83-665f-45e3-9449-4dc725f7b516"",""projectId"":""051c06f1-75cc-4548-856d-4923ddaba0dc""}","https://test12345.live/?num_scrambled_semantic=8&num_scrambled_causal=4&num_scrambled_schematic=4&participantId=FE63079ABABB4127A56A3267CD5022D9&assignmentId=6e69ca83-665f-45e3-9449-4dc725f7b516&projectId=051c06f1-75cc-4548-856d-4923ddaba0dc","FE63079ABABB4127A56A3267CD5022D9-2025-05-15-18-55-20","","null","","images/causal_sequence/museum_causal/museum_causal_4.png","null","",""
"","","","","","image-button-response","99","379564","0.0-14.0-1.0-1.3","FE63079ABABB4127A56A3267CD5022D9","FE63079ABABB4127A56A3267CD5022D9","6e69ca83-665f-45e3-9449-4dc725f7b516","051c06f1-75cc-4548-856d-4923ddaba0dc","{""num_scrambled_semantic"":""8"",""num_scrambled_causal"":""4"",""num_scrambled_schematic"":""4"",""participantId"":""FE63079ABABB4127A56A3267CD5022D9"",""assignmentId"":""6e69ca83-665f-45e3-9449-4dc725f7b516"",""projectId"":""051c06f1-75cc-4548-856d-4923ddaba0dc""}","https://test12345.live/?num_scrambled_semantic=8&num_scrambled_causal=4&num_scrambled_schematic=4&participantId=FE63079ABABB4127A56A3267CD5022D9&assignmentId=6e69ca83-665f-45e3-9449-4dc725f7b516&projectId=051c06f1-75cc-4548-856d-4923ddaba0dc","FE63079ABABB4127A56A3267CD5022D9-2025-05-15-18-55-20","","824","","images/causal_sequence/museum_causal/museum_causal_4.png","1","",""
"","","","","","image-button-response","100","381376","0.0-14.0-1.0-2.3","FE63079ABABB4127A56A3267CD5022D9","FE63079ABABB4127A56A3267CD5022D9","6e69ca83-665f-45e3-9449-4dc725f7b516","051c06f1-75cc-4548-856d-4923ddaba0dc","{""num_scrambled_semantic"":""8"",""num_scrambled_causal"":""4"",""num_scrambled_schematic"":""4"",""participantId"":""FE63079ABABB4127A56A3267CD5022D9"",""assignmentId"":""6e69ca83-665f-45e3-9449-4dc725f7b516"",""projectId"":""051c06f1-75cc-4548-856d-4923ddaba0dc""}","https://test12345.live/?num_scrambled_semantic=8&num_scrambled_causal=4&num_scrambled_schematic=4&participantId=FE63079ABABB4127A56A3267CD5022D9&assignmentId=6e69ca83-665f-45e3-9449-4dc725f7b516&projectId=051c06f1-75cc-4548-856d-4923ddaba0dc","FE63079ABABB4127A56A3267CD5022D9-2025-05-15-18-55-20","","null","","[]","null","",""
"","","","","","image-button-response","101","385889","0.0-14.0-1.0-0.4","FE63079ABABB4127A56A3267CD5022D9","FE63079ABABB4127A56A3267CD5022D9","6e69ca83-665f-45e3-9449-4dc725f7b516","051c06f1-75cc-4548-856d-4923ddaba0dc","{""num_scrambled_semantic"":""8"",""num_scrambled_causal"":""4"",""num_scrambled_schematic"":""4"",""participantId"":""FE63079ABABB4127A56A3267CD5022D9"",""assignmentId"":""6e69ca83-665f-45e3-9449-4dc725f7b516"",""projectId"":""051c06f1-75cc-4548-856d-4923ddaba0dc""}","https://test12345.live/?num_scrambled_semantic=8&num_scrambled_causal=4&num_scrambled_schematic=4&participantId=FE63079ABABB4127A56A3267CD5022D9&assignmentId=6e69ca83-665f-45e3-9449-4dc725f7b516&projectId=051c06f1-75cc-4548-856d-4923ddaba0dc","FE63079ABABB4127A56A3267CD5022D9-2025-05-15-18-55-20","","null","","images/causal_sequence/museum_causal/museum_causal_5.png","null","",""
"","","","","","image-button-response","102","386993","0.0-14.0-1.0-1.4","FE63079ABABB4127A56A3267CD5022D9","FE63079ABABB4127A56A3267CD5022D9","6e69ca83-665f-45e3-9449-4dc725f7b516","051c06f1-75cc-4548-856d-4923ddaba0dc","{""num_scrambled_semantic"":""8"",""num_scrambled_causal"":""4"",""num_scrambled_schematic"":""4"",""participantId"":""FE63079ABABB4127A56A3267CD5022D9"",""assignmentId"":""6e69ca83-665f-45e3-9449-4dc725f7b516"",""projectId"":""051c06f1-75cc-4548-856d-4923ddaba0dc""}","https://test12345.live/?num_scrambled_semantic=8&num_scrambled_causal=4&num_scrambled_schematic=4&participantId=FE63079ABABB4127A56A3267CD5022D9&assignmentId=6e69ca83-665f-45e3-9449-4dc725f7b516&projectId=051c06f1-75cc-4548-856d-4923ddaba0dc","FE63079ABABB4127A56A3267CD5022D9-2025-05-15-18-55-20","","1102","","images/causal_sequence/museum_causal/museum_causal_5.png","0","",""
"","","","","","image-button-response","103","388796","0.0-14.0-1.0-2.4","FE63079ABABB4127A56A3267CD5022D9","FE63079ABABB4127A56A3267CD5022D9","6e69ca83-665f-45e3-9449-4dc725f7b516","051c06f1-75cc-4548-856d-4923ddaba0dc","{""num_scrambled_semantic"":""8"",""num_scrambled_causal"":""4"",""num_scrambled_schematic"":""4"",""participantId"":""FE63079ABABB4127A56A3267CD5022D9"",""assignmentId"":""6e69ca83-665f-45e3-9449-4dc725f7b516"",""projectId"":""051c06f1-75cc-4548-856d-4923ddaba0dc""}","https://test12345.live/?num_scrambled_semantic=8&num_scrambled_causal=4&num_scrambled_schematic=4&participantId=FE63079ABABB4127A56A3267CD5022D9&assignmentId=6e69ca83-665f-45e3-9449-4dc725f7b516&projectId=051c06f1-75cc-4548-856d-4923ddaba0dc","FE63079ABABB4127A56A3267CD5022D9-2025-05-15-18-55-20","","null","","[]","null","",""
"","","","","","image-button-response","104","393306","0.0-14.0-1.0-0.5","FE63079ABABB4127A56A3267CD5022D9","FE63079ABABB4127A56A3267CD5022D9","6e69ca83-665f-45e3-9449-4dc725f7b516","051c06f1-75cc-4548-856d-4923ddaba0dc","{""num_scrambled_semantic"":""8"",""num_scrambled_causal"":""4"",""num_scrambled_schematic"":""4"",""participantId"":""FE63079ABABB4127A56A3267CD5022D9"",""assignmentId"":""6e69ca83-665f-45e3-9449-4dc725f7b516"",""projectId"":""051c06f1-75cc-4548-856d-4923ddaba0dc""}","https://test12345.live/?num_scrambled_semantic=8&num_scrambled_causal=4&num_scrambled_schematic=4&participantId=FE63079ABABB4127A56A3267CD5022D9&assignmentId=6e69ca83-665f-45e3-9449-4dc725f7b516&projectId=051c06f1-75cc-4548-856d-4923ddaba0dc","FE63079ABABB4127A56A3267CD5022D9-2025-05-15-18-55-20","","null","","images/causal_sequence/museum_causal/museum_causal_6.png","null","",""
"","","","","","image-button-response","105","394226","0.0-14.0-1.0-1.5","FE63079ABABB4127A56A3267CD5022D9","FE63079ABABB4127A56A3267CD5022D9","6e69ca83-665f-45e3-9449-4dc725f7b516","051c06f1-75cc-4548-856d-4923ddaba0dc","{""num_scrambled_semantic"":""8"",""num_scrambled_causal"":""4"",""num_scrambled_schematic"":""4"",""participantId"":""FE63079ABABB4127A56A3267CD5022D9"",""assignmentId"":""6e69ca83-665f-45e3-9449-4dc725f7b516"",""projectId"":""051c06f1-75cc-4548-856d-4923ddaba0dc""}","https://test12345.live/?num_scrambled_semantic=8&num_scrambled_causal=4&num_scrambled_schematic=4&participantId=FE63079ABABB4127A56A3267CD5022D9&assignmentId=6e69ca83-665f-45e3-9449-4dc725f7b516&projectId=051c06f1-75cc-4548-856d-4923ddaba0dc","FE63079ABABB4127A56A3267CD5022D9-2025-05-15-18-55-20","","919","","images/causal_sequence/museum_causal/museum_causal_6.png","0","",""
"","","","","","image-button-response","106","396035","0.0-14.0-1.0-2.5","FE63079ABABB4127A56A3267CD5022D9","FE63079ABABB4127A56A3267CD5022D9","6e69ca83-665f-45e3-9449-4dc725f7b516","051c06f1-75cc-4548-856d-4923ddaba0dc","{""num_scrambled_semantic"":""8"",""num_scrambled_causal"":""4"",""num_scrambled_schematic"":""4"",""participantId"":""FE63079ABABB4127A56A3267CD5022D9"",""assignmentId"":""6e69ca83-665f-45e3-9449-4dc725f7b516"",""projectId"":""051c06f1-75cc-4548-856d-4923ddaba0dc""}","https://test12345.live/?num_scrambled_semantic=8&num_scrambled_causal=4&num_scrambled_schematic=4&participantId=FE63079ABABB4127A56A3267CD5022D9&assignmentId=6e69ca83-665f-45e3-9449-4dc725f7b516&projectId=051c06f1-75cc-4548-856d-4923ddaba0dc","FE63079ABABB4127A56A3267CD5022D9-2025-05-15-18-55-20","","null","","[]","null","",""
"","","","","","image-button-response","107","400538","0.0-14.0-1.0-0.6","FE63079ABABB4127A56A3267CD5022D9","FE63079ABABB4127A56A3267CD5022D9","6e69ca83-665f-45e3-9449-4dc725f7b516","051c06f1-75cc-4548-856d-4923ddaba0dc","{""num_scrambled_semantic"":""8"",""num_scrambled_causal"":""4"",""num_scrambled_schematic"":""4"",""participantId"":""FE63079ABABB4127A56A3267CD5022D9"",""assignmentId"":""6e69ca83-665f-45e3-9449-4dc725f7b516"",""projectId"":""051c06f1-75cc-4548-856d-4923ddaba0dc""}","https://test12345.live/?num_scrambled_semantic=8&num_scrambled_causal=4&num_scrambled_schematic=4&participantId=FE63079ABABB4127A56A3267CD5022D9&assignmentId=6e69ca83-665f-45e3-9449-4dc725f7b516&projectId=051c06f1-75cc-4548-856d-4923ddaba0dc","FE63079ABABB4127A56A3267CD5022D9-2025-05-15-18-55-20","","null","","images/causal_sequence/museum_causal/museum_causal_7.png","null","",""
"","","","","","image-button-response","108","401382","0.0-14.0-1.0-1.6","FE63079ABABB4127A56A3267CD5022D9","FE63079ABABB4127A56A3267CD5022D9","6e69ca83-665f-45e3-9449-4dc725f7b516","051c06f1-75cc-4548-856d-4923ddaba0dc","{""num_scrambled_semantic"":""8"",""num_scrambled_causal"":""4"",""num_scrambled_schematic"":""4"",""participantId"":""FE63079ABABB4127A56A3267CD5022D9"",""assignmentId"":""6e69ca83-665f-45e3-9449-4dc725f7b516"",""projectId"":""051c06f1-75cc-4548-856d-4923ddaba0dc""}","https://test12345.live/?num_scrambled_semantic=8&num_scrambled_causal=4&num_scrambled_schematic=4&participantId=FE63079ABABB4127A56A3267CD5022D9&assignmentId=6e69ca83-665f-45e3-9449-4dc725f7b516&projectId=051c06f1-75cc-4548-856d-4923ddaba0dc","FE63079ABABB4127A56A3267CD5022D9-2025-05-15-18-55-20","","843","","images/causal_sequence/museum_causal/museum_causal_7.png","1","",""
"","","","","","image-button-response","109","403195","0.0-14.0-1.0-2.6","FE63079ABABB4127A56A3267CD5022D9","FE63079ABABB4127A56A3267CD5022D9","6e69ca83-665f-45e3-9449-4dc725f7b516","051c06f1-75cc-4548-856d-4923ddaba0dc","{""num_scrambled_semantic"":""8"",""num_scrambled_causal"":""4"",""num_scrambled_schematic"":""4"",""participantId"":""FE63079ABABB4127A56A3267CD5022D9"",""assignmentId"":""6e69ca83-665f-45e3-9449-4dc725f7b516"",""projectId"":""051c06f1-75cc-4548-856d-4923ddaba0dc""}","https://test12345.live/?num_scrambled_semantic=8&num_scrambled_causal=4&num_scrambled_schematic=4&participantId=FE63079ABABB4127A56A3267CD5022D9&assignmentId=6e69ca83-665f-45e3-9449-4dc725f7b516&projectId=051c06f1-75cc-4548-856d-4923ddaba0dc","FE63079ABABB4127A56A3267CD5022D9-2025-05-15-18-55-20","","null","","[]","null","",""
"","","","","","image-button-response","110","407701","0.0-14.0-1.0-0.7","FE63079ABABB4127A56A3267CD5022D9","FE63079ABABB4127A56A3267CD5022D9","6e69ca83-665f-45e3-9449-4dc725f7b516","051c06f1-75cc-4548-856d-4923ddaba0dc","{""num_scrambled_semantic"":""8"",""num_scrambled_causal"":""4"",""num_scrambled_schematic"":""4"",""participantId"":""FE63079ABABB4127A56A3267CD5022D9"",""assignmentId"":""6e69ca83-665f-45e3-9449-4dc725f7b516"",""projectId"":""051c06f1-75cc-4548-856d-4923ddaba0dc""}","https://test12345.live/?num_scrambled_semantic=8&num_scrambled_causal=4&num_scrambled_schematic=4&participantId=FE63079ABABB4127A56A3267CD5022D9&assignmentId=6e69ca83-665f-45e3-9449-4dc725f7b516&projectId=051c06f1-75cc-4548-856d-4923ddaba0dc","FE63079ABABB4127A56A3267CD5022D9-2025-05-15-18-55-20","","null","","images/causal_sequence/museum_causal/museum_causal_8.png","null","",""
"","","","","","image-button-response","111","408500","0.0-14.0-1.0-1.7","FE63079ABABB4127A56A3267CD5022D9","FE63079ABABB4127A56A3267CD5022D9","6e69ca83-665f-45e3-9449-4dc725f7b516","051c06f1-75cc-4548-856d-4923ddaba0dc","{""num_scrambled_semantic"":""8"",""num_scrambled_causal"":""4"",""num_scrambled_schematic"":""4"",""participantId"":""FE63079ABABB4127A56A3267CD5022D9"",""assignmentId"":""6e69ca83-665f-45e3-9449-4dc725f7b516"",""projectId"":""051c06f1-75cc-4548-856d-4923ddaba0dc""}","https://test12345.live/?num_scrambled_semantic=8&num_scrambled_causal=4&num_scrambled_schematic=4&participantId=FE63079ABABB4127A56A3267CD5022D9&assignmentId=6e69ca83-665f-45e3-9449-4dc725f7b516&projectId=051c06f1-75cc-4548-856d-4923ddaba0dc","FE63079ABABB4127A56A3267CD5022D9-2025-05-15-18-55-20","","798","","images/causal_sequence/museum_causal/museum_causal_8.png","0","",""
"","","","","","image-button-response","112","410310","0.0-14.0-1.0-2.7","FE63079ABABB4127A56A3267CD5022D9","FE63079ABABB4127A56A3267CD5022D9","6e69ca83-665f-45e3-9449-4dc725f7b516","051c06f1-75cc-4548-856d-4923ddaba0dc","{""num_scrambled_semantic"":""8"",""num_scrambled_causal"":""4"",""num_scrambled_schematic"":""4"",""participantId"":""FE63079ABABB4127A56A3267CD5022D9"",""assignmentId"":""6e69ca83-665f-45e3-9449-4dc725f7b516"",""projectId"":""051c06f1-75cc-4548-856d-4923ddaba0dc""}","https://test12345.live/?num_scrambled_semantic=8&num_scrambled_causal=4&num_scrambled_schematic=4&participantId=FE63079ABABB4127A56A3267CD5022D9&assignmentId=6e69ca83-665f-45e3-9449-4dc725f7b516&projectId=051c06f1-75cc-4548-856d-4923ddaba0dc","FE63079ABABB4127A56A3267CD5022D9-2025-05-15-18-55-20","","null","","[]","null","",""
"","","","","","image-button-response","113","414826","0.0-14.0-1.0-0.8","FE63079ABABB4127A56A3267CD5022D9","FE63079ABABB4127A56A3267CD5022D9","6e69ca83-665f-45e3-9449-4dc725f7b516","051c06f1-75cc-4548-856d-4923ddaba0dc","{""num_scrambled_semantic"":""8"",""num_scrambled_causal"":""4"",""num_scrambled_schematic"":""4"",""participantId"":""FE63079ABABB4127A56A3267CD5022D9"",""assignmentId"":""6e69ca83-665f-45e3-9449-4dc725f7b516"",""projectId"":""051c06f1-75cc-4548-856d-4923ddaba0dc""}","https://test12345.live/?num_scrambled_semantic=8&num_scrambled_causal=4&num_scrambled_schematic=4&participantId=FE63079ABABB4127A56A3267CD5022D9&assignmentId=6e69ca83-665f-45e3-9449-4dc725f7b516&projectId=051c06f1-75cc-4548-856d-4923ddaba0dc","FE63079ABABB4127A56A3267CD5022D9-2025-05-15-18-55-20","","null","","images/causal_sequence/museum_causal/museum_causal_9.png","null","",""
"","","","","","image-button-response","114","415600","0.0-14.0-1.0-1.8","FE63079ABABB4127A56A3267CD5022D9","FE63079ABABB4127A56A3267CD5022D9","6e69ca83-665f-45e3-9449-4dc725f7b516","051c06f1-75cc-4548-856d-4923ddaba0dc","{""num_scrambled_semantic"":""8"",""num_scrambled_causal"":""4"",""num_scrambled_schematic"":""4"",""participantId"":""FE63079ABABB4127A56A3267CD5022D9"",""assignmentId"":""6e69ca83-665f-45e3-9449-4dc725f7b516"",""projectId"":""051c06f1-75cc-4548-856d-4923ddaba0dc""}","https://test12345.live/?num_scrambled_semantic=8&num_scrambled_causal=4&num_scrambled_schematic=4&participantId=FE63079ABABB4127A56A3267CD5022D9&assignmentId=6e69ca83-665f-45e3-9449-4dc725f7b516&projectId=051c06f1-75cc-4548-856d-4923ddaba0dc","FE63079ABABB4127A56A3267CD5022D9-2025-05-15-18-55-20","","772","","images/causal_sequence/museum_causal/museum_causal_9.png","1","",""
