"success","timeout","failed_images","failed_audio","failed_video","trial_type","trial_index","time_elapsed","internal_node_id","subject","subject_id","study_id","session_id","urlvar","current_url","audio_id","view_history","rt","device_id","stimulus","response","estimated_stimulus_onset","seq_name"
"true","false","[]","[]","[]","preload","0","27181","0.0-0.0","FF8F27F9264E4CE080F8D5079312C55D","FF8F27F9264E4CE080F8D5079312C55D","ef4e210b-e6d4-4acf-95de-ad8aa4944d12","051c06f1-75cc-4548-856d-4923ddaba0dc","{""num_scrambled_semantic"":""8"",""num_scrambled_causal"":""4"",""num_scrambled_schematic"":""4"",""participantId"":""FF8F27F9264E4CE080F8D5079312C55D"",""assignmentId"":""ef4e210b-e6d4-4acf-95de-ad8aa4944d12"",""projectId"":""051c06f1-75cc-4548-856d-4923ddaba0dc""}","https://test12345.live/?num_scrambled_semantic=8&num_scrambled_causal=4&num_scrambled_schematic=4&participantId=FF8F27F9264E4CE080F8D5079312C55D&assignmentId=ef4e210b-e6d4-4acf-95de-ad8aa4944d12&projectId=051c06f1-75cc-4548-856d-4923ddaba0dc","FF8F27F9264E4CE080F8D5079312C55D-2025-05-15-18-47-37","","","","","","",""
"","","","","","instructions","1","39381","0.0-1.0","FF8F27F9264E4CE080F8D5079312C55D","FF8F27F9264E4CE080F8D5079312C55D","ef4e210b-e6d4-4acf-95de-ad8aa4944d12","051c06f1-75cc-4548-856d-4923ddaba0dc","{""num_scrambled_semantic"":""8"",""num_scrambled_causal"":""4"",""num_scrambled_schematic"":""4"",""participantId"":""FF8F27F9264E4CE080F8D5079312C55D"",""assignmentId"":""ef4e210b-e6d4-4acf-95de-ad8aa4944d12"",""projectId"":""051c06f1-75cc-4548-856d-4923ddaba0dc""}","https://test12345.live/?num_scrambled_semantic=8&num_scrambled_causal=4&num_scrambled_schematic=4&participantId=FF8F27F9264E4CE080F8D5079312C55D&assignmentId=ef4e210b-e6d4-4acf-95de-ad8aa4944d12&projectId=051c06f1-75cc-4548-856d-4923ddaba0dc","FF8F27F9264E4CE080F8D5079312C55D-2025-05-15-18-47-37","[{""page_index"":0,""viewing_time"":12156}]","12198","","","","",""
"","","","","","instructions","2","43790","0.0-2.0","FF8F27F9264E4CE080F8D5079312C55D","FF8F27F9264E4CE080F8D5079312C55D","ef4e210b-e6d4-4acf-95de-ad8aa4944d12","051c06f1-75cc-4548-856d-4923ddaba0dc","{""num_scrambled_semantic"":""8"",""num_scrambled_causal"":""4"",""num_scrambled_schematic"":""4"",""participantId"":""FF8F27F9264E4CE080F8D5079312C55D"",""assignmentId"":""ef4e210b-e6d4-4acf-95de-ad8aa4944d12"",""projectId"":""051c06f1-75cc-4548-856d-4923ddaba0dc""}","https://test12345.live/?num_scrambled_semantic=8&num_scrambled_causal=4&num_scrambled_schematic=4&participantId=FF8F27F9264E4CE080F8D5079312C55D&assignmentId=ef4e210b-e6d4-4acf-95de-ad8aa4944d12&projectId=051c06f1-75cc-4548-856d-4923ddaba0dc","FF8F27F9264E4CE080F8D5079312C55D-2025-05-15-18-47-37","[{""page_index"":0,""viewing_time"":4391}]","4394","","","","",""
"true","","","","","fullscreen","3","46354","0.0-3.0","FF8F27F9264E4CE080F8D5079312C55D","FF8F27F9264E4CE080F8D5079312C55D","ef4e210b-e6d4-4acf-95de-ad8aa4944d12","051c06f1-75cc-4548-856d-4923ddaba0dc","{""num_scrambled_semantic"":""8"",""num_scrambled_causal"":""4"",""num_scrambled_schematic"":""4"",""participantId"":""FF8F27F9264E4CE080F8D5079312C55D"",""assignmentId"":""ef4e210b-e6d4-4acf-95de-ad8aa4944d12"",""projectId"":""051c06f1-75cc-4548-856d-4923ddaba0dc""}","https://test12345.live/?num_scrambled_semantic=8&num_scrambled_causal=4&num_scrambled_schematic=4&participantId=FF8F27F9264E4CE080F8D5079312C55D&assignmentId=ef4e210b-e6d4-4acf-95de-ad8aa4944d12&projectId=051c06f1-75cc-4548-856d-4923ddaba0dc","FF8F27F9264E4CE080F8D5079312C55D-2025-05-15-18-47-37","","1450","","","","",""
"","","","","","initialize-microphone","4","54207","0.0-4.0-0.0","FF8F27F9264E4CE080F8D5079312C55D","FF8F27F9264E4CE080F8D5079312C55D","ef4e210b-e6d4-4acf-95de-ad8aa4944d12","051c06f1-75cc-4548-856d-4923ddaba0dc","{""num_scrambled_semantic"":""8"",""num_scrambled_causal"":""4"",""num_scrambled_schematic"":""4"",""participantId"":""FF8F27F9264E4CE080F8D5079312C55D"",""assignmentId"":""ef4e210b-e6d4-4acf-95de-ad8aa4944d12"",""projectId"":""051c06f1-75cc-4548-856d-4923ddaba0dc""}","https://test12345.live/?num_scrambled_semantic=8&num_scrambled_causal=4&num_scrambled_schematic=4&participantId=FF8F27F9264E4CE080F8D5079312C55D&assignmentId=ef4e210b-e6d4-4acf-95de-ad8aa4944d12&projectId=051c06f1-75cc-4548-856d-4923ddaba0dc","FF8F27F9264E4CE080F8D5079312C55D-2025-05-15-18-47-37","","","1dc9fb0739611f1fb59540cb8b7964a5a56722a1a1ce64a53de6d89f10520523","","","",""
"","","","","","html-audio-response","5","68584","0.0-4.0-1.0","FF8F27F9264E4CE080F8D5079312C55D","FF8F27F9264E4CE080F8D5079312C55D","ef4e210b-e6d4-4acf-95de-ad8aa4944d12","051c06f1-75cc-4548-856d-4923ddaba0dc","{""num_scrambled_semantic"":""8"",""num_scrambled_causal"":""4"",""num_scrambled_schematic"":""4"",""participantId"":""FF8F27F9264E4CE080F8D5079312C55D"",""assignmentId"":""ef4e210b-e6d4-4acf-95de-ad8aa4944d12"",""projectId"":""051c06f1-75cc-4548-856d-4923ddaba0dc""}","https://test12345.live/?num_scrambled_semantic=8&num_scrambled_causal=4&num_scrambled_schematic=4&participantId=FF8F27F9264E4CE080F8D5079312C55D&assignmentId=ef4e210b-e6d4-4acf-95de-ad8aa4944d12&projectId=051c06f1-75cc-4548-856d-4923ddaba0dc","FF8F27F9264E4CE080F8D5079312C55D-2025-05-15-18-47-37","","2056","","<span style=""color: red; font-size: 24px""> NOW RECORDING</span>
        <p>Please test Microphone</p>","","16",""
"","","","","","html-button-response","6","70005","0.0-4.0-2.0","FF8F27F9264E4CE080F8D5079312C55D","FF8F27F9264E4CE080F8D5079312C55D","ef4e210b-e6d4-4acf-95de-ad8aa4944d12","051c06f1-75cc-4548-856d-4923ddaba0dc","{""num_scrambled_semantic"":""8"",""num_scrambled_causal"":""4"",""num_scrambled_schematic"":""4"",""participantId"":""FF8F27F9264E4CE080F8D5079312C55D"",""assignmentId"":""ef4e210b-e6d4-4acf-95de-ad8aa4944d12"",""projectId"":""051c06f1-75cc-4548-856d-4923ddaba0dc""}","https://test12345.live/?num_scrambled_semantic=8&num_scrambled_causal=4&num_scrambled_schematic=4&participantId=FF8F27F9264E4CE080F8D5079312C55D&assignmentId=ef4e210b-e6d4-4acf-95de-ad8aa4944d12&projectId=051c06f1-75cc-4548-856d-4923ddaba0dc","FF8F27F9264E4CE080F8D5079312C55D-2025-05-15-18-47-37","","1417","","<p style=""font-size:48px; color:red;"">Is Microphone OK?</p>","1","",""
"","","","","","instructions","7","78868","0.0-5.0","FF8F27F9264E4CE080F8D5079312C55D","FF8F27F9264E4CE080F8D5079312C55D","ef4e210b-e6d4-4acf-95de-ad8aa4944d12","051c06f1-75cc-4548-856d-4923ddaba0dc","{""num_scrambled_semantic"":""8"",""num_scrambled_causal"":""4"",""num_scrambled_schematic"":""4"",""participantId"":""FF8F27F9264E4CE080F8D5079312C55D"",""assignmentId"":""ef4e210b-e6d4-4acf-95de-ad8aa4944d12"",""projectId"":""051c06f1-75cc-4548-856d-4923ddaba0dc""}","https://test12345.live/?num_scrambled_semantic=8&num_scrambled_causal=4&num_scrambled_schematic=4&participantId=FF8F27F9264E4CE080F8D5079312C55D&assignmentId=ef4e210b-e6d4-4acf-95de-ad8aa4944d12&projectId=051c06f1-75cc-4548-856d-4923ddaba0dc","FF8F27F9264E4CE080F8D5079312C55D-2025-05-15-18-47-37","[{""page_index"":0,""viewing_time"":1803},{""page_index"":1,""viewing_time"":7057}]","8860","","","","",""
"","","","","","image-button-response","8","84876","0.0-6.0-0.0","FF8F27F9264E4CE080F8D5079312C55D","FF8F27F9264E4CE080F8D5079312C55D","ef4e210b-e6d4-4acf-95de-ad8aa4944d12","051c06f1-75cc-4548-856d-4923ddaba0dc","{""num_scrambled_semantic"":""8"",""num_scrambled_causal"":""4"",""num_scrambled_schematic"":""4"",""participantId"":""FF8F27F9264E4CE080F8D5079312C55D"",""assignmentId"":""ef4e210b-e6d4-4acf-95de-ad8aa4944d12"",""projectId"":""051c06f1-75cc-4548-856d-4923ddaba0dc""}","https://test12345.live/?num_scrambled_semantic=8&num_scrambled_causal=4&num_scrambled_schematic=4&participantId=FF8F27F9264E4CE080F8D5079312C55D&assignmentId=ef4e210b-e6d4-4acf-95de-ad8aa4944d12&projectId=051c06f1-75cc-4548-856d-4923ddaba0dc","FF8F27F9264E4CE080F8D5079312C55D-2025-05-15-18-47-37","","null","","images/instructions/movie_0.png","null","",""
"","","","","","image-button-response","9","89401","0.0-6.0-1.0-0.0","FF8F27F9264E4CE080F8D5079312C55D","FF8F27F9264E4CE080F8D5079312C55D","ef4e210b-e6d4-4acf-95de-ad8aa4944d12","051c06f1-75cc-4548-856d-4923ddaba0dc","{""num_scrambled_semantic"":""8"",""num_scrambled_causal"":""4"",""num_scrambled_schematic"":""4"",""participantId"":""FF8F27F9264E4CE080F8D5079312C55D"",""assignmentId"":""ef4e210b-e6d4-4acf-95de-ad8aa4944d12"",""projectId"":""051c06f1-75cc-4548-856d-4923ddaba0dc""}","https://test12345.live/?num_scrambled_semantic=8&num_scrambled_causal=4&num_scrambled_schematic=4&participantId=FF8F27F9264E4CE080F8D5079312C55D&assignmentId=ef4e210b-e6d4-4acf-95de-ad8aa4944d12&projectId=051c06f1-75cc-4548-856d-4923ddaba0dc","FF8F27F9264E4CE080F8D5079312C55D-2025-05-15-18-47-37","","null","","images/instructions/movie_1.png","null","",""
"","","","","","image-button-response","10","92653","0.0-6.0-1.0-1.0","FF8F27F9264E4CE080F8D5079312C55D","FF8F27F9264E4CE080F8D5079312C55D","ef4e210b-e6d4-4acf-95de-ad8aa4944d12","051c06f1-75cc-4548-856d-4923ddaba0dc","{""num_scrambled_semantic"":""8"",""num_scrambled_causal"":""4"",""num_scrambled_schematic"":""4"",""participantId"":""FF8F27F9264E4CE080F8D5079312C55D"",""assignmentId"":""ef4e210b-e6d4-4acf-95de-ad8aa4944d12"",""projectId"":""051c06f1-75cc-4548-856d-4923ddaba0dc""}","https://test12345.live/?num_scrambled_semantic=8&num_scrambled_causal=4&num_scrambled_schematic=4&participantId=FF8F27F9264E4CE080F8D5079312C55D&assignmentId=ef4e210b-e6d4-4acf-95de-ad8aa4944d12&projectId=051c06f1-75cc-4548-856d-4923ddaba0dc","FF8F27F9264E4CE080F8D5079312C55D-2025-05-15-18-47-37","","3250","","images/instructions/movie_1.png","0","",""
"","","","","","image-button-response","11","94455","0.0-6.0-1.0-2.0","FF8F27F9264E4CE080F8D5079312C55D","FF8F27F9264E4CE080F8D5079312C55D","ef4e210b-e6d4-4acf-95de-ad8aa4944d12","051c06f1-75cc-4548-856d-4923ddaba0dc","{""num_scrambled_semantic"":""8"",""num_scrambled_causal"":""4"",""num_scrambled_schematic"":""4"",""participantId"":""FF8F27F9264E4CE080F8D5079312C55D"",""assignmentId"":""ef4e210b-e6d4-4acf-95de-ad8aa4944d12"",""projectId"":""051c06f1-75cc-4548-856d-4923ddaba0dc""}","https://test12345.live/?num_scrambled_semantic=8&num_scrambled_causal=4&num_scrambled_schematic=4&participantId=FF8F27F9264E4CE080F8D5079312C55D&assignmentId=ef4e210b-e6d4-4acf-95de-ad8aa4944d12&projectId=051c06f1-75cc-4548-856d-4923ddaba0dc","FF8F27F9264E4CE080F8D5079312C55D-2025-05-15-18-47-37","","null","","[]","null","",""
"","","","","","image-button-response","12","98957","0.0-6.0-1.0-0.1","FF8F27F9264E4CE080F8D5079312C55D","FF8F27F9264E4CE080F8D5079312C55D","ef4e210b-e6d4-4acf-95de-ad8aa4944d12","051c06f1-75cc-4548-856d-4923ddaba0dc","{""num_scrambled_semantic"":""8"",""num_scrambled_causal"":""4"",""num_scrambled_schematic"":""4"",""participantId"":""FF8F27F9264E4CE080F8D5079312C55D"",""assignmentId"":""ef4e210b-e6d4-4acf-95de-ad8aa4944d12"",""projectId"":""051c06f1-75cc-4548-856d-4923ddaba0dc""}","https://test12345.live/?num_scrambled_semantic=8&num_scrambled_causal=4&num_scrambled_schematic=4&participantId=FF8F27F9264E4CE080F8D5079312C55D&assignmentId=ef4e210b-e6d4-4acf-95de-ad8aa4944d12&projectId=051c06f1-75cc-4548-856d-4923ddaba0dc","FF8F27F9264E4CE080F8D5079312C55D-2025-05-15-18-47-37","","null","","images/instructions/movie_2.png","null","",""
"","","","","","image-button-response","13","100896","0.0-6.0-1.0-1.1","FF8F27F9264E4CE080F8D5079312C55D","FF8F27F9264E4CE080F8D5079312C55D","ef4e210b-e6d4-4acf-95de-ad8aa4944d12","051c06f1-75cc-4548-856d-4923ddaba0dc","{""num_scrambled_semantic"":""8"",""num_scrambled_causal"":""4"",""num_scrambled_schematic"":""4"",""participantId"":""FF8F27F9264E4CE080F8D5079312C55D"",""assignmentId"":""ef4e210b-e6d4-4acf-95de-ad8aa4944d12"",""projectId"":""051c06f1-75cc-4548-856d-4923ddaba0dc""}","https://test12345.live/?num_scrambled_semantic=8&num_scrambled_causal=4&num_scrambled_schematic=4&participantId=FF8F27F9264E4CE080F8D5079312C55D&assignmentId=ef4e210b-e6d4-4acf-95de-ad8aa4944d12&projectId=051c06f1-75cc-4548-856d-4923ddaba0dc","FF8F27F9264E4CE080F8D5079312C55D-2025-05-15-18-47-37","","1937","","images/instructions/movie_2.png","0","",""
"","","","","","image-button-response","14","102697","0.0-6.0-1.0-2.1","FF8F27F9264E4CE080F8D5079312C55D","FF8F27F9264E4CE080F8D5079312C55D","ef4e210b-e6d4-4acf-95de-ad8aa4944d12","051c06f1-75cc-4548-856d-4923ddaba0dc","{""num_scrambled_semantic"":""8"",""num_scrambled_causal"":""4"",""num_scrambled_schematic"":""4"",""participantId"":""FF8F27F9264E4CE080F8D5079312C55D"",""assignmentId"":""ef4e210b-e6d4-4acf-95de-ad8aa4944d12"",""projectId"":""051c06f1-75cc-4548-856d-4923ddaba0dc""}","https://test12345.live/?num_scrambled_semantic=8&num_scrambled_causal=4&num_scrambled_schematic=4&participantId=FF8F27F9264E4CE080F8D5079312C55D&assignmentId=ef4e210b-e6d4-4acf-95de-ad8aa4944d12&projectId=051c06f1-75cc-4548-856d-4923ddaba0dc","FF8F27F9264E4CE080F8D5079312C55D-2025-05-15-18-47-37","","null","","[]","null","",""
"","","","","","image-button-response","15","107198","0.0-6.0-1.0-0.2","FF8F27F9264E4CE080F8D5079312C55D","FF8F27F9264E4CE080F8D5079312C55D","ef4e210b-e6d4-4acf-95de-ad8aa4944d12","051c06f1-75cc-4548-856d-4923ddaba0dc","{""num_scrambled_semantic"":""8"",""num_scrambled_causal"":""4"",""num_scrambled_schematic"":""4"",""participantId"":""FF8F27F9264E4CE080F8D5079312C55D"",""assignmentId"":""ef4e210b-e6d4-4acf-95de-ad8aa4944d12"",""projectId"":""051c06f1-75cc-4548-856d-4923ddaba0dc""}","https://test12345.live/?num_scrambled_semantic=8&num_scrambled_causal=4&num_scrambled_schematic=4&participantId=FF8F27F9264E4CE080F8D5079312C55D&assignmentId=ef4e210b-e6d4-4acf-95de-ad8aa4944d12&projectId=051c06f1-75cc-4548-856d-4923ddaba0dc","FF8F27F9264E4CE080F8D5079312C55D-2025-05-15-18-47-37","","null","","images/instructions/movie_3.png","null","",""
"","","","","","image-button-response","16","107980","0.0-6.0-1.0-1.2","FF8F27F9264E4CE080F8D5079312C55D","FF8F27F9264E4CE080F8D5079312C55D","ef4e210b-e6d4-4acf-95de-ad8aa4944d12","051c06f1-75cc-4548-856d-4923ddaba0dc","{""num_scrambled_semantic"":""8"",""num_scrambled_causal"":""4"",""num_scrambled_schematic"":""4"",""participantId"":""FF8F27F9264E4CE080F8D5079312C55D"",""assignmentId"":""ef4e210b-e6d4-4acf-95de-ad8aa4944d12"",""projectId"":""051c06f1-75cc-4548-856d-4923ddaba0dc""}","https://test12345.live/?num_scrambled_semantic=8&num_scrambled_causal=4&num_scrambled_schematic=4&participantId=FF8F27F9264E4CE080F8D5079312C55D&assignmentId=ef4e210b-e6d4-4acf-95de-ad8aa4944d12&projectId=051c06f1-75cc-4548-856d-4923ddaba0dc","FF8F27F9264E4CE080F8D5079312C55D-2025-05-15-18-47-37","","780","","images/instructions/movie_3.png","0","",""
"","","","","","image-button-response","17","109781","0.0-6.0-1.0-2.2","FF8F27F9264E4CE080F8D5079312C55D","FF8F27F9264E4CE080F8D5079312C55D","ef4e210b-e6d4-4acf-95de-ad8aa4944d12","051c06f1-75cc-4548-856d-4923ddaba0dc","{""num_scrambled_semantic"":""8"",""num_scrambled_causal"":""4"",""num_scrambled_schematic"":""4"",""participantId"":""FF8F27F9264E4CE080F8D5079312C55D"",""assignmentId"":""ef4e210b-e6d4-4acf-95de-ad8aa4944d12"",""projectId"":""051c06f1-75cc-4548-856d-4923ddaba0dc""}","https://test12345.live/?num_scrambled_semantic=8&num_scrambled_causal=4&num_scrambled_schematic=4&participantId=FF8F27F9264E4CE080F8D5079312C55D&assignmentId=ef4e210b-e6d4-4acf-95de-ad8aa4944d12&projectId=051c06f1-75cc-4548-856d-4923ddaba0dc","FF8F27F9264E4CE080F8D5079312C55D-2025-05-15-18-47-37","","null","","[]","null","",""
"","","","","","image-button-response","18","114283","0.0-6.0-1.0-0.3","FF8F27F9264E4CE080F8D5079312C55D","FF8F27F9264E4CE080F8D5079312C55D","ef4e210b-e6d4-4acf-95de-ad8aa4944d12","051c06f1-75cc-4548-856d-4923ddaba0dc","{""num_scrambled_semantic"":""8"",""num_scrambled_causal"":""4"",""num_scrambled_schematic"":""4"",""participantId"":""FF8F27F9264E4CE080F8D5079312C55D"",""assignmentId"":""ef4e210b-e6d4-4acf-95de-ad8aa4944d12"",""projectId"":""051c06f1-75cc-4548-856d-4923ddaba0dc""}","https://test12345.live/?num_scrambled_semantic=8&num_scrambled_causal=4&num_scrambled_schematic=4&participantId=FF8F27F9264E4CE080F8D5079312C55D&assignmentId=ef4e210b-e6d4-4acf-95de-ad8aa4944d12&projectId=051c06f1-75cc-4548-856d-4923ddaba0dc","FF8F27F9264E4CE080F8D5079312C55D-2025-05-15-18-47-37","","null","","images/instructions/movie_4.png","null","",""
"","","","","","image-button-response","19","115860","0.0-6.0-1.0-1.3","FF8F27F9264E4CE080F8D5079312C55D","FF8F27F9264E4CE080F8D5079312C55D","ef4e210b-e6d4-4acf-95de-ad8aa4944d12","051c06f1-75cc-4548-856d-4923ddaba0dc","{""num_scrambled_semantic"":""8"",""num_scrambled_causal"":""4"",""num_scrambled_schematic"":""4"",""participantId"":""FF8F27F9264E4CE080F8D5079312C55D"",""assignmentId"":""ef4e210b-e6d4-4acf-95de-ad8aa4944d12"",""projectId"":""051c06f1-75cc-4548-856d-4923ddaba0dc""}","https://test12345.live/?num_scrambled_semantic=8&num_scrambled_causal=4&num_scrambled_schematic=4&participantId=FF8F27F9264E4CE080F8D5079312C55D&assignmentId=ef4e210b-e6d4-4acf-95de-ad8aa4944d12&projectId=051c06f1-75cc-4548-856d-4923ddaba0dc","FF8F27F9264E4CE080F8D5079312C55D-2025-05-15-18-47-37","","1575","","images/instructions/movie_4.png","0","",""
"","","","","","image-button-response","20","117661","0.0-6.0-1.0-2.3","FF8F27F9264E4CE080F8D5079312C55D","FF8F27F9264E4CE080F8D5079312C55D","ef4e210b-e6d4-4acf-95de-ad8aa4944d12","051c06f1-75cc-4548-856d-4923ddaba0dc","{""num_scrambled_semantic"":""8"",""num_scrambled_causal"":""4"",""num_scrambled_schematic"":""4"",""participantId"":""FF8F27F9264E4CE080F8D5079312C55D"",""assignmentId"":""ef4e210b-e6d4-4acf-95de-ad8aa4944d12"",""projectId"":""051c06f1-75cc-4548-856d-4923ddaba0dc""}","https://test12345.live/?num_scrambled_semantic=8&num_scrambled_causal=4&num_scrambled_schematic=4&participantId=FF8F27F9264E4CE080F8D5079312C55D&assignmentId=ef4e210b-e6d4-4acf-95de-ad8aa4944d12&projectId=051c06f1-75cc-4548-856d-4923ddaba0dc","FF8F27F9264E4CE080F8D5079312C55D-2025-05-15-18-47-37","","null","","[]","null","",""
"","","","","","instructions","21","124811","0.0-7.0","FF8F27F9264E4CE080F8D5079312C55D","FF8F27F9264E4CE080F8D5079312C55D","ef4e210b-e6d4-4acf-95de-ad8aa4944d12","051c06f1-75cc-4548-856d-4923ddaba0dc","{""num_scrambled_semantic"":""8"",""num_scrambled_causal"":""4"",""num_scrambled_schematic"":""4"",""participantId"":""FF8F27F9264E4CE080F8D5079312C55D"",""assignmentId"":""ef4e210b-e6d4-4acf-95de-ad8aa4944d12"",""projectId"":""051c06f1-75cc-4548-856d-4923ddaba0dc""}","https://test12345.live/?num_scrambled_semantic=8&num_scrambled_causal=4&num_scrambled_schematic=4&participantId=FF8F27F9264E4CE080F8D5079312C55D&assignmentId=ef4e210b-e6d4-4acf-95de-ad8aa4944d12&projectId=051c06f1-75cc-4548-856d-4923ddaba0dc","FF8F27F9264E4CE080F8D5079312C55D-2025-05-15-18-47-37","[{""page_index"":0,""viewing_time"":5909},{""page_index"":1,""viewing_time"":1240}]","7149","","","","",""
"","","","","","html-audio-response","22","131780","0.0-8.0","FF8F27F9264E4CE080F8D5079312C55D","FF8F27F9264E4CE080F8D5079312C55D","ef4e210b-e6d4-4acf-95de-ad8aa4944d12","051c06f1-75cc-4548-856d-4923ddaba0dc","{""num_scrambled_semantic"":""8"",""num_scrambled_causal"":""4"",""num_scrambled_schematic"":""4"",""participantId"":""FF8F27F9264E4CE080F8D5079312C55D"",""assignmentId"":""ef4e210b-e6d4-4acf-95de-ad8aa4944d12"",""projectId"":""051c06f1-75cc-4548-856d-4923ddaba0dc""}","https://test12345.live/?num_scrambled_semantic=8&num_scrambled_causal=4&num_scrambled_schematic=4&participantId=FF8F27F9264E4CE080F8D5079312C55D&assignmentId=ef4e210b-e6d4-4acf-95de-ad8aa4944d12&projectId=051c06f1-75cc-4548-856d-4923ddaba0dc","FF8F27F9264E4CE080F8D5079312C55D-2025-05-15-18-47-37","","3040","","[""<span style=\""color: red; font-size: 24px\""> NOW RECORDING</span><p>Please say out loud all the images you saw, as many as you can remember. The images can be said in any order.</p>""]","","12",""
"","","","","","instructions","23","132612","0.0-9.0","FF8F27F9264E4CE080F8D5079312C55D","FF8F27F9264E4CE080F8D5079312C55D","ef4e210b-e6d4-4acf-95de-ad8aa4944d12","051c06f1-75cc-4548-856d-4923ddaba0dc","{""num_scrambled_semantic"":""8"",""num_scrambled_causal"":""4"",""num_scrambled_schematic"":""4"",""participantId"":""FF8F27F9264E4CE080F8D5079312C55D"",""assignmentId"":""ef4e210b-e6d4-4acf-95de-ad8aa4944d12"",""projectId"":""051c06f1-75cc-4548-856d-4923ddaba0dc""}","https://test12345.live/?num_scrambled_semantic=8&num_scrambled_causal=4&num_scrambled_schematic=4&participantId=FF8F27F9264E4CE080F8D5079312C55D&assignmentId=ef4e210b-e6d4-4acf-95de-ad8aa4944d12&projectId=051c06f1-75cc-4548-856d-4923ddaba0dc","FF8F27F9264E4CE080F8D5079312C55D-2025-05-15-18-47-37","[{""page_index"":0,""viewing_time"":812}]","813","","","","",""
"","","","","","image-button-response","24","138613","0.0-10.0-0.0","FF8F27F9264E4CE080F8D5079312C55D","FF8F27F9264E4CE080F8D5079312C55D","ef4e210b-e6d4-4acf-95de-ad8aa4944d12","051c06f1-75cc-4548-856d-4923ddaba0dc","{""num_scrambled_semantic"":""8"",""num_scrambled_causal"":""4"",""num_scrambled_schematic"":""4"",""participantId"":""FF8F27F9264E4CE080F8D5079312C55D"",""assignmentId"":""ef4e210b-e6d4-4acf-95de-ad8aa4944d12"",""projectId"":""051c06f1-75cc-4548-856d-4923ddaba0dc""}","https://test12345.live/?num_scrambled_semantic=8&num_scrambled_causal=4&num_scrambled_schematic=4&participantId=FF8F27F9264E4CE080F8D5079312C55D&assignmentId=ef4e210b-e6d4-4acf-95de-ad8aa4944d12&projectId=051c06f1-75cc-4548-856d-4923ddaba0dc","FF8F27F9264E4CE080F8D5079312C55D-2025-05-15-18-47-37","","null","","images/schematic_sequence/dinner_party_scheme/dinner_party_scheme_0.png","null","",""
"","","","","","image-button-response","25","143116","0.0-10.0-1.0-0.0","FF8F27F9264E4CE080F8D5079312C55D","FF8F27F9264E4CE080F8D5079312C55D","ef4e210b-e6d4-4acf-95de-ad8aa4944d12","051c06f1-75cc-4548-856d-4923ddaba0dc","{""num_scrambled_semantic"":""8"",""num_scrambled_causal"":""4"",""num_scrambled_schematic"":""4"",""participantId"":""FF8F27F9264E4CE080F8D5079312C55D"",""assignmentId"":""ef4e210b-e6d4-4acf-95de-ad8aa4944d12"",""projectId"":""051c06f1-75cc-4548-856d-4923ddaba0dc""}","https://test12345.live/?num_scrambled_semantic=8&num_scrambled_causal=4&num_scrambled_schematic=4&participantId=FF8F27F9264E4CE080F8D5079312C55D&assignmentId=ef4e210b-e6d4-4acf-95de-ad8aa4944d12&projectId=051c06f1-75cc-4548-856d-4923ddaba0dc","FF8F27F9264E4CE080F8D5079312C55D-2025-05-15-18-47-37","","null","","images/schematic_sequence/dinner_party_scheme/dinner_party_scheme_1.png","null","",""
"","","","","","image-button-response","26","144867","0.0-10.0-1.0-1.0","FF8F27F9264E4CE080F8D5079312C55D","FF8F27F9264E4CE080F8D5079312C55D","ef4e210b-e6d4-4acf-95de-ad8aa4944d12","051c06f1-75cc-4548-856d-4923ddaba0dc","{""num_scrambled_semantic"":""8"",""num_scrambled_causal"":""4"",""num_scrambled_schematic"":""4"",""participantId"":""FF8F27F9264E4CE080F8D5079312C55D"",""assignmentId"":""ef4e210b-e6d4-4acf-95de-ad8aa4944d12"",""projectId"":""051c06f1-75cc-4548-856d-4923ddaba0dc""}","https://test12345.live/?num_scrambled_semantic=8&num_scrambled_causal=4&num_scrambled_schematic=4&participantId=FF8F27F9264E4CE080F8D5079312C55D&assignmentId=ef4e210b-e6d4-4acf-95de-ad8aa4944d12&projectId=051c06f1-75cc-4548-856d-4923ddaba0dc","FF8F27F9264E4CE080F8D5079312C55D-2025-05-15-18-47-37","","1750","","images/schematic_sequence/dinner_party_scheme/dinner_party_scheme_1.png","0","",""
"","","","","","image-button-response","27","146668","0.0-10.0-1.0-2.0","FF8F27F9264E4CE080F8D5079312C55D","FF8F27F9264E4CE080F8D5079312C55D","ef4e210b-e6d4-4acf-95de-ad8aa4944d12","051c06f1-75cc-4548-856d-4923ddaba0dc","{""num_scrambled_semantic"":""8"",""num_scrambled_causal"":""4"",""num_scrambled_schematic"":""4"",""participantId"":""FF8F27F9264E4CE080F8D5079312C55D"",""assignmentId"":""ef4e210b-e6d4-4acf-95de-ad8aa4944d12"",""projectId"":""051c06f1-75cc-4548-856d-4923ddaba0dc""}","https://test12345.live/?num_scrambled_semantic=8&num_scrambled_causal=4&num_scrambled_schematic=4&participantId=FF8F27F9264E4CE080F8D5079312C55D&assignmentId=ef4e210b-e6d4-4acf-95de-ad8aa4944d12&projectId=051c06f1-75cc-4548-856d-4923ddaba0dc","FF8F27F9264E4CE080F8D5079312C55D-2025-05-15-18-47-37","","null","","[]","null","",""
"","","","","","image-button-response","28","151170","0.0-10.0-1.0-0.1","FF8F27F9264E4CE080F8D5079312C55D","FF8F27F9264E4CE080F8D5079312C55D","ef4e210b-e6d4-4acf-95de-ad8aa4944d12","051c06f1-75cc-4548-856d-4923ddaba0dc","{""num_scrambled_semantic"":""8"",""num_scrambled_causal"":""4"",""num_scrambled_schematic"":""4"",""participantId"":""FF8F27F9264E4CE080F8D5079312C55D"",""assignmentId"":""ef4e210b-e6d4-4acf-95de-ad8aa4944d12"",""projectId"":""051c06f1-75cc-4548-856d-4923ddaba0dc""}","https://test12345.live/?num_scrambled_semantic=8&num_scrambled_causal=4&num_scrambled_schematic=4&participantId=FF8F27F9264E4CE080F8D5079312C55D&assignmentId=ef4e210b-e6d4-4acf-95de-ad8aa4944d12&projectId=051c06f1-75cc-4548-856d-4923ddaba0dc","FF8F27F9264E4CE080F8D5079312C55D-2025-05-15-18-47-37","","null","","images/schematic_sequence/dinner_party_scheme/dinner_party_scheme_2.png","null","",""
"","","","","","image-button-response","29","152210","0.0-10.0-1.0-1.1","FF8F27F9264E4CE080F8D5079312C55D","FF8F27F9264E4CE080F8D5079312C55D","ef4e210b-e6d4-4acf-95de-ad8aa4944d12","051c06f1-75cc-4548-856d-4923ddaba0dc","{""num_scrambled_semantic"":""8"",""num_scrambled_causal"":""4"",""num_scrambled_schematic"":""4"",""participantId"":""FF8F27F9264E4CE080F8D5079312C55D"",""assignmentId"":""ef4e210b-e6d4-4acf-95de-ad8aa4944d12"",""projectId"":""051c06f1-75cc-4548-856d-4923ddaba0dc""}","https://test12345.live/?num_scrambled_semantic=8&num_scrambled_causal=4&num_scrambled_schematic=4&participantId=FF8F27F9264E4CE080F8D5079312C55D&assignmentId=ef4e210b-e6d4-4acf-95de-ad8aa4944d12&projectId=051c06f1-75cc-4548-856d-4923ddaba0dc","FF8F27F9264E4CE080F8D5079312C55D-2025-05-15-18-47-37","","1039","","images/schematic_sequence/dinner_party_scheme/dinner_party_scheme_2.png","0","",""
"","","","","","image-button-response","30","154013","0.0-10.0-1.0-2.1","FF8F27F9264E4CE080F8D5079312C55D","FF8F27F9264E4CE080F8D5079312C55D","ef4e210b-e6d4-4acf-95de-ad8aa4944d12","051c06f1-75cc-4548-856d-4923ddaba0dc","{""num_scrambled_semantic"":""8"",""num_scrambled_causal"":""4"",""num_scrambled_schematic"":""4"",""participantId"":""FF8F27F9264E4CE080F8D5079312C55D"",""assignmentId"":""ef4e210b-e6d4-4acf-95de-ad8aa4944d12"",""projectId"":""051c06f1-75cc-4548-856d-4923ddaba0dc""}","https://test12345.live/?num_scrambled_semantic=8&num_scrambled_causal=4&num_scrambled_schematic=4&participantId=FF8F27F9264E4CE080F8D5079312C55D&assignmentId=ef4e210b-e6d4-4acf-95de-ad8aa4944d12&projectId=051c06f1-75cc-4548-856d-4923ddaba0dc","FF8F27F9264E4CE080F8D5079312C55D-2025-05-15-18-47-37","","null","","[]","null","",""
"","","","","","image-button-response","31","158515","0.0-10.0-1.0-0.2","FF8F27F9264E4CE080F8D5079312C55D","FF8F27F9264E4CE080F8D5079312C55D","ef4e210b-e6d4-4acf-95de-ad8aa4944d12","051c06f1-75cc-4548-856d-4923ddaba0dc","{""num_scrambled_semantic"":""8"",""num_scrambled_causal"":""4"",""num_scrambled_schematic"":""4"",""participantId"":""FF8F27F9264E4CE080F8D5079312C55D"",""assignmentId"":""ef4e210b-e6d4-4acf-95de-ad8aa4944d12"",""projectId"":""051c06f1-75cc-4548-856d-4923ddaba0dc""}","https://test12345.live/?num_scrambled_semantic=8&num_scrambled_causal=4&num_scrambled_schematic=4&participantId=FF8F27F9264E4CE080F8D5079312C55D&assignmentId=ef4e210b-e6d4-4acf-95de-ad8aa4944d12&projectId=051c06f1-75cc-4548-856d-4923ddaba0dc","FF8F27F9264E4CE080F8D5079312C55D-2025-05-15-18-47-37","","null","","images/schematic_sequence/dinner_party_scheme/dinner_party_scheme_3.png","null","",""
"","","","","","image-button-response","32","159771","0.0-10.0-1.0-1.2","FF8F27F9264E4CE080F8D5079312C55D","FF8F27F9264E4CE080F8D5079312C55D","ef4e210b-e6d4-4acf-95de-ad8aa4944d12","051c06f1-75cc-4548-856d-4923ddaba0dc","{""num_scrambled_semantic"":""8"",""num_scrambled_causal"":""4"",""num_scrambled_schematic"":""4"",""participantId"":""FF8F27F9264E4CE080F8D5079312C55D"",""assignmentId"":""ef4e210b-e6d4-4acf-95de-ad8aa4944d12"",""projectId"":""051c06f1-75cc-4548-856d-4923ddaba0dc""}","https://test12345.live/?num_scrambled_semantic=8&num_scrambled_causal=4&num_scrambled_schematic=4&participantId=FF8F27F9264E4CE080F8D5079312C55D&assignmentId=ef4e210b-e6d4-4acf-95de-ad8aa4944d12&projectId=051c06f1-75cc-4548-856d-4923ddaba0dc","FF8F27F9264E4CE080F8D5079312C55D-2025-05-15-18-47-37","","1254","","images/schematic_sequence/dinner_party_scheme/dinner_party_scheme_3.png","0","",""
"","","","","","image-button-response","33","161573","0.0-10.0-1.0-2.2","FF8F27F9264E4CE080F8D5079312C55D","FF8F27F9264E4CE080F8D5079312C55D","ef4e210b-e6d4-4acf-95de-ad8aa4944d12","051c06f1-75cc-4548-856d-4923ddaba0dc","{""num_scrambled_semantic"":""8"",""num_scrambled_causal"":""4"",""num_scrambled_schematic"":""4"",""participantId"":""FF8F27F9264E4CE080F8D5079312C55D"",""assignmentId"":""ef4e210b-e6d4-4acf-95de-ad8aa4944d12"",""projectId"":""051c06f1-75cc-4548-856d-4923ddaba0dc""}","https://test12345.live/?num_scrambled_semantic=8&num_scrambled_causal=4&num_scrambled_schematic=4&participantId=FF8F27F9264E4CE080F8D5079312C55D&assignmentId=ef4e210b-e6d4-4acf-95de-ad8aa4944d12&projectId=051c06f1-75cc-4548-856d-4923ddaba0dc","FF8F27F9264E4CE080F8D5079312C55D-2025-05-15-18-47-37","","null","","[]","null","",""
"","","","","","image-button-response","34","166075","0.0-10.0-1.0-0.3","FF8F27F9264E4CE080F8D5079312C55D","FF8F27F9264E4CE080F8D5079312C55D","ef4e210b-e6d4-4acf-95de-ad8aa4944d12","051c06f1-75cc-4548-856d-4923ddaba0dc","{""num_scrambled_semantic"":""8"",""num_scrambled_causal"":""4"",""num_scrambled_schematic"":""4"",""participantId"":""FF8F27F9264E4CE080F8D5079312C55D"",""assignmentId"":""ef4e210b-e6d4-4acf-95de-ad8aa4944d12"",""projectId"":""051c06f1-75cc-4548-856d-4923ddaba0dc""}","https://test12345.live/?num_scrambled_semantic=8&num_scrambled_causal=4&num_scrambled_schematic=4&participantId=FF8F27F9264E4CE080F8D5079312C55D&assignmentId=ef4e210b-e6d4-4acf-95de-ad8aa4944d12&projectId=051c06f1-75cc-4548-856d-4923ddaba0dc","FF8F27F9264E4CE080F8D5079312C55D-2025-05-15-18-47-37","","null","","images/schematic_sequence/dinner_party_scheme/dinner_party_scheme_4.png","null","",""
"","","","","","image-button-response","35","167523","0.0-10.0-1.0-1.3","FF8F27F9264E4CE080F8D5079312C55D","FF8F27F9264E4CE080F8D5079312C55D","ef4e210b-e6d4-4acf-95de-ad8aa4944d12","051c06f1-75cc-4548-856d-4923ddaba0dc","{""num_scrambled_semantic"":""8"",""num_scrambled_causal"":""4"",""num_scrambled_schematic"":""4"",""participantId"":""FF8F27F9264E4CE080F8D5079312C55D"",""assignmentId"":""ef4e210b-e6d4-4acf-95de-ad8aa4944d12"",""projectId"":""051c06f1-75cc-4548-856d-4923ddaba0dc""}","https://test12345.live/?num_scrambled_semantic=8&num_scrambled_causal=4&num_scrambled_schematic=4&participantId=FF8F27F9264E4CE080F8D5079312C55D&assignmentId=ef4e210b-e6d4-4acf-95de-ad8aa4944d12&projectId=051c06f1-75cc-4548-856d-4923ddaba0dc","FF8F27F9264E4CE080F8D5079312C55D-2025-05-15-18-47-37","","1446","","images/schematic_sequence/dinner_party_scheme/dinner_party_scheme_4.png","0","",""
"","","","","","image-button-response","36","169325","0.0-10.0-1.0-2.3","FF8F27F9264E4CE080F8D5079312C55D","FF8F27F9264E4CE080F8D5079312C55D","ef4e210b-e6d4-4acf-95de-ad8aa4944d12","051c06f1-75cc-4548-856d-4923ddaba0dc","{""num_scrambled_semantic"":""8"",""num_scrambled_causal"":""4"",""num_scrambled_schematic"":""4"",""participantId"":""FF8F27F9264E4CE080F8D5079312C55D"",""assignmentId"":""ef4e210b-e6d4-4acf-95de-ad8aa4944d12"",""projectId"":""051c06f1-75cc-4548-856d-4923ddaba0dc""}","https://test12345.live/?num_scrambled_semantic=8&num_scrambled_causal=4&num_scrambled_schematic=4&participantId=FF8F27F9264E4CE080F8D5079312C55D&assignmentId=ef4e210b-e6d4-4acf-95de-ad8aa4944d12&projectId=051c06f1-75cc-4548-856d-4923ddaba0dc","FF8F27F9264E4CE080F8D5079312C55D-2025-05-15-18-47-37","","null","","[]","null","",""
"","","","","","image-button-response","37","173826","0.0-10.0-1.0-0.4","FF8F27F9264E4CE080F8D5079312C55D","FF8F27F9264E4CE080F8D5079312C55D","ef4e210b-e6d4-4acf-95de-ad8aa4944d12","051c06f1-75cc-4548-856d-4923ddaba0dc","{""num_scrambled_semantic"":""8"",""num_scrambled_causal"":""4"",""num_scrambled_schematic"":""4"",""participantId"":""FF8F27F9264E4CE080F8D5079312C55D"",""assignmentId"":""ef4e210b-e6d4-4acf-95de-ad8aa4944d12"",""projectId"":""051c06f1-75cc-4548-856d-4923ddaba0dc""}","https://test12345.live/?num_scrambled_semantic=8&num_scrambled_causal=4&num_scrambled_schematic=4&participantId=FF8F27F9264E4CE080F8D5079312C55D&assignmentId=ef4e210b-e6d4-4acf-95de-ad8aa4944d12&projectId=051c06f1-75cc-4548-856d-4923ddaba0dc","FF8F27F9264E4CE080F8D5079312C55D-2025-05-15-18-47-37","","null","","images/schematic_sequence/dinner_party_scheme/dinner_party_scheme_5.png","null","",""
"","","","","","image-button-response","38","175323","0.0-10.0-1.0-1.4","FF8F27F9264E4CE080F8D5079312C55D","FF8F27F9264E4CE080F8D5079312C55D","ef4e210b-e6d4-4acf-95de-ad8aa4944d12","051c06f1-75cc-4548-856d-4923ddaba0dc","{""num_scrambled_semantic"":""8"",""num_scrambled_causal"":""4"",""num_scrambled_schematic"":""4"",""participantId"":""FF8F27F9264E4CE080F8D5079312C55D"",""assignmentId"":""ef4e210b-e6d4-4acf-95de-ad8aa4944d12"",""projectId"":""051c06f1-75cc-4548-856d-4923ddaba0dc""}","https://test12345.live/?num_scrambled_semantic=8&num_scrambled_causal=4&num_scrambled_schematic=4&participantId=FF8F27F9264E4CE080F8D5079312C55D&assignmentId=ef4e210b-e6d4-4acf-95de-ad8aa4944d12&projectId=051c06f1-75cc-4548-856d-4923ddaba0dc","FF8F27F9264E4CE080F8D5079312C55D-2025-05-15-18-47-37","","1496","","images/schematic_sequence/dinner_party_scheme/dinner_party_scheme_5.png","0","",""
"","","","","","image-button-response","39","177125","0.0-10.0-1.0-2.4","FF8F27F9264E4CE080F8D5079312C55D","FF8F27F9264E4CE080F8D5079312C55D","ef4e210b-e6d4-4acf-95de-ad8aa4944d12","051c06f1-75cc-4548-856d-4923ddaba0dc","{""num_scrambled_semantic"":""8"",""num_scrambled_causal"":""4"",""num_scrambled_schematic"":""4"",""participantId"":""FF8F27F9264E4CE080F8D5079312C55D"",""assignmentId"":""ef4e210b-e6d4-4acf-95de-ad8aa4944d12"",""projectId"":""051c06f1-75cc-4548-856d-4923ddaba0dc""}","https://test12345.live/?num_scrambled_semantic=8&num_scrambled_causal=4&num_scrambled_schematic=4&participantId=FF8F27F9264E4CE080F8D5079312C55D&assignmentId=ef4e210b-e6d4-4acf-95de-ad8aa4944d12&projectId=051c06f1-75cc-4548-856d-4923ddaba0dc","FF8F27F9264E4CE080F8D5079312C55D-2025-05-15-18-47-37","","null","","[]","null","",""
"","","","","","image-button-response","40","181627","0.0-10.0-1.0-0.5","FF8F27F9264E4CE080F8D5079312C55D","FF8F27F9264E4CE080F8D5079312C55D","ef4e210b-e6d4-4acf-95de-ad8aa4944d12","051c06f1-75cc-4548-856d-4923ddaba0dc","{""num_scrambled_semantic"":""8"",""num_scrambled_causal"":""4"",""num_scrambled_schematic"":""4"",""participantId"":""FF8F27F9264E4CE080F8D5079312C55D"",""assignmentId"":""ef4e210b-e6d4-4acf-95de-ad8aa4944d12"",""projectId"":""051c06f1-75cc-4548-856d-4923ddaba0dc""}","https://test12345.live/?num_scrambled_semantic=8&num_scrambled_causal=4&num_scrambled_schematic=4&participantId=FF8F27F9264E4CE080F8D5079312C55D&assignmentId=ef4e210b-e6d4-4acf-95de-ad8aa4944d12&projectId=051c06f1-75cc-4548-856d-4923ddaba0dc","FF8F27F9264E4CE080F8D5079312C55D-2025-05-15-18-47-37","","null","","images/schematic_sequence/dinner_party_scheme/dinner_party_scheme_6.png","null","",""
"","","","","","image-button-response","41","183659","0.0-10.0-1.0-1.5","FF8F27F9264E4CE080F8D5079312C55D","FF8F27F9264E4CE080F8D5079312C55D","ef4e210b-e6d4-4acf-95de-ad8aa4944d12","051c06f1-75cc-4548-856d-4923ddaba0dc","{""num_scrambled_semantic"":""8"",""num_scrambled_causal"":""4"",""num_scrambled_schematic"":""4"",""participantId"":""FF8F27F9264E4CE080F8D5079312C55D"",""assignmentId"":""ef4e210b-e6d4-4acf-95de-ad8aa4944d12"",""projectId"":""051c06f1-75cc-4548-856d-4923ddaba0dc""}","https://test12345.live/?num_scrambled_semantic=8&num_scrambled_causal=4&num_scrambled_schematic=4&participantId=FF8F27F9264E4CE080F8D5079312C55D&assignmentId=ef4e210b-e6d4-4acf-95de-ad8aa4944d12&projectId=051c06f1-75cc-4548-856d-4923ddaba0dc","FF8F27F9264E4CE080F8D5079312C55D-2025-05-15-18-47-37","","2030","","images/schematic_sequence/dinner_party_scheme/dinner_party_scheme_6.png","0","",""
"","","","","","image-button-response","42","185461","0.0-10.0-1.0-2.5","FF8F27F9264E4CE080F8D5079312C55D","FF8F27F9264E4CE080F8D5079312C55D","ef4e210b-e6d4-4acf-95de-ad8aa4944d12","051c06f1-75cc-4548-856d-4923ddaba0dc","{""num_scrambled_semantic"":""8"",""num_scrambled_causal"":""4"",""num_scrambled_schematic"":""4"",""participantId"":""FF8F27F9264E4CE080F8D5079312C55D"",""assignmentId"":""ef4e210b-e6d4-4acf-95de-ad8aa4944d12"",""projectId"":""051c06f1-75cc-4548-856d-4923ddaba0dc""}","https://test12345.live/?num_scrambled_semantic=8&num_scrambled_causal=4&num_scrambled_schematic=4&participantId=FF8F27F9264E4CE080F8D5079312C55D&assignmentId=ef4e210b-e6d4-4acf-95de-ad8aa4944d12&projectId=051c06f1-75cc-4548-856d-4923ddaba0dc","FF8F27F9264E4CE080F8D5079312C55D-2025-05-15-18-47-37","","null","","[]","null","",""
"","","","","","image-button-response","43","189964","0.0-10.0-1.0-0.6","FF8F27F9264E4CE080F8D5079312C55D","FF8F27F9264E4CE080F8D5079312C55D","ef4e210b-e6d4-4acf-95de-ad8aa4944d12","051c06f1-75cc-4548-856d-4923ddaba0dc","{""num_scrambled_semantic"":""8"",""num_scrambled_causal"":""4"",""num_scrambled_schematic"":""4"",""participantId"":""FF8F27F9264E4CE080F8D5079312C55D"",""assignmentId"":""ef4e210b-e6d4-4acf-95de-ad8aa4944d12"",""projectId"":""051c06f1-75cc-4548-856d-4923ddaba0dc""}","https://test12345.live/?num_scrambled_semantic=8&num_scrambled_causal=4&num_scrambled_schematic=4&participantId=FF8F27F9264E4CE080F8D5079312C55D&assignmentId=ef4e210b-e6d4-4acf-95de-ad8aa4944d12&projectId=051c06f1-75cc-4548-856d-4923ddaba0dc","FF8F27F9264E4CE080F8D5079312C55D-2025-05-15-18-47-37","","null","","images/schematic_sequence/dinner_party_scheme/dinner_party_scheme_7.png","null","",""
"","","","","","image-button-response","44","191187","0.0-10.0-1.0-1.6","FF8F27F9264E4CE080F8D5079312C55D","FF8F27F9264E4CE080F8D5079312C55D","ef4e210b-e6d4-4acf-95de-ad8aa4944d12","051c06f1-75cc-4548-856d-4923ddaba0dc","{""num_scrambled_semantic"":""8"",""num_scrambled_causal"":""4"",""num_scrambled_schematic"":""4"",""participantId"":""FF8F27F9264E4CE080F8D5079312C55D"",""assignmentId"":""ef4e210b-e6d4-4acf-95de-ad8aa4944d12"",""projectId"":""051c06f1-75cc-4548-856d-4923ddaba0dc""}","https://test12345.live/?num_scrambled_semantic=8&num_scrambled_causal=4&num_scrambled_schematic=4&participantId=FF8F27F9264E4CE080F8D5079312C55D&assignmentId=ef4e210b-e6d4-4acf-95de-ad8aa4944d12&projectId=051c06f1-75cc-4548-856d-4923ddaba0dc","FF8F27F9264E4CE080F8D5079312C55D-2025-05-15-18-47-37","","1221","","images/schematic_sequence/dinner_party_scheme/dinner_party_scheme_7.png","0","",""
"","","","","","image-button-response","45","192989","0.0-10.0-1.0-2.6","FF8F27F9264E4CE080F8D5079312C55D","FF8F27F9264E4CE080F8D5079312C55D","ef4e210b-e6d4-4acf-95de-ad8aa4944d12","051c06f1-75cc-4548-856d-4923ddaba0dc","{""num_scrambled_semantic"":""8"",""num_scrambled_causal"":""4"",""num_scrambled_schematic"":""4"",""participantId"":""FF8F27F9264E4CE080F8D5079312C55D"",""assignmentId"":""ef4e210b-e6d4-4acf-95de-ad8aa4944d12"",""projectId"":""051c06f1-75cc-4548-856d-4923ddaba0dc""}","https://test12345.live/?num_scrambled_semantic=8&num_scrambled_causal=4&num_scrambled_schematic=4&participantId=FF8F27F9264E4CE080F8D5079312C55D&assignmentId=ef4e210b-e6d4-4acf-95de-ad8aa4944d12&projectId=051c06f1-75cc-4548-856d-4923ddaba0dc","FF8F27F9264E4CE080F8D5079312C55D-2025-05-15-18-47-37","","null","","[]","null","",""
"","","","","","image-button-response","46","197491","0.0-10.0-1.0-0.7","FF8F27F9264E4CE080F8D5079312C55D","FF8F27F9264E4CE080F8D5079312C55D","ef4e210b-e6d4-4acf-95de-ad8aa4944d12","051c06f1-75cc-4548-856d-4923ddaba0dc","{""num_scrambled_semantic"":""8"",""num_scrambled_causal"":""4"",""num_scrambled_schematic"":""4"",""participantId"":""FF8F27F9264E4CE080F8D5079312C55D"",""assignmentId"":""ef4e210b-e6d4-4acf-95de-ad8aa4944d12"",""projectId"":""051c06f1-75cc-4548-856d-4923ddaba0dc""}","https://test12345.live/?num_scrambled_semantic=8&num_scrambled_causal=4&num_scrambled_schematic=4&participantId=FF8F27F9264E4CE080F8D5079312C55D&assignmentId=ef4e210b-e6d4-4acf-95de-ad8aa4944d12&projectId=051c06f1-75cc-4548-856d-4923ddaba0dc","FF8F27F9264E4CE080F8D5079312C55D-2025-05-15-18-47-37","","null","","images/schematic_sequence/dinner_party_scheme/dinner_party_scheme_8.png","null","",""
"","","","","","image-button-response","47","198259","0.0-10.0-1.0-1.7","FF8F27F9264E4CE080F8D5079312C55D","FF8F27F9264E4CE080F8D5079312C55D","ef4e210b-e6d4-4acf-95de-ad8aa4944d12","051c06f1-75cc-4548-856d-4923ddaba0dc","{""num_scrambled_semantic"":""8"",""num_scrambled_causal"":""4"",""num_scrambled_schematic"":""4"",""participantId"":""FF8F27F9264E4CE080F8D5079312C55D"",""assignmentId"":""ef4e210b-e6d4-4acf-95de-ad8aa4944d12"",""projectId"":""051c06f1-75cc-4548-856d-4923ddaba0dc""}","https://test12345.live/?num_scrambled_semantic=8&num_scrambled_causal=4&num_scrambled_schematic=4&participantId=FF8F27F9264E4CE080F8D5079312C55D&assignmentId=ef4e210b-e6d4-4acf-95de-ad8aa4944d12&projectId=051c06f1-75cc-4548-856d-4923ddaba0dc","FF8F27F9264E4CE080F8D5079312C55D-2025-05-15-18-47-37","","766","","images/schematic_sequence/dinner_party_scheme/dinner_party_scheme_8.png","0","",""
"","","","","","image-button-response","48","200060","0.0-10.0-1.0-2.7","FF8F27F9264E4CE080F8D5079312C55D","FF8F27F9264E4CE080F8D5079312C55D","ef4e210b-e6d4-4acf-95de-ad8aa4944d12","051c06f1-75cc-4548-856d-4923ddaba0dc","{""num_scrambled_semantic"":""8"",""num_scrambled_causal"":""4"",""num_scrambled_schematic"":""4"",""participantId"":""FF8F27F9264E4CE080F8D5079312C55D"",""assignmentId"":""ef4e210b-e6d4-4acf-95de-ad8aa4944d12"",""projectId"":""051c06f1-75cc-4548-856d-4923ddaba0dc""}","https://test12345.live/?num_scrambled_semantic=8&num_scrambled_causal=4&num_scrambled_schematic=4&participantId=FF8F27F9264E4CE080F8D5079312C55D&assignmentId=ef4e210b-e6d4-4acf-95de-ad8aa4944d12&projectId=051c06f1-75cc-4548-856d-4923ddaba0dc","FF8F27F9264E4CE080F8D5079312C55D-2025-05-15-18-47-37","","null","","[]","null","",""
"","","","","","image-button-response","49","204562","0.0-10.0-1.0-0.8","FF8F27F9264E4CE080F8D5079312C55D","FF8F27F9264E4CE080F8D5079312C55D","ef4e210b-e6d4-4acf-95de-ad8aa4944d12","051c06f1-75cc-4548-856d-4923ddaba0dc","{""num_scrambled_semantic"":""8"",""num_scrambled_causal"":""4"",""num_scrambled_schematic"":""4"",""participantId"":""FF8F27F9264E4CE080F8D5079312C55D"",""assignmentId"":""ef4e210b-e6d4-4acf-95de-ad8aa4944d12"",""projectId"":""051c06f1-75cc-4548-856d-4923ddaba0dc""}","https://test12345.live/?num_scrambled_semantic=8&num_scrambled_causal=4&num_scrambled_schematic=4&participantId=FF8F27F9264E4CE080F8D5079312C55D&assignmentId=ef4e210b-e6d4-4acf-95de-ad8aa4944d12&projectId=051c06f1-75cc-4548-856d-4923ddaba0dc","FF8F27F9264E4CE080F8D5079312C55D-2025-05-15-18-47-37","","null","","images/schematic_sequence/dinner_party_scheme/dinner_party_scheme_9.png","null","",""
"","","","","","image-button-response","50","205251","0.0-10.0-1.0-1.8","FF8F27F9264E4CE080F8D5079312C55D","FF8F27F9264E4CE080F8D5079312C55D","ef4e210b-e6d4-4acf-95de-ad8aa4944d12","051c06f1-75cc-4548-856d-4923ddaba0dc","{""num_scrambled_semantic"":""8"",""num_scrambled_causal"":""4"",""num_scrambled_schematic"":""4"",""participantId"":""FF8F27F9264E4CE080F8D5079312C55D"",""assignmentId"":""ef4e210b-e6d4-4acf-95de-ad8aa4944d12"",""projectId"":""051c06f1-75cc-4548-856d-4923ddaba0dc""}","https://test12345.live/?num_scrambled_semantic=8&num_scrambled_causal=4&num_scrambled_schematic=4&participantId=FF8F27F9264E4CE080F8D5079312C55D&assignmentId=ef4e210b-e6d4-4acf-95de-ad8aa4944d12&projectId=051c06f1-75cc-4548-856d-4923ddaba0dc","FF8F27F9264E4CE080F8D5079312C55D-2025-05-15-18-47-37","","686","","images/schematic_sequence/dinner_party_scheme/dinner_party_scheme_9.png","0","",""
"","","","","","image-button-response","51","207054","0.0-10.0-1.0-2.8","FF8F27F9264E4CE080F8D5079312C55D","FF8F27F9264E4CE080F8D5079312C55D","ef4e210b-e6d4-4acf-95de-ad8aa4944d12","051c06f1-75cc-4548-856d-4923ddaba0dc","{""num_scrambled_semantic"":""8"",""num_scrambled_causal"":""4"",""num_scrambled_schematic"":""4"",""participantId"":""FF8F27F9264E4CE080F8D5079312C55D"",""assignmentId"":""ef4e210b-e6d4-4acf-95de-ad8aa4944d12"",""projectId"":""051c06f1-75cc-4548-856d-4923ddaba0dc""}","https://test12345.live/?num_scrambled_semantic=8&num_scrambled_causal=4&num_scrambled_schematic=4&participantId=FF8F27F9264E4CE080F8D5079312C55D&assignmentId=ef4e210b-e6d4-4acf-95de-ad8aa4944d12&projectId=051c06f1-75cc-4548-856d-4923ddaba0dc","FF8F27F9264E4CE080F8D5079312C55D-2025-05-15-18-47-37","","null","","[]","null","",""
"","","","","","image-button-response","52","211556","0.0-10.0-1.0-0.9","FF8F27F9264E4CE080F8D5079312C55D","FF8F27F9264E4CE080F8D5079312C55D","ef4e210b-e6d4-4acf-95de-ad8aa4944d12","051c06f1-75cc-4548-856d-4923ddaba0dc","{""num_scrambled_semantic"":""8"",""num_scrambled_causal"":""4"",""num_scrambled_schematic"":""4"",""participantId"":""FF8F27F9264E4CE080F8D5079312C55D"",""assignmentId"":""ef4e210b-e6d4-4acf-95de-ad8aa4944d12"",""projectId"":""051c06f1-75cc-4548-856d-4923ddaba0dc""}","https://test12345.live/?num_scrambled_semantic=8&num_scrambled_causal=4&num_scrambled_schematic=4&participantId=FF8F27F9264E4CE080F8D5079312C55D&assignmentId=ef4e210b-e6d4-4acf-95de-ad8aa4944d12&projectId=051c06f1-75cc-4548-856d-4923ddaba0dc","FF8F27F9264E4CE080F8D5079312C55D-2025-05-15-18-47-37","","null","","images/schematic_sequence/dinner_party_scheme/dinner_party_scheme_ten.png","null","",""
"","","","","","image-button-response","53","213683","0.0-10.0-1.0-1.9","FF8F27F9264E4CE080F8D5079312C55D","FF8F27F9264E4CE080F8D5079312C55D","ef4e210b-e6d4-4acf-95de-ad8aa4944d12","051c06f1-75cc-4548-856d-4923ddaba0dc","{""num_scrambled_semantic"":""8"",""num_scrambled_causal"":""4"",""num_scrambled_schematic"":""4"",""participantId"":""FF8F27F9264E4CE080F8D5079312C55D"",""assignmentId"":""ef4e210b-e6d4-4acf-95de-ad8aa4944d12"",""projectId"":""051c06f1-75cc-4548-856d-4923ddaba0dc""}","https://test12345.live/?num_scrambled_semantic=8&num_scrambled_causal=4&num_scrambled_schematic=4&participantId=FF8F27F9264E4CE080F8D5079312C55D&assignmentId=ef4e210b-e6d4-4acf-95de-ad8aa4944d12&projectId=051c06f1-75cc-4548-856d-4923ddaba0dc","FF8F27F9264E4CE080F8D5079312C55D-2025-05-15-18-47-37","","2125","","images/schematic_sequence/dinner_party_scheme/dinner_party_scheme_ten.png","0","",""
"","","","","","image-button-response","54","215485","0.0-10.0-1.0-2.9","FF8F27F9264E4CE080F8D5079312C55D","FF8F27F9264E4CE080F8D5079312C55D","ef4e210b-e6d4-4acf-95de-ad8aa4944d12","051c06f1-75cc-4548-856d-4923ddaba0dc","{""num_scrambled_semantic"":""8"",""num_scrambled_causal"":""4"",""num_scrambled_schematic"":""4"",""participantId"":""FF8F27F9264E4CE080F8D5079312C55D"",""assignmentId"":""ef4e210b-e6d4-4acf-95de-ad8aa4944d12"",""projectId"":""051c06f1-75cc-4548-856d-4923ddaba0dc""}","https://test12345.live/?num_scrambled_semantic=8&num_scrambled_causal=4&num_scrambled_schematic=4&participantId=FF8F27F9264E4CE080F8D5079312C55D&assignmentId=ef4e210b-e6d4-4acf-95de-ad8aa4944d12&projectId=051c06f1-75cc-4548-856d-4923ddaba0dc","FF8F27F9264E4CE080F8D5079312C55D-2025-05-15-18-47-37","","null","","[]","null","",""
"","","","","","html-audio-response","55","248428","0.0-11.0","FF8F27F9264E4CE080F8D5079312C55D","FF8F27F9264E4CE080F8D5079312C55D","ef4e210b-e6d4-4acf-95de-ad8aa4944d12","051c06f1-75cc-4548-856d-4923ddaba0dc","{""num_scrambled_semantic"":""8"",""num_scrambled_causal"":""4"",""num_scrambled_schematic"":""4"",""participantId"":""FF8F27F9264E4CE080F8D5079312C55D"",""assignmentId"":""ef4e210b-e6d4-4acf-95de-ad8aa4944d12"",""projectId"":""051c06f1-75cc-4548-856d-4923ddaba0dc""}","https://test12345.live/?num_scrambled_semantic=8&num_scrambled_causal=4&num_scrambled_schematic=4&participantId=FF8F27F9264E4CE080F8D5079312C55D&assignmentId=ef4e210b-e6d4-4acf-95de-ad8aa4944d12&projectId=051c06f1-75cc-4548-856d-4923ddaba0dc","FF8F27F9264E4CE080F8D5079312C55D-2025-05-15-18-47-37","","15436","","[""<span style=\""color: red; font-size: 24px\""> NOW RECORDING</span><p>Please say out loud all the images you saw, as many as you can remember. The images can be said in any order.</p>""]","","15","dinner_party_scheme"
"","","","","","image-button-response","56","254446","0.0-12.0-0.0","FF8F27F9264E4CE080F8D5079312C55D","FF8F27F9264E4CE080F8D5079312C55D","ef4e210b-e6d4-4acf-95de-ad8aa4944d12","051c06f1-75cc-4548-856d-4923ddaba0dc","{""num_scrambled_semantic"":""8"",""num_scrambled_causal"":""4"",""num_scrambled_schematic"":""4"",""participantId"":""FF8F27F9264E4CE080F8D5079312C55D"",""assignmentId"":""ef4e210b-e6d4-4acf-95de-ad8aa4944d12"",""projectId"":""051c06f1-75cc-4548-856d-4923ddaba0dc""}","https://test12345.live/?num_scrambled_semantic=8&num_scrambled_causal=4&num_scrambled_schematic=4&participantId=FF8F27F9264E4CE080F8D5079312C55D&assignmentId=ef4e210b-e6d4-4acf-95de-ad8aa4944d12&projectId=051c06f1-75cc-4548-856d-4923ddaba0dc","FF8F27F9264E4CE080F8D5079312C55D-2025-05-15-18-47-37","","null","","images/causal_sequence/museum_causal/museum_causal_0.png","null","",""
"","","","","","image-button-response","57","258949","0.0-12.0-1.0-0.0","FF8F27F9264E4CE080F8D5079312C55D","FF8F27F9264E4CE080F8D5079312C55D","ef4e210b-e6d4-4acf-95de-ad8aa4944d12","051c06f1-75cc-4548-856d-4923ddaba0dc","{""num_scrambled_semantic"":""8"",""num_scrambled_causal"":""4"",""num_scrambled_schematic"":""4"",""participantId"":""FF8F27F9264E4CE080F8D5079312C55D"",""assignmentId"":""ef4e210b-e6d4-4acf-95de-ad8aa4944d12"",""projectId"":""051c06f1-75cc-4548-856d-4923ddaba0dc""}","https://test12345.live/?num_scrambled_semantic=8&num_scrambled_causal=4&num_scrambled_schematic=4&participantId=FF8F27F9264E4CE080F8D5079312C55D&assignmentId=ef4e210b-e6d4-4acf-95de-ad8aa4944d12&projectId=051c06f1-75cc-4548-856d-4923ddaba0dc","FF8F27F9264E4CE080F8D5079312C55D-2025-05-15-18-47-37","","null","","images/causal_sequence/museum_causal/museum_causal_1.png","null","",""
"","","","","","image-button-response","58","259923","0.0-12.0-1.0-1.0","FF8F27F9264E4CE080F8D5079312C55D","FF8F27F9264E4CE080F8D5079312C55D","ef4e210b-e6d4-4acf-95de-ad8aa4944d12","051c06f1-75cc-4548-856d-4923ddaba0dc","{""num_scrambled_semantic"":""8"",""num_scrambled_causal"":""4"",""num_scrambled_schematic"":""4"",""participantId"":""FF8F27F9264E4CE080F8D5079312C55D"",""assignmentId"":""ef4e210b-e6d4-4acf-95de-ad8aa4944d12"",""projectId"":""051c06f1-75cc-4548-856d-4923ddaba0dc""}","https://test12345.live/?num_scrambled_semantic=8&num_scrambled_causal=4&num_scrambled_schematic=4&participantId=FF8F27F9264E4CE080F8D5079312C55D&assignmentId=ef4e210b-e6d4-4acf-95de-ad8aa4944d12&projectId=051c06f1-75cc-4548-856d-4923ddaba0dc","FF8F27F9264E4CE080F8D5079312C55D-2025-05-15-18-47-37","","973","","images/causal_sequence/museum_causal/museum_causal_1.png","0","",""
"","","","","","image-button-response","59","261725","0.0-12.0-1.0-2.0","FF8F27F9264E4CE080F8D5079312C55D","FF8F27F9264E4CE080F8D5079312C55D","ef4e210b-e6d4-4acf-95de-ad8aa4944d12","051c06f1-75cc-4548-856d-4923ddaba0dc","{""num_scrambled_semantic"":""8"",""num_scrambled_causal"":""4"",""num_scrambled_schematic"":""4"",""participantId"":""FF8F27F9264E4CE080F8D5079312C55D"",""assignmentId"":""ef4e210b-e6d4-4acf-95de-ad8aa4944d12"",""projectId"":""051c06f1-75cc-4548-856d-4923ddaba0dc""}","https://test12345.live/?num_scrambled_semantic=8&num_scrambled_causal=4&num_scrambled_schematic=4&participantId=FF8F27F9264E4CE080F8D5079312C55D&assignmentId=ef4e210b-e6d4-4acf-95de-ad8aa4944d12&projectId=051c06f1-75cc-4548-856d-4923ddaba0dc","FF8F27F9264E4CE080F8D5079312C55D-2025-05-15-18-47-37","","null","","[]","null","",""
"","","","","","image-button-response","60","266226","0.0-12.0-1.0-0.1","FF8F27F9264E4CE080F8D5079312C55D","FF8F27F9264E4CE080F8D5079312C55D","ef4e210b-e6d4-4acf-95de-ad8aa4944d12","051c06f1-75cc-4548-856d-4923ddaba0dc","{""num_scrambled_semantic"":""8"",""num_scrambled_causal"":""4"",""num_scrambled_schematic"":""4"",""participantId"":""FF8F27F9264E4CE080F8D5079312C55D"",""assignmentId"":""ef4e210b-e6d4-4acf-95de-ad8aa4944d12"",""projectId"":""051c06f1-75cc-4548-856d-4923ddaba0dc""}","https://test12345.live/?num_scrambled_semantic=8&num_scrambled_causal=4&num_scrambled_schematic=4&participantId=FF8F27F9264E4CE080F8D5079312C55D&assignmentId=ef4e210b-e6d4-4acf-95de-ad8aa4944d12&projectId=051c06f1-75cc-4548-856d-4923ddaba0dc","FF8F27F9264E4CE080F8D5079312C55D-2025-05-15-18-47-37","","null","","images/causal_sequence/museum_causal/museum_causal_2.png","null","",""
"","","","","","image-button-response","61","268139","0.0-12.0-1.0-1.1","FF8F27F9264E4CE080F8D5079312C55D","FF8F27F9264E4CE080F8D5079312C55D","ef4e210b-e6d4-4acf-95de-ad8aa4944d12","051c06f1-75cc-4548-856d-4923ddaba0dc","{""num_scrambled_semantic"":""8"",""num_scrambled_causal"":""4"",""num_scrambled_schematic"":""4"",""participantId"":""FF8F27F9264E4CE080F8D5079312C55D"",""assignmentId"":""ef4e210b-e6d4-4acf-95de-ad8aa4944d12"",""projectId"":""051c06f1-75cc-4548-856d-4923ddaba0dc""}","https://test12345.live/?num_scrambled_semantic=8&num_scrambled_causal=4&num_scrambled_schematic=4&participantId=FF8F27F9264E4CE080F8D5079312C55D&assignmentId=ef4e210b-e6d4-4acf-95de-ad8aa4944d12&projectId=051c06f1-75cc-4548-856d-4923ddaba0dc","FF8F27F9264E4CE080F8D5079312C55D-2025-05-15-18-47-37","","1910","","images/causal_sequence/museum_causal/museum_causal_2.png","0","",""
"","","","","","image-button-response","62","269941","0.0-12.0-1.0-2.1","FF8F27F9264E4CE080F8D5079312C55D","FF8F27F9264E4CE080F8D5079312C55D","ef4e210b-e6d4-4acf-95de-ad8aa4944d12","051c06f1-75cc-4548-856d-4923ddaba0dc","{""num_scrambled_semantic"":""8"",""num_scrambled_causal"":""4"",""num_scrambled_schematic"":""4"",""participantId"":""FF8F27F9264E4CE080F8D5079312C55D"",""assignmentId"":""ef4e210b-e6d4-4acf-95de-ad8aa4944d12"",""projectId"":""051c06f1-75cc-4548-856d-4923ddaba0dc""}","https://test12345.live/?num_scrambled_semantic=8&num_scrambled_causal=4&num_scrambled_schematic=4&participantId=FF8F27F9264E4CE080F8D5079312C55D&assignmentId=ef4e210b-e6d4-4acf-95de-ad8aa4944d12&projectId=051c06f1-75cc-4548-856d-4923ddaba0dc","FF8F27F9264E4CE080F8D5079312C55D-2025-05-15-18-47-37","","null","","[]","null","",""
"","","","","","image-button-response","63","274444","0.0-12.0-1.0-0.2","FF8F27F9264E4CE080F8D5079312C55D","FF8F27F9264E4CE080F8D5079312C55D","ef4e210b-e6d4-4acf-95de-ad8aa4944d12","051c06f1-75cc-4548-856d-4923ddaba0dc","{""num_scrambled_semantic"":""8"",""num_scrambled_causal"":""4"",""num_scrambled_schematic"":""4"",""participantId"":""FF8F27F9264E4CE080F8D5079312C55D"",""assignmentId"":""ef4e210b-e6d4-4acf-95de-ad8aa4944d12"",""projectId"":""051c06f1-75cc-4548-856d-4923ddaba0dc""}","https://test12345.live/?num_scrambled_semantic=8&num_scrambled_causal=4&num_scrambled_schematic=4&participantId=FF8F27F9264E4CE080F8D5079312C55D&assignmentId=ef4e210b-e6d4-4acf-95de-ad8aa4944d12&projectId=051c06f1-75cc-4548-856d-4923ddaba0dc","FF8F27F9264E4CE080F8D5079312C55D-2025-05-15-18-47-37","","null","","images/causal_sequence/museum_causal/museum_causal_3.png","null","",""
"","","","","","image-button-response","64","275306","0.0-12.0-1.0-1.2","FF8F27F9264E4CE080F8D5079312C55D","FF8F27F9264E4CE080F8D5079312C55D","ef4e210b-e6d4-4acf-95de-ad8aa4944d12","051c06f1-75cc-4548-856d-4923ddaba0dc","{""num_scrambled_semantic"":""8"",""num_scrambled_causal"":""4"",""num_scrambled_schematic"":""4"",""participantId"":""FF8F27F9264E4CE080F8D5079312C55D"",""assignmentId"":""ef4e210b-e6d4-4acf-95de-ad8aa4944d12"",""projectId"":""051c06f1-75cc-4548-856d-4923ddaba0dc""}","https://test12345.live/?num_scrambled_semantic=8&num_scrambled_causal=4&num_scrambled_schematic=4&participantId=FF8F27F9264E4CE080F8D5079312C55D&assignmentId=ef4e210b-e6d4-4acf-95de-ad8aa4944d12&projectId=051c06f1-75cc-4548-856d-4923ddaba0dc","FF8F27F9264E4CE080F8D5079312C55D-2025-05-15-18-47-37","","860","","images/causal_sequence/museum_causal/museum_causal_3.png","0","",""
"","","","","","image-button-response","65","277108","0.0-12.0-1.0-2.2","FF8F27F9264E4CE080F8D5079312C55D","FF8F27F9264E4CE080F8D5079312C55D","ef4e210b-e6d4-4acf-95de-ad8aa4944d12","051c06f1-75cc-4548-856d-4923ddaba0dc","{""num_scrambled_semantic"":""8"",""num_scrambled_causal"":""4"",""num_scrambled_schematic"":""4"",""participantId"":""FF8F27F9264E4CE080F8D5079312C55D"",""assignmentId"":""ef4e210b-e6d4-4acf-95de-ad8aa4944d12"",""projectId"":""051c06f1-75cc-4548-856d-4923ddaba0dc""}","https://test12345.live/?num_scrambled_semantic=8&num_scrambled_causal=4&num_scrambled_schematic=4&participantId=FF8F27F9264E4CE080F8D5079312C55D&assignmentId=ef4e210b-e6d4-4acf-95de-ad8aa4944d12&projectId=051c06f1-75cc-4548-856d-4923ddaba0dc","FF8F27F9264E4CE080F8D5079312C55D-2025-05-15-18-47-37","","null","","[]","null","",""
"","","","","","image-button-response","66","281609","0.0-12.0-1.0-0.3","FF8F27F9264E4CE080F8D5079312C55D","FF8F27F9264E4CE080F8D5079312C55D","ef4e210b-e6d4-4acf-95de-ad8aa4944d12","051c06f1-75cc-4548-856d-4923ddaba0dc","{""num_scrambled_semantic"":""8"",""num_scrambled_causal"":""4"",""num_scrambled_schematic"":""4"",""participantId"":""FF8F27F9264E4CE080F8D5079312C55D"",""assignmentId"":""ef4e210b-e6d4-4acf-95de-ad8aa4944d12"",""projectId"":""051c06f1-75cc-4548-856d-4923ddaba0dc""}","https://test12345.live/?num_scrambled_semantic=8&num_scrambled_causal=4&num_scrambled_schematic=4&participantId=FF8F27F9264E4CE080F8D5079312C55D&assignmentId=ef4e210b-e6d4-4acf-95de-ad8aa4944d12&projectId=051c06f1-75cc-4548-856d-4923ddaba0dc","FF8F27F9264E4CE080F8D5079312C55D-2025-05-15-18-47-37","","null","","images/causal_sequence/museum_causal/museum_causal_4.png","null","",""
"","","","","","image-button-response","67","282458","0.0-12.0-1.0-1.3","FF8F27F9264E4CE080F8D5079312C55D","FF8F27F9264E4CE080F8D5079312C55D","ef4e210b-e6d4-4acf-95de-ad8aa4944d12","051c06f1-75cc-4548-856d-4923ddaba0dc","{""num_scrambled_semantic"":""8"",""num_scrambled_causal"":""4"",""num_scrambled_schematic"":""4"",""participantId"":""FF8F27F9264E4CE080F8D5079312C55D"",""assignmentId"":""ef4e210b-e6d4-4acf-95de-ad8aa4944d12"",""projectId"":""051c06f1-75cc-4548-856d-4923ddaba0dc""}","https://test12345.live/?num_scrambled_semantic=8&num_scrambled_causal=4&num_scrambled_schematic=4&participantId=FF8F27F9264E4CE080F8D5079312C55D&assignmentId=ef4e210b-e6d4-4acf-95de-ad8aa4944d12&projectId=051c06f1-75cc-4548-856d-4923ddaba0dc","FF8F27F9264E4CE080F8D5079312C55D-2025-05-15-18-47-37","","847","","images/causal_sequence/museum_causal/museum_causal_4.png","0","",""
"","","","","","image-button-response","68","284260","0.0-12.0-1.0-2.3","FF8F27F9264E4CE080F8D5079312C55D","FF8F27F9264E4CE080F8D5079312C55D","ef4e210b-e6d4-4acf-95de-ad8aa4944d12","051c06f1-75cc-4548-856d-4923ddaba0dc","{""num_scrambled_semantic"":""8"",""num_scrambled_causal"":""4"",""num_scrambled_schematic"":""4"",""participantId"":""FF8F27F9264E4CE080F8D5079312C55D"",""assignmentId"":""ef4e210b-e6d4-4acf-95de-ad8aa4944d12"",""projectId"":""051c06f1-75cc-4548-856d-4923ddaba0dc""}","https://test12345.live/?num_scrambled_semantic=8&num_scrambled_causal=4&num_scrambled_schematic=4&participantId=FF8F27F9264E4CE080F8D5079312C55D&assignmentId=ef4e210b-e6d4-4acf-95de-ad8aa4944d12&projectId=051c06f1-75cc-4548-856d-4923ddaba0dc","FF8F27F9264E4CE080F8D5079312C55D-2025-05-15-18-47-37","","null","","[]","null","",""
"","","","","","image-button-response","69","288762","0.0-12.0-1.0-0.4","FF8F27F9264E4CE080F8D5079312C55D","FF8F27F9264E4CE080F8D5079312C55D","ef4e210b-e6d4-4acf-95de-ad8aa4944d12","051c06f1-75cc-4548-856d-4923ddaba0dc","{""num_scrambled_semantic"":""8"",""num_scrambled_causal"":""4"",""num_scrambled_schematic"":""4"",""participantId"":""FF8F27F9264E4CE080F8D5079312C55D"",""assignmentId"":""ef4e210b-e6d4-4acf-95de-ad8aa4944d12"",""projectId"":""051c06f1-75cc-4548-856d-4923ddaba0dc""}","https://test12345.live/?num_scrambled_semantic=8&num_scrambled_causal=4&num_scrambled_schematic=4&participantId=FF8F27F9264E4CE080F8D5079312C55D&assignmentId=ef4e210b-e6d4-4acf-95de-ad8aa4944d12&projectId=051c06f1-75cc-4548-856d-4923ddaba0dc","FF8F27F9264E4CE080F8D5079312C55D-2025-05-15-18-47-37","","null","","images/causal_sequence/museum_causal/museum_causal_5.png","null","",""
"","","","","","image-button-response","70","289578","0.0-12.0-1.0-1.4","FF8F27F9264E4CE080F8D5079312C55D","FF8F27F9264E4CE080F8D5079312C55D","ef4e210b-e6d4-4acf-95de-ad8aa4944d12","051c06f1-75cc-4548-856d-4923ddaba0dc","{""num_scrambled_semantic"":""8"",""num_scrambled_causal"":""4"",""num_scrambled_schematic"":""4"",""participantId"":""FF8F27F9264E4CE080F8D5079312C55D"",""assignmentId"":""ef4e210b-e6d4-4acf-95de-ad8aa4944d12"",""projectId"":""051c06f1-75cc-4548-856d-4923ddaba0dc""}","https://test12345.live/?num_scrambled_semantic=8&num_scrambled_causal=4&num_scrambled_schematic=4&participantId=FF8F27F9264E4CE080F8D5079312C55D&assignmentId=ef4e210b-e6d4-4acf-95de-ad8aa4944d12&projectId=051c06f1-75cc-4548-856d-4923ddaba0dc","FF8F27F9264E4CE080F8D5079312C55D-2025-05-15-18-47-37","","815","","images/causal_sequence/museum_causal/museum_causal_5.png","0","",""
"","","","","","image-button-response","71","291380","0.0-12.0-1.0-2.4","FF8F27F9264E4CE080F8D5079312C55D","FF8F27F9264E4CE080F8D5079312C55D","ef4e210b-e6d4-4acf-95de-ad8aa4944d12","051c06f1-75cc-4548-856d-4923ddaba0dc","{""num_scrambled_semantic"":""8"",""num_scrambled_causal"":""4"",""num_scrambled_schematic"":""4"",""participantId"":""FF8F27F9264E4CE080F8D5079312C55D"",""assignmentId"":""ef4e210b-e6d4-4acf-95de-ad8aa4944d12"",""projectId"":""051c06f1-75cc-4548-856d-4923ddaba0dc""}","https://test12345.live/?num_scrambled_semantic=8&num_scrambled_causal=4&num_scrambled_schematic=4&participantId=FF8F27F9264E4CE080F8D5079312C55D&assignmentId=ef4e210b-e6d4-4acf-95de-ad8aa4944d12&projectId=051c06f1-75cc-4548-856d-4923ddaba0dc","FF8F27F9264E4CE080F8D5079312C55D-2025-05-15-18-47-37","","null","","[]","null","",""
"","","","","","image-button-response","72","295881","0.0-12.0-1.0-0.5","FF8F27F9264E4CE080F8D5079312C55D","FF8F27F9264E4CE080F8D5079312C55D","ef4e210b-e6d4-4acf-95de-ad8aa4944d12","051c06f1-75cc-4548-856d-4923ddaba0dc","{""num_scrambled_semantic"":""8"",""num_scrambled_causal"":""4"",""num_scrambled_schematic"":""4"",""participantId"":""FF8F27F9264E4CE080F8D5079312C55D"",""assignmentId"":""ef4e210b-e6d4-4acf-95de-ad8aa4944d12"",""projectId"":""051c06f1-75cc-4548-856d-4923ddaba0dc""}","https://test12345.live/?num_scrambled_semantic=8&num_scrambled_causal=4&num_scrambled_schematic=4&participantId=FF8F27F9264E4CE080F8D5079312C55D&assignmentId=ef4e210b-e6d4-4acf-95de-ad8aa4944d12&projectId=051c06f1-75cc-4548-856d-4923ddaba0dc","FF8F27F9264E4CE080F8D5079312C55D-2025-05-15-18-47-37","","null","","images/causal_sequence/museum_causal/museum_causal_6.png","null","",""
"","","","","","image-button-response","73","296355","0.0-12.0-1.0-1.5","FF8F27F9264E4CE080F8D5079312C55D","FF8F27F9264E4CE080F8D5079312C55D","ef4e210b-e6d4-4acf-95de-ad8aa4944d12","051c06f1-75cc-4548-856d-4923ddaba0dc","{""num_scrambled_semantic"":""8"",""num_scrambled_causal"":""4"",""num_scrambled_schematic"":""4"",""participantId"":""FF8F27F9264E4CE080F8D5079312C55D"",""assignmentId"":""ef4e210b-e6d4-4acf-95de-ad8aa4944d12"",""projectId"":""051c06f1-75cc-4548-856d-4923ddaba0dc""}","https://test12345.live/?num_scrambled_semantic=8&num_scrambled_causal=4&num_scrambled_schematic=4&participantId=FF8F27F9264E4CE080F8D5079312C55D&assignmentId=ef4e210b-e6d4-4acf-95de-ad8aa4944d12&projectId=051c06f1-75cc-4548-856d-4923ddaba0dc","FF8F27F9264E4CE080F8D5079312C55D-2025-05-15-18-47-37","","472","","images/causal_sequence/museum_causal/museum_causal_6.png","0","",""
"","","","","","image-button-response","74","298158","0.0-12.0-1.0-2.5","FF8F27F9264E4CE080F8D5079312C55D","FF8F27F9264E4CE080F8D5079312C55D","ef4e210b-e6d4-4acf-95de-ad8aa4944d12","051c06f1-75cc-4548-856d-4923ddaba0dc","{""num_scrambled_semantic"":""8"",""num_scrambled_causal"":""4"",""num_scrambled_schematic"":""4"",""participantId"":""FF8F27F9264E4CE080F8D5079312C55D"",""assignmentId"":""ef4e210b-e6d4-4acf-95de-ad8aa4944d12"",""projectId"":""051c06f1-75cc-4548-856d-4923ddaba0dc""}","https://test12345.live/?num_scrambled_semantic=8&num_scrambled_causal=4&num_scrambled_schematic=4&participantId=FF8F27F9264E4CE080F8D5079312C55D&assignmentId=ef4e210b-e6d4-4acf-95de-ad8aa4944d12&projectId=051c06f1-75cc-4548-856d-4923ddaba0dc","FF8F27F9264E4CE080F8D5079312C55D-2025-05-15-18-47-37","","null","","[]","null","",""
"","","","","","image-button-response","75","302659","0.0-12.0-1.0-0.6","FF8F27F9264E4CE080F8D5079312C55D","FF8F27F9264E4CE080F8D5079312C55D","ef4e210b-e6d4-4acf-95de-ad8aa4944d12","051c06f1-75cc-4548-856d-4923ddaba0dc","{""num_scrambled_semantic"":""8"",""num_scrambled_causal"":""4"",""num_scrambled_schematic"":""4"",""participantId"":""FF8F27F9264E4CE080F8D5079312C55D"",""assignmentId"":""ef4e210b-e6d4-4acf-95de-ad8aa4944d12"",""projectId"":""051c06f1-75cc-4548-856d-4923ddaba0dc""}","https://test12345.live/?num_scrambled_semantic=8&num_scrambled_causal=4&num_scrambled_schematic=4&participantId=FF8F27F9264E4CE080F8D5079312C55D&assignmentId=ef4e210b-e6d4-4acf-95de-ad8aa4944d12&projectId=051c06f1-75cc-4548-856d-4923ddaba0dc","FF8F27F9264E4CE080F8D5079312C55D-2025-05-15-18-47-37","","null","","images/causal_sequence/museum_causal/museum_causal_7.png","null","",""
"","","","","","image-button-response","76","303539","0.0-12.0-1.0-1.6","FF8F27F9264E4CE080F8D5079312C55D","FF8F27F9264E4CE080F8D5079312C55D","ef4e210b-e6d4-4acf-95de-ad8aa4944d12","051c06f1-75cc-4548-856d-4923ddaba0dc","{""num_scrambled_semantic"":""8"",""num_scrambled_causal"":""4"",""num_scrambled_schematic"":""4"",""participantId"":""FF8F27F9264E4CE080F8D5079312C55D"",""assignmentId"":""ef4e210b-e6d4-4acf-95de-ad8aa4944d12"",""projectId"":""051c06f1-75cc-4548-856d-4923ddaba0dc""}","https://test12345.live/?num_scrambled_semantic=8&num_scrambled_causal=4&num_scrambled_schematic=4&participantId=FF8F27F9264E4CE080F8D5079312C55D&assignmentId=ef4e210b-e6d4-4acf-95de-ad8aa4944d12&projectId=051c06f1-75cc-4548-856d-4923ddaba0dc","FF8F27F9264E4CE080F8D5079312C55D-2025-05-15-18-47-37","","879","","images/causal_sequence/museum_causal/museum_causal_7.png","1","",""
"","","","","","image-button-response","77","305341","0.0-12.0-1.0-2.6","FF8F27F9264E4CE080F8D5079312C55D","FF8F27F9264E4CE080F8D5079312C55D","ef4e210b-e6d4-4acf-95de-ad8aa4944d12","051c06f1-75cc-4548-856d-4923ddaba0dc","{""num_scrambled_semantic"":""8"",""num_scrambled_causal"":""4"",""num_scrambled_schematic"":""4"",""participantId"":""FF8F27F9264E4CE080F8D5079312C55D"",""assignmentId"":""ef4e210b-e6d4-4acf-95de-ad8aa4944d12"",""projectId"":""051c06f1-75cc-4548-856d-4923ddaba0dc""}","https://test12345.live/?num_scrambled_semantic=8&num_scrambled_causal=4&num_scrambled_schematic=4&participantId=FF8F27F9264E4CE080F8D5079312C55D&assignmentId=ef4e210b-e6d4-4acf-95de-ad8aa4944d12&projectId=051c06f1-75cc-4548-856d-4923ddaba0dc","FF8F27F9264E4CE080F8D5079312C55D-2025-05-15-18-47-37","","null","","[]","null","",""
"","","","","","image-button-response","78","309844","0.0-12.0-1.0-0.7","FF8F27F9264E4CE080F8D5079312C55D","FF8F27F9264E4CE080F8D5079312C55D","ef4e210b-e6d4-4acf-95de-ad8aa4944d12","051c06f1-75cc-4548-856d-4923ddaba0dc","{""num_scrambled_semantic"":""8"",""num_scrambled_causal"":""4"",""num_scrambled_schematic"":""4"",""participantId"":""FF8F27F9264E4CE080F8D5079312C55D"",""assignmentId"":""ef4e210b-e6d4-4acf-95de-ad8aa4944d12"",""projectId"":""051c06f1-75cc-4548-856d-4923ddaba0dc""}","https://test12345.live/?num_scrambled_semantic=8&num_scrambled_causal=4&num_scrambled_schematic=4&participantId=FF8F27F9264E4CE080F8D5079312C55D&assignmentId=ef4e210b-e6d4-4acf-95de-ad8aa4944d12&projectId=051c06f1-75cc-4548-856d-4923ddaba0dc","FF8F27F9264E4CE080F8D5079312C55D-2025-05-15-18-47-37","","null","","images/causal_sequence/museum_causal/museum_causal_8.png","null","",""
"","","","","","image-button-response","79","310626","0.0-12.0-1.0-1.7","FF8F27F9264E4CE080F8D5079312C55D","FF8F27F9264E4CE080F8D5079312C55D","ef4e210b-e6d4-4acf-95de-ad8aa4944d12","051c06f1-75cc-4548-856d-4923ddaba0dc","{""num_scrambled_semantic"":""8"",""num_scrambled_causal"":""4"",""num_scrambled_schematic"":""4"",""participantId"":""FF8F27F9264E4CE080F8D5079312C55D"",""assignmentId"":""ef4e210b-e6d4-4acf-95de-ad8aa4944d12"",""projectId"":""051c06f1-75cc-4548-856d-4923ddaba0dc""}","https://test12345.live/?num_scrambled_semantic=8&num_scrambled_causal=4&num_scrambled_schematic=4&participantId=FF8F27F9264E4CE080F8D5079312C55D&assignmentId=ef4e210b-e6d4-4acf-95de-ad8aa4944d12&projectId=051c06f1-75cc-4548-856d-4923ddaba0dc","FF8F27F9264E4CE080F8D5079312C55D-2025-05-15-18-47-37","","781","","images/causal_sequence/museum_causal/museum_causal_8.png","0","",""
"","","","","","image-button-response","80","312428","0.0-12.0-1.0-2.7","FF8F27F9264E4CE080F8D5079312C55D","FF8F27F9264E4CE080F8D5079312C55D","ef4e210b-e6d4-4acf-95de-ad8aa4944d12","051c06f1-75cc-4548-856d-4923ddaba0dc","{""num_scrambled_semantic"":""8"",""num_scrambled_causal"":""4"",""num_scrambled_schematic"":""4"",""participantId"":""FF8F27F9264E4CE080F8D5079312C55D"",""assignmentId"":""ef4e210b-e6d4-4acf-95de-ad8aa4944d12"",""projectId"":""051c06f1-75cc-4548-856d-4923ddaba0dc""}","https://test12345.live/?num_scrambled_semantic=8&num_scrambled_causal=4&num_scrambled_schematic=4&participantId=FF8F27F9264E4CE080F8D5079312C55D&assignmentId=ef4e210b-e6d4-4acf-95de-ad8aa4944d12&projectId=051c06f1-75cc-4548-856d-4923ddaba0dc","FF8F27F9264E4CE080F8D5079312C55D-2025-05-15-18-47-37","","null","","[]","null","",""
"","","","","","image-button-response","81","316930","0.0-12.0-1.0-0.8","FF8F27F9264E4CE080F8D5079312C55D","FF8F27F9264E4CE080F8D5079312C55D","ef4e210b-e6d4-4acf-95de-ad8aa4944d12","051c06f1-75cc-4548-856d-4923ddaba0dc","{""num_scrambled_semantic"":""8"",""num_scrambled_causal"":""4"",""num_scrambled_schematic"":""4"",""participantId"":""FF8F27F9264E4CE080F8D5079312C55D"",""assignmentId"":""ef4e210b-e6d4-4acf-95de-ad8aa4944d12"",""projectId"":""051c06f1-75cc-4548-856d-4923ddaba0dc""}","https://test12345.live/?num_scrambled_semantic=8&num_scrambled_causal=4&num_scrambled_schematic=4&participantId=FF8F27F9264E4CE080F8D5079312C55D&assignmentId=ef4e210b-e6d4-4acf-95de-ad8aa4944d12&projectId=051c06f1-75cc-4548-856d-4923ddaba0dc","FF8F27F9264E4CE080F8D5079312C55D-2025-05-15-18-47-37","","null","","images/causal_sequence/museum_causal/museum_causal_9.png","null","",""
"","","","","","image-button-response","82","318292","0.0-12.0-1.0-1.8","FF8F27F9264E4CE080F8D5079312C55D","FF8F27F9264E4CE080F8D5079312C55D","ef4e210b-e6d4-4acf-95de-ad8aa4944d12","051c06f1-75cc-4548-856d-4923ddaba0dc","{""num_scrambled_semantic"":""8"",""num_scrambled_causal"":""4"",""num_scrambled_schematic"":""4"",""participantId"":""FF8F27F9264E4CE080F8D5079312C55D"",""assignmentId"":""ef4e210b-e6d4-4acf-95de-ad8aa4944d12"",""projectId"":""051c06f1-75cc-4548-856d-4923ddaba0dc""}","https://test12345.live/?num_scrambled_semantic=8&num_scrambled_causal=4&num_scrambled_schematic=4&participantId=FF8F27F9264E4CE080F8D5079312C55D&assignmentId=ef4e210b-e6d4-4acf-95de-ad8aa4944d12&projectId=051c06f1-75cc-4548-856d-4923ddaba0dc","FF8F27F9264E4CE080F8D5079312C55D-2025-05-15-18-47-37","","1360","","images/causal_sequence/museum_causal/museum_causal_9.png","1","",""
"","","","","","image-button-response","83","320093","0.0-12.0-1.0-2.8","FF8F27F9264E4CE080F8D5079312C55D","FF8F27F9264E4CE080F8D5079312C55D","ef4e210b-e6d4-4acf-95de-ad8aa4944d12","051c06f1-75cc-4548-856d-4923ddaba0dc","{""num_scrambled_semantic"":""8"",""num_scrambled_causal"":""4"",""num_scrambled_schematic"":""4"",""participantId"":""FF8F27F9264E4CE080F8D5079312C55D"",""assignmentId"":""ef4e210b-e6d4-4acf-95de-ad8aa4944d12"",""projectId"":""051c06f1-75cc-4548-856d-4923ddaba0dc""}","https://test12345.live/?num_scrambled_semantic=8&num_scrambled_causal=4&num_scrambled_schematic=4&participantId=FF8F27F9264E4CE080F8D5079312C55D&assignmentId=ef4e210b-e6d4-4acf-95de-ad8aa4944d12&projectId=051c06f1-75cc-4548-856d-4923ddaba0dc","FF8F27F9264E4CE080F8D5079312C55D-2025-05-15-18-47-37","","null","","[]","null","",""
"","","","","","image-button-response","84","324595","0.0-12.0-1.0-0.9","FF8F27F9264E4CE080F8D5079312C55D","FF8F27F9264E4CE080F8D5079312C55D","ef4e210b-e6d4-4acf-95de-ad8aa4944d12","051c06f1-75cc-4548-856d-4923ddaba0dc","{""num_scrambled_semantic"":""8"",""num_scrambled_causal"":""4"",""num_scrambled_schematic"":""4"",""participantId"":""FF8F27F9264E4CE080F8D5079312C55D"",""assignmentId"":""ef4e210b-e6d4-4acf-95de-ad8aa4944d12"",""projectId"":""051c06f1-75cc-4548-856d-4923ddaba0dc""}","https://test12345.live/?num_scrambled_semantic=8&num_scrambled_causal=4&num_scrambled_schematic=4&participantId=FF8F27F9264E4CE080F8D5079312C55D&assignmentId=ef4e210b-e6d4-4acf-95de-ad8aa4944d12&projectId=051c06f1-75cc-4548-856d-4923ddaba0dc","FF8F27F9264E4CE080F8D5079312C55D-2025-05-15-18-47-37","","null","","images/causal_sequence/museum_causal/museum_causal_ten.png","null","",""
"","","","","","image-button-response","85","327530","0.0-12.0-1.0-1.9","FF8F27F9264E4CE080F8D5079312C55D","FF8F27F9264E4CE080F8D5079312C55D","ef4e210b-e6d4-4acf-95de-ad8aa4944d12","051c06f1-75cc-4548-856d-4923ddaba0dc","{""num_scrambled_semantic"":""8"",""num_scrambled_causal"":""4"",""num_scrambled_schematic"":""4"",""participantId"":""FF8F27F9264E4CE080F8D5079312C55D"",""assignmentId"":""ef4e210b-e6d4-4acf-95de-ad8aa4944d12"",""projectId"":""051c06f1-75cc-4548-856d-4923ddaba0dc""}","https://test12345.live/?num_scrambled_semantic=8&num_scrambled_causal=4&num_scrambled_schematic=4&participantId=FF8F27F9264E4CE080F8D5079312C55D&assignmentId=ef4e210b-e6d4-4acf-95de-ad8aa4944d12&projectId=051c06f1-75cc-4548-856d-4923ddaba0dc","FF8F27F9264E4CE080F8D5079312C55D-2025-05-15-18-47-37","","2934","","images/causal_sequence/museum_causal/museum_causal_ten.png","0","",""
"","","","","","image-button-response","86","329332","0.0-12.0-1.0-2.9","FF8F27F9264E4CE080F8D5079312C55D","FF8F27F9264E4CE080F8D5079312C55D","ef4e210b-e6d4-4acf-95de-ad8aa4944d12","051c06f1-75cc-4548-856d-4923ddaba0dc","{""num_scrambled_semantic"":""8"",""num_scrambled_causal"":""4"",""num_scrambled_schematic"":""4"",""participantId"":""FF8F27F9264E4CE080F8D5079312C55D"",""assignmentId"":""ef4e210b-e6d4-4acf-95de-ad8aa4944d12"",""projectId"":""051c06f1-75cc-4548-856d-4923ddaba0dc""}","https://test12345.live/?num_scrambled_semantic=8&num_scrambled_causal=4&num_scrambled_schematic=4&participantId=FF8F27F9264E4CE080F8D5079312C55D&assignmentId=ef4e210b-e6d4-4acf-95de-ad8aa4944d12&projectId=051c06f1-75cc-4548-856d-4923ddaba0dc","FF8F27F9264E4CE080F8D5079312C55D-2025-05-15-18-47-37","","null","","[]","null","",""
"","","","","","html-audio-response","87","345845","0.0-13.0","FF8F27F9264E4CE080F8D5079312C55D","FF8F27F9264E4CE080F8D5079312C55D","ef4e210b-e6d4-4acf-95de-ad8aa4944d12","051c06f1-75cc-4548-856d-4923ddaba0dc","{""num_scrambled_semantic"":""8"",""num_scrambled_causal"":""4"",""num_scrambled_schematic"":""4"",""participantId"":""FF8F27F9264E4CE080F8D5079312C55D"",""assignmentId"":""ef4e210b-e6d4-4acf-95de-ad8aa4944d12"",""projectId"":""051c06f1-75cc-4548-856d-4923ddaba0dc""}","https://test12345.live/?num_scrambled_semantic=8&num_scrambled_causal=4&num_scrambled_schematic=4&participantId=FF8F27F9264E4CE080F8D5079312C55D&assignmentId=ef4e210b-e6d4-4acf-95de-ad8aa4944d12&projectId=051c06f1-75cc-4548-856d-4923ddaba0dc","FF8F27F9264E4CE080F8D5079312C55D-2025-05-15-18-47-37","","7433","","[""<span style=\""color: red; font-size: 24px\""> NOW RECORDING</span><p>Please say out loud all the images you saw, as many as you can remember. The images can be said in any order.</p>""]","","9","museum_causal"
"","","","","","image-button-response","88","351848","0.0-14.0-0.0","FF8F27F9264E4CE080F8D5079312C55D","FF8F27F9264E4CE080F8D5079312C55D","ef4e210b-e6d4-4acf-95de-ad8aa4944d12","051c06f1-75cc-4548-856d-4923ddaba0dc","{""num_scrambled_semantic"":""8"",""num_scrambled_causal"":""4"",""num_scrambled_schematic"":""4"",""participantId"":""FF8F27F9264E4CE080F8D5079312C55D"",""assignmentId"":""ef4e210b-e6d4-4acf-95de-ad8aa4944d12"",""projectId"":""051c06f1-75cc-4548-856d-4923ddaba0dc""}","https://test12345.live/?num_scrambled_semantic=8&num_scrambled_causal=4&num_scrambled_schematic=4&participantId=FF8F27F9264E4CE080F8D5079312C55D&assignmentId=ef4e210b-e6d4-4acf-95de-ad8aa4944d12&projectId=051c06f1-75cc-4548-856d-4923ddaba0dc","FF8F27F9264E4CE080F8D5079312C55D-2025-05-15-18-47-37","","null","","images/semantic_sequence/using_technology_semantic/using_technology_semantic_0.png","null","",""
"","","","","","image-button-response","89","356349","0.0-14.0-1.0-0.0","FF8F27F9264E4CE080F8D5079312C55D","FF8F27F9264E4CE080F8D5079312C55D","ef4e210b-e6d4-4acf-95de-ad8aa4944d12","051c06f1-75cc-4548-856d-4923ddaba0dc","{""num_scrambled_semantic"":""8"",""num_scrambled_causal"":""4"",""num_scrambled_schematic"":""4"",""participantId"":""FF8F27F9264E4CE080F8D5079312C55D"",""assignmentId"":""ef4e210b-e6d4-4acf-95de-ad8aa4944d12"",""projectId"":""051c06f1-75cc-4548-856d-4923ddaba0dc""}","https://test12345.live/?num_scrambled_semantic=8&num_scrambled_causal=4&num_scrambled_schematic=4&participantId=FF8F27F9264E4CE080F8D5079312C55D&assignmentId=ef4e210b-e6d4-4acf-95de-ad8aa4944d12&projectId=051c06f1-75cc-4548-856d-4923ddaba0dc","FF8F27F9264E4CE080F8D5079312C55D-2025-05-15-18-47-37","","null","","images/semantic_sequence/using_technology_semantic/using_technology_semantic_5.png","null","",""
"","","","","","image-button-response","90","359447","0.0-14.0-1.0-1.0","FF8F27F9264E4CE080F8D5079312C55D","FF8F27F9264E4CE080F8D5079312C55D","ef4e210b-e6d4-4acf-95de-ad8aa4944d12","051c06f1-75cc-4548-856d-4923ddaba0dc","{""num_scrambled_semantic"":""8"",""num_scrambled_causal"":""4"",""num_scrambled_schematic"":""4"",""participantId"":""FF8F27F9264E4CE080F8D5079312C55D"",""assignmentId"":""ef4e210b-e6d4-4acf-95de-ad8aa4944d12"",""projectId"":""051c06f1-75cc-4548-856d-4923ddaba0dc""}","https://test12345.live/?num_scrambled_semantic=8&num_scrambled_causal=4&num_scrambled_schematic=4&participantId=FF8F27F9264E4CE080F8D5079312C55D&assignmentId=ef4e210b-e6d4-4acf-95de-ad8aa4944d12&projectId=051c06f1-75cc-4548-856d-4923ddaba0dc","FF8F27F9264E4CE080F8D5079312C55D-2025-05-15-18-47-37","","3095","","images/semantic_sequence/using_technology_semantic/using_technology_semantic_5.png","0","",""
"","","","","","image-button-response","91","361250","0.0-14.0-1.0-2.0","FF8F27F9264E4CE080F8D5079312C55D","FF8F27F9264E4CE080F8D5079312C55D","ef4e210b-e6d4-4acf-95de-ad8aa4944d12","051c06f1-75cc-4548-856d-4923ddaba0dc","{""num_scrambled_semantic"":""8"",""num_scrambled_causal"":""4"",""num_scrambled_schematic"":""4"",""participantId"":""FF8F27F9264E4CE080F8D5079312C55D"",""assignmentId"":""ef4e210b-e6d4-4acf-95de-ad8aa4944d12"",""projectId"":""051c06f1-75cc-4548-856d-4923ddaba0dc""}","https://test12345.live/?num_scrambled_semantic=8&num_scrambled_causal=4&num_scrambled_schematic=4&participantId=FF8F27F9264E4CE080F8D5079312C55D&assignmentId=ef4e210b-e6d4-4acf-95de-ad8aa4944d12&projectId=051c06f1-75cc-4548-856d-4923ddaba0dc","FF8F27F9264E4CE080F8D5079312C55D-2025-05-15-18-47-37","","null","","[]","null","",""
"","","","","","image-button-response","92","365752","0.0-14.0-1.0-0.1","FF8F27F9264E4CE080F8D5079312C55D","FF8F27F9264E4CE080F8D5079312C55D","ef4e210b-e6d4-4acf-95de-ad8aa4944d12","051c06f1-75cc-4548-856d-4923ddaba0dc","{""num_scrambled_semantic"":""8"",""num_scrambled_causal"":""4"",""num_scrambled_schematic"":""4"",""participantId"":""FF8F27F9264E4CE080F8D5079312C55D"",""assignmentId"":""ef4e210b-e6d4-4acf-95de-ad8aa4944d12"",""projectId"":""051c06f1-75cc-4548-856d-4923ddaba0dc""}","https://test12345.live/?num_scrambled_semantic=8&num_scrambled_causal=4&num_scrambled_schematic=4&participantId=FF8F27F9264E4CE080F8D5079312C55D&assignmentId=ef4e210b-e6d4-4acf-95de-ad8aa4944d12&projectId=051c06f1-75cc-4548-856d-4923ddaba0dc","FF8F27F9264E4CE080F8D5079312C55D-2025-05-15-18-47-37","","null","","images/semantic_sequence/using_technology_semantic/using_technology_semantic_4.png","null","",""
"","","","","","image-button-response","93","366458","0.0-14.0-1.0-1.1","FF8F27F9264E4CE080F8D5079312C55D","FF8F27F9264E4CE080F8D5079312C55D","ef4e210b-e6d4-4acf-95de-ad8aa4944d12","051c06f1-75cc-4548-856d-4923ddaba0dc","{""num_scrambled_semantic"":""8"",""num_scrambled_causal"":""4"",""num_scrambled_schematic"":""4"",""participantId"":""FF8F27F9264E4CE080F8D5079312C55D"",""assignmentId"":""ef4e210b-e6d4-4acf-95de-ad8aa4944d12"",""projectId"":""051c06f1-75cc-4548-856d-4923ddaba0dc""}","https://test12345.live/?num_scrambled_semantic=8&num_scrambled_causal=4&num_scrambled_schematic=4&participantId=FF8F27F9264E4CE080F8D5079312C55D&assignmentId=ef4e210b-e6d4-4acf-95de-ad8aa4944d12&projectId=051c06f1-75cc-4548-856d-4923ddaba0dc","FF8F27F9264E4CE080F8D5079312C55D-2025-05-15-18-47-37","","705","","images/semantic_sequence/using_technology_semantic/using_technology_semantic_4.png","0","",""
"","","","","","image-button-response","94","368259","0.0-14.0-1.0-2.1","FF8F27F9264E4CE080F8D5079312C55D","FF8F27F9264E4CE080F8D5079312C55D","ef4e210b-e6d4-4acf-95de-ad8aa4944d12","051c06f1-75cc-4548-856d-4923ddaba0dc","{""num_scrambled_semantic"":""8"",""num_scrambled_causal"":""4"",""num_scrambled_schematic"":""4"",""participantId"":""FF8F27F9264E4CE080F8D5079312C55D"",""assignmentId"":""ef4e210b-e6d4-4acf-95de-ad8aa4944d12"",""projectId"":""051c06f1-75cc-4548-856d-4923ddaba0dc""}","https://test12345.live/?num_scrambled_semantic=8&num_scrambled_causal=4&num_scrambled_schematic=4&participantId=FF8F27F9264E4CE080F8D5079312C55D&assignmentId=ef4e210b-e6d4-4acf-95de-ad8aa4944d12&projectId=051c06f1-75cc-4548-856d-4923ddaba0dc","FF8F27F9264E4CE080F8D5079312C55D-2025-05-15-18-47-37","","null","","[]","null","",""
"","","","","","image-button-response","95","372761","0.0-14.0-1.0-0.2","FF8F27F9264E4CE080F8D5079312C55D","FF8F27F9264E4CE080F8D5079312C55D","ef4e210b-e6d4-4acf-95de-ad8aa4944d12","051c06f1-75cc-4548-856d-4923ddaba0dc","{""num_scrambled_semantic"":""8"",""num_scrambled_causal"":""4"",""num_scrambled_schematic"":""4"",""participantId"":""FF8F27F9264E4CE080F8D5079312C55D"",""assignmentId"":""ef4e210b-e6d4-4acf-95de-ad8aa4944d12"",""projectId"":""051c06f1-75cc-4548-856d-4923ddaba0dc""}","https://test12345.live/?num_scrambled_semantic=8&num_scrambled_causal=4&num_scrambled_schematic=4&participantId=FF8F27F9264E4CE080F8D5079312C55D&assignmentId=ef4e210b-e6d4-4acf-95de-ad8aa4944d12&projectId=051c06f1-75cc-4548-856d-4923ddaba0dc","FF8F27F9264E4CE080F8D5079312C55D-2025-05-15-18-47-37","","null","","images/semantic_sequence/using_technology_semantic/using_technology_semantic_6.png","null","",""
"","","","","","image-button-response","96","374139","0.0-14.0-1.0-1.2","FF8F27F9264E4CE080F8D5079312C55D","FF8F27F9264E4CE080F8D5079312C55D","ef4e210b-e6d4-4acf-95de-ad8aa4944d12","051c06f1-75cc-4548-856d-4923ddaba0dc","{""num_scrambled_semantic"":""8"",""num_scrambled_causal"":""4"",""num_scrambled_schematic"":""4"",""participantId"":""FF8F27F9264E4CE080F8D5079312C55D"",""assignmentId"":""ef4e210b-e6d4-4acf-95de-ad8aa4944d12"",""projectId"":""051c06f1-75cc-4548-856d-4923ddaba0dc""}","https://test12345.live/?num_scrambled_semantic=8&num_scrambled_causal=4&num_scrambled_schematic=4&participantId=FF8F27F9264E4CE080F8D5079312C55D&assignmentId=ef4e210b-e6d4-4acf-95de-ad8aa4944d12&projectId=051c06f1-75cc-4548-856d-4923ddaba0dc","FF8F27F9264E4CE080F8D5079312C55D-2025-05-15-18-47-37","","1376","","images/semantic_sequence/using_technology_semantic/using_technology_semantic_6.png","0","",""
"","","","","","image-button-response","97","375941","0.0-14.0-1.0-2.2","FF8F27F9264E4CE080F8D5079312C55D","FF8F27F9264E4CE080F8D5079312C55D","ef4e210b-e6d4-4acf-95de-ad8aa4944d12","051c06f1-75cc-4548-856d-4923ddaba0dc","{""num_scrambled_semantic"":""8"",""num_scrambled_causal"":""4"",""num_scrambled_schematic"":""4"",""participantId"":""FF8F27F9264E4CE080F8D5079312C55D"",""assignmentId"":""ef4e210b-e6d4-4acf-95de-ad8aa4944d12"",""projectId"":""051c06f1-75cc-4548-856d-4923ddaba0dc""}","https://test12345.live/?num_scrambled_semantic=8&num_scrambled_causal=4&num_scrambled_schematic=4&participantId=FF8F27F9264E4CE080F8D5079312C55D&assignmentId=ef4e210b-e6d4-4acf-95de-ad8aa4944d12&projectId=051c06f1-75cc-4548-856d-4923ddaba0dc","FF8F27F9264E4CE080F8D5079312C55D-2025-05-15-18-47-37","","null","","[]","null","",""
"","","","","","image-button-response","98","380442","0.0-14.0-1.0-0.3","FF8F27F9264E4CE080F8D5079312C55D","FF8F27F9264E4CE080F8D5079312C55D","ef4e210b-e6d4-4acf-95de-ad8aa4944d12","051c06f1-75cc-4548-856d-4923ddaba0dc","{""num_scrambled_semantic"":""8"",""num_scrambled_causal"":""4"",""num_scrambled_schematic"":""4"",""participantId"":""FF8F27F9264E4CE080F8D5079312C55D"",""assignmentId"":""ef4e210b-e6d4-4acf-95de-ad8aa4944d12"",""projectId"":""051c06f1-75cc-4548-856d-4923ddaba0dc""}","https://test12345.live/?num_scrambled_semantic=8&num_scrambled_causal=4&num_scrambled_schematic=4&participantId=FF8F27F9264E4CE080F8D5079312C55D&assignmentId=ef4e210b-e6d4-4acf-95de-ad8aa4944d12&projectId=051c06f1-75cc-4548-856d-4923ddaba0dc","FF8F27F9264E4CE080F8D5079312C55D-2025-05-15-18-47-37","","null","","images/semantic_sequence/using_technology_semantic/using_technology_semantic_7.png","null","",""
"","","","","","image-button-response","99","381882","0.0-14.0-1.0-1.3","FF8F27F9264E4CE080F8D5079312C55D","FF8F27F9264E4CE080F8D5079312C55D","ef4e210b-e6d4-4acf-95de-ad8aa4944d12","051c06f1-75cc-4548-856d-4923ddaba0dc","{""num_scrambled_semantic"":""8"",""num_scrambled_causal"":""4"",""num_scrambled_schematic"":""4"",""participantId"":""FF8F27F9264E4CE080F8D5079312C55D"",""assignmentId"":""ef4e210b-e6d4-4acf-95de-ad8aa4944d12"",""projectId"":""051c06f1-75cc-4548-856d-4923ddaba0dc""}","https://test12345.live/?num_scrambled_semantic=8&num_scrambled_causal=4&num_scrambled_schematic=4&participantId=FF8F27F9264E4CE080F8D5079312C55D&assignmentId=ef4e210b-e6d4-4acf-95de-ad8aa4944d12&projectId=051c06f1-75cc-4548-856d-4923ddaba0dc","FF8F27F9264E4CE080F8D5079312C55D-2025-05-15-18-47-37","","1439","","images/semantic_sequence/using_technology_semantic/using_technology_semantic_7.png","0","",""
"","","","","","image-button-response","100","383685","0.0-14.0-1.0-2.3","FF8F27F9264E4CE080F8D5079312C55D","FF8F27F9264E4CE080F8D5079312C55D","ef4e210b-e6d4-4acf-95de-ad8aa4944d12","051c06f1-75cc-4548-856d-4923ddaba0dc","{""num_scrambled_semantic"":""8"",""num_scrambled_causal"":""4"",""num_scrambled_schematic"":""4"",""participantId"":""FF8F27F9264E4CE080F8D5079312C55D"",""assignmentId"":""ef4e210b-e6d4-4acf-95de-ad8aa4944d12"",""projectId"":""051c06f1-75cc-4548-856d-4923ddaba0dc""}","https://test12345.live/?num_scrambled_semantic=8&num_scrambled_causal=4&num_scrambled_schematic=4&participantId=FF8F27F9264E4CE080F8D5079312C55D&assignmentId=ef4e210b-e6d4-4acf-95de-ad8aa4944d12&projectId=051c06f1-75cc-4548-856d-4923ddaba0dc","FF8F27F9264E4CE080F8D5079312C55D-2025-05-15-18-47-37","","null","","[]","null","",""
"","","","","","image-button-response","101","388186","0.0-14.0-1.0-0.4","FF8F27F9264E4CE080F8D5079312C55D","FF8F27F9264E4CE080F8D5079312C55D","ef4e210b-e6d4-4acf-95de-ad8aa4944d12","051c06f1-75cc-4548-856d-4923ddaba0dc","{""num_scrambled_semantic"":""8"",""num_scrambled_causal"":""4"",""num_scrambled_schematic"":""4"",""participantId"":""FF8F27F9264E4CE080F8D5079312C55D"",""assignmentId"":""ef4e210b-e6d4-4acf-95de-ad8aa4944d12"",""projectId"":""051c06f1-75cc-4548-856d-4923ddaba0dc""}","https://test12345.live/?num_scrambled_semantic=8&num_scrambled_causal=4&num_scrambled_schematic=4&participantId=FF8F27F9264E4CE080F8D5079312C55D&assignmentId=ef4e210b-e6d4-4acf-95de-ad8aa4944d12&projectId=051c06f1-75cc-4548-856d-4923ddaba0dc","FF8F27F9264E4CE080F8D5079312C55D-2025-05-15-18-47-37","","null","","images/semantic_sequence/using_technology_semantic/using_technology_semantic_9.png","null","",""
"","","","","","image-button-response","102","389050","0.0-14.0-1.0-1.4","FF8F27F9264E4CE080F8D5079312C55D","FF8F27F9264E4CE080F8D5079312C55D","ef4e210b-e6d4-4acf-95de-ad8aa4944d12","051c06f1-75cc-4548-856d-4923ddaba0dc","{""num_scrambled_semantic"":""8"",""num_scrambled_causal"":""4"",""num_scrambled_schematic"":""4"",""participantId"":""FF8F27F9264E4CE080F8D5079312C55D"",""assignmentId"":""ef4e210b-e6d4-4acf-95de-ad8aa4944d12"",""projectId"":""051c06f1-75cc-4548-856d-4923ddaba0dc""}","https://test12345.live/?num_scrambled_semantic=8&num_scrambled_causal=4&num_scrambled_schematic=4&participantId=FF8F27F9264E4CE080F8D5079312C55D&assignmentId=ef4e210b-e6d4-4acf-95de-ad8aa4944d12&projectId=051c06f1-75cc-4548-856d-4923ddaba0dc","FF8F27F9264E4CE080F8D5079312C55D-2025-05-15-18-47-37","","863","","images/semantic_sequence/using_technology_semantic/using_technology_semantic_9.png","0","",""
"","","","","","image-button-response","103","390854","0.0-14.0-1.0-2.4","FF8F27F9264E4CE080F8D5079312C55D","FF8F27F9264E4CE080F8D5079312C55D","ef4e210b-e6d4-4acf-95de-ad8aa4944d12","051c06f1-75cc-4548-856d-4923ddaba0dc","{""num_scrambled_semantic"":""8"",""num_scrambled_causal"":""4"",""num_scrambled_schematic"":""4"",""participantId"":""FF8F27F9264E4CE080F8D5079312C55D"",""assignmentId"":""ef4e210b-e6d4-4acf-95de-ad8aa4944d12"",""projectId"":""051c06f1-75cc-4548-856d-4923ddaba0dc""}","https://test12345.live/?num_scrambled_semantic=8&num_scrambled_causal=4&num_scrambled_schematic=4&participantId=FF8F27F9264E4CE080F8D5079312C55D&assignmentId=ef4e210b-e6d4-4acf-95de-ad8aa4944d12&projectId=051c06f1-75cc-4548-856d-4923ddaba0dc","FF8F27F9264E4CE080F8D5079312C55D-2025-05-15-18-47-37","","null","","[]","null","",""
"","","","","","image-button-response","104","395356","0.0-14.0-1.0-0.5","FF8F27F9264E4CE080F8D5079312C55D","FF8F27F9264E4CE080F8D5079312C55D","ef4e210b-e6d4-4acf-95de-ad8aa4944d12","051c06f1-75cc-4548-856d-4923ddaba0dc","{""num_scrambled_semantic"":""8"",""num_scrambled_causal"":""4"",""num_scrambled_schematic"":""4"",""participantId"":""FF8F27F9264E4CE080F8D5079312C55D"",""assignmentId"":""ef4e210b-e6d4-4acf-95de-ad8aa4944d12"",""projectId"":""051c06f1-75cc-4548-856d-4923ddaba0dc""}","https://test12345.live/?num_scrambled_semantic=8&num_scrambled_causal=4&num_scrambled_schematic=4&participantId=FF8F27F9264E4CE080F8D5079312C55D&assignmentId=ef4e210b-e6d4-4acf-95de-ad8aa4944d12&projectId=051c06f1-75cc-4548-856d-4923ddaba0dc","FF8F27F9264E4CE080F8D5079312C55D-2025-05-15-18-47-37","","null","","images/semantic_sequence/using_technology_semantic/using_technology_semantic_3.png","null","",""
"","","","","","image-button-response","105","396354","0.0-14.0-1.0-1.5","FF8F27F9264E4CE080F8D5079312C55D","FF8F27F9264E4CE080F8D5079312C55D","ef4e210b-e6d4-4acf-95de-ad8aa4944d12","051c06f1-75cc-4548-856d-4923ddaba0dc","{""num_scrambled_semantic"":""8"",""num_scrambled_causal"":""4"",""num_scrambled_schematic"":""4"",""participantId"":""FF8F27F9264E4CE080F8D5079312C55D"",""assignmentId"":""ef4e210b-e6d4-4acf-95de-ad8aa4944d12"",""projectId"":""051c06f1-75cc-4548-856d-4923ddaba0dc""}","https://test12345.live/?num_scrambled_semantic=8&num_scrambled_causal=4&num_scrambled_schematic=4&participantId=FF8F27F9264E4CE080F8D5079312C55D&assignmentId=ef4e210b-e6d4-4acf-95de-ad8aa4944d12&projectId=051c06f1-75cc-4548-856d-4923ddaba0dc","FF8F27F9264E4CE080F8D5079312C55D-2025-05-15-18-47-37","","996","","images/semantic_sequence/using_technology_semantic/using_technology_semantic_3.png","0","",""
"","","","","","image-button-response","106","398156","0.0-14.0-1.0-2.5","FF8F27F9264E4CE080F8D5079312C55D","FF8F27F9264E4CE080F8D5079312C55D","ef4e210b-e6d4-4acf-95de-ad8aa4944d12","051c06f1-75cc-4548-856d-4923ddaba0dc","{""num_scrambled_semantic"":""8"",""num_scrambled_causal"":""4"",""num_scrambled_schematic"":""4"",""participantId"":""FF8F27F9264E4CE080F8D5079312C55D"",""assignmentId"":""ef4e210b-e6d4-4acf-95de-ad8aa4944d12"",""projectId"":""051c06f1-75cc-4548-856d-4923ddaba0dc""}","https://test12345.live/?num_scrambled_semantic=8&num_scrambled_causal=4&num_scrambled_schematic=4&participantId=FF8F27F9264E4CE080F8D5079312C55D&assignmentId=ef4e210b-e6d4-4acf-95de-ad8aa4944d12&projectId=051c06f1-75cc-4548-856d-4923ddaba0dc","FF8F27F9264E4CE080F8D5079312C55D-2025-05-15-18-47-37","","null","","[]","null","",""
"","","","","","image-button-response","107","402658","0.0-14.0-1.0-0.6","FF8F27F9264E4CE080F8D5079312C55D","FF8F27F9264E4CE080F8D5079312C55D","ef4e210b-e6d4-4acf-95de-ad8aa4944d12","051c06f1-75cc-4548-856d-4923ddaba0dc","{""num_scrambled_semantic"":""8"",""num_scrambled_causal"":""4"",""num_scrambled_schematic"":""4"",""participantId"":""FF8F27F9264E4CE080F8D5079312C55D"",""assignmentId"":""ef4e210b-e6d4-4acf-95de-ad8aa4944d12"",""projectId"":""051c06f1-75cc-4548-856d-4923ddaba0dc""}","https://test12345.live/?num_scrambled_semantic=8&num_scrambled_causal=4&num_scrambled_schematic=4&participantId=FF8F27F9264E4CE080F8D5079312C55D&assignmentId=ef4e210b-e6d4-4acf-95de-ad8aa4944d12&projectId=051c06f1-75cc-4548-856d-4923ddaba0dc","FF8F27F9264E4CE080F8D5079312C55D-2025-05-15-18-47-37","","null","","images/semantic_sequence/using_technology_semantic/using_technology_semantic_ten.png","null","",""
"","","","","","image-button-response","108","403402","0.0-14.0-1.0-1.6","FF8F27F9264E4CE080F8D5079312C55D","FF8F27F9264E4CE080F8D5079312C55D","ef4e210b-e6d4-4acf-95de-ad8aa4944d12","051c06f1-75cc-4548-856d-4923ddaba0dc","{""num_scrambled_semantic"":""8"",""num_scrambled_causal"":""4"",""num_scrambled_schematic"":""4"",""participantId"":""FF8F27F9264E4CE080F8D5079312C55D"",""assignmentId"":""ef4e210b-e6d4-4acf-95de-ad8aa4944d12"",""projectId"":""051c06f1-75cc-4548-856d-4923ddaba0dc""}","https://test12345.live/?num_scrambled_semantic=8&num_scrambled_causal=4&num_scrambled_schematic=4&participantId=FF8F27F9264E4CE080F8D5079312C55D&assignmentId=ef4e210b-e6d4-4acf-95de-ad8aa4944d12&projectId=051c06f1-75cc-4548-856d-4923ddaba0dc","FF8F27F9264E4CE080F8D5079312C55D-2025-05-15-18-47-37","","743","","images/semantic_sequence/using_technology_semantic/using_technology_semantic_ten.png","0","",""
"","","","","","image-button-response","109","405205","0.0-14.0-1.0-2.6","FF8F27F9264E4CE080F8D5079312C55D","FF8F27F9264E4CE080F8D5079312C55D","ef4e210b-e6d4-4acf-95de-ad8aa4944d12","051c06f1-75cc-4548-856d-4923ddaba0dc","{""num_scrambled_semantic"":""8"",""num_scrambled_causal"":""4"",""num_scrambled_schematic"":""4"",""participantId"":""FF8F27F9264E4CE080F8D5079312C55D"",""assignmentId"":""ef4e210b-e6d4-4acf-95de-ad8aa4944d12"",""projectId"":""051c06f1-75cc-4548-856d-4923ddaba0dc""}","https://test12345.live/?num_scrambled_semantic=8&num_scrambled_causal=4&num_scrambled_schematic=4&participantId=FF8F27F9264E4CE080F8D5079312C55D&assignmentId=ef4e210b-e6d4-4acf-95de-ad8aa4944d12&projectId=051c06f1-75cc-4548-856d-4923ddaba0dc","FF8F27F9264E4CE080F8D5079312C55D-2025-05-15-18-47-37","","null","","[]","null","",""
"","","","","","image-button-response","110","409707","0.0-14.0-1.0-0.7","FF8F27F9264E4CE080F8D5079312C55D","FF8F27F9264E4CE080F8D5079312C55D","ef4e210b-e6d4-4acf-95de-ad8aa4944d12","051c06f1-75cc-4548-856d-4923ddaba0dc","{""num_scrambled_semantic"":""8"",""num_scrambled_causal"":""4"",""num_scrambled_schematic"":""4"",""participantId"":""FF8F27F9264E4CE080F8D5079312C55D"",""assignmentId"":""ef4e210b-e6d4-4acf-95de-ad8aa4944d12"",""projectId"":""051c06f1-75cc-4548-856d-4923ddaba0dc""}","https://test12345.live/?num_scrambled_semantic=8&num_scrambled_causal=4&num_scrambled_schematic=4&participantId=FF8F27F9264E4CE080F8D5079312C55D&assignmentId=ef4e210b-e6d4-4acf-95de-ad8aa4944d12&projectId=051c06f1-75cc-4548-856d-4923ddaba0dc","FF8F27F9264E4CE080F8D5079312C55D-2025-05-15-18-47-37","","null","","images/semantic_sequence/using_technology_semantic/using_technology_semantic_8.png","null","",""
"","","","","","image-button-response","111","413709","0.0-14.0-1.0-1.7","FF8F27F9264E4CE080F8D5079312C55D","FF8F27F9264E4CE080F8D5079312C55D","ef4e210b-e6d4-4acf-95de-ad8aa4944d12","051c06f1-75cc-4548-856d-4923ddaba0dc","{""num_scrambled_semantic"":""8"",""num_scrambled_causal"":""4"",""num_scrambled_schematic"":""4"",""participantId"":""FF8F27F9264E4CE080F8D5079312C55D"",""assignmentId"":""ef4e210b-e6d4-4acf-95de-ad8aa4944d12"",""projectId"":""051c06f1-75cc-4548-856d-4923ddaba0dc""}","https://test12345.live/?num_scrambled_semantic=8&num_scrambled_causal=4&num_scrambled_schematic=4&participantId=FF8F27F9264E4CE080F8D5079312C55D&assignmentId=ef4e210b-e6d4-4acf-95de-ad8aa4944d12&projectId=051c06f1-75cc-4548-856d-4923ddaba0dc","FF8F27F9264E4CE080F8D5079312C55D-2025-05-15-18-47-37","","null","","images/semantic_sequence/using_technology_semantic/using_technology_semantic_8.png","null","",""
"","","","","","image-button-response","112","415511","0.0-14.0-1.0-2.7","FF8F27F9264E4CE080F8D5079312C55D","FF8F27F9264E4CE080F8D5079312C55D","ef4e210b-e6d4-4acf-95de-ad8aa4944d12","051c06f1-75cc-4548-856d-4923ddaba0dc","{""num_scrambled_semantic"":""8"",""num_scrambled_causal"":""4"",""num_scrambled_schematic"":""4"",""participantId"":""FF8F27F9264E4CE080F8D5079312C55D"",""assignmentId"":""ef4e210b-e6d4-4acf-95de-ad8aa4944d12"",""projectId"":""051c06f1-75cc-4548-856d-4923ddaba0dc""}","https://test12345.live/?num_scrambled_semantic=8&num_scrambled_causal=4&num_scrambled_schematic=4&participantId=FF8F27F9264E4CE080F8D5079312C55D&assignmentId=ef4e210b-e6d4-4acf-95de-ad8aa4944d12&projectId=051c06f1-75cc-4548-856d-4923ddaba0dc","FF8F27F9264E4CE080F8D5079312C55D-2025-05-15-18-47-37","","null","","[]","null","",""
"","","","","","image-button-response","113","420014","0.0-14.0-1.0-0.8","FF8F27F9264E4CE080F8D5079312C55D","FF8F27F9264E4CE080F8D5079312C55D","ef4e210b-e6d4-4acf-95de-ad8aa4944d12","051c06f1-75cc-4548-856d-4923ddaba0dc","{""num_scrambled_semantic"":""8"",""num_scrambled_causal"":""4"",""num_scrambled_schematic"":""4"",""participantId"":""FF8F27F9264E4CE080F8D5079312C55D"",""assignmentId"":""ef4e210b-e6d4-4acf-95de-ad8aa4944d12"",""projectId"":""051c06f1-75cc-4548-856d-4923ddaba0dc""}","https://test12345.live/?num_scrambled_semantic=8&num_scrambled_causal=4&num_scrambled_schematic=4&participantId=FF8F27F9264E4CE080F8D5079312C55D&assignmentId=ef4e210b-e6d4-4acf-95de-ad8aa4944d12&projectId=051c06f1-75cc-4548-856d-4923ddaba0dc","FF8F27F9264E4CE080F8D5079312C55D-2025-05-15-18-47-37","","null","","images/semantic_sequence/using_technology_semantic/using_technology_semantic_1.png","null","",""
"","","","","","image-button-response","114","420978","0.0-14.0-1.0-1.8","FF8F27F9264E4CE080F8D5079312C55D","FF8F27F9264E4CE080F8D5079312C55D","ef4e210b-e6d4-4acf-95de-ad8aa4944d12","051c06f1-75cc-4548-856d-4923ddaba0dc","{""num_scrambled_semantic"":""8"",""num_scrambled_causal"":""4"",""num_scrambled_schematic"":""4"",""participantId"":""FF8F27F9264E4CE080F8D5079312C55D"",""assignmentId"":""ef4e210b-e6d4-4acf-95de-ad8aa4944d12"",""projectId"":""051c06f1-75cc-4548-856d-4923ddaba0dc""}","https://test12345.live/?num_scrambled_semantic=8&num_scrambled_causal=4&num_scrambled_schematic=4&participantId=FF8F27F9264E4CE080F8D5079312C55D&assignmentId=ef4e210b-e6d4-4acf-95de-ad8aa4944d12&projectId=051c06f1-75cc-4548-856d-4923ddaba0dc","FF8F27F9264E4CE080F8D5079312C55D-2025-05-15-18-47-37","","962","","images/semantic_sequence/using_technology_semantic/using_technology_semantic_1.png","0","",""
