"success","timeout","failed_images","failed_audio","failed_video","trial_type","trial_index","time_elapsed","internal_node_id","subject","subject_id","study_id","session_id","urlvar","current_url","audio_id","view_history","rt","device_id","stimulus","response","estimated_stimulus_onset","seq_name"
"true","false","[]","[]","[]","preload","0","6099","0.0-0.0","FFD019C05DA64CCFB5A9A5877A1BC094","FFD019C05DA64CCFB5A9A5877A1BC094","c1aeef03-e536-42f5-89f5-af1b0fe21f71","5e631737-0fa4-44a6-b227-7ba1d7345015","{""num_scrambled_semantic"":""8"",""num_scrambled_causal"":""4"",""num_scrambled_schematic"":""4"",""participantId"":""FFD019C05DA64CCFB5A9A5877A1BC094"",""assignmentId"":""c1aeef03-e536-42f5-89f5-af1b0fe21f71"",""projectId"":""5e631737-0fa4-44a6-b227-7ba1d7345015""}","https://test12345.live/?num_scrambled_semantic=8&num_scrambled_causal=4&num_scrambled_schematic=4&participantId=FFD019C05DA64CCFB5A9A5877A1BC094&assignmentId=c1aeef03-e536-42f5-89f5-af1b0fe21f71&projectId=5e631737-0fa4-44a6-b227-7ba1d7345015","FFD019C05DA64CCFB5A9A5877A1BC094-2025-05-27-18-53-36","","","","","","",""
"","","","","","instructions","1","122940","0.0-1.0","FFD019C05DA64CCFB5A9A5877A1BC094","FFD019C05DA64CCFB5A9A5877A1BC094","c1aeef03-e536-42f5-89f5-af1b0fe21f71","5e631737-0fa4-44a6-b227-7ba1d7345015","{""num_scrambled_semantic"":""8"",""num_scrambled_causal"":""4"",""num_scrambled_schematic"":""4"",""participantId"":""FFD019C05DA64CCFB5A9A5877A1BC094"",""assignmentId"":""c1aeef03-e536-42f5-89f5-af1b0fe21f71"",""projectId"":""5e631737-0fa4-44a6-b227-7ba1d7345015""}","https://test12345.live/?num_scrambled_semantic=8&num_scrambled_causal=4&num_scrambled_schematic=4&participantId=FFD019C05DA64CCFB5A9A5877A1BC094&assignmentId=c1aeef03-e536-42f5-89f5-af1b0fe21f71&projectId=5e631737-0fa4-44a6-b227-7ba1d7345015","FFD019C05DA64CCFB5A9A5877A1BC094-2025-05-27-18-53-36","[{""page_index"":0,""viewing_time"":116837}]","116838","","","","",""
"","","","","","instructions","2","189847","0.0-2.0","FFD019C05DA64CCFB5A9A5877A1BC094","FFD019C05DA64CCFB5A9A5877A1BC094","c1aeef03-e536-42f5-89f5-af1b0fe21f71","5e631737-0fa4-44a6-b227-7ba1d7345015","{""num_scrambled_semantic"":""8"",""num_scrambled_causal"":""4"",""num_scrambled_schematic"":""4"",""participantId"":""FFD019C05DA64CCFB5A9A5877A1BC094"",""assignmentId"":""c1aeef03-e536-42f5-89f5-af1b0fe21f71"",""projectId"":""5e631737-0fa4-44a6-b227-7ba1d7345015""}","https://test12345.live/?num_scrambled_semantic=8&num_scrambled_causal=4&num_scrambled_schematic=4&participantId=FFD019C05DA64CCFB5A9A5877A1BC094&assignmentId=c1aeef03-e536-42f5-89f5-af1b0fe21f71&projectId=5e631737-0fa4-44a6-b227-7ba1d7345015","FFD019C05DA64CCFB5A9A5877A1BC094-2025-05-27-18-53-36","[{""page_index"":0,""viewing_time"":66905}]","66906","","","","",""
"true","","","","","fullscreen","3","193227","0.0-3.0","FFD019C05DA64CCFB5A9A5877A1BC094","FFD019C05DA64CCFB5A9A5877A1BC094","c1aeef03-e536-42f5-89f5-af1b0fe21f71","5e631737-0fa4-44a6-b227-7ba1d7345015","{""num_scrambled_semantic"":""8"",""num_scrambled_causal"":""4"",""num_scrambled_schematic"":""4"",""participantId"":""FFD019C05DA64CCFB5A9A5877A1BC094"",""assignmentId"":""c1aeef03-e536-42f5-89f5-af1b0fe21f71"",""projectId"":""5e631737-0fa4-44a6-b227-7ba1d7345015""}","https://test12345.live/?num_scrambled_semantic=8&num_scrambled_causal=4&num_scrambled_schematic=4&participantId=FFD019C05DA64CCFB5A9A5877A1BC094&assignmentId=c1aeef03-e536-42f5-89f5-af1b0fe21f71&projectId=5e631737-0fa4-44a6-b227-7ba1d7345015","FFD019C05DA64CCFB5A9A5877A1BC094-2025-05-27-18-53-36","","2377","","","","",""
"","","","","","initialize-microphone","4","393407","0.0-4.0-0.0","FFD019C05DA64CCFB5A9A5877A1BC094","FFD019C05DA64CCFB5A9A5877A1BC094","c1aeef03-e536-42f5-89f5-af1b0fe21f71","5e631737-0fa4-44a6-b227-7ba1d7345015","{""num_scrambled_semantic"":""8"",""num_scrambled_causal"":""4"",""num_scrambled_schematic"":""4"",""participantId"":""FFD019C05DA64CCFB5A9A5877A1BC094"",""assignmentId"":""c1aeef03-e536-42f5-89f5-af1b0fe21f71"",""projectId"":""5e631737-0fa4-44a6-b227-7ba1d7345015""}","https://test12345.live/?num_scrambled_semantic=8&num_scrambled_causal=4&num_scrambled_schematic=4&participantId=FFD019C05DA64CCFB5A9A5877A1BC094&assignmentId=c1aeef03-e536-42f5-89f5-af1b0fe21f71&projectId=5e631737-0fa4-44a6-b227-7ba1d7345015","FFD019C05DA64CCFB5A9A5877A1BC094-2025-05-27-18-53-36","","","f17a790e2e5d3c5b826557279eb2f8ba835a0590bd339a78584eabea312dd5cb","","","",""
"","","","","","html-audio-response","5","403542","0.0-4.0-1.0","FFD019C05DA64CCFB5A9A5877A1BC094","FFD019C05DA64CCFB5A9A5877A1BC094","c1aeef03-e536-42f5-89f5-af1b0fe21f71","5e631737-0fa4-44a6-b227-7ba1d7345015","{""num_scrambled_semantic"":""8"",""num_scrambled_causal"":""4"",""num_scrambled_schematic"":""4"",""participantId"":""FFD019C05DA64CCFB5A9A5877A1BC094"",""assignmentId"":""c1aeef03-e536-42f5-89f5-af1b0fe21f71"",""projectId"":""5e631737-0fa4-44a6-b227-7ba1d7345015""}","https://test12345.live/?num_scrambled_semantic=8&num_scrambled_causal=4&num_scrambled_schematic=4&participantId=FFD019C05DA64CCFB5A9A5877A1BC094&assignmentId=c1aeef03-e536-42f5-89f5-af1b0fe21f71&projectId=5e631737-0fa4-44a6-b227-7ba1d7345015","FFD019C05DA64CCFB5A9A5877A1BC094-2025-05-27-18-53-36","","4499","","<span style=""color: red; font-size: 24px""> NOW RECORDING</span>
        <p>Please test Microphone</p>","","4",""
"","","","","","html-button-response","6","405264","0.0-4.0-2.0","FFD019C05DA64CCFB5A9A5877A1BC094","FFD019C05DA64CCFB5A9A5877A1BC094","c1aeef03-e536-42f5-89f5-af1b0fe21f71","5e631737-0fa4-44a6-b227-7ba1d7345015","{""num_scrambled_semantic"":""8"",""num_scrambled_causal"":""4"",""num_scrambled_schematic"":""4"",""participantId"":""FFD019C05DA64CCFB5A9A5877A1BC094"",""assignmentId"":""c1aeef03-e536-42f5-89f5-af1b0fe21f71"",""projectId"":""5e631737-0fa4-44a6-b227-7ba1d7345015""}","https://test12345.live/?num_scrambled_semantic=8&num_scrambled_causal=4&num_scrambled_schematic=4&participantId=FFD019C05DA64CCFB5A9A5877A1BC094&assignmentId=c1aeef03-e536-42f5-89f5-af1b0fe21f71&projectId=5e631737-0fa4-44a6-b227-7ba1d7345015","FFD019C05DA64CCFB5A9A5877A1BC094-2025-05-27-18-53-36","","1718","","<p style=""font-size:48px; color:red;"">Is Microphone OK?</p>","1","",""
"","","","","","instructions","7","641386","0.0-5.0","FFD019C05DA64CCFB5A9A5877A1BC094","FFD019C05DA64CCFB5A9A5877A1BC094","c1aeef03-e536-42f5-89f5-af1b0fe21f71","5e631737-0fa4-44a6-b227-7ba1d7345015","{""num_scrambled_semantic"":""8"",""num_scrambled_causal"":""4"",""num_scrambled_schematic"":""4"",""participantId"":""FFD019C05DA64CCFB5A9A5877A1BC094"",""assignmentId"":""c1aeef03-e536-42f5-89f5-af1b0fe21f71"",""projectId"":""5e631737-0fa4-44a6-b227-7ba1d7345015""}","https://test12345.live/?num_scrambled_semantic=8&num_scrambled_causal=4&num_scrambled_schematic=4&participantId=FFD019C05DA64CCFB5A9A5877A1BC094&assignmentId=c1aeef03-e536-42f5-89f5-af1b0fe21f71&projectId=5e631737-0fa4-44a6-b227-7ba1d7345015","FFD019C05DA64CCFB5A9A5877A1BC094-2025-05-27-18-53-36","[{""page_index"":0,""viewing_time"":228359},{""page_index"":1,""viewing_time"":7759}]","236118","","","","",""
"","","","","","image-button-response","8","647397","0.0-6.0-0.0","FFD019C05DA64CCFB5A9A5877A1BC094","FFD019C05DA64CCFB5A9A5877A1BC094","c1aeef03-e536-42f5-89f5-af1b0fe21f71","5e631737-0fa4-44a6-b227-7ba1d7345015","{""num_scrambled_semantic"":""8"",""num_scrambled_causal"":""4"",""num_scrambled_schematic"":""4"",""participantId"":""FFD019C05DA64CCFB5A9A5877A1BC094"",""assignmentId"":""c1aeef03-e536-42f5-89f5-af1b0fe21f71"",""projectId"":""5e631737-0fa4-44a6-b227-7ba1d7345015""}","https://test12345.live/?num_scrambled_semantic=8&num_scrambled_causal=4&num_scrambled_schematic=4&participantId=FFD019C05DA64CCFB5A9A5877A1BC094&assignmentId=c1aeef03-e536-42f5-89f5-af1b0fe21f71&projectId=5e631737-0fa4-44a6-b227-7ba1d7345015","FFD019C05DA64CCFB5A9A5877A1BC094-2025-05-27-18-53-36","","null","","images/instructions/movie_0.png","null","",""
"","","","","","image-button-response","9","651904","0.0-6.0-1.0-0.0","FFD019C05DA64CCFB5A9A5877A1BC094","FFD019C05DA64CCFB5A9A5877A1BC094","c1aeef03-e536-42f5-89f5-af1b0fe21f71","5e631737-0fa4-44a6-b227-7ba1d7345015","{""num_scrambled_semantic"":""8"",""num_scrambled_causal"":""4"",""num_scrambled_schematic"":""4"",""participantId"":""FFD019C05DA64CCFB5A9A5877A1BC094"",""assignmentId"":""c1aeef03-e536-42f5-89f5-af1b0fe21f71"",""projectId"":""5e631737-0fa4-44a6-b227-7ba1d7345015""}","https://test12345.live/?num_scrambled_semantic=8&num_scrambled_causal=4&num_scrambled_schematic=4&participantId=FFD019C05DA64CCFB5A9A5877A1BC094&assignmentId=c1aeef03-e536-42f5-89f5-af1b0fe21f71&projectId=5e631737-0fa4-44a6-b227-7ba1d7345015","FFD019C05DA64CCFB5A9A5877A1BC094-2025-05-27-18-53-36","","null","","images/instructions/movie_1.png","null","",""
"","","","","","image-button-response","10","655911","0.0-6.0-1.0-1.0","FFD019C05DA64CCFB5A9A5877A1BC094","FFD019C05DA64CCFB5A9A5877A1BC094","c1aeef03-e536-42f5-89f5-af1b0fe21f71","5e631737-0fa4-44a6-b227-7ba1d7345015","{""num_scrambled_semantic"":""8"",""num_scrambled_causal"":""4"",""num_scrambled_schematic"":""4"",""participantId"":""FFD019C05DA64CCFB5A9A5877A1BC094"",""assignmentId"":""c1aeef03-e536-42f5-89f5-af1b0fe21f71"",""projectId"":""5e631737-0fa4-44a6-b227-7ba1d7345015""}","https://test12345.live/?num_scrambled_semantic=8&num_scrambled_causal=4&num_scrambled_schematic=4&participantId=FFD019C05DA64CCFB5A9A5877A1BC094&assignmentId=c1aeef03-e536-42f5-89f5-af1b0fe21f71&projectId=5e631737-0fa4-44a6-b227-7ba1d7345015","FFD019C05DA64CCFB5A9A5877A1BC094-2025-05-27-18-53-36","","null","","images/instructions/movie_1.png","null","",""
"","","","","","image-button-response","11","657715","0.0-6.0-1.0-2.0","FFD019C05DA64CCFB5A9A5877A1BC094","FFD019C05DA64CCFB5A9A5877A1BC094","c1aeef03-e536-42f5-89f5-af1b0fe21f71","5e631737-0fa4-44a6-b227-7ba1d7345015","{""num_scrambled_semantic"":""8"",""num_scrambled_causal"":""4"",""num_scrambled_schematic"":""4"",""participantId"":""FFD019C05DA64CCFB5A9A5877A1BC094"",""assignmentId"":""c1aeef03-e536-42f5-89f5-af1b0fe21f71"",""projectId"":""5e631737-0fa4-44a6-b227-7ba1d7345015""}","https://test12345.live/?num_scrambled_semantic=8&num_scrambled_causal=4&num_scrambled_schematic=4&participantId=FFD019C05DA64CCFB5A9A5877A1BC094&assignmentId=c1aeef03-e536-42f5-89f5-af1b0fe21f71&projectId=5e631737-0fa4-44a6-b227-7ba1d7345015","FFD019C05DA64CCFB5A9A5877A1BC094-2025-05-27-18-53-36","","null","","[]","null","",""
"","","","","","image-button-response","12","662222","0.0-6.0-1.0-0.1","FFD019C05DA64CCFB5A9A5877A1BC094","FFD019C05DA64CCFB5A9A5877A1BC094","c1aeef03-e536-42f5-89f5-af1b0fe21f71","5e631737-0fa4-44a6-b227-7ba1d7345015","{""num_scrambled_semantic"":""8"",""num_scrambled_causal"":""4"",""num_scrambled_schematic"":""4"",""participantId"":""FFD019C05DA64CCFB5A9A5877A1BC094"",""assignmentId"":""c1aeef03-e536-42f5-89f5-af1b0fe21f71"",""projectId"":""5e631737-0fa4-44a6-b227-7ba1d7345015""}","https://test12345.live/?num_scrambled_semantic=8&num_scrambled_causal=4&num_scrambled_schematic=4&participantId=FFD019C05DA64CCFB5A9A5877A1BC094&assignmentId=c1aeef03-e536-42f5-89f5-af1b0fe21f71&projectId=5e631737-0fa4-44a6-b227-7ba1d7345015","FFD019C05DA64CCFB5A9A5877A1BC094-2025-05-27-18-53-36","","null","","images/instructions/movie_2.png","null","",""
"","","","","","image-button-response","13","664825","0.0-6.0-1.0-1.1","FFD019C05DA64CCFB5A9A5877A1BC094","FFD019C05DA64CCFB5A9A5877A1BC094","c1aeef03-e536-42f5-89f5-af1b0fe21f71","5e631737-0fa4-44a6-b227-7ba1d7345015","{""num_scrambled_semantic"":""8"",""num_scrambled_causal"":""4"",""num_scrambled_schematic"":""4"",""participantId"":""FFD019C05DA64CCFB5A9A5877A1BC094"",""assignmentId"":""c1aeef03-e536-42f5-89f5-af1b0fe21f71"",""projectId"":""5e631737-0fa4-44a6-b227-7ba1d7345015""}","https://test12345.live/?num_scrambled_semantic=8&num_scrambled_causal=4&num_scrambled_schematic=4&participantId=FFD019C05DA64CCFB5A9A5877A1BC094&assignmentId=c1aeef03-e536-42f5-89f5-af1b0fe21f71&projectId=5e631737-0fa4-44a6-b227-7ba1d7345015","FFD019C05DA64CCFB5A9A5877A1BC094-2025-05-27-18-53-36","","2602","","images/instructions/movie_2.png","1","",""
"","","","","","image-button-response","14","666633","0.0-6.0-1.0-2.1","FFD019C05DA64CCFB5A9A5877A1BC094","FFD019C05DA64CCFB5A9A5877A1BC094","c1aeef03-e536-42f5-89f5-af1b0fe21f71","5e631737-0fa4-44a6-b227-7ba1d7345015","{""num_scrambled_semantic"":""8"",""num_scrambled_causal"":""4"",""num_scrambled_schematic"":""4"",""participantId"":""FFD019C05DA64CCFB5A9A5877A1BC094"",""assignmentId"":""c1aeef03-e536-42f5-89f5-af1b0fe21f71"",""projectId"":""5e631737-0fa4-44a6-b227-7ba1d7345015""}","https://test12345.live/?num_scrambled_semantic=8&num_scrambled_causal=4&num_scrambled_schematic=4&participantId=FFD019C05DA64CCFB5A9A5877A1BC094&assignmentId=c1aeef03-e536-42f5-89f5-af1b0fe21f71&projectId=5e631737-0fa4-44a6-b227-7ba1d7345015","FFD019C05DA64CCFB5A9A5877A1BC094-2025-05-27-18-53-36","","null","","[]","null","",""
"","","","","","image-button-response","15","671139","0.0-6.0-1.0-0.2","FFD019C05DA64CCFB5A9A5877A1BC094","FFD019C05DA64CCFB5A9A5877A1BC094","c1aeef03-e536-42f5-89f5-af1b0fe21f71","5e631737-0fa4-44a6-b227-7ba1d7345015","{""num_scrambled_semantic"":""8"",""num_scrambled_causal"":""4"",""num_scrambled_schematic"":""4"",""participantId"":""FFD019C05DA64CCFB5A9A5877A1BC094"",""assignmentId"":""c1aeef03-e536-42f5-89f5-af1b0fe21f71"",""projectId"":""5e631737-0fa4-44a6-b227-7ba1d7345015""}","https://test12345.live/?num_scrambled_semantic=8&num_scrambled_causal=4&num_scrambled_schematic=4&participantId=FFD019C05DA64CCFB5A9A5877A1BC094&assignmentId=c1aeef03-e536-42f5-89f5-af1b0fe21f71&projectId=5e631737-0fa4-44a6-b227-7ba1d7345015","FFD019C05DA64CCFB5A9A5877A1BC094-2025-05-27-18-53-36","","null","","images/instructions/movie_3.png","null","",""
"","","","","","image-button-response","16","672081","0.0-6.0-1.0-1.2","FFD019C05DA64CCFB5A9A5877A1BC094","FFD019C05DA64CCFB5A9A5877A1BC094","c1aeef03-e536-42f5-89f5-af1b0fe21f71","5e631737-0fa4-44a6-b227-7ba1d7345015","{""num_scrambled_semantic"":""8"",""num_scrambled_causal"":""4"",""num_scrambled_schematic"":""4"",""participantId"":""FFD019C05DA64CCFB5A9A5877A1BC094"",""assignmentId"":""c1aeef03-e536-42f5-89f5-af1b0fe21f71"",""projectId"":""5e631737-0fa4-44a6-b227-7ba1d7345015""}","https://test12345.live/?num_scrambled_semantic=8&num_scrambled_causal=4&num_scrambled_schematic=4&participantId=FFD019C05DA64CCFB5A9A5877A1BC094&assignmentId=c1aeef03-e536-42f5-89f5-af1b0fe21f71&projectId=5e631737-0fa4-44a6-b227-7ba1d7345015","FFD019C05DA64CCFB5A9A5877A1BC094-2025-05-27-18-53-36","","937","","images/instructions/movie_3.png","0","",""
"","","","","","image-button-response","17","673884","0.0-6.0-1.0-2.2","FFD019C05DA64CCFB5A9A5877A1BC094","FFD019C05DA64CCFB5A9A5877A1BC094","c1aeef03-e536-42f5-89f5-af1b0fe21f71","5e631737-0fa4-44a6-b227-7ba1d7345015","{""num_scrambled_semantic"":""8"",""num_scrambled_causal"":""4"",""num_scrambled_schematic"":""4"",""participantId"":""FFD019C05DA64CCFB5A9A5877A1BC094"",""assignmentId"":""c1aeef03-e536-42f5-89f5-af1b0fe21f71"",""projectId"":""5e631737-0fa4-44a6-b227-7ba1d7345015""}","https://test12345.live/?num_scrambled_semantic=8&num_scrambled_causal=4&num_scrambled_schematic=4&participantId=FFD019C05DA64CCFB5A9A5877A1BC094&assignmentId=c1aeef03-e536-42f5-89f5-af1b0fe21f71&projectId=5e631737-0fa4-44a6-b227-7ba1d7345015","FFD019C05DA64CCFB5A9A5877A1BC094-2025-05-27-18-53-36","","null","","[]","null","",""
"","","","","","image-button-response","18","678386","0.0-6.0-1.0-0.3","FFD019C05DA64CCFB5A9A5877A1BC094","FFD019C05DA64CCFB5A9A5877A1BC094","c1aeef03-e536-42f5-89f5-af1b0fe21f71","5e631737-0fa4-44a6-b227-7ba1d7345015","{""num_scrambled_semantic"":""8"",""num_scrambled_causal"":""4"",""num_scrambled_schematic"":""4"",""participantId"":""FFD019C05DA64CCFB5A9A5877A1BC094"",""assignmentId"":""c1aeef03-e536-42f5-89f5-af1b0fe21f71"",""projectId"":""5e631737-0fa4-44a6-b227-7ba1d7345015""}","https://test12345.live/?num_scrambled_semantic=8&num_scrambled_causal=4&num_scrambled_schematic=4&participantId=FFD019C05DA64CCFB5A9A5877A1BC094&assignmentId=c1aeef03-e536-42f5-89f5-af1b0fe21f71&projectId=5e631737-0fa4-44a6-b227-7ba1d7345015","FFD019C05DA64CCFB5A9A5877A1BC094-2025-05-27-18-53-36","","null","","images/instructions/movie_4.png","null","",""
"","","","","","image-button-response","19","679529","0.0-6.0-1.0-1.3","FFD019C05DA64CCFB5A9A5877A1BC094","FFD019C05DA64CCFB5A9A5877A1BC094","c1aeef03-e536-42f5-89f5-af1b0fe21f71","5e631737-0fa4-44a6-b227-7ba1d7345015","{""num_scrambled_semantic"":""8"",""num_scrambled_causal"":""4"",""num_scrambled_schematic"":""4"",""participantId"":""FFD019C05DA64CCFB5A9A5877A1BC094"",""assignmentId"":""c1aeef03-e536-42f5-89f5-af1b0fe21f71"",""projectId"":""5e631737-0fa4-44a6-b227-7ba1d7345015""}","https://test12345.live/?num_scrambled_semantic=8&num_scrambled_causal=4&num_scrambled_schematic=4&participantId=FFD019C05DA64CCFB5A9A5877A1BC094&assignmentId=c1aeef03-e536-42f5-89f5-af1b0fe21f71&projectId=5e631737-0fa4-44a6-b227-7ba1d7345015","FFD019C05DA64CCFB5A9A5877A1BC094-2025-05-27-18-53-36","","1142","","images/instructions/movie_4.png","0","",""
"","","","","","image-button-response","20","681336","0.0-6.0-1.0-2.3","FFD019C05DA64CCFB5A9A5877A1BC094","FFD019C05DA64CCFB5A9A5877A1BC094","c1aeef03-e536-42f5-89f5-af1b0fe21f71","5e631737-0fa4-44a6-b227-7ba1d7345015","{""num_scrambled_semantic"":""8"",""num_scrambled_causal"":""4"",""num_scrambled_schematic"":""4"",""participantId"":""FFD019C05DA64CCFB5A9A5877A1BC094"",""assignmentId"":""c1aeef03-e536-42f5-89f5-af1b0fe21f71"",""projectId"":""5e631737-0fa4-44a6-b227-7ba1d7345015""}","https://test12345.live/?num_scrambled_semantic=8&num_scrambled_causal=4&num_scrambled_schematic=4&participantId=FFD019C05DA64CCFB5A9A5877A1BC094&assignmentId=c1aeef03-e536-42f5-89f5-af1b0fe21f71&projectId=5e631737-0fa4-44a6-b227-7ba1d7345015","FFD019C05DA64CCFB5A9A5877A1BC094-2025-05-27-18-53-36","","null","","[]","null","",""
"","","","","","instructions","21","699617","0.0-7.0","FFD019C05DA64CCFB5A9A5877A1BC094","FFD019C05DA64CCFB5A9A5877A1BC094","c1aeef03-e536-42f5-89f5-af1b0fe21f71","5e631737-0fa4-44a6-b227-7ba1d7345015","{""num_scrambled_semantic"":""8"",""num_scrambled_causal"":""4"",""num_scrambled_schematic"":""4"",""participantId"":""FFD019C05DA64CCFB5A9A5877A1BC094"",""assignmentId"":""c1aeef03-e536-42f5-89f5-af1b0fe21f71"",""projectId"":""5e631737-0fa4-44a6-b227-7ba1d7345015""}","https://test12345.live/?num_scrambled_semantic=8&num_scrambled_causal=4&num_scrambled_schematic=4&participantId=FFD019C05DA64CCFB5A9A5877A1BC094&assignmentId=c1aeef03-e536-42f5-89f5-af1b0fe21f71&projectId=5e631737-0fa4-44a6-b227-7ba1d7345015","FFD019C05DA64CCFB5A9A5877A1BC094-2025-05-27-18-53-36","[{""page_index"":0,""viewing_time"":17161},{""page_index"":1,""viewing_time"":1120}]","18281","","","","",""
"","","","","","html-audio-response","22","750617","0.0-8.0","FFD019C05DA64CCFB5A9A5877A1BC094","FFD019C05DA64CCFB5A9A5877A1BC094","c1aeef03-e536-42f5-89f5-af1b0fe21f71","5e631737-0fa4-44a6-b227-7ba1d7345015","{""num_scrambled_semantic"":""8"",""num_scrambled_causal"":""4"",""num_scrambled_schematic"":""4"",""participantId"":""FFD019C05DA64CCFB5A9A5877A1BC094"",""assignmentId"":""c1aeef03-e536-42f5-89f5-af1b0fe21f71"",""projectId"":""5e631737-0fa4-44a6-b227-7ba1d7345015""}","https://test12345.live/?num_scrambled_semantic=8&num_scrambled_causal=4&num_scrambled_schematic=4&participantId=FFD019C05DA64CCFB5A9A5877A1BC094&assignmentId=c1aeef03-e536-42f5-89f5-af1b0fe21f71&projectId=5e631737-0fa4-44a6-b227-7ba1d7345015","FFD019C05DA64CCFB5A9A5877A1BC094-2025-05-27-18-53-36","","12700","","[""<span style=\""color: red; font-size: 24px\""> NOW RECORDING</span><p>Please say out loud all the images you saw in the exact order you saw them. Try to recall as many images as you can, but remember: getting the order right is more important than the number of images you recall.</p>""]","","3",""
"","","","","","instructions","23","753208","0.0-9.0","FFD019C05DA64CCFB5A9A5877A1BC094","FFD019C05DA64CCFB5A9A5877A1BC094","c1aeef03-e536-42f5-89f5-af1b0fe21f71","5e631737-0fa4-44a6-b227-7ba1d7345015","{""num_scrambled_semantic"":""8"",""num_scrambled_causal"":""4"",""num_scrambled_schematic"":""4"",""participantId"":""FFD019C05DA64CCFB5A9A5877A1BC094"",""assignmentId"":""c1aeef03-e536-42f5-89f5-af1b0fe21f71"",""projectId"":""5e631737-0fa4-44a6-b227-7ba1d7345015""}","https://test12345.live/?num_scrambled_semantic=8&num_scrambled_causal=4&num_scrambled_schematic=4&participantId=FFD019C05DA64CCFB5A9A5877A1BC094&assignmentId=c1aeef03-e536-42f5-89f5-af1b0fe21f71&projectId=5e631737-0fa4-44a6-b227-7ba1d7345015","FFD019C05DA64CCFB5A9A5877A1BC094-2025-05-27-18-53-36","[{""page_index"":0,""viewing_time"":2575}]","2575","","","","",""
"","","","","","image-button-response","24","759215","0.0-10.0-0.0","FFD019C05DA64CCFB5A9A5877A1BC094","FFD019C05DA64CCFB5A9A5877A1BC094","c1aeef03-e536-42f5-89f5-af1b0fe21f71","5e631737-0fa4-44a6-b227-7ba1d7345015","{""num_scrambled_semantic"":""8"",""num_scrambled_causal"":""4"",""num_scrambled_schematic"":""4"",""participantId"":""FFD019C05DA64CCFB5A9A5877A1BC094"",""assignmentId"":""c1aeef03-e536-42f5-89f5-af1b0fe21f71"",""projectId"":""5e631737-0fa4-44a6-b227-7ba1d7345015""}","https://test12345.live/?num_scrambled_semantic=8&num_scrambled_causal=4&num_scrambled_schematic=4&participantId=FFD019C05DA64CCFB5A9A5877A1BC094&assignmentId=c1aeef03-e536-42f5-89f5-af1b0fe21f71&projectId=5e631737-0fa4-44a6-b227-7ba1d7345015","FFD019C05DA64CCFB5A9A5877A1BC094-2025-05-27-18-53-36","","null","","images/causal_sequence/package_causal/package_causal_0.png","null","",""
"","","","","","image-button-response","25","763721","0.0-10.0-1.0-0.0","FFD019C05DA64CCFB5A9A5877A1BC094","FFD019C05DA64CCFB5A9A5877A1BC094","c1aeef03-e536-42f5-89f5-af1b0fe21f71","5e631737-0fa4-44a6-b227-7ba1d7345015","{""num_scrambled_semantic"":""8"",""num_scrambled_causal"":""4"",""num_scrambled_schematic"":""4"",""participantId"":""FFD019C05DA64CCFB5A9A5877A1BC094"",""assignmentId"":""c1aeef03-e536-42f5-89f5-af1b0fe21f71"",""projectId"":""5e631737-0fa4-44a6-b227-7ba1d7345015""}","https://test12345.live/?num_scrambled_semantic=8&num_scrambled_causal=4&num_scrambled_schematic=4&participantId=FFD019C05DA64CCFB5A9A5877A1BC094&assignmentId=c1aeef03-e536-42f5-89f5-af1b0fe21f71&projectId=5e631737-0fa4-44a6-b227-7ba1d7345015","FFD019C05DA64CCFB5A9A5877A1BC094-2025-05-27-18-53-36","","null","","images/causal_sequence/package_causal/package_causal_ten.png","null","",""
"","","","","","image-button-response","26","766083","0.0-10.0-1.0-1.0","FFD019C05DA64CCFB5A9A5877A1BC094","FFD019C05DA64CCFB5A9A5877A1BC094","c1aeef03-e536-42f5-89f5-af1b0fe21f71","5e631737-0fa4-44a6-b227-7ba1d7345015","{""num_scrambled_semantic"":""8"",""num_scrambled_causal"":""4"",""num_scrambled_schematic"":""4"",""participantId"":""FFD019C05DA64CCFB5A9A5877A1BC094"",""assignmentId"":""c1aeef03-e536-42f5-89f5-af1b0fe21f71"",""projectId"":""5e631737-0fa4-44a6-b227-7ba1d7345015""}","https://test12345.live/?num_scrambled_semantic=8&num_scrambled_causal=4&num_scrambled_schematic=4&participantId=FFD019C05DA64CCFB5A9A5877A1BC094&assignmentId=c1aeef03-e536-42f5-89f5-af1b0fe21f71&projectId=5e631737-0fa4-44a6-b227-7ba1d7345015","FFD019C05DA64CCFB5A9A5877A1BC094-2025-05-27-18-53-36","","2360","","images/causal_sequence/package_causal/package_causal_ten.png","0","",""
"","","","","","image-button-response","27","767891","0.0-10.0-1.0-2.0","FFD019C05DA64CCFB5A9A5877A1BC094","FFD019C05DA64CCFB5A9A5877A1BC094","c1aeef03-e536-42f5-89f5-af1b0fe21f71","5e631737-0fa4-44a6-b227-7ba1d7345015","{""num_scrambled_semantic"":""8"",""num_scrambled_causal"":""4"",""num_scrambled_schematic"":""4"",""participantId"":""FFD019C05DA64CCFB5A9A5877A1BC094"",""assignmentId"":""c1aeef03-e536-42f5-89f5-af1b0fe21f71"",""projectId"":""5e631737-0fa4-44a6-b227-7ba1d7345015""}","https://test12345.live/?num_scrambled_semantic=8&num_scrambled_causal=4&num_scrambled_schematic=4&participantId=FFD019C05DA64CCFB5A9A5877A1BC094&assignmentId=c1aeef03-e536-42f5-89f5-af1b0fe21f71&projectId=5e631737-0fa4-44a6-b227-7ba1d7345015","FFD019C05DA64CCFB5A9A5877A1BC094-2025-05-27-18-53-36","","null","","[]","null","",""
"","","","","","image-button-response","28","772398","0.0-10.0-1.0-0.1","FFD019C05DA64CCFB5A9A5877A1BC094","FFD019C05DA64CCFB5A9A5877A1BC094","c1aeef03-e536-42f5-89f5-af1b0fe21f71","5e631737-0fa4-44a6-b227-7ba1d7345015","{""num_scrambled_semantic"":""8"",""num_scrambled_causal"":""4"",""num_scrambled_schematic"":""4"",""participantId"":""FFD019C05DA64CCFB5A9A5877A1BC094"",""assignmentId"":""c1aeef03-e536-42f5-89f5-af1b0fe21f71"",""projectId"":""5e631737-0fa4-44a6-b227-7ba1d7345015""}","https://test12345.live/?num_scrambled_semantic=8&num_scrambled_causal=4&num_scrambled_schematic=4&participantId=FFD019C05DA64CCFB5A9A5877A1BC094&assignmentId=c1aeef03-e536-42f5-89f5-af1b0fe21f71&projectId=5e631737-0fa4-44a6-b227-7ba1d7345015","FFD019C05DA64CCFB5A9A5877A1BC094-2025-05-27-18-53-36","","null","","images/causal_sequence/package_causal/package_causal_3.png","null","",""
"","","","","","image-button-response","29","773883","0.0-10.0-1.0-1.1","FFD019C05DA64CCFB5A9A5877A1BC094","FFD019C05DA64CCFB5A9A5877A1BC094","c1aeef03-e536-42f5-89f5-af1b0fe21f71","5e631737-0fa4-44a6-b227-7ba1d7345015","{""num_scrambled_semantic"":""8"",""num_scrambled_causal"":""4"",""num_scrambled_schematic"":""4"",""participantId"":""FFD019C05DA64CCFB5A9A5877A1BC094"",""assignmentId"":""c1aeef03-e536-42f5-89f5-af1b0fe21f71"",""projectId"":""5e631737-0fa4-44a6-b227-7ba1d7345015""}","https://test12345.live/?num_scrambled_semantic=8&num_scrambled_causal=4&num_scrambled_schematic=4&participantId=FFD019C05DA64CCFB5A9A5877A1BC094&assignmentId=c1aeef03-e536-42f5-89f5-af1b0fe21f71&projectId=5e631737-0fa4-44a6-b227-7ba1d7345015","FFD019C05DA64CCFB5A9A5877A1BC094-2025-05-27-18-53-36","","1483","","images/causal_sequence/package_causal/package_causal_3.png","0","",""
"","","","","","image-button-response","30","775691","0.0-10.0-1.0-2.1","FFD019C05DA64CCFB5A9A5877A1BC094","FFD019C05DA64CCFB5A9A5877A1BC094","c1aeef03-e536-42f5-89f5-af1b0fe21f71","5e631737-0fa4-44a6-b227-7ba1d7345015","{""num_scrambled_semantic"":""8"",""num_scrambled_causal"":""4"",""num_scrambled_schematic"":""4"",""participantId"":""FFD019C05DA64CCFB5A9A5877A1BC094"",""assignmentId"":""c1aeef03-e536-42f5-89f5-af1b0fe21f71"",""projectId"":""5e631737-0fa4-44a6-b227-7ba1d7345015""}","https://test12345.live/?num_scrambled_semantic=8&num_scrambled_causal=4&num_scrambled_schematic=4&participantId=FFD019C05DA64CCFB5A9A5877A1BC094&assignmentId=c1aeef03-e536-42f5-89f5-af1b0fe21f71&projectId=5e631737-0fa4-44a6-b227-7ba1d7345015","FFD019C05DA64CCFB5A9A5877A1BC094-2025-05-27-18-53-36","","null","","[]","null","",""
"","","","","","image-button-response","31","780198","0.0-10.0-1.0-0.2","FFD019C05DA64CCFB5A9A5877A1BC094","FFD019C05DA64CCFB5A9A5877A1BC094","c1aeef03-e536-42f5-89f5-af1b0fe21f71","5e631737-0fa4-44a6-b227-7ba1d7345015","{""num_scrambled_semantic"":""8"",""num_scrambled_causal"":""4"",""num_scrambled_schematic"":""4"",""participantId"":""FFD019C05DA64CCFB5A9A5877A1BC094"",""assignmentId"":""c1aeef03-e536-42f5-89f5-af1b0fe21f71"",""projectId"":""5e631737-0fa4-44a6-b227-7ba1d7345015""}","https://test12345.live/?num_scrambled_semantic=8&num_scrambled_causal=4&num_scrambled_schematic=4&participantId=FFD019C05DA64CCFB5A9A5877A1BC094&assignmentId=c1aeef03-e536-42f5-89f5-af1b0fe21f71&projectId=5e631737-0fa4-44a6-b227-7ba1d7345015","FFD019C05DA64CCFB5A9A5877A1BC094-2025-05-27-18-53-36","","null","","images/causal_sequence/package_causal/package_causal_5.png","null","",""
"","","","","","image-button-response","32","782044","0.0-10.0-1.0-1.2","FFD019C05DA64CCFB5A9A5877A1BC094","FFD019C05DA64CCFB5A9A5877A1BC094","c1aeef03-e536-42f5-89f5-af1b0fe21f71","5e631737-0fa4-44a6-b227-7ba1d7345015","{""num_scrambled_semantic"":""8"",""num_scrambled_causal"":""4"",""num_scrambled_schematic"":""4"",""participantId"":""FFD019C05DA64CCFB5A9A5877A1BC094"",""assignmentId"":""c1aeef03-e536-42f5-89f5-af1b0fe21f71"",""projectId"":""5e631737-0fa4-44a6-b227-7ba1d7345015""}","https://test12345.live/?num_scrambled_semantic=8&num_scrambled_causal=4&num_scrambled_schematic=4&participantId=FFD019C05DA64CCFB5A9A5877A1BC094&assignmentId=c1aeef03-e536-42f5-89f5-af1b0fe21f71&projectId=5e631737-0fa4-44a6-b227-7ba1d7345015","FFD019C05DA64CCFB5A9A5877A1BC094-2025-05-27-18-53-36","","1844","","images/causal_sequence/package_causal/package_causal_5.png","0","",""
"","","","","","image-button-response","33","783850","0.0-10.0-1.0-2.2","FFD019C05DA64CCFB5A9A5877A1BC094","FFD019C05DA64CCFB5A9A5877A1BC094","c1aeef03-e536-42f5-89f5-af1b0fe21f71","5e631737-0fa4-44a6-b227-7ba1d7345015","{""num_scrambled_semantic"":""8"",""num_scrambled_causal"":""4"",""num_scrambled_schematic"":""4"",""participantId"":""FFD019C05DA64CCFB5A9A5877A1BC094"",""assignmentId"":""c1aeef03-e536-42f5-89f5-af1b0fe21f71"",""projectId"":""5e631737-0fa4-44a6-b227-7ba1d7345015""}","https://test12345.live/?num_scrambled_semantic=8&num_scrambled_causal=4&num_scrambled_schematic=4&participantId=FFD019C05DA64CCFB5A9A5877A1BC094&assignmentId=c1aeef03-e536-42f5-89f5-af1b0fe21f71&projectId=5e631737-0fa4-44a6-b227-7ba1d7345015","FFD019C05DA64CCFB5A9A5877A1BC094-2025-05-27-18-53-36","","null","","[]","null","",""
"","","","","","image-button-response","34","788356","0.0-10.0-1.0-0.3","FFD019C05DA64CCFB5A9A5877A1BC094","FFD019C05DA64CCFB5A9A5877A1BC094","c1aeef03-e536-42f5-89f5-af1b0fe21f71","5e631737-0fa4-44a6-b227-7ba1d7345015","{""num_scrambled_semantic"":""8"",""num_scrambled_causal"":""4"",""num_scrambled_schematic"":""4"",""participantId"":""FFD019C05DA64CCFB5A9A5877A1BC094"",""assignmentId"":""c1aeef03-e536-42f5-89f5-af1b0fe21f71"",""projectId"":""5e631737-0fa4-44a6-b227-7ba1d7345015""}","https://test12345.live/?num_scrambled_semantic=8&num_scrambled_causal=4&num_scrambled_schematic=4&participantId=FFD019C05DA64CCFB5A9A5877A1BC094&assignmentId=c1aeef03-e536-42f5-89f5-af1b0fe21f71&projectId=5e631737-0fa4-44a6-b227-7ba1d7345015","FFD019C05DA64CCFB5A9A5877A1BC094-2025-05-27-18-53-36","","null","","images/causal_sequence/package_causal/package_causal_6.png","null","",""
"","","","","","image-button-response","35","789692","0.0-10.0-1.0-1.3","FFD019C05DA64CCFB5A9A5877A1BC094","FFD019C05DA64CCFB5A9A5877A1BC094","c1aeef03-e536-42f5-89f5-af1b0fe21f71","5e631737-0fa4-44a6-b227-7ba1d7345015","{""num_scrambled_semantic"":""8"",""num_scrambled_causal"":""4"",""num_scrambled_schematic"":""4"",""participantId"":""FFD019C05DA64CCFB5A9A5877A1BC094"",""assignmentId"":""c1aeef03-e536-42f5-89f5-af1b0fe21f71"",""projectId"":""5e631737-0fa4-44a6-b227-7ba1d7345015""}","https://test12345.live/?num_scrambled_semantic=8&num_scrambled_causal=4&num_scrambled_schematic=4&participantId=FFD019C05DA64CCFB5A9A5877A1BC094&assignmentId=c1aeef03-e536-42f5-89f5-af1b0fe21f71&projectId=5e631737-0fa4-44a6-b227-7ba1d7345015","FFD019C05DA64CCFB5A9A5877A1BC094-2025-05-27-18-53-36","","1335","","images/causal_sequence/package_causal/package_causal_6.png","0","",""
"","","","","","image-button-response","36","791498","0.0-10.0-1.0-2.3","FFD019C05DA64CCFB5A9A5877A1BC094","FFD019C05DA64CCFB5A9A5877A1BC094","c1aeef03-e536-42f5-89f5-af1b0fe21f71","5e631737-0fa4-44a6-b227-7ba1d7345015","{""num_scrambled_semantic"":""8"",""num_scrambled_causal"":""4"",""num_scrambled_schematic"":""4"",""participantId"":""FFD019C05DA64CCFB5A9A5877A1BC094"",""assignmentId"":""c1aeef03-e536-42f5-89f5-af1b0fe21f71"",""projectId"":""5e631737-0fa4-44a6-b227-7ba1d7345015""}","https://test12345.live/?num_scrambled_semantic=8&num_scrambled_causal=4&num_scrambled_schematic=4&participantId=FFD019C05DA64CCFB5A9A5877A1BC094&assignmentId=c1aeef03-e536-42f5-89f5-af1b0fe21f71&projectId=5e631737-0fa4-44a6-b227-7ba1d7345015","FFD019C05DA64CCFB5A9A5877A1BC094-2025-05-27-18-53-36","","null","","[]","null","",""
"","","","","","image-button-response","37","796002","0.0-10.0-1.0-0.4","FFD019C05DA64CCFB5A9A5877A1BC094","FFD019C05DA64CCFB5A9A5877A1BC094","c1aeef03-e536-42f5-89f5-af1b0fe21f71","5e631737-0fa4-44a6-b227-7ba1d7345015","{""num_scrambled_semantic"":""8"",""num_scrambled_causal"":""4"",""num_scrambled_schematic"":""4"",""participantId"":""FFD019C05DA64CCFB5A9A5877A1BC094"",""assignmentId"":""c1aeef03-e536-42f5-89f5-af1b0fe21f71"",""projectId"":""5e631737-0fa4-44a6-b227-7ba1d7345015""}","https://test12345.live/?num_scrambled_semantic=8&num_scrambled_causal=4&num_scrambled_schematic=4&participantId=FFD019C05DA64CCFB5A9A5877A1BC094&assignmentId=c1aeef03-e536-42f5-89f5-af1b0fe21f71&projectId=5e631737-0fa4-44a6-b227-7ba1d7345015","FFD019C05DA64CCFB5A9A5877A1BC094-2025-05-27-18-53-36","","null","","images/causal_sequence/package_causal/package_causal_1.png","null","",""
"","","","","","image-button-response","38","796904","0.0-10.0-1.0-1.4","FFD019C05DA64CCFB5A9A5877A1BC094","FFD019C05DA64CCFB5A9A5877A1BC094","c1aeef03-e536-42f5-89f5-af1b0fe21f71","5e631737-0fa4-44a6-b227-7ba1d7345015","{""num_scrambled_semantic"":""8"",""num_scrambled_causal"":""4"",""num_scrambled_schematic"":""4"",""participantId"":""FFD019C05DA64CCFB5A9A5877A1BC094"",""assignmentId"":""c1aeef03-e536-42f5-89f5-af1b0fe21f71"",""projectId"":""5e631737-0fa4-44a6-b227-7ba1d7345015""}","https://test12345.live/?num_scrambled_semantic=8&num_scrambled_causal=4&num_scrambled_schematic=4&participantId=FFD019C05DA64CCFB5A9A5877A1BC094&assignmentId=c1aeef03-e536-42f5-89f5-af1b0fe21f71&projectId=5e631737-0fa4-44a6-b227-7ba1d7345015","FFD019C05DA64CCFB5A9A5877A1BC094-2025-05-27-18-53-36","","900","","images/causal_sequence/package_causal/package_causal_1.png","0","",""
"","","","","","image-button-response","39","798710","0.0-10.0-1.0-2.4","FFD019C05DA64CCFB5A9A5877A1BC094","FFD019C05DA64CCFB5A9A5877A1BC094","c1aeef03-e536-42f5-89f5-af1b0fe21f71","5e631737-0fa4-44a6-b227-7ba1d7345015","{""num_scrambled_semantic"":""8"",""num_scrambled_causal"":""4"",""num_scrambled_schematic"":""4"",""participantId"":""FFD019C05DA64CCFB5A9A5877A1BC094"",""assignmentId"":""c1aeef03-e536-42f5-89f5-af1b0fe21f71"",""projectId"":""5e631737-0fa4-44a6-b227-7ba1d7345015""}","https://test12345.live/?num_scrambled_semantic=8&num_scrambled_causal=4&num_scrambled_schematic=4&participantId=FFD019C05DA64CCFB5A9A5877A1BC094&assignmentId=c1aeef03-e536-42f5-89f5-af1b0fe21f71&projectId=5e631737-0fa4-44a6-b227-7ba1d7345015","FFD019C05DA64CCFB5A9A5877A1BC094-2025-05-27-18-53-36","","null","","[]","null","",""
"","","","","","image-button-response","40","803213","0.0-10.0-1.0-0.5","FFD019C05DA64CCFB5A9A5877A1BC094","FFD019C05DA64CCFB5A9A5877A1BC094","c1aeef03-e536-42f5-89f5-af1b0fe21f71","5e631737-0fa4-44a6-b227-7ba1d7345015","{""num_scrambled_semantic"":""8"",""num_scrambled_causal"":""4"",""num_scrambled_schematic"":""4"",""participantId"":""FFD019C05DA64CCFB5A9A5877A1BC094"",""assignmentId"":""c1aeef03-e536-42f5-89f5-af1b0fe21f71"",""projectId"":""5e631737-0fa4-44a6-b227-7ba1d7345015""}","https://test12345.live/?num_scrambled_semantic=8&num_scrambled_causal=4&num_scrambled_schematic=4&participantId=FFD019C05DA64CCFB5A9A5877A1BC094&assignmentId=c1aeef03-e536-42f5-89f5-af1b0fe21f71&projectId=5e631737-0fa4-44a6-b227-7ba1d7345015","FFD019C05DA64CCFB5A9A5877A1BC094-2025-05-27-18-53-36","","null","","images/causal_sequence/package_causal/package_causal_9.png","null","",""
"","","","","","image-button-response","41","804287","0.0-10.0-1.0-1.5","FFD019C05DA64CCFB5A9A5877A1BC094","FFD019C05DA64CCFB5A9A5877A1BC094","c1aeef03-e536-42f5-89f5-af1b0fe21f71","5e631737-0fa4-44a6-b227-7ba1d7345015","{""num_scrambled_semantic"":""8"",""num_scrambled_causal"":""4"",""num_scrambled_schematic"":""4"",""participantId"":""FFD019C05DA64CCFB5A9A5877A1BC094"",""assignmentId"":""c1aeef03-e536-42f5-89f5-af1b0fe21f71"",""projectId"":""5e631737-0fa4-44a6-b227-7ba1d7345015""}","https://test12345.live/?num_scrambled_semantic=8&num_scrambled_causal=4&num_scrambled_schematic=4&participantId=FFD019C05DA64CCFB5A9A5877A1BC094&assignmentId=c1aeef03-e536-42f5-89f5-af1b0fe21f71&projectId=5e631737-0fa4-44a6-b227-7ba1d7345015","FFD019C05DA64CCFB5A9A5877A1BC094-2025-05-27-18-53-36","","1072","","images/causal_sequence/package_causal/package_causal_9.png","0","",""
"","","","","","image-button-response","42","806093","0.0-10.0-1.0-2.5","FFD019C05DA64CCFB5A9A5877A1BC094","FFD019C05DA64CCFB5A9A5877A1BC094","c1aeef03-e536-42f5-89f5-af1b0fe21f71","5e631737-0fa4-44a6-b227-7ba1d7345015","{""num_scrambled_semantic"":""8"",""num_scrambled_causal"":""4"",""num_scrambled_schematic"":""4"",""participantId"":""FFD019C05DA64CCFB5A9A5877A1BC094"",""assignmentId"":""c1aeef03-e536-42f5-89f5-af1b0fe21f71"",""projectId"":""5e631737-0fa4-44a6-b227-7ba1d7345015""}","https://test12345.live/?num_scrambled_semantic=8&num_scrambled_causal=4&num_scrambled_schematic=4&participantId=FFD019C05DA64CCFB5A9A5877A1BC094&assignmentId=c1aeef03-e536-42f5-89f5-af1b0fe21f71&projectId=5e631737-0fa4-44a6-b227-7ba1d7345015","FFD019C05DA64CCFB5A9A5877A1BC094-2025-05-27-18-53-36","","null","","[]","null","",""
"","","","","","image-button-response","43","810600","0.0-10.0-1.0-0.6","FFD019C05DA64CCFB5A9A5877A1BC094","FFD019C05DA64CCFB5A9A5877A1BC094","c1aeef03-e536-42f5-89f5-af1b0fe21f71","5e631737-0fa4-44a6-b227-7ba1d7345015","{""num_scrambled_semantic"":""8"",""num_scrambled_causal"":""4"",""num_scrambled_schematic"":""4"",""participantId"":""FFD019C05DA64CCFB5A9A5877A1BC094"",""assignmentId"":""c1aeef03-e536-42f5-89f5-af1b0fe21f71"",""projectId"":""5e631737-0fa4-44a6-b227-7ba1d7345015""}","https://test12345.live/?num_scrambled_semantic=8&num_scrambled_causal=4&num_scrambled_schematic=4&participantId=FFD019C05DA64CCFB5A9A5877A1BC094&assignmentId=c1aeef03-e536-42f5-89f5-af1b0fe21f71&projectId=5e631737-0fa4-44a6-b227-7ba1d7345015","FFD019C05DA64CCFB5A9A5877A1BC094-2025-05-27-18-53-36","","null","","images/causal_sequence/package_causal/package_causal_8.png","null","",""
"","","","","","image-button-response","44","811773","0.0-10.0-1.0-1.6","FFD019C05DA64CCFB5A9A5877A1BC094","FFD019C05DA64CCFB5A9A5877A1BC094","c1aeef03-e536-42f5-89f5-af1b0fe21f71","5e631737-0fa4-44a6-b227-7ba1d7345015","{""num_scrambled_semantic"":""8"",""num_scrambled_causal"":""4"",""num_scrambled_schematic"":""4"",""participantId"":""FFD019C05DA64CCFB5A9A5877A1BC094"",""assignmentId"":""c1aeef03-e536-42f5-89f5-af1b0fe21f71"",""projectId"":""5e631737-0fa4-44a6-b227-7ba1d7345015""}","https://test12345.live/?num_scrambled_semantic=8&num_scrambled_causal=4&num_scrambled_schematic=4&participantId=FFD019C05DA64CCFB5A9A5877A1BC094&assignmentId=c1aeef03-e536-42f5-89f5-af1b0fe21f71&projectId=5e631737-0fa4-44a6-b227-7ba1d7345015","FFD019C05DA64CCFB5A9A5877A1BC094-2025-05-27-18-53-36","","1170","","images/causal_sequence/package_causal/package_causal_8.png","0","",""
"","","","","","image-button-response","45","813576","0.0-10.0-1.0-2.6","FFD019C05DA64CCFB5A9A5877A1BC094","FFD019C05DA64CCFB5A9A5877A1BC094","c1aeef03-e536-42f5-89f5-af1b0fe21f71","5e631737-0fa4-44a6-b227-7ba1d7345015","{""num_scrambled_semantic"":""8"",""num_scrambled_causal"":""4"",""num_scrambled_schematic"":""4"",""participantId"":""FFD019C05DA64CCFB5A9A5877A1BC094"",""assignmentId"":""c1aeef03-e536-42f5-89f5-af1b0fe21f71"",""projectId"":""5e631737-0fa4-44a6-b227-7ba1d7345015""}","https://test12345.live/?num_scrambled_semantic=8&num_scrambled_causal=4&num_scrambled_schematic=4&participantId=FFD019C05DA64CCFB5A9A5877A1BC094&assignmentId=c1aeef03-e536-42f5-89f5-af1b0fe21f71&projectId=5e631737-0fa4-44a6-b227-7ba1d7345015","FFD019C05DA64CCFB5A9A5877A1BC094-2025-05-27-18-53-36","","null","","[]","null","",""
"","","","","","image-button-response","46","818081","0.0-10.0-1.0-0.7","FFD019C05DA64CCFB5A9A5877A1BC094","FFD019C05DA64CCFB5A9A5877A1BC094","c1aeef03-e536-42f5-89f5-af1b0fe21f71","5e631737-0fa4-44a6-b227-7ba1d7345015","{""num_scrambled_semantic"":""8"",""num_scrambled_causal"":""4"",""num_scrambled_schematic"":""4"",""participantId"":""FFD019C05DA64CCFB5A9A5877A1BC094"",""assignmentId"":""c1aeef03-e536-42f5-89f5-af1b0fe21f71"",""projectId"":""5e631737-0fa4-44a6-b227-7ba1d7345015""}","https://test12345.live/?num_scrambled_semantic=8&num_scrambled_causal=4&num_scrambled_schematic=4&participantId=FFD019C05DA64CCFB5A9A5877A1BC094&assignmentId=c1aeef03-e536-42f5-89f5-af1b0fe21f71&projectId=5e631737-0fa4-44a6-b227-7ba1d7345015","FFD019C05DA64CCFB5A9A5877A1BC094-2025-05-27-18-53-36","","null","","images/causal_sequence/package_causal/package_causal_4.png","null","",""
"","","","","","image-button-response","47","819519","0.0-10.0-1.0-1.7","FFD019C05DA64CCFB5A9A5877A1BC094","FFD019C05DA64CCFB5A9A5877A1BC094","c1aeef03-e536-42f5-89f5-af1b0fe21f71","5e631737-0fa4-44a6-b227-7ba1d7345015","{""num_scrambled_semantic"":""8"",""num_scrambled_causal"":""4"",""num_scrambled_schematic"":""4"",""participantId"":""FFD019C05DA64CCFB5A9A5877A1BC094"",""assignmentId"":""c1aeef03-e536-42f5-89f5-af1b0fe21f71"",""projectId"":""5e631737-0fa4-44a6-b227-7ba1d7345015""}","https://test12345.live/?num_scrambled_semantic=8&num_scrambled_causal=4&num_scrambled_schematic=4&participantId=FFD019C05DA64CCFB5A9A5877A1BC094&assignmentId=c1aeef03-e536-42f5-89f5-af1b0fe21f71&projectId=5e631737-0fa4-44a6-b227-7ba1d7345015","FFD019C05DA64CCFB5A9A5877A1BC094-2025-05-27-18-53-36","","1436","","images/causal_sequence/package_causal/package_causal_4.png","1","",""
"","","","","","image-button-response","48","821327","0.0-10.0-1.0-2.7","FFD019C05DA64CCFB5A9A5877A1BC094","FFD019C05DA64CCFB5A9A5877A1BC094","c1aeef03-e536-42f5-89f5-af1b0fe21f71","5e631737-0fa4-44a6-b227-7ba1d7345015","{""num_scrambled_semantic"":""8"",""num_scrambled_causal"":""4"",""num_scrambled_schematic"":""4"",""participantId"":""FFD019C05DA64CCFB5A9A5877A1BC094"",""assignmentId"":""c1aeef03-e536-42f5-89f5-af1b0fe21f71"",""projectId"":""5e631737-0fa4-44a6-b227-7ba1d7345015""}","https://test12345.live/?num_scrambled_semantic=8&num_scrambled_causal=4&num_scrambled_schematic=4&participantId=FFD019C05DA64CCFB5A9A5877A1BC094&assignmentId=c1aeef03-e536-42f5-89f5-af1b0fe21f71&projectId=5e631737-0fa4-44a6-b227-7ba1d7345015","FFD019C05DA64CCFB5A9A5877A1BC094-2025-05-27-18-53-36","","null","","[]","null","",""
"","","","","","image-button-response","49","825832","0.0-10.0-1.0-0.8","FFD019C05DA64CCFB5A9A5877A1BC094","FFD019C05DA64CCFB5A9A5877A1BC094","c1aeef03-e536-42f5-89f5-af1b0fe21f71","5e631737-0fa4-44a6-b227-7ba1d7345015","{""num_scrambled_semantic"":""8"",""num_scrambled_causal"":""4"",""num_scrambled_schematic"":""4"",""participantId"":""FFD019C05DA64CCFB5A9A5877A1BC094"",""assignmentId"":""c1aeef03-e536-42f5-89f5-af1b0fe21f71"",""projectId"":""5e631737-0fa4-44a6-b227-7ba1d7345015""}","https://test12345.live/?num_scrambled_semantic=8&num_scrambled_causal=4&num_scrambled_schematic=4&participantId=FFD019C05DA64CCFB5A9A5877A1BC094&assignmentId=c1aeef03-e536-42f5-89f5-af1b0fe21f71&projectId=5e631737-0fa4-44a6-b227-7ba1d7345015","FFD019C05DA64CCFB5A9A5877A1BC094-2025-05-27-18-53-36","","null","","images/causal_sequence/package_causal/package_causal_7.png","null","",""
"","","","","","image-button-response","50","827485","0.0-10.0-1.0-1.8","FFD019C05DA64CCFB5A9A5877A1BC094","FFD019C05DA64CCFB5A9A5877A1BC094","c1aeef03-e536-42f5-89f5-af1b0fe21f71","5e631737-0fa4-44a6-b227-7ba1d7345015","{""num_scrambled_semantic"":""8"",""num_scrambled_causal"":""4"",""num_scrambled_schematic"":""4"",""participantId"":""FFD019C05DA64CCFB5A9A5877A1BC094"",""assignmentId"":""c1aeef03-e536-42f5-89f5-af1b0fe21f71"",""projectId"":""5e631737-0fa4-44a6-b227-7ba1d7345015""}","https://test12345.live/?num_scrambled_semantic=8&num_scrambled_causal=4&num_scrambled_schematic=4&participantId=FFD019C05DA64CCFB5A9A5877A1BC094&assignmentId=c1aeef03-e536-42f5-89f5-af1b0fe21f71&projectId=5e631737-0fa4-44a6-b227-7ba1d7345015","FFD019C05DA64CCFB5A9A5877A1BC094-2025-05-27-18-53-36","","1649","","images/causal_sequence/package_causal/package_causal_7.png","0","",""
"","","","","","image-button-response","51","829291","0.0-10.0-1.0-2.8","FFD019C05DA64CCFB5A9A5877A1BC094","FFD019C05DA64CCFB5A9A5877A1BC094","c1aeef03-e536-42f5-89f5-af1b0fe21f71","5e631737-0fa4-44a6-b227-7ba1d7345015","{""num_scrambled_semantic"":""8"",""num_scrambled_causal"":""4"",""num_scrambled_schematic"":""4"",""participantId"":""FFD019C05DA64CCFB5A9A5877A1BC094"",""assignmentId"":""c1aeef03-e536-42f5-89f5-af1b0fe21f71"",""projectId"":""5e631737-0fa4-44a6-b227-7ba1d7345015""}","https://test12345.live/?num_scrambled_semantic=8&num_scrambled_causal=4&num_scrambled_schematic=4&participantId=FFD019C05DA64CCFB5A9A5877A1BC094&assignmentId=c1aeef03-e536-42f5-89f5-af1b0fe21f71&projectId=5e631737-0fa4-44a6-b227-7ba1d7345015","FFD019C05DA64CCFB5A9A5877A1BC094-2025-05-27-18-53-36","","null","","[]","null","",""
"","","","","","image-button-response","52","833794","0.0-10.0-1.0-0.9","FFD019C05DA64CCFB5A9A5877A1BC094","FFD019C05DA64CCFB5A9A5877A1BC094","c1aeef03-e536-42f5-89f5-af1b0fe21f71","5e631737-0fa4-44a6-b227-7ba1d7345015","{""num_scrambled_semantic"":""8"",""num_scrambled_causal"":""4"",""num_scrambled_schematic"":""4"",""participantId"":""FFD019C05DA64CCFB5A9A5877A1BC094"",""assignmentId"":""c1aeef03-e536-42f5-89f5-af1b0fe21f71"",""projectId"":""5e631737-0fa4-44a6-b227-7ba1d7345015""}","https://test12345.live/?num_scrambled_semantic=8&num_scrambled_causal=4&num_scrambled_schematic=4&participantId=FFD019C05DA64CCFB5A9A5877A1BC094&assignmentId=c1aeef03-e536-42f5-89f5-af1b0fe21f71&projectId=5e631737-0fa4-44a6-b227-7ba1d7345015","FFD019C05DA64CCFB5A9A5877A1BC094-2025-05-27-18-53-36","","null","","images/causal_sequence/package_causal/package_causal_2.png","null","",""
"","","","","","image-button-response","53","835922","0.0-10.0-1.0-1.9","FFD019C05DA64CCFB5A9A5877A1BC094","FFD019C05DA64CCFB5A9A5877A1BC094","c1aeef03-e536-42f5-89f5-af1b0fe21f71","5e631737-0fa4-44a6-b227-7ba1d7345015","{""num_scrambled_semantic"":""8"",""num_scrambled_causal"":""4"",""num_scrambled_schematic"":""4"",""participantId"":""FFD019C05DA64CCFB5A9A5877A1BC094"",""assignmentId"":""c1aeef03-e536-42f5-89f5-af1b0fe21f71"",""projectId"":""5e631737-0fa4-44a6-b227-7ba1d7345015""}","https://test12345.live/?num_scrambled_semantic=8&num_scrambled_causal=4&num_scrambled_schematic=4&participantId=FFD019C05DA64CCFB5A9A5877A1BC094&assignmentId=c1aeef03-e536-42f5-89f5-af1b0fe21f71&projectId=5e631737-0fa4-44a6-b227-7ba1d7345015","FFD019C05DA64CCFB5A9A5877A1BC094-2025-05-27-18-53-36","","2127","","images/causal_sequence/package_causal/package_causal_2.png","0","",""
"","","","","","image-button-response","54","837725","0.0-10.0-1.0-2.9","FFD019C05DA64CCFB5A9A5877A1BC094","FFD019C05DA64CCFB5A9A5877A1BC094","c1aeef03-e536-42f5-89f5-af1b0fe21f71","5e631737-0fa4-44a6-b227-7ba1d7345015","{""num_scrambled_semantic"":""8"",""num_scrambled_causal"":""4"",""num_scrambled_schematic"":""4"",""participantId"":""FFD019C05DA64CCFB5A9A5877A1BC094"",""assignmentId"":""c1aeef03-e536-42f5-89f5-af1b0fe21f71"",""projectId"":""5e631737-0fa4-44a6-b227-7ba1d7345015""}","https://test12345.live/?num_scrambled_semantic=8&num_scrambled_causal=4&num_scrambled_schematic=4&participantId=FFD019C05DA64CCFB5A9A5877A1BC094&assignmentId=c1aeef03-e536-42f5-89f5-af1b0fe21f71&projectId=5e631737-0fa4-44a6-b227-7ba1d7345015","FFD019C05DA64CCFB5A9A5877A1BC094-2025-05-27-18-53-36","","null","","[]","null","",""
"","","","","","html-audio-response","55","899124","0.0-11.0","FFD019C05DA64CCFB5A9A5877A1BC094","FFD019C05DA64CCFB5A9A5877A1BC094","c1aeef03-e536-42f5-89f5-af1b0fe21f71","5e631737-0fa4-44a6-b227-7ba1d7345015","{""num_scrambled_semantic"":""8"",""num_scrambled_causal"":""4"",""num_scrambled_schematic"":""4"",""participantId"":""FFD019C05DA64CCFB5A9A5877A1BC094"",""assignmentId"":""c1aeef03-e536-42f5-89f5-af1b0fe21f71"",""projectId"":""5e631737-0fa4-44a6-b227-7ba1d7345015""}","https://test12345.live/?num_scrambled_semantic=8&num_scrambled_causal=4&num_scrambled_schematic=4&participantId=FFD019C05DA64CCFB5A9A5877A1BC094&assignmentId=c1aeef03-e536-42f5-89f5-af1b0fe21f71&projectId=5e631737-0fa4-44a6-b227-7ba1d7345015","FFD019C05DA64CCFB5A9A5877A1BC094-2025-05-27-18-53-36","","2267","","[""<span style=\""color: red; font-size: 24px\""> NOW RECORDING</span><p>Please say out loud all the images you saw, in the exact order you saw them. Try to recall as many images as you can, but remember: getting the order right is more important than the number of images you recall.</p>""]","","2","package_causal"
"","","","","","image-button-response","56","905149","0.0-12.0-0.0","FFD019C05DA64CCFB5A9A5877A1BC094","FFD019C05DA64CCFB5A9A5877A1BC094","c1aeef03-e536-42f5-89f5-af1b0fe21f71","5e631737-0fa4-44a6-b227-7ba1d7345015","{""num_scrambled_semantic"":""8"",""num_scrambled_causal"":""4"",""num_scrambled_schematic"":""4"",""participantId"":""FFD019C05DA64CCFB5A9A5877A1BC094"",""assignmentId"":""c1aeef03-e536-42f5-89f5-af1b0fe21f71"",""projectId"":""5e631737-0fa4-44a6-b227-7ba1d7345015""}","https://test12345.live/?num_scrambled_semantic=8&num_scrambled_causal=4&num_scrambled_schematic=4&participantId=FFD019C05DA64CCFB5A9A5877A1BC094&assignmentId=c1aeef03-e536-42f5-89f5-af1b0fe21f71&projectId=5e631737-0fa4-44a6-b227-7ba1d7345015","FFD019C05DA64CCFB5A9A5877A1BC094-2025-05-27-18-53-36","","null","","images/schematic_sequence/interview_scheme/interview_scheme_0.png","null","",""
"","","","","","image-button-response","57","909651","0.0-12.0-1.0-0.0","FFD019C05DA64CCFB5A9A5877A1BC094","FFD019C05DA64CCFB5A9A5877A1BC094","c1aeef03-e536-42f5-89f5-af1b0fe21f71","5e631737-0fa4-44a6-b227-7ba1d7345015","{""num_scrambled_semantic"":""8"",""num_scrambled_causal"":""4"",""num_scrambled_schematic"":""4"",""participantId"":""FFD019C05DA64CCFB5A9A5877A1BC094"",""assignmentId"":""c1aeef03-e536-42f5-89f5-af1b0fe21f71"",""projectId"":""5e631737-0fa4-44a6-b227-7ba1d7345015""}","https://test12345.live/?num_scrambled_semantic=8&num_scrambled_causal=4&num_scrambled_schematic=4&participantId=FFD019C05DA64CCFB5A9A5877A1BC094&assignmentId=c1aeef03-e536-42f5-89f5-af1b0fe21f71&projectId=5e631737-0fa4-44a6-b227-7ba1d7345015","FFD019C05DA64CCFB5A9A5877A1BC094-2025-05-27-18-53-36","","null","","images/schematic_sequence/interview_scheme/interview_scheme_4.png","null","",""
"","","","","","image-button-response","58","912259","0.0-12.0-1.0-1.0","FFD019C05DA64CCFB5A9A5877A1BC094","FFD019C05DA64CCFB5A9A5877A1BC094","c1aeef03-e536-42f5-89f5-af1b0fe21f71","5e631737-0fa4-44a6-b227-7ba1d7345015","{""num_scrambled_semantic"":""8"",""num_scrambled_causal"":""4"",""num_scrambled_schematic"":""4"",""participantId"":""FFD019C05DA64CCFB5A9A5877A1BC094"",""assignmentId"":""c1aeef03-e536-42f5-89f5-af1b0fe21f71"",""projectId"":""5e631737-0fa4-44a6-b227-7ba1d7345015""}","https://test12345.live/?num_scrambled_semantic=8&num_scrambled_causal=4&num_scrambled_schematic=4&participantId=FFD019C05DA64CCFB5A9A5877A1BC094&assignmentId=c1aeef03-e536-42f5-89f5-af1b0fe21f71&projectId=5e631737-0fa4-44a6-b227-7ba1d7345015","FFD019C05DA64CCFB5A9A5877A1BC094-2025-05-27-18-53-36","","2606","","images/schematic_sequence/interview_scheme/interview_scheme_4.png","1","",""
"","","","","","image-button-response","59","914069","0.0-12.0-1.0-2.0","FFD019C05DA64CCFB5A9A5877A1BC094","FFD019C05DA64CCFB5A9A5877A1BC094","c1aeef03-e536-42f5-89f5-af1b0fe21f71","5e631737-0fa4-44a6-b227-7ba1d7345015","{""num_scrambled_semantic"":""8"",""num_scrambled_causal"":""4"",""num_scrambled_schematic"":""4"",""participantId"":""FFD019C05DA64CCFB5A9A5877A1BC094"",""assignmentId"":""c1aeef03-e536-42f5-89f5-af1b0fe21f71"",""projectId"":""5e631737-0fa4-44a6-b227-7ba1d7345015""}","https://test12345.live/?num_scrambled_semantic=8&num_scrambled_causal=4&num_scrambled_schematic=4&participantId=FFD019C05DA64CCFB5A9A5877A1BC094&assignmentId=c1aeef03-e536-42f5-89f5-af1b0fe21f71&projectId=5e631737-0fa4-44a6-b227-7ba1d7345015","FFD019C05DA64CCFB5A9A5877A1BC094-2025-05-27-18-53-36","","null","","[]","null","",""
"","","","","","image-button-response","60","918574","0.0-12.0-1.0-0.1","FFD019C05DA64CCFB5A9A5877A1BC094","FFD019C05DA64CCFB5A9A5877A1BC094","c1aeef03-e536-42f5-89f5-af1b0fe21f71","5e631737-0fa4-44a6-b227-7ba1d7345015","{""num_scrambled_semantic"":""8"",""num_scrambled_causal"":""4"",""num_scrambled_schematic"":""4"",""participantId"":""FFD019C05DA64CCFB5A9A5877A1BC094"",""assignmentId"":""c1aeef03-e536-42f5-89f5-af1b0fe21f71"",""projectId"":""5e631737-0fa4-44a6-b227-7ba1d7345015""}","https://test12345.live/?num_scrambled_semantic=8&num_scrambled_causal=4&num_scrambled_schematic=4&participantId=FFD019C05DA64CCFB5A9A5877A1BC094&assignmentId=c1aeef03-e536-42f5-89f5-af1b0fe21f71&projectId=5e631737-0fa4-44a6-b227-7ba1d7345015","FFD019C05DA64CCFB5A9A5877A1BC094-2025-05-27-18-53-36","","null","","images/schematic_sequence/interview_scheme/interview_scheme_6.png","null","",""
"","","","","","image-button-response","61","920332","0.0-12.0-1.0-1.1","FFD019C05DA64CCFB5A9A5877A1BC094","FFD019C05DA64CCFB5A9A5877A1BC094","c1aeef03-e536-42f5-89f5-af1b0fe21f71","5e631737-0fa4-44a6-b227-7ba1d7345015","{""num_scrambled_semantic"":""8"",""num_scrambled_causal"":""4"",""num_scrambled_schematic"":""4"",""participantId"":""FFD019C05DA64CCFB5A9A5877A1BC094"",""assignmentId"":""c1aeef03-e536-42f5-89f5-af1b0fe21f71"",""projectId"":""5e631737-0fa4-44a6-b227-7ba1d7345015""}","https://test12345.live/?num_scrambled_semantic=8&num_scrambled_causal=4&num_scrambled_schematic=4&participantId=FFD019C05DA64CCFB5A9A5877A1BC094&assignmentId=c1aeef03-e536-42f5-89f5-af1b0fe21f71&projectId=5e631737-0fa4-44a6-b227-7ba1d7345015","FFD019C05DA64CCFB5A9A5877A1BC094-2025-05-27-18-53-36","","1756","","images/schematic_sequence/interview_scheme/interview_scheme_6.png","0","",""
"","","","","","image-button-response","62","922137","0.0-12.0-1.0-2.1","FFD019C05DA64CCFB5A9A5877A1BC094","FFD019C05DA64CCFB5A9A5877A1BC094","c1aeef03-e536-42f5-89f5-af1b0fe21f71","5e631737-0fa4-44a6-b227-7ba1d7345015","{""num_scrambled_semantic"":""8"",""num_scrambled_causal"":""4"",""num_scrambled_schematic"":""4"",""participantId"":""FFD019C05DA64CCFB5A9A5877A1BC094"",""assignmentId"":""c1aeef03-e536-42f5-89f5-af1b0fe21f71"",""projectId"":""5e631737-0fa4-44a6-b227-7ba1d7345015""}","https://test12345.live/?num_scrambled_semantic=8&num_scrambled_causal=4&num_scrambled_schematic=4&participantId=FFD019C05DA64CCFB5A9A5877A1BC094&assignmentId=c1aeef03-e536-42f5-89f5-af1b0fe21f71&projectId=5e631737-0fa4-44a6-b227-7ba1d7345015","FFD019C05DA64CCFB5A9A5877A1BC094-2025-05-27-18-53-36","","null","","[]","null","",""
"","","","","","image-button-response","63","926642","0.0-12.0-1.0-0.2","FFD019C05DA64CCFB5A9A5877A1BC094","FFD019C05DA64CCFB5A9A5877A1BC094","c1aeef03-e536-42f5-89f5-af1b0fe21f71","5e631737-0fa4-44a6-b227-7ba1d7345015","{""num_scrambled_semantic"":""8"",""num_scrambled_causal"":""4"",""num_scrambled_schematic"":""4"",""participantId"":""FFD019C05DA64CCFB5A9A5877A1BC094"",""assignmentId"":""c1aeef03-e536-42f5-89f5-af1b0fe21f71"",""projectId"":""5e631737-0fa4-44a6-b227-7ba1d7345015""}","https://test12345.live/?num_scrambled_semantic=8&num_scrambled_causal=4&num_scrambled_schematic=4&participantId=FFD019C05DA64CCFB5A9A5877A1BC094&assignmentId=c1aeef03-e536-42f5-89f5-af1b0fe21f71&projectId=5e631737-0fa4-44a6-b227-7ba1d7345015","FFD019C05DA64CCFB5A9A5877A1BC094-2025-05-27-18-53-36","","null","","images/schematic_sequence/interview_scheme/interview_scheme_5.png","null","",""
"","","","","","image-button-response","64","928259","0.0-12.0-1.0-1.2","FFD019C05DA64CCFB5A9A5877A1BC094","FFD019C05DA64CCFB5A9A5877A1BC094","c1aeef03-e536-42f5-89f5-af1b0fe21f71","5e631737-0fa4-44a6-b227-7ba1d7345015","{""num_scrambled_semantic"":""8"",""num_scrambled_causal"":""4"",""num_scrambled_schematic"":""4"",""participantId"":""FFD019C05DA64CCFB5A9A5877A1BC094"",""assignmentId"":""c1aeef03-e536-42f5-89f5-af1b0fe21f71"",""projectId"":""5e631737-0fa4-44a6-b227-7ba1d7345015""}","https://test12345.live/?num_scrambled_semantic=8&num_scrambled_causal=4&num_scrambled_schematic=4&participantId=FFD019C05DA64CCFB5A9A5877A1BC094&assignmentId=c1aeef03-e536-42f5-89f5-af1b0fe21f71&projectId=5e631737-0fa4-44a6-b227-7ba1d7345015","FFD019C05DA64CCFB5A9A5877A1BC094-2025-05-27-18-53-36","","1615","","images/schematic_sequence/interview_scheme/interview_scheme_5.png","0","",""
"","","","","","image-button-response","65","930066","0.0-12.0-1.0-2.2","FFD019C05DA64CCFB5A9A5877A1BC094","FFD019C05DA64CCFB5A9A5877A1BC094","c1aeef03-e536-42f5-89f5-af1b0fe21f71","5e631737-0fa4-44a6-b227-7ba1d7345015","{""num_scrambled_semantic"":""8"",""num_scrambled_causal"":""4"",""num_scrambled_schematic"":""4"",""participantId"":""FFD019C05DA64CCFB5A9A5877A1BC094"",""assignmentId"":""c1aeef03-e536-42f5-89f5-af1b0fe21f71"",""projectId"":""5e631737-0fa4-44a6-b227-7ba1d7345015""}","https://test12345.live/?num_scrambled_semantic=8&num_scrambled_causal=4&num_scrambled_schematic=4&participantId=FFD019C05DA64CCFB5A9A5877A1BC094&assignmentId=c1aeef03-e536-42f5-89f5-af1b0fe21f71&projectId=5e631737-0fa4-44a6-b227-7ba1d7345015","FFD019C05DA64CCFB5A9A5877A1BC094-2025-05-27-18-53-36","","null","","[]","null","",""
"","","","","","image-button-response","66","934572","0.0-12.0-1.0-0.3","FFD019C05DA64CCFB5A9A5877A1BC094","FFD019C05DA64CCFB5A9A5877A1BC094","c1aeef03-e536-42f5-89f5-af1b0fe21f71","5e631737-0fa4-44a6-b227-7ba1d7345015","{""num_scrambled_semantic"":""8"",""num_scrambled_causal"":""4"",""num_scrambled_schematic"":""4"",""participantId"":""FFD019C05DA64CCFB5A9A5877A1BC094"",""assignmentId"":""c1aeef03-e536-42f5-89f5-af1b0fe21f71"",""projectId"":""5e631737-0fa4-44a6-b227-7ba1d7345015""}","https://test12345.live/?num_scrambled_semantic=8&num_scrambled_causal=4&num_scrambled_schematic=4&participantId=FFD019C05DA64CCFB5A9A5877A1BC094&assignmentId=c1aeef03-e536-42f5-89f5-af1b0fe21f71&projectId=5e631737-0fa4-44a6-b227-7ba1d7345015","FFD019C05DA64CCFB5A9A5877A1BC094-2025-05-27-18-53-36","","null","","images/schematic_sequence/interview_scheme/interview_scheme_3.png","null","",""
"","","","","","image-button-response","67","936726","0.0-12.0-1.0-1.3","FFD019C05DA64CCFB5A9A5877A1BC094","FFD019C05DA64CCFB5A9A5877A1BC094","c1aeef03-e536-42f5-89f5-af1b0fe21f71","5e631737-0fa4-44a6-b227-7ba1d7345015","{""num_scrambled_semantic"":""8"",""num_scrambled_causal"":""4"",""num_scrambled_schematic"":""4"",""participantId"":""FFD019C05DA64CCFB5A9A5877A1BC094"",""assignmentId"":""c1aeef03-e536-42f5-89f5-af1b0fe21f71"",""projectId"":""5e631737-0fa4-44a6-b227-7ba1d7345015""}","https://test12345.live/?num_scrambled_semantic=8&num_scrambled_causal=4&num_scrambled_schematic=4&participantId=FFD019C05DA64CCFB5A9A5877A1BC094&assignmentId=c1aeef03-e536-42f5-89f5-af1b0fe21f71&projectId=5e631737-0fa4-44a6-b227-7ba1d7345015","FFD019C05DA64CCFB5A9A5877A1BC094-2025-05-27-18-53-36","","2152","","images/schematic_sequence/interview_scheme/interview_scheme_3.png","1","",""
"","","","","","image-button-response","68","938529","0.0-12.0-1.0-2.3","FFD019C05DA64CCFB5A9A5877A1BC094","FFD019C05DA64CCFB5A9A5877A1BC094","c1aeef03-e536-42f5-89f5-af1b0fe21f71","5e631737-0fa4-44a6-b227-7ba1d7345015","{""num_scrambled_semantic"":""8"",""num_scrambled_causal"":""4"",""num_scrambled_schematic"":""4"",""participantId"":""FFD019C05DA64CCFB5A9A5877A1BC094"",""assignmentId"":""c1aeef03-e536-42f5-89f5-af1b0fe21f71"",""projectId"":""5e631737-0fa4-44a6-b227-7ba1d7345015""}","https://test12345.live/?num_scrambled_semantic=8&num_scrambled_causal=4&num_scrambled_schematic=4&participantId=FFD019C05DA64CCFB5A9A5877A1BC094&assignmentId=c1aeef03-e536-42f5-89f5-af1b0fe21f71&projectId=5e631737-0fa4-44a6-b227-7ba1d7345015","FFD019C05DA64CCFB5A9A5877A1BC094-2025-05-27-18-53-36","","null","","[]","null","",""
"","","","","","image-button-response","69","943032","0.0-12.0-1.0-0.4","FFD019C05DA64CCFB5A9A5877A1BC094","FFD019C05DA64CCFB5A9A5877A1BC094","c1aeef03-e536-42f5-89f5-af1b0fe21f71","5e631737-0fa4-44a6-b227-7ba1d7345015","{""num_scrambled_semantic"":""8"",""num_scrambled_causal"":""4"",""num_scrambled_schematic"":""4"",""participantId"":""FFD019C05DA64CCFB5A9A5877A1BC094"",""assignmentId"":""c1aeef03-e536-42f5-89f5-af1b0fe21f71"",""projectId"":""5e631737-0fa4-44a6-b227-7ba1d7345015""}","https://test12345.live/?num_scrambled_semantic=8&num_scrambled_causal=4&num_scrambled_schematic=4&participantId=FFD019C05DA64CCFB5A9A5877A1BC094&assignmentId=c1aeef03-e536-42f5-89f5-af1b0fe21f71&projectId=5e631737-0fa4-44a6-b227-7ba1d7345015","FFD019C05DA64CCFB5A9A5877A1BC094-2025-05-27-18-53-36","","null","","images/schematic_sequence/interview_scheme/interview_scheme_2.png","null","",""
"","","","","","image-button-response","70","947037","0.0-12.0-1.0-1.4","FFD019C05DA64CCFB5A9A5877A1BC094","FFD019C05DA64CCFB5A9A5877A1BC094","c1aeef03-e536-42f5-89f5-af1b0fe21f71","5e631737-0fa4-44a6-b227-7ba1d7345015","{""num_scrambled_semantic"":""8"",""num_scrambled_causal"":""4"",""num_scrambled_schematic"":""4"",""participantId"":""FFD019C05DA64CCFB5A9A5877A1BC094"",""assignmentId"":""c1aeef03-e536-42f5-89f5-af1b0fe21f71"",""projectId"":""5e631737-0fa4-44a6-b227-7ba1d7345015""}","https://test12345.live/?num_scrambled_semantic=8&num_scrambled_causal=4&num_scrambled_schematic=4&participantId=FFD019C05DA64CCFB5A9A5877A1BC094&assignmentId=c1aeef03-e536-42f5-89f5-af1b0fe21f71&projectId=5e631737-0fa4-44a6-b227-7ba1d7345015","FFD019C05DA64CCFB5A9A5877A1BC094-2025-05-27-18-53-36","","null","","images/schematic_sequence/interview_scheme/interview_scheme_2.png","null","",""
"","","","","","image-button-response","71","948842","0.0-12.0-1.0-2.4","FFD019C05DA64CCFB5A9A5877A1BC094","FFD019C05DA64CCFB5A9A5877A1BC094","c1aeef03-e536-42f5-89f5-af1b0fe21f71","5e631737-0fa4-44a6-b227-7ba1d7345015","{""num_scrambled_semantic"":""8"",""num_scrambled_causal"":""4"",""num_scrambled_schematic"":""4"",""participantId"":""FFD019C05DA64CCFB5A9A5877A1BC094"",""assignmentId"":""c1aeef03-e536-42f5-89f5-af1b0fe21f71"",""projectId"":""5e631737-0fa4-44a6-b227-7ba1d7345015""}","https://test12345.live/?num_scrambled_semantic=8&num_scrambled_causal=4&num_scrambled_schematic=4&participantId=FFD019C05DA64CCFB5A9A5877A1BC094&assignmentId=c1aeef03-e536-42f5-89f5-af1b0fe21f71&projectId=5e631737-0fa4-44a6-b227-7ba1d7345015","FFD019C05DA64CCFB5A9A5877A1BC094-2025-05-27-18-53-36","","null","","[]","null","",""
"","","","","","image-button-response","72","953346","0.0-12.0-1.0-0.5","FFD019C05DA64CCFB5A9A5877A1BC094","FFD019C05DA64CCFB5A9A5877A1BC094","c1aeef03-e536-42f5-89f5-af1b0fe21f71","5e631737-0fa4-44a6-b227-7ba1d7345015","{""num_scrambled_semantic"":""8"",""num_scrambled_causal"":""4"",""num_scrambled_schematic"":""4"",""participantId"":""FFD019C05DA64CCFB5A9A5877A1BC094"",""assignmentId"":""c1aeef03-e536-42f5-89f5-af1b0fe21f71"",""projectId"":""5e631737-0fa4-44a6-b227-7ba1d7345015""}","https://test12345.live/?num_scrambled_semantic=8&num_scrambled_causal=4&num_scrambled_schematic=4&participantId=FFD019C05DA64CCFB5A9A5877A1BC094&assignmentId=c1aeef03-e536-42f5-89f5-af1b0fe21f71&projectId=5e631737-0fa4-44a6-b227-7ba1d7345015","FFD019C05DA64CCFB5A9A5877A1BC094-2025-05-27-18-53-36","","null","","images/schematic_sequence/interview_scheme/interview_scheme_ten.png","null","",""
"","","","","","image-button-response","73","954620","0.0-12.0-1.0-1.5","FFD019C05DA64CCFB5A9A5877A1BC094","FFD019C05DA64CCFB5A9A5877A1BC094","c1aeef03-e536-42f5-89f5-af1b0fe21f71","5e631737-0fa4-44a6-b227-7ba1d7345015","{""num_scrambled_semantic"":""8"",""num_scrambled_causal"":""4"",""num_scrambled_schematic"":""4"",""participantId"":""FFD019C05DA64CCFB5A9A5877A1BC094"",""assignmentId"":""c1aeef03-e536-42f5-89f5-af1b0fe21f71"",""projectId"":""5e631737-0fa4-44a6-b227-7ba1d7345015""}","https://test12345.live/?num_scrambled_semantic=8&num_scrambled_causal=4&num_scrambled_schematic=4&participantId=FFD019C05DA64CCFB5A9A5877A1BC094&assignmentId=c1aeef03-e536-42f5-89f5-af1b0fe21f71&projectId=5e631737-0fa4-44a6-b227-7ba1d7345015","FFD019C05DA64CCFB5A9A5877A1BC094-2025-05-27-18-53-36","","1272","","images/schematic_sequence/interview_scheme/interview_scheme_ten.png","0","",""
"","","","","","image-button-response","74","956425","0.0-12.0-1.0-2.5","FFD019C05DA64CCFB5A9A5877A1BC094","FFD019C05DA64CCFB5A9A5877A1BC094","c1aeef03-e536-42f5-89f5-af1b0fe21f71","5e631737-0fa4-44a6-b227-7ba1d7345015","{""num_scrambled_semantic"":""8"",""num_scrambled_causal"":""4"",""num_scrambled_schematic"":""4"",""participantId"":""FFD019C05DA64CCFB5A9A5877A1BC094"",""assignmentId"":""c1aeef03-e536-42f5-89f5-af1b0fe21f71"",""projectId"":""5e631737-0fa4-44a6-b227-7ba1d7345015""}","https://test12345.live/?num_scrambled_semantic=8&num_scrambled_causal=4&num_scrambled_schematic=4&participantId=FFD019C05DA64CCFB5A9A5877A1BC094&assignmentId=c1aeef03-e536-42f5-89f5-af1b0fe21f71&projectId=5e631737-0fa4-44a6-b227-7ba1d7345015","FFD019C05DA64CCFB5A9A5877A1BC094-2025-05-27-18-53-36","","null","","[]","null","",""
"","","","","","image-button-response","75","960932","0.0-12.0-1.0-0.6","FFD019C05DA64CCFB5A9A5877A1BC094","FFD019C05DA64CCFB5A9A5877A1BC094","c1aeef03-e536-42f5-89f5-af1b0fe21f71","5e631737-0fa4-44a6-b227-7ba1d7345015","{""num_scrambled_semantic"":""8"",""num_scrambled_causal"":""4"",""num_scrambled_schematic"":""4"",""participantId"":""FFD019C05DA64CCFB5A9A5877A1BC094"",""assignmentId"":""c1aeef03-e536-42f5-89f5-af1b0fe21f71"",""projectId"":""5e631737-0fa4-44a6-b227-7ba1d7345015""}","https://test12345.live/?num_scrambled_semantic=8&num_scrambled_causal=4&num_scrambled_schematic=4&participantId=FFD019C05DA64CCFB5A9A5877A1BC094&assignmentId=c1aeef03-e536-42f5-89f5-af1b0fe21f71&projectId=5e631737-0fa4-44a6-b227-7ba1d7345015","FFD019C05DA64CCFB5A9A5877A1BC094-2025-05-27-18-53-36","","null","","images/schematic_sequence/interview_scheme/interview_scheme_7.png","null","",""
"","","","","","image-button-response","76","962562","0.0-12.0-1.0-1.6","FFD019C05DA64CCFB5A9A5877A1BC094","FFD019C05DA64CCFB5A9A5877A1BC094","c1aeef03-e536-42f5-89f5-af1b0fe21f71","5e631737-0fa4-44a6-b227-7ba1d7345015","{""num_scrambled_semantic"":""8"",""num_scrambled_causal"":""4"",""num_scrambled_schematic"":""4"",""participantId"":""FFD019C05DA64CCFB5A9A5877A1BC094"",""assignmentId"":""c1aeef03-e536-42f5-89f5-af1b0fe21f71"",""projectId"":""5e631737-0fa4-44a6-b227-7ba1d7345015""}","https://test12345.live/?num_scrambled_semantic=8&num_scrambled_causal=4&num_scrambled_schematic=4&participantId=FFD019C05DA64CCFB5A9A5877A1BC094&assignmentId=c1aeef03-e536-42f5-89f5-af1b0fe21f71&projectId=5e631737-0fa4-44a6-b227-7ba1d7345015","FFD019C05DA64CCFB5A9A5877A1BC094-2025-05-27-18-53-36","","1629","","images/schematic_sequence/interview_scheme/interview_scheme_7.png","0","",""
"","","","","","image-button-response","77","964368","0.0-12.0-1.0-2.6","FFD019C05DA64CCFB5A9A5877A1BC094","FFD019C05DA64CCFB5A9A5877A1BC094","c1aeef03-e536-42f5-89f5-af1b0fe21f71","5e631737-0fa4-44a6-b227-7ba1d7345015","{""num_scrambled_semantic"":""8"",""num_scrambled_causal"":""4"",""num_scrambled_schematic"":""4"",""participantId"":""FFD019C05DA64CCFB5A9A5877A1BC094"",""assignmentId"":""c1aeef03-e536-42f5-89f5-af1b0fe21f71"",""projectId"":""5e631737-0fa4-44a6-b227-7ba1d7345015""}","https://test12345.live/?num_scrambled_semantic=8&num_scrambled_causal=4&num_scrambled_schematic=4&participantId=FFD019C05DA64CCFB5A9A5877A1BC094&assignmentId=c1aeef03-e536-42f5-89f5-af1b0fe21f71&projectId=5e631737-0fa4-44a6-b227-7ba1d7345015","FFD019C05DA64CCFB5A9A5877A1BC094-2025-05-27-18-53-36","","null","","[]","null","",""
"","","","","","image-button-response","78","968875","0.0-12.0-1.0-0.7","FFD019C05DA64CCFB5A9A5877A1BC094","FFD019C05DA64CCFB5A9A5877A1BC094","c1aeef03-e536-42f5-89f5-af1b0fe21f71","5e631737-0fa4-44a6-b227-7ba1d7345015","{""num_scrambled_semantic"":""8"",""num_scrambled_causal"":""4"",""num_scrambled_schematic"":""4"",""participantId"":""FFD019C05DA64CCFB5A9A5877A1BC094"",""assignmentId"":""c1aeef03-e536-42f5-89f5-af1b0fe21f71"",""projectId"":""5e631737-0fa4-44a6-b227-7ba1d7345015""}","https://test12345.live/?num_scrambled_semantic=8&num_scrambled_causal=4&num_scrambled_schematic=4&participantId=FFD019C05DA64CCFB5A9A5877A1BC094&assignmentId=c1aeef03-e536-42f5-89f5-af1b0fe21f71&projectId=5e631737-0fa4-44a6-b227-7ba1d7345015","FFD019C05DA64CCFB5A9A5877A1BC094-2025-05-27-18-53-36","","null","","images/schematic_sequence/interview_scheme/interview_scheme_8.png","null","",""
"","","","","","image-button-response","79","970029","0.0-12.0-1.0-1.7","FFD019C05DA64CCFB5A9A5877A1BC094","FFD019C05DA64CCFB5A9A5877A1BC094","c1aeef03-e536-42f5-89f5-af1b0fe21f71","5e631737-0fa4-44a6-b227-7ba1d7345015","{""num_scrambled_semantic"":""8"",""num_scrambled_causal"":""4"",""num_scrambled_schematic"":""4"",""participantId"":""FFD019C05DA64CCFB5A9A5877A1BC094"",""assignmentId"":""c1aeef03-e536-42f5-89f5-af1b0fe21f71"",""projectId"":""5e631737-0fa4-44a6-b227-7ba1d7345015""}","https://test12345.live/?num_scrambled_semantic=8&num_scrambled_causal=4&num_scrambled_schematic=4&participantId=FFD019C05DA64CCFB5A9A5877A1BC094&assignmentId=c1aeef03-e536-42f5-89f5-af1b0fe21f71&projectId=5e631737-0fa4-44a6-b227-7ba1d7345015","FFD019C05DA64CCFB5A9A5877A1BC094-2025-05-27-18-53-36","","1152","","images/schematic_sequence/interview_scheme/interview_scheme_8.png","0","",""
"","","","","","image-button-response","80","971837","0.0-12.0-1.0-2.7","FFD019C05DA64CCFB5A9A5877A1BC094","FFD019C05DA64CCFB5A9A5877A1BC094","c1aeef03-e536-42f5-89f5-af1b0fe21f71","5e631737-0fa4-44a6-b227-7ba1d7345015","{""num_scrambled_semantic"":""8"",""num_scrambled_causal"":""4"",""num_scrambled_schematic"":""4"",""participantId"":""FFD019C05DA64CCFB5A9A5877A1BC094"",""assignmentId"":""c1aeef03-e536-42f5-89f5-af1b0fe21f71"",""projectId"":""5e631737-0fa4-44a6-b227-7ba1d7345015""}","https://test12345.live/?num_scrambled_semantic=8&num_scrambled_causal=4&num_scrambled_schematic=4&participantId=FFD019C05DA64CCFB5A9A5877A1BC094&assignmentId=c1aeef03-e536-42f5-89f5-af1b0fe21f71&projectId=5e631737-0fa4-44a6-b227-7ba1d7345015","FFD019C05DA64CCFB5A9A5877A1BC094-2025-05-27-18-53-36","","null","","[]","null","",""
"","","","","","image-button-response","81","976341","0.0-12.0-1.0-0.8","FFD019C05DA64CCFB5A9A5877A1BC094","FFD019C05DA64CCFB5A9A5877A1BC094","c1aeef03-e536-42f5-89f5-af1b0fe21f71","5e631737-0fa4-44a6-b227-7ba1d7345015","{""num_scrambled_semantic"":""8"",""num_scrambled_causal"":""4"",""num_scrambled_schematic"":""4"",""participantId"":""FFD019C05DA64CCFB5A9A5877A1BC094"",""assignmentId"":""c1aeef03-e536-42f5-89f5-af1b0fe21f71"",""projectId"":""5e631737-0fa4-44a6-b227-7ba1d7345015""}","https://test12345.live/?num_scrambled_semantic=8&num_scrambled_causal=4&num_scrambled_schematic=4&participantId=FFD019C05DA64CCFB5A9A5877A1BC094&assignmentId=c1aeef03-e536-42f5-89f5-af1b0fe21f71&projectId=5e631737-0fa4-44a6-b227-7ba1d7345015","FFD019C05DA64CCFB5A9A5877A1BC094-2025-05-27-18-53-36","","null","","images/schematic_sequence/interview_scheme/interview_scheme_9.png","null","",""
"","","","","","image-button-response","82","977905","0.0-12.0-1.0-1.8","FFD019C05DA64CCFB5A9A5877A1BC094","FFD019C05DA64CCFB5A9A5877A1BC094","c1aeef03-e536-42f5-89f5-af1b0fe21f71","5e631737-0fa4-44a6-b227-7ba1d7345015","{""num_scrambled_semantic"":""8"",""num_scrambled_causal"":""4"",""num_scrambled_schematic"":""4"",""participantId"":""FFD019C05DA64CCFB5A9A5877A1BC094"",""assignmentId"":""c1aeef03-e536-42f5-89f5-af1b0fe21f71"",""projectId"":""5e631737-0fa4-44a6-b227-7ba1d7345015""}","https://test12345.live/?num_scrambled_semantic=8&num_scrambled_causal=4&num_scrambled_schematic=4&participantId=FFD019C05DA64CCFB5A9A5877A1BC094&assignmentId=c1aeef03-e536-42f5-89f5-af1b0fe21f71&projectId=5e631737-0fa4-44a6-b227-7ba1d7345015","FFD019C05DA64CCFB5A9A5877A1BC094-2025-05-27-18-53-36","","1562","","images/schematic_sequence/interview_scheme/interview_scheme_9.png","0","",""
"","","","","","image-button-response","83","979712","0.0-12.0-1.0-2.8","FFD019C05DA64CCFB5A9A5877A1BC094","FFD019C05DA64CCFB5A9A5877A1BC094","c1aeef03-e536-42f5-89f5-af1b0fe21f71","5e631737-0fa4-44a6-b227-7ba1d7345015","{""num_scrambled_semantic"":""8"",""num_scrambled_causal"":""4"",""num_scrambled_schematic"":""4"",""participantId"":""FFD019C05DA64CCFB5A9A5877A1BC094"",""assignmentId"":""c1aeef03-e536-42f5-89f5-af1b0fe21f71"",""projectId"":""5e631737-0fa4-44a6-b227-7ba1d7345015""}","https://test12345.live/?num_scrambled_semantic=8&num_scrambled_causal=4&num_scrambled_schematic=4&participantId=FFD019C05DA64CCFB5A9A5877A1BC094&assignmentId=c1aeef03-e536-42f5-89f5-af1b0fe21f71&projectId=5e631737-0fa4-44a6-b227-7ba1d7345015","FFD019C05DA64CCFB5A9A5877A1BC094-2025-05-27-18-53-36","","null","","[]","null","",""
"","","","","","image-button-response","84","984218","0.0-12.0-1.0-0.9","FFD019C05DA64CCFB5A9A5877A1BC094","FFD019C05DA64CCFB5A9A5877A1BC094","c1aeef03-e536-42f5-89f5-af1b0fe21f71","5e631737-0fa4-44a6-b227-7ba1d7345015","{""num_scrambled_semantic"":""8"",""num_scrambled_causal"":""4"",""num_scrambled_schematic"":""4"",""participantId"":""FFD019C05DA64CCFB5A9A5877A1BC094"",""assignmentId"":""c1aeef03-e536-42f5-89f5-af1b0fe21f71"",""projectId"":""5e631737-0fa4-44a6-b227-7ba1d7345015""}","https://test12345.live/?num_scrambled_semantic=8&num_scrambled_causal=4&num_scrambled_schematic=4&participantId=FFD019C05DA64CCFB5A9A5877A1BC094&assignmentId=c1aeef03-e536-42f5-89f5-af1b0fe21f71&projectId=5e631737-0fa4-44a6-b227-7ba1d7345015","FFD019C05DA64CCFB5A9A5877A1BC094-2025-05-27-18-53-36","","null","","images/schematic_sequence/interview_scheme/interview_scheme_1.png","null","",""
"","","","","","image-button-response","85","986088","0.0-12.0-1.0-1.9","FFD019C05DA64CCFB5A9A5877A1BC094","FFD019C05DA64CCFB5A9A5877A1BC094","c1aeef03-e536-42f5-89f5-af1b0fe21f71","5e631737-0fa4-44a6-b227-7ba1d7345015","{""num_scrambled_semantic"":""8"",""num_scrambled_causal"":""4"",""num_scrambled_schematic"":""4"",""participantId"":""FFD019C05DA64CCFB5A9A5877A1BC094"",""assignmentId"":""c1aeef03-e536-42f5-89f5-af1b0fe21f71"",""projectId"":""5e631737-0fa4-44a6-b227-7ba1d7345015""}","https://test12345.live/?num_scrambled_semantic=8&num_scrambled_causal=4&num_scrambled_schematic=4&participantId=FFD019C05DA64CCFB5A9A5877A1BC094&assignmentId=c1aeef03-e536-42f5-89f5-af1b0fe21f71&projectId=5e631737-0fa4-44a6-b227-7ba1d7345015","FFD019C05DA64CCFB5A9A5877A1BC094-2025-05-27-18-53-36","","1869","","images/schematic_sequence/interview_scheme/interview_scheme_1.png","1","",""
"","","","","","image-button-response","86","987896","0.0-12.0-1.0-2.9","FFD019C05DA64CCFB5A9A5877A1BC094","FFD019C05DA64CCFB5A9A5877A1BC094","c1aeef03-e536-42f5-89f5-af1b0fe21f71","5e631737-0fa4-44a6-b227-7ba1d7345015","{""num_scrambled_semantic"":""8"",""num_scrambled_causal"":""4"",""num_scrambled_schematic"":""4"",""participantId"":""FFD019C05DA64CCFB5A9A5877A1BC094"",""assignmentId"":""c1aeef03-e536-42f5-89f5-af1b0fe21f71"",""projectId"":""5e631737-0fa4-44a6-b227-7ba1d7345015""}","https://test12345.live/?num_scrambled_semantic=8&num_scrambled_causal=4&num_scrambled_schematic=4&participantId=FFD019C05DA64CCFB5A9A5877A1BC094&assignmentId=c1aeef03-e536-42f5-89f5-af1b0fe21f71&projectId=5e631737-0fa4-44a6-b227-7ba1d7345015","FFD019C05DA64CCFB5A9A5877A1BC094-2025-05-27-18-53-36","","null","","[]","null","",""
"","","","","","html-audio-response","87","1045110","0.0-13.0","FFD019C05DA64CCFB5A9A5877A1BC094","FFD019C05DA64CCFB5A9A5877A1BC094","c1aeef03-e536-42f5-89f5-af1b0fe21f71","5e631737-0fa4-44a6-b227-7ba1d7345015","{""num_scrambled_semantic"":""8"",""num_scrambled_causal"":""4"",""num_scrambled_schematic"":""4"",""participantId"":""FFD019C05DA64CCFB5A9A5877A1BC094"",""assignmentId"":""c1aeef03-e536-42f5-89f5-af1b0fe21f71"",""projectId"":""5e631737-0fa4-44a6-b227-7ba1d7345015""}","https://test12345.live/?num_scrambled_semantic=8&num_scrambled_causal=4&num_scrambled_schematic=4&participantId=FFD019C05DA64CCFB5A9A5877A1BC094&assignmentId=c1aeef03-e536-42f5-89f5-af1b0fe21f71&projectId=5e631737-0fa4-44a6-b227-7ba1d7345015","FFD019C05DA64CCFB5A9A5877A1BC094-2025-05-27-18-53-36","","null","","[""<span style=\""color: red; font-size: 24px\""> NOW RECORDING</span><p>Please say out loud all the images you saw, in the exact order you saw them. Try to recall as many images as you can, but remember: getting the order right is more important than the number of images you recall.</p>""]","","2","interview_scheme"
"","","","","","image-button-response","88","1051138","0.0-14.0-0.0","FFD019C05DA64CCFB5A9A5877A1BC094","FFD019C05DA64CCFB5A9A5877A1BC094","c1aeef03-e536-42f5-89f5-af1b0fe21f71","5e631737-0fa4-44a6-b227-7ba1d7345015","{""num_scrambled_semantic"":""8"",""num_scrambled_causal"":""4"",""num_scrambled_schematic"":""4"",""participantId"":""FFD019C05DA64CCFB5A9A5877A1BC094"",""assignmentId"":""c1aeef03-e536-42f5-89f5-af1b0fe21f71"",""projectId"":""5e631737-0fa4-44a6-b227-7ba1d7345015""}","https://test12345.live/?num_scrambled_semantic=8&num_scrambled_causal=4&num_scrambled_schematic=4&participantId=FFD019C05DA64CCFB5A9A5877A1BC094&assignmentId=c1aeef03-e536-42f5-89f5-af1b0fe21f71&projectId=5e631737-0fa4-44a6-b227-7ba1d7345015","FFD019C05DA64CCFB5A9A5877A1BC094-2025-05-27-18-53-36","","null","","images/semantic_sequence/kitchen_operations_semantic/kitchen_operations_semantic_0.png","null","",""
"","","","","","image-button-response","89","1055642","0.0-14.0-1.0-0.0","FFD019C05DA64CCFB5A9A5877A1BC094","FFD019C05DA64CCFB5A9A5877A1BC094","c1aeef03-e536-42f5-89f5-af1b0fe21f71","5e631737-0fa4-44a6-b227-7ba1d7345015","{""num_scrambled_semantic"":""8"",""num_scrambled_causal"":""4"",""num_scrambled_schematic"":""4"",""participantId"":""FFD019C05DA64CCFB5A9A5877A1BC094"",""assignmentId"":""c1aeef03-e536-42f5-89f5-af1b0fe21f71"",""projectId"":""5e631737-0fa4-44a6-b227-7ba1d7345015""}","https://test12345.live/?num_scrambled_semantic=8&num_scrambled_causal=4&num_scrambled_schematic=4&participantId=FFD019C05DA64CCFB5A9A5877A1BC094&assignmentId=c1aeef03-e536-42f5-89f5-af1b0fe21f71&projectId=5e631737-0fa4-44a6-b227-7ba1d7345015","FFD019C05DA64CCFB5A9A5877A1BC094-2025-05-27-18-53-36","","null","","images/semantic_sequence/kitchen_operations_semantic/kitchen_operations_semantic_7.png","null","",""
"","","","","","image-button-response","90","1057265","0.0-14.0-1.0-1.0","FFD019C05DA64CCFB5A9A5877A1BC094","FFD019C05DA64CCFB5A9A5877A1BC094","c1aeef03-e536-42f5-89f5-af1b0fe21f71","5e631737-0fa4-44a6-b227-7ba1d7345015","{""num_scrambled_semantic"":""8"",""num_scrambled_causal"":""4"",""num_scrambled_schematic"":""4"",""participantId"":""FFD019C05DA64CCFB5A9A5877A1BC094"",""assignmentId"":""c1aeef03-e536-42f5-89f5-af1b0fe21f71"",""projectId"":""5e631737-0fa4-44a6-b227-7ba1d7345015""}","https://test12345.live/?num_scrambled_semantic=8&num_scrambled_causal=4&num_scrambled_schematic=4&participantId=FFD019C05DA64CCFB5A9A5877A1BC094&assignmentId=c1aeef03-e536-42f5-89f5-af1b0fe21f71&projectId=5e631737-0fa4-44a6-b227-7ba1d7345015","FFD019C05DA64CCFB5A9A5877A1BC094-2025-05-27-18-53-36","","1621","","images/semantic_sequence/kitchen_operations_semantic/kitchen_operations_semantic_7.png","0","",""
"","","","","","image-button-response","91","1059072","0.0-14.0-1.0-2.0","FFD019C05DA64CCFB5A9A5877A1BC094","FFD019C05DA64CCFB5A9A5877A1BC094","c1aeef03-e536-42f5-89f5-af1b0fe21f71","5e631737-0fa4-44a6-b227-7ba1d7345015","{""num_scrambled_semantic"":""8"",""num_scrambled_causal"":""4"",""num_scrambled_schematic"":""4"",""participantId"":""FFD019C05DA64CCFB5A9A5877A1BC094"",""assignmentId"":""c1aeef03-e536-42f5-89f5-af1b0fe21f71"",""projectId"":""5e631737-0fa4-44a6-b227-7ba1d7345015""}","https://test12345.live/?num_scrambled_semantic=8&num_scrambled_causal=4&num_scrambled_schematic=4&participantId=FFD019C05DA64CCFB5A9A5877A1BC094&assignmentId=c1aeef03-e536-42f5-89f5-af1b0fe21f71&projectId=5e631737-0fa4-44a6-b227-7ba1d7345015","FFD019C05DA64CCFB5A9A5877A1BC094-2025-05-27-18-53-36","","null","","[]","null","",""
"","","","","","image-button-response","92","1063576","0.0-14.0-1.0-0.1","FFD019C05DA64CCFB5A9A5877A1BC094","FFD019C05DA64CCFB5A9A5877A1BC094","c1aeef03-e536-42f5-89f5-af1b0fe21f71","5e631737-0fa4-44a6-b227-7ba1d7345015","{""num_scrambled_semantic"":""8"",""num_scrambled_causal"":""4"",""num_scrambled_schematic"":""4"",""participantId"":""FFD019C05DA64CCFB5A9A5877A1BC094"",""assignmentId"":""c1aeef03-e536-42f5-89f5-af1b0fe21f71"",""projectId"":""5e631737-0fa4-44a6-b227-7ba1d7345015""}","https://test12345.live/?num_scrambled_semantic=8&num_scrambled_causal=4&num_scrambled_schematic=4&participantId=FFD019C05DA64CCFB5A9A5877A1BC094&assignmentId=c1aeef03-e536-42f5-89f5-af1b0fe21f71&projectId=5e631737-0fa4-44a6-b227-7ba1d7345015","FFD019C05DA64CCFB5A9A5877A1BC094-2025-05-27-18-53-36","","null","","images/semantic_sequence/kitchen_operations_semantic/kitchen_operations_semantic_2.png","null","",""
"","","","","","image-button-response","93","1065485","0.0-14.0-1.0-1.1","FFD019C05DA64CCFB5A9A5877A1BC094","FFD019C05DA64CCFB5A9A5877A1BC094","c1aeef03-e536-42f5-89f5-af1b0fe21f71","5e631737-0fa4-44a6-b227-7ba1d7345015","{""num_scrambled_semantic"":""8"",""num_scrambled_causal"":""4"",""num_scrambled_schematic"":""4"",""participantId"":""FFD019C05DA64CCFB5A9A5877A1BC094"",""assignmentId"":""c1aeef03-e536-42f5-89f5-af1b0fe21f71"",""projectId"":""5e631737-0fa4-44a6-b227-7ba1d7345015""}","https://test12345.live/?num_scrambled_semantic=8&num_scrambled_causal=4&num_scrambled_schematic=4&participantId=FFD019C05DA64CCFB5A9A5877A1BC094&assignmentId=c1aeef03-e536-42f5-89f5-af1b0fe21f71&projectId=5e631737-0fa4-44a6-b227-7ba1d7345015","FFD019C05DA64CCFB5A9A5877A1BC094-2025-05-27-18-53-36","","1907","","images/semantic_sequence/kitchen_operations_semantic/kitchen_operations_semantic_2.png","0","",""
"","","","","","image-button-response","94","1067292","0.0-14.0-1.0-2.1","FFD019C05DA64CCFB5A9A5877A1BC094","FFD019C05DA64CCFB5A9A5877A1BC094","c1aeef03-e536-42f5-89f5-af1b0fe21f71","5e631737-0fa4-44a6-b227-7ba1d7345015","{""num_scrambled_semantic"":""8"",""num_scrambled_causal"":""4"",""num_scrambled_schematic"":""4"",""participantId"":""FFD019C05DA64CCFB5A9A5877A1BC094"",""assignmentId"":""c1aeef03-e536-42f5-89f5-af1b0fe21f71"",""projectId"":""5e631737-0fa4-44a6-b227-7ba1d7345015""}","https://test12345.live/?num_scrambled_semantic=8&num_scrambled_causal=4&num_scrambled_schematic=4&participantId=FFD019C05DA64CCFB5A9A5877A1BC094&assignmentId=c1aeef03-e536-42f5-89f5-af1b0fe21f71&projectId=5e631737-0fa4-44a6-b227-7ba1d7345015","FFD019C05DA64CCFB5A9A5877A1BC094-2025-05-27-18-53-36","","null","","[]","null","",""
"","","","","","image-button-response","95","1071795","0.0-14.0-1.0-0.2","FFD019C05DA64CCFB5A9A5877A1BC094","FFD019C05DA64CCFB5A9A5877A1BC094","c1aeef03-e536-42f5-89f5-af1b0fe21f71","5e631737-0fa4-44a6-b227-7ba1d7345015","{""num_scrambled_semantic"":""8"",""num_scrambled_causal"":""4"",""num_scrambled_schematic"":""4"",""participantId"":""FFD019C05DA64CCFB5A9A5877A1BC094"",""assignmentId"":""c1aeef03-e536-42f5-89f5-af1b0fe21f71"",""projectId"":""5e631737-0fa4-44a6-b227-7ba1d7345015""}","https://test12345.live/?num_scrambled_semantic=8&num_scrambled_causal=4&num_scrambled_schematic=4&participantId=FFD019C05DA64CCFB5A9A5877A1BC094&assignmentId=c1aeef03-e536-42f5-89f5-af1b0fe21f71&projectId=5e631737-0fa4-44a6-b227-7ba1d7345015","FFD019C05DA64CCFB5A9A5877A1BC094-2025-05-27-18-53-36","","null","","images/semantic_sequence/kitchen_operations_semantic/kitchen_operations_semantic_8.png","null","",""
"","","","","","image-button-response","96","1074518","0.0-14.0-1.0-1.2","FFD019C05DA64CCFB5A9A5877A1BC094","FFD019C05DA64CCFB5A9A5877A1BC094","c1aeef03-e536-42f5-89f5-af1b0fe21f71","5e631737-0fa4-44a6-b227-7ba1d7345015","{""num_scrambled_semantic"":""8"",""num_scrambled_causal"":""4"",""num_scrambled_schematic"":""4"",""participantId"":""FFD019C05DA64CCFB5A9A5877A1BC094"",""assignmentId"":""c1aeef03-e536-42f5-89f5-af1b0fe21f71"",""projectId"":""5e631737-0fa4-44a6-b227-7ba1d7345015""}","https://test12345.live/?num_scrambled_semantic=8&num_scrambled_causal=4&num_scrambled_schematic=4&participantId=FFD019C05DA64CCFB5A9A5877A1BC094&assignmentId=c1aeef03-e536-42f5-89f5-af1b0fe21f71&projectId=5e631737-0fa4-44a6-b227-7ba1d7345015","FFD019C05DA64CCFB5A9A5877A1BC094-2025-05-27-18-53-36","","2722","","images/semantic_sequence/kitchen_operations_semantic/kitchen_operations_semantic_8.png","0","",""
"","","","","","image-button-response","97","1076326","0.0-14.0-1.0-2.2","FFD019C05DA64CCFB5A9A5877A1BC094","FFD019C05DA64CCFB5A9A5877A1BC094","c1aeef03-e536-42f5-89f5-af1b0fe21f71","5e631737-0fa4-44a6-b227-7ba1d7345015","{""num_scrambled_semantic"":""8"",""num_scrambled_causal"":""4"",""num_scrambled_schematic"":""4"",""participantId"":""FFD019C05DA64CCFB5A9A5877A1BC094"",""assignmentId"":""c1aeef03-e536-42f5-89f5-af1b0fe21f71"",""projectId"":""5e631737-0fa4-44a6-b227-7ba1d7345015""}","https://test12345.live/?num_scrambled_semantic=8&num_scrambled_causal=4&num_scrambled_schematic=4&participantId=FFD019C05DA64CCFB5A9A5877A1BC094&assignmentId=c1aeef03-e536-42f5-89f5-af1b0fe21f71&projectId=5e631737-0fa4-44a6-b227-7ba1d7345015","FFD019C05DA64CCFB5A9A5877A1BC094-2025-05-27-18-53-36","","null","","[]","null","",""
"","","","","","image-button-response","98","1080828","0.0-14.0-1.0-0.3","FFD019C05DA64CCFB5A9A5877A1BC094","FFD019C05DA64CCFB5A9A5877A1BC094","c1aeef03-e536-42f5-89f5-af1b0fe21f71","5e631737-0fa4-44a6-b227-7ba1d7345015","{""num_scrambled_semantic"":""8"",""num_scrambled_causal"":""4"",""num_scrambled_schematic"":""4"",""participantId"":""FFD019C05DA64CCFB5A9A5877A1BC094"",""assignmentId"":""c1aeef03-e536-42f5-89f5-af1b0fe21f71"",""projectId"":""5e631737-0fa4-44a6-b227-7ba1d7345015""}","https://test12345.live/?num_scrambled_semantic=8&num_scrambled_causal=4&num_scrambled_schematic=4&participantId=FFD019C05DA64CCFB5A9A5877A1BC094&assignmentId=c1aeef03-e536-42f5-89f5-af1b0fe21f71&projectId=5e631737-0fa4-44a6-b227-7ba1d7345015","FFD019C05DA64CCFB5A9A5877A1BC094-2025-05-27-18-53-36","","null","","images/semantic_sequence/kitchen_operations_semantic/kitchen_operations_semantic_4.png","null","",""
"","","","","","image-button-response","99","1082028","0.0-14.0-1.0-1.3","FFD019C05DA64CCFB5A9A5877A1BC094","FFD019C05DA64CCFB5A9A5877A1BC094","c1aeef03-e536-42f5-89f5-af1b0fe21f71","5e631737-0fa4-44a6-b227-7ba1d7345015","{""num_scrambled_semantic"":""8"",""num_scrambled_causal"":""4"",""num_scrambled_schematic"":""4"",""participantId"":""FFD019C05DA64CCFB5A9A5877A1BC094"",""assignmentId"":""c1aeef03-e536-42f5-89f5-af1b0fe21f71"",""projectId"":""5e631737-0fa4-44a6-b227-7ba1d7345015""}","https://test12345.live/?num_scrambled_semantic=8&num_scrambled_causal=4&num_scrambled_schematic=4&participantId=FFD019C05DA64CCFB5A9A5877A1BC094&assignmentId=c1aeef03-e536-42f5-89f5-af1b0fe21f71&projectId=5e631737-0fa4-44a6-b227-7ba1d7345015","FFD019C05DA64CCFB5A9A5877A1BC094-2025-05-27-18-53-36","","1199","","images/semantic_sequence/kitchen_operations_semantic/kitchen_operations_semantic_4.png","0","",""
"","","","","","image-button-response","100","1083832","0.0-14.0-1.0-2.3","FFD019C05DA64CCFB5A9A5877A1BC094","FFD019C05DA64CCFB5A9A5877A1BC094","c1aeef03-e536-42f5-89f5-af1b0fe21f71","5e631737-0fa4-44a6-b227-7ba1d7345015","{""num_scrambled_semantic"":""8"",""num_scrambled_causal"":""4"",""num_scrambled_schematic"":""4"",""participantId"":""FFD019C05DA64CCFB5A9A5877A1BC094"",""assignmentId"":""c1aeef03-e536-42f5-89f5-af1b0fe21f71"",""projectId"":""5e631737-0fa4-44a6-b227-7ba1d7345015""}","https://test12345.live/?num_scrambled_semantic=8&num_scrambled_causal=4&num_scrambled_schematic=4&participantId=FFD019C05DA64CCFB5A9A5877A1BC094&assignmentId=c1aeef03-e536-42f5-89f5-af1b0fe21f71&projectId=5e631737-0fa4-44a6-b227-7ba1d7345015","FFD019C05DA64CCFB5A9A5877A1BC094-2025-05-27-18-53-36","","null","","[]","null","",""
"","","","","","image-button-response","101","1088336","0.0-14.0-1.0-0.4","FFD019C05DA64CCFB5A9A5877A1BC094","FFD019C05DA64CCFB5A9A5877A1BC094","c1aeef03-e536-42f5-89f5-af1b0fe21f71","5e631737-0fa4-44a6-b227-7ba1d7345015","{""num_scrambled_semantic"":""8"",""num_scrambled_causal"":""4"",""num_scrambled_schematic"":""4"",""participantId"":""FFD019C05DA64CCFB5A9A5877A1BC094"",""assignmentId"":""c1aeef03-e536-42f5-89f5-af1b0fe21f71"",""projectId"":""5e631737-0fa4-44a6-b227-7ba1d7345015""}","https://test12345.live/?num_scrambled_semantic=8&num_scrambled_causal=4&num_scrambled_schematic=4&participantId=FFD019C05DA64CCFB5A9A5877A1BC094&assignmentId=c1aeef03-e536-42f5-89f5-af1b0fe21f71&projectId=5e631737-0fa4-44a6-b227-7ba1d7345015","FFD019C05DA64CCFB5A9A5877A1BC094-2025-05-27-18-53-36","","null","","images/semantic_sequence/kitchen_operations_semantic/kitchen_operations_semantic_5.png","null","",""
"","","","","","image-button-response","102","1089723","0.0-14.0-1.0-1.4","FFD019C05DA64CCFB5A9A5877A1BC094","FFD019C05DA64CCFB5A9A5877A1BC094","c1aeef03-e536-42f5-89f5-af1b0fe21f71","5e631737-0fa4-44a6-b227-7ba1d7345015","{""num_scrambled_semantic"":""8"",""num_scrambled_causal"":""4"",""num_scrambled_schematic"":""4"",""participantId"":""FFD019C05DA64CCFB5A9A5877A1BC094"",""assignmentId"":""c1aeef03-e536-42f5-89f5-af1b0fe21f71"",""projectId"":""5e631737-0fa4-44a6-b227-7ba1d7345015""}","https://test12345.live/?num_scrambled_semantic=8&num_scrambled_causal=4&num_scrambled_schematic=4&participantId=FFD019C05DA64CCFB5A9A5877A1BC094&assignmentId=c1aeef03-e536-42f5-89f5-af1b0fe21f71&projectId=5e631737-0fa4-44a6-b227-7ba1d7345015","FFD019C05DA64CCFB5A9A5877A1BC094-2025-05-27-18-53-36","","1386","","images/semantic_sequence/kitchen_operations_semantic/kitchen_operations_semantic_5.png","0","",""
"","","","","","image-button-response","103","1091526","0.0-14.0-1.0-2.4","FFD019C05DA64CCFB5A9A5877A1BC094","FFD019C05DA64CCFB5A9A5877A1BC094","c1aeef03-e536-42f5-89f5-af1b0fe21f71","5e631737-0fa4-44a6-b227-7ba1d7345015","{""num_scrambled_semantic"":""8"",""num_scrambled_causal"":""4"",""num_scrambled_schematic"":""4"",""participantId"":""FFD019C05DA64CCFB5A9A5877A1BC094"",""assignmentId"":""c1aeef03-e536-42f5-89f5-af1b0fe21f71"",""projectId"":""5e631737-0fa4-44a6-b227-7ba1d7345015""}","https://test12345.live/?num_scrambled_semantic=8&num_scrambled_causal=4&num_scrambled_schematic=4&participantId=FFD019C05DA64CCFB5A9A5877A1BC094&assignmentId=c1aeef03-e536-42f5-89f5-af1b0fe21f71&projectId=5e631737-0fa4-44a6-b227-7ba1d7345015","FFD019C05DA64CCFB5A9A5877A1BC094-2025-05-27-18-53-36","","null","","[]","null","",""
"","","","","","image-button-response","104","1096032","0.0-14.0-1.0-0.5","FFD019C05DA64CCFB5A9A5877A1BC094","FFD019C05DA64CCFB5A9A5877A1BC094","c1aeef03-e536-42f5-89f5-af1b0fe21f71","5e631737-0fa4-44a6-b227-7ba1d7345015","{""num_scrambled_semantic"":""8"",""num_scrambled_causal"":""4"",""num_scrambled_schematic"":""4"",""participantId"":""FFD019C05DA64CCFB5A9A5877A1BC094"",""assignmentId"":""c1aeef03-e536-42f5-89f5-af1b0fe21f71"",""projectId"":""5e631737-0fa4-44a6-b227-7ba1d7345015""}","https://test12345.live/?num_scrambled_semantic=8&num_scrambled_causal=4&num_scrambled_schematic=4&participantId=FFD019C05DA64CCFB5A9A5877A1BC094&assignmentId=c1aeef03-e536-42f5-89f5-af1b0fe21f71&projectId=5e631737-0fa4-44a6-b227-7ba1d7345015","FFD019C05DA64CCFB5A9A5877A1BC094-2025-05-27-18-53-36","","null","","images/semantic_sequence/kitchen_operations_semantic/kitchen_operations_semantic_1.png","null","",""
"","","","","","image-button-response","105","1098649","0.0-14.0-1.0-1.5","FFD019C05DA64CCFB5A9A5877A1BC094","FFD019C05DA64CCFB5A9A5877A1BC094","c1aeef03-e536-42f5-89f5-af1b0fe21f71","5e631737-0fa4-44a6-b227-7ba1d7345015","{""num_scrambled_semantic"":""8"",""num_scrambled_causal"":""4"",""num_scrambled_schematic"":""4"",""participantId"":""FFD019C05DA64CCFB5A9A5877A1BC094"",""assignmentId"":""c1aeef03-e536-42f5-89f5-af1b0fe21f71"",""projectId"":""5e631737-0fa4-44a6-b227-7ba1d7345015""}","https://test12345.live/?num_scrambled_semantic=8&num_scrambled_causal=4&num_scrambled_schematic=4&participantId=FFD019C05DA64CCFB5A9A5877A1BC094&assignmentId=c1aeef03-e536-42f5-89f5-af1b0fe21f71&projectId=5e631737-0fa4-44a6-b227-7ba1d7345015","FFD019C05DA64CCFB5A9A5877A1BC094-2025-05-27-18-53-36","","2613","","images/semantic_sequence/kitchen_operations_semantic/kitchen_operations_semantic_1.png","0","",""
"","","","","","image-button-response","106","1100452","0.0-14.0-1.0-2.5","FFD019C05DA64CCFB5A9A5877A1BC094","FFD019C05DA64CCFB5A9A5877A1BC094","c1aeef03-e536-42f5-89f5-af1b0fe21f71","5e631737-0fa4-44a6-b227-7ba1d7345015","{""num_scrambled_semantic"":""8"",""num_scrambled_causal"":""4"",""num_scrambled_schematic"":""4"",""participantId"":""FFD019C05DA64CCFB5A9A5877A1BC094"",""assignmentId"":""c1aeef03-e536-42f5-89f5-af1b0fe21f71"",""projectId"":""5e631737-0fa4-44a6-b227-7ba1d7345015""}","https://test12345.live/?num_scrambled_semantic=8&num_scrambled_causal=4&num_scrambled_schematic=4&participantId=FFD019C05DA64CCFB5A9A5877A1BC094&assignmentId=c1aeef03-e536-42f5-89f5-af1b0fe21f71&projectId=5e631737-0fa4-44a6-b227-7ba1d7345015","FFD019C05DA64CCFB5A9A5877A1BC094-2025-05-27-18-53-36","","null","","[]","null","",""
"","","","","","image-button-response","107","1104957","0.0-14.0-1.0-0.6","FFD019C05DA64CCFB5A9A5877A1BC094","FFD019C05DA64CCFB5A9A5877A1BC094","c1aeef03-e536-42f5-89f5-af1b0fe21f71","5e631737-0fa4-44a6-b227-7ba1d7345015","{""num_scrambled_semantic"":""8"",""num_scrambled_causal"":""4"",""num_scrambled_schematic"":""4"",""participantId"":""FFD019C05DA64CCFB5A9A5877A1BC094"",""assignmentId"":""c1aeef03-e536-42f5-89f5-af1b0fe21f71"",""projectId"":""5e631737-0fa4-44a6-b227-7ba1d7345015""}","https://test12345.live/?num_scrambled_semantic=8&num_scrambled_causal=4&num_scrambled_schematic=4&participantId=FFD019C05DA64CCFB5A9A5877A1BC094&assignmentId=c1aeef03-e536-42f5-89f5-af1b0fe21f71&projectId=5e631737-0fa4-44a6-b227-7ba1d7345015","FFD019C05DA64CCFB5A9A5877A1BC094-2025-05-27-18-53-36","","null","","images/semantic_sequence/kitchen_operations_semantic/kitchen_operations_semantic_9.png","null","",""
"","","","","","image-button-response","108","1107660","0.0-14.0-1.0-1.6","FFD019C05DA64CCFB5A9A5877A1BC094","FFD019C05DA64CCFB5A9A5877A1BC094","c1aeef03-e536-42f5-89f5-af1b0fe21f71","5e631737-0fa4-44a6-b227-7ba1d7345015","{""num_scrambled_semantic"":""8"",""num_scrambled_causal"":""4"",""num_scrambled_schematic"":""4"",""participantId"":""FFD019C05DA64CCFB5A9A5877A1BC094"",""assignmentId"":""c1aeef03-e536-42f5-89f5-af1b0fe21f71"",""projectId"":""5e631737-0fa4-44a6-b227-7ba1d7345015""}","https://test12345.live/?num_scrambled_semantic=8&num_scrambled_causal=4&num_scrambled_schematic=4&participantId=FFD019C05DA64CCFB5A9A5877A1BC094&assignmentId=c1aeef03-e536-42f5-89f5-af1b0fe21f71&projectId=5e631737-0fa4-44a6-b227-7ba1d7345015","FFD019C05DA64CCFB5A9A5877A1BC094-2025-05-27-18-53-36","","2701","","images/semantic_sequence/kitchen_operations_semantic/kitchen_operations_semantic_9.png","0","",""
"","","","","","image-button-response","109","1109468","0.0-14.0-1.0-2.6","FFD019C05DA64CCFB5A9A5877A1BC094","FFD019C05DA64CCFB5A9A5877A1BC094","c1aeef03-e536-42f5-89f5-af1b0fe21f71","5e631737-0fa4-44a6-b227-7ba1d7345015","{""num_scrambled_semantic"":""8"",""num_scrambled_causal"":""4"",""num_scrambled_schematic"":""4"",""participantId"":""FFD019C05DA64CCFB5A9A5877A1BC094"",""assignmentId"":""c1aeef03-e536-42f5-89f5-af1b0fe21f71"",""projectId"":""5e631737-0fa4-44a6-b227-7ba1d7345015""}","https://test12345.live/?num_scrambled_semantic=8&num_scrambled_causal=4&num_scrambled_schematic=4&participantId=FFD019C05DA64CCFB5A9A5877A1BC094&assignmentId=c1aeef03-e536-42f5-89f5-af1b0fe21f71&projectId=5e631737-0fa4-44a6-b227-7ba1d7345015","FFD019C05DA64CCFB5A9A5877A1BC094-2025-05-27-18-53-36","","null","","[]","null","",""
"","","","","","image-button-response","110","1113972","0.0-14.0-1.0-0.7","FFD019C05DA64CCFB5A9A5877A1BC094","FFD019C05DA64CCFB5A9A5877A1BC094","c1aeef03-e536-42f5-89f5-af1b0fe21f71","5e631737-0fa4-44a6-b227-7ba1d7345015","{""num_scrambled_semantic"":""8"",""num_scrambled_causal"":""4"",""num_scrambled_schematic"":""4"",""participantId"":""FFD019C05DA64CCFB5A9A5877A1BC094"",""assignmentId"":""c1aeef03-e536-42f5-89f5-af1b0fe21f71"",""projectId"":""5e631737-0fa4-44a6-b227-7ba1d7345015""}","https://test12345.live/?num_scrambled_semantic=8&num_scrambled_causal=4&num_scrambled_schematic=4&participantId=FFD019C05DA64CCFB5A9A5877A1BC094&assignmentId=c1aeef03-e536-42f5-89f5-af1b0fe21f71&projectId=5e631737-0fa4-44a6-b227-7ba1d7345015","FFD019C05DA64CCFB5A9A5877A1BC094-2025-05-27-18-53-36","","null","","images/semantic_sequence/kitchen_operations_semantic/kitchen_operations_semantic_6.png","null","",""
"","","","","","image-button-response","111","1115436","0.0-14.0-1.0-1.7","FFD019C05DA64CCFB5A9A5877A1BC094","FFD019C05DA64CCFB5A9A5877A1BC094","c1aeef03-e536-42f5-89f5-af1b0fe21f71","5e631737-0fa4-44a6-b227-7ba1d7345015","{""num_scrambled_semantic"":""8"",""num_scrambled_causal"":""4"",""num_scrambled_schematic"":""4"",""participantId"":""FFD019C05DA64CCFB5A9A5877A1BC094"",""assignmentId"":""c1aeef03-e536-42f5-89f5-af1b0fe21f71"",""projectId"":""5e631737-0fa4-44a6-b227-7ba1d7345015""}","https://test12345.live/?num_scrambled_semantic=8&num_scrambled_causal=4&num_scrambled_schematic=4&participantId=FFD019C05DA64CCFB5A9A5877A1BC094&assignmentId=c1aeef03-e536-42f5-89f5-af1b0fe21f71&projectId=5e631737-0fa4-44a6-b227-7ba1d7345015","FFD019C05DA64CCFB5A9A5877A1BC094-2025-05-27-18-53-36","","1462","","images/semantic_sequence/kitchen_operations_semantic/kitchen_operations_semantic_6.png","0","",""
"","","","","","image-button-response","112","1117242","0.0-14.0-1.0-2.7","FFD019C05DA64CCFB5A9A5877A1BC094","FFD019C05DA64CCFB5A9A5877A1BC094","c1aeef03-e536-42f5-89f5-af1b0fe21f71","5e631737-0fa4-44a6-b227-7ba1d7345015","{""num_scrambled_semantic"":""8"",""num_scrambled_causal"":""4"",""num_scrambled_schematic"":""4"",""participantId"":""FFD019C05DA64CCFB5A9A5877A1BC094"",""assignmentId"":""c1aeef03-e536-42f5-89f5-af1b0fe21f71"",""projectId"":""5e631737-0fa4-44a6-b227-7ba1d7345015""}","https://test12345.live/?num_scrambled_semantic=8&num_scrambled_causal=4&num_scrambled_schematic=4&participantId=FFD019C05DA64CCFB5A9A5877A1BC094&assignmentId=c1aeef03-e536-42f5-89f5-af1b0fe21f71&projectId=5e631737-0fa4-44a6-b227-7ba1d7345015","FFD019C05DA64CCFB5A9A5877A1BC094-2025-05-27-18-53-36","","null","","[]","null","",""
"","","","","","image-button-response","113","1121744","0.0-14.0-1.0-0.8","FFD019C05DA64CCFB5A9A5877A1BC094","FFD019C05DA64CCFB5A9A5877A1BC094","c1aeef03-e536-42f5-89f5-af1b0fe21f71","5e631737-0fa4-44a6-b227-7ba1d7345015","{""num_scrambled_semantic"":""8"",""num_scrambled_causal"":""4"",""num_scrambled_schematic"":""4"",""participantId"":""FFD019C05DA64CCFB5A9A5877A1BC094"",""assignmentId"":""c1aeef03-e536-42f5-89f5-af1b0fe21f71"",""projectId"":""5e631737-0fa4-44a6-b227-7ba1d7345015""}","https://test12345.live/?num_scrambled_semantic=8&num_scrambled_causal=4&num_scrambled_schematic=4&participantId=FFD019C05DA64CCFB5A9A5877A1BC094&assignmentId=c1aeef03-e536-42f5-89f5-af1b0fe21f71&projectId=5e631737-0fa4-44a6-b227-7ba1d7345015","FFD019C05DA64CCFB5A9A5877A1BC094-2025-05-27-18-53-36","","null","","images/semantic_sequence/kitchen_operations_semantic/kitchen_operations_semantic_ten.png","null","",""
