"success","timeout","failed_images","failed_audio","failed_video","trial_type","trial_index","time_elapsed","internal_node_id","subject","subject_id","study_id","session_id","urlvar","current_url","selectedOption","audio_id","view_history","rt","device_id","stimulus","response","estimated_stimulus_onset"
"true","false","[]","[]","[]","preload","0","40","0.0-0.0","QZZ1ZED8462CA34E3992DBC1F4207A32D4","QZZ1ZED8462CA34E3992DBC1F4207A32D4","12354354364363","mgchgfjhgfjcj","{""participantId"":""QZZ1ZED8462CA34E3992DBC1F4207A32D4"",""assignmentId"":""12354354364363"",""projectId"":""mgchgfjhgfjcj"",""fast_test"":""1"",""num_seqs"":""0""}","https://test12345.live/?participantId=QZZ1ZED8462CA34E3992DBC1F4207A32D4&assignmentId=12354354364363&projectId=mgchgfjhgfjcj&fast_test=1&num_seqs=0","[]","QZZ1ZED8462CA34E3992DBC1F4207A32D4-2024-09-21-17-01-44","","","","","",""
"","","","","","instructions","1","2315","0.0-1.0","QZZ1ZED8462CA34E3992DBC1F4207A32D4","QZZ1ZED8462CA34E3992DBC1F4207A32D4","12354354364363","mgchgfjhgfjcj","{""participantId"":""QZZ1ZED8462CA34E3992DBC1F4207A32D4"",""assignmentId"":""12354354364363"",""projectId"":""mgchgfjhgfjcj"",""fast_test"":""1"",""num_seqs"":""0""}","https://test12345.live/?participantId=QZZ1ZED8462CA34E3992DBC1F4207A32D4&assignmentId=12354354364363&projectId=mgchgfjhgfjcj&fast_test=1&num_seqs=0","[]","QZZ1ZED8462CA34E3992DBC1F4207A32D4-2024-09-21-17-01-44","[{""page_index"":0,""viewing_time"":2275}]","2275","","","",""
"","","","","","instructions","2","3877","0.0-2.0","QZZ1ZED8462CA34E3992DBC1F4207A32D4","QZZ1ZED8462CA34E3992DBC1F4207A32D4","12354354364363","mgchgfjhgfjcj","{""participantId"":""QZZ1ZED8462CA34E3992DBC1F4207A32D4"",""assignmentId"":""12354354364363"",""projectId"":""mgchgfjhgfjcj"",""fast_test"":""1"",""num_seqs"":""0""}","https://test12345.live/?participantId=QZZ1ZED8462CA34E3992DBC1F4207A32D4&assignmentId=12354354364363&projectId=mgchgfjhgfjcj&fast_test=1&num_seqs=0","[]","QZZ1ZED8462CA34E3992DBC1F4207A32D4-2024-09-21-17-01-44","[{""page_index"":0,""viewing_time"":1562}]","1562","","","",""
"true","","","","","fullscreen","3","6280","0.0-3.0","QZZ1ZED8462CA34E3992DBC1F4207A32D4","QZZ1ZED8462CA34E3992DBC1F4207A32D4","12354354364363","mgchgfjhgfjcj","{""participantId"":""QZZ1ZED8462CA34E3992DBC1F4207A32D4"",""assignmentId"":""12354354364363"",""projectId"":""mgchgfjhgfjcj"",""fast_test"":""1"",""num_seqs"":""0""}","https://test12345.live/?participantId=QZZ1ZED8462CA34E3992DBC1F4207A32D4&assignmentId=12354354364363&projectId=mgchgfjhgfjcj&fast_test=1&num_seqs=0","[]","QZZ1ZED8462CA34E3992DBC1F4207A32D4-2024-09-21-17-01-44","","1388","","","",""
"","","","","","initialize-microphone","4","7384","0.0-4.0-0.0","QZZ1ZED8462CA34E3992DBC1F4207A32D4","QZZ1ZED8462CA34E3992DBC1F4207A32D4","12354354364363","mgchgfjhgfjcj","{""participantId"":""QZZ1ZED8462CA34E3992DBC1F4207A32D4"",""assignmentId"":""12354354364363"",""projectId"":""mgchgfjhgfjcj"",""fast_test"":""1"",""num_seqs"":""0""}","https://test12345.live/?participantId=QZZ1ZED8462CA34E3992DBC1F4207A32D4&assignmentId=12354354364363&projectId=mgchgfjhgfjcj&fast_test=1&num_seqs=0","[]","QZZ1ZED8462CA34E3992DBC1F4207A32D4-2024-09-21-17-01-44","","","53f28a877f6599c740caa800dc23624f51fa5bbcd1b1a1ded038d292d93582d7","","",""
"","","","","","html-audio-response","5","8637","0.0-4.0-1.0","QZZ1ZED8462CA34E3992DBC1F4207A32D4","QZZ1ZED8462CA34E3992DBC1F4207A32D4","12354354364363","mgchgfjhgfjcj","{""participantId"":""QZZ1ZED8462CA34E3992DBC1F4207A32D4"",""assignmentId"":""12354354364363"",""projectId"":""mgchgfjhgfjcj"",""fast_test"":""1"",""num_seqs"":""0""}","https://test12345.live/?participantId=QZZ1ZED8462CA34E3992DBC1F4207A32D4&assignmentId=12354354364363&projectId=mgchgfjhgfjcj&fast_test=1&num_seqs=0","[]","QZZ1ZED8462CA34E3992DBC1F4207A32D4-2024-09-21-17-01-44","","655","","<span style=""color: red; font-size: 24px""> NOW RECORDING</span>
        <p>Please test Microphone</p>","GkXfo59ChoEBQveBAULygQRC84EIQoKEd2VibUKHgQRChYECGFOAZwH/////////FUmpZpkq17GDD0JATYCGQ2hyb21lV0GGQ2hyb21lFlSua7+uvdeBAXPFh6BT0z4eZQGDgQKGhkFfT1BVU2Oik09wdXNIZWFkAQEAAIC7AAAAAADhjbWERzuAAJ+BAWJkgSAfQ7Z1Af/////////ngQCjRL+BAACA+4P/Q/wkn/Yp7Zy9kcPV6AlwdwdcCkRZ9Z1dBKTCCOxmhT7aVVq/TjnOQeJ4Ll/bd7Ag6Mtjg3puZFupDG8FBE2n/h5OMWbNtNH6o6Ou2bkTbMchp/r6ZzuOioqi571C3mPaN5MV2v0wtz+iX1SeE7TJ1CxHKcgNE8n7L4xWrTtKmQPaxlacvGgZRhFE6KS2LJ1mb9l6Ae3XcQJiur+mCBBTg5MtcKrzjAWCea2jmlW3xR5adh6634LR3NCPO0EFiO9xnlikWeenhU1hYSaBCf0twUgilh19SA5Ilf/q0CUmiY1j7ZbIdQh7FmP5rQwAAAAAAAAAAAAAAAAAAAAAAAAAAAAAAAAAAAAAAAAAAAAAAAAAAAAAAAAAAAAAAAAAAAAAAAAAAAAAAAAAAAAAAAAAAAAAAAAAAAAAAAAAAAAAAAAAAAAAAAAAAAAAAAAAAAAAAAAAAAAAAAAAAAAAAAAAAAAAAAAAAAAAAAAAAAAAAAAAAAAAAAAAAAAAAAIklHVvx6zuTQmDo1epsgQS4BmxJliQa3d86Qj4woLdWua1GeJP3JsKlMDHoE8WpXpgBjaTrfU40t/WGVqUQr/++mVFNVf2TrgyTGKzNo64NmfKTyNWg9KmGgv9ESOHsO3KN3vYyQZY3iBTBrbsgNbzcK5xV00M9d6YAthGR/SKJcGkDHsWTeiYoR8Lm/Sf1OabYnbZTVI4rvyrvh/XQ161YbNxB7sYmw2R8l+4cd2VkyoUxIqezGCZVf1hG8EMKho1d1EkluMpOuf7QIN688Nc3BmB3hVc+SN2rpw4c1yNaqSXByGv+gqaYeVB0z/t80M6QHMO0AhuO/th+s90ATHSxXMkhkggb29Yoyzy2oF6IdMR6ni8jFsQgzZfsYX0JXjhHJO5CVjvM3jW4EGloknbl2/hthNqaVEubFQrlxnmPsl7IvZ7SJZbGEgQQT0apNlsn5gTDFO9PeekvHC8YmO04OunKbzxoGhHoE/bVCoyGqC+BKe65SI5thiyVWWbSZNS63LLfyxjmm69a2uZHFZtkUBWQE3NACg93uUL8idqr07D6Y/ywaUL6nHPAxCevUq6ibo31ihZKcPznrqahcolmt2DOIL45gbBLTH1rR0tbFom+Z4zS0XVpCtLUicts5PU7ohIpndz48+eF0HSmp5Jqk5KT/okaWVKWP7lCaZNqvOrEUvUhtKnF7uHwlIz0ljreWxbwWgcuqN/0jsgcBqRwHY0xehOqNOExQBUp1mhTokukEdgJaSe38zxut3+B9vVNKNbN6H+DhZ5CfMEZkJ9OaZaMvZJMM6ggSowqcb7jH0u0qqfn2oKhrRmBlxpEMQoxhBU+/co5mu1hB91PD/isp926u7ZjydziZBSv59kBpLmtQrztOZEI7hY45z/JBZf4n/Uw7bIrk1O80sz9qEemsNvB0LkbLzOGf+UrKh2U0ZTZU+FQziqTF/QUTMADCfXumlqQPATu3Z2ZgkPlYGPXeVaDPAPvsJMMlncTRMh/F83PJOfF9GS4CnojnDfH71JFMtOq4Q9s3uy387/rfVnbQ86HrIlOlJRSGMKTryH5z116yKS1oJz0wW0Jn6ENBfq7mNMZUVKW1sGRnujQ36BADuA+4P/Cf0KFVV6gGUqMywDi69jFJFfVB3PHNGklpGiyR5GcZxyvDc1bJJcRDk8dJjjJ+SbsvavUxEPuXlmPRqzn0yeu6DXRWFQAaaplhwVIu/AkkS6mxcUa6KU3w/wjfwbaUEOHjKydiyS4L4ILHbE6jW7DWsoA2yLru1aBkL03MbWP6VE9mv5DG2XQlW65MuMfmzlViZo53xyheOE8+q/9MdbG1rznX8ZqM4ImdnUhnUQRaJ7qf7srTVgo6/7kwKLQNX5KXWB1rXc3pEQhzaZMyPXPmD31wgnp8rG5dws/Q99peipNXOO9czHD/UppnKiVXHKF03OQ1fic7iZKm9XYJLVPDfCfkznG2/CAq4mk4+JdrVwOplwo3h59j5iLM1jwzAHzShkuobKrYHCspupSPbBOxRaxXJli88X8Z/hgSe7ZEi9U+/kqogI5bzt30nHIBZuKH3PtGWSiamP/YxwZ1cqEFxd9/6MOltEJZdnXk16+FY8J/BzWQcZbh3Dy8GE1K55pNSaS/SzTU2aDHOefQppAGpDQOkQpbdbqpGLVoeUJg8SH6YPZpxV/2fURKPkoZrAaXq7xwgnIhbXtQc58WZvuJAy/lCPeGNp/eAtGjlnZM+dkPX6wotf1I8yekxfNipI9ZlWdG4WIME64lGsn5GOfJ5IwzF3sWaotdSycUWNWJcFykY6t9kmhF4lQaQapuHvyK+Y+ZUkI9G6I6y9P9nEUXRMOgFERLLubeJj+X1UTXuUJQbwRARKrtee+S7luX0UerCOKbI6kiwy3SuxsV3s7eSKYh/8VH47J0MYPkHj2OtaKbQ4wniwBJ0lk+LCqPwE/Sq0+al/+lRYsLodBYVj1pCnVeng+MHLX9qX9K/igfDEr7MKZJ+o3ggPhztrzT7DQe9FpiO6M2UaNnke6UO96eqexuluMQg1fLgRzJ/cK4Gjc2ZC8CaPaHvjN08vuDW/UlFj37jIqWb8h/6eMD/D+LX+yyw2SZ4CFpYpqHBz+7G4oWHdXt/ScJPrXYwiZqL+zNUTegdI//xI3nwkP97v6C0XtKfm5In/HLxzT2opUj4+AoJpYWWL4ccP+XXCTZSeptugrOLvPGxN+ud0iCVXf2dwelwztQxcndZt1R/Z4fhOo1nrWzxaQg3T7seF5AN/xWS1QFBMJgA06nnHSNXfM0caxyRleSqjQ4+BAHeA+4P9DfwMq3dsnQwcMOpuTTMOoM93bmoSQJwNQrAUt5sBTdQYQN35sZUjecauz3Xa3jX+LQiq8m6ZXNQajfcrGObOgBu+RVsoBfZnPF0ZPaXkS//TDwuiNiyCAyIRTDuWFrcRCApTQk7P35dKpnf8anomHXwpjtqPMRU4d+XoFn+vVQyaMslIUBDTkiGQ0MVw+QitNZQUeOGA7f/PE4E3PUElogjHE4wXrZ9V4UA/9Kpych0+7YHUb7UndXq6X2Ko7S4/nF1XWt0Ha6cDew5SKuB4GXmyCLU8w2R9cpkIOEg8uOnN6YJxRIfhRZtDqoqVzTmJvFnE+AdBD7JD2XklfMA05+sahN+X005l1NT/yqJ/ed89o4x5GrgMzGFxxwdBYHioUnavJQlI+H7ZHukXbDmbdDyBaqpB0WH3x5yH2urHV6QGXCxzMUwyzI1Y7NL5Pn5X5poTGe2AOvgI+d4ZoSd1KdzEs8qzlsJh+GGAhoerzVL7mILCTzy/+0sGrtpcI6UkXZ1XrPEnR+iB+ndn2xhYXwUXXB6czTnuRh5vEmm/SIRSRseMc6Ae2P6buMyQSKjjCWJjWMcDHU7yhRx9O6ULJ15Yef2vTCStnQQIQE+GeMs+Mbm6wIhXSRMT4chbHvpndz02BGyG/78i96WIWFeD2o5dYwIE/+ND71J8CCz1qyo6UwjFX+1dM68lyoovqnt1k9vME9olfjjH9J3AB4XWJwIxZa+N4a/8WxLJxDgkd8c6YPlx93OvyrQ1+z4X3CDnw7Jtf6FJkzdmJSZbIgWGDGjGQpKYtibyHC1J82kPzMPXBtWOSKqcJAv1VpadytZcltHB0Bg/g4mBQ62KLH74ZYtVjBw+qo9C3ZEddjHZQj4jTUginvZ+SKjhEzkN/PTow7zYEopJfqoRND+H52w2NHzL/MHxqx8XKxWKvLpXIIuJXJaeqKLfCfPcBczlZYoYQ7OnPiKiyLXBoV1XJnIGeV7RWR7WxX8aR59OB3Jk+ElQMzg8BR+9yK8U4IEiy7vE+VW+NqZMdFtm+sKRNeHQ4K4DTKS/HmxXlZ+Y7WeGTHalMu+7e/LUl+zhH0fSiKlvKJw8QEJZDV5dYtVGfOn2M+2nCozCAVqxG+M1LRkF7xs0T6ESyFxqtM4hk8ws1nOB4e2kpBOA9vN8kkzmSY2pDmpoYaMGcYFHEXt9ilDgAqCue44JicPSp6NDg4EAs4D7g/wK/gsby1i4sjbLNAd3mcisWoBIpHBHjqGj6/N+QULPvSmV2Pl3tVp7MYp81EHI90Q+KFls0CyQA5tOKb+8IC6ExzV1ysfgNYRIybUB7atU9tUu2jq7UJ9EA3sYV0P7tjaCXB/f6rvfaXhUq++BtxdRuC8CZY1qyEgbGPOAdYnah/NKQmzZGyD54xcw1q31BhGdCcOSmMEuueYIz9hfT1Mxw1RHwWUcJKbP5nEhaZRRKG8FPb7prjwmJLaEoM/TOjKvcUv8BUabl6PX0v5Q4vBAkCqHI5KK/DLE9MHpa3c8UE6VKu/xdX6akEGOiNciklAg5TI6VqKxYlV7ywfhtyOHqQbuOF4Y6pltImwi0J610EsmCZn9s8ToHN14frELbpPg2CFedoaF2tsXz2p16VgUZNGvExf7DMRONZil2pijoYohEez7/ROvN4jGnDdjAdEH7ptuvihu4XzcQojaJKkhbr3V+VM5uQ5/nON4y1rCe0TD0mA8gpGm1IOFVNWOJPn1oyG1UarTvZhqE70bML1M5xx4VlNckT3aD7vOSsvpGpWsWOh+8sYUu/DcFePJXZYaJr9odGuDaO0UoSYBetrJeiir3Yw/CS2FwcH2shiAIkM2wHYUxS5X5CUbcWfhK9VZ1kql08HFvg2/n4Nx8f1LXgd/UN0G7E9wQtPqcIksBnqCEWsjhMq9PqJkyD1Ibn4cdZKXTgl0S6BuG+610W4bVT3lB0qyANzz8TKpAwuWsP90I9zL3fuGc/DfFRkwDrtKy7dbRW9leaJemf3DWWqk39reVZAc+gYIOT69o0Cm9P6VIe8qb3NXJn5V3KlJkanJQJDfbbv70i5u8SjcN3Yu9G60oY4hWt/x4yP28iAwjEC3QCRiJn+dZMQqoZTCubZ03k6TIwipC866m5BV8sD0GrKif7lqxWJ6zTT0GY2Rok7CWKABM7t9oRNiXIcWKpN6aqDXPawWUQljh4Cj4LYKH5N9l2mZWBK94A2gGYuDMaZI6SCFx/Wu3ll9s/cq+de/UAqe7RRX1+uBEMdazdXm8S7tdezx8aIx7ybUgDhbPhQYFeDZmwTnerGFXFtJqZlXybZm28+ZjJiO8UJHQUfUZ71EbN67nO/b72Zzt+sL25VEuu9mhtMDrDmxCMXZv5ToAFOUHpS+XApPHq0rIwLhaK8ZwnXLlELq4aPco0OjgQDvgPuD/Qn8DxpVNYveB0RzYeVYWgFgQTJ9flYhfnIDNVQyHfth4qnTe7d3kuokyykHE3dvilkH2CiCNeeqKCpgzUmu84hno3KcEtft7nqXLhhiX074pi0+I1GkqGsqTJoPX097qR6IVoiHN8QlpdlHy2E00HK3CZGjaVDLSs9c434M9ko02o8Yi4x1bo5A9bin15PZ1Pvl4BqP8j8Lo6ybdFx9krRt9iClOuTv7U05BqW277Eq26o7++VliVb4xTV/JwYIZRsA2FJ6+kBmf80MP4tI9ey5DXBU/Bhw/XdHtWn1Lkyjo5mOUDYubLm1bboOik7cS4oFnxubnYoJmZioh+RYUJqwqYCOSDrnGe/L49xlARWD2Eqlt144bFzzES0HUM5iU8wYysA9AMcDT5mAKgSfhn35uT6zx1jTYd3hkMbq2y7ShNOVvnTZ0rRaK4euAFWOzu/W+pcIS69iMNg+4tquG1nZ6irZe1exw9LCxsmJnRhPj6+iizMionM8cIjWWZI5rg2kIN/XISzVz9qUH/y8jdoh0wHcfZrkUbjcRkxD3S66WR8S/+U3zN1AWUzrsbM0BnnGrRcGAJqol94LVP57JAwYeLyKBJnUGtAD2c9rHMUFmnKwHemkbjiP8G1fzNw6hj2bc4iMkkjU0sXWu75kjOsuS36N4tCXawBEwVc3+7VT1aeqXbtRGpxjRv/8w5BcktqF6GtC2fcsEqDjYMeL2270yBb0mkRBdYTsP8R2TwACWc6dw7jt6373DHP8rRhIrNzk0KxXALmnMawuixi/6tVAlbDFJ+tuiswdR0k/INkVyRo0t0ZpCLbVuJ/DLk/26qOAxECIUEYNga4DpcDKv2TvK2sLvNhNkwZbfNAAMf0l393i1psx08qRZfKqmmO4VXEjHk0vGimGIr08M+8wdEa4DluZ4fDHAPxfXUFb+zBUdHZSGoGdC0dIsx7Zqmf/h7p8VJidjBefZYSi+qgRtpU1Q3ewkzLlZihGHQ7EjvyWMbOQUQijy7Qa278Pe/1kRVmoF9g4CQ5MzCNkjQSQ5rdw86vAsSYin81qMHP/P/HJYukqzpdbpMbK9XEUDNftgvCrdrTI3BwPTcbAOsNs646uH00+HmYf/ffHaqCDckK4m4fAGJKmMicBFwi3YD6PfShuTZNmWeK7Irbd5RIbSdM+478YaFxNBGjbXtUAsJOVhFPJ+yF9Ez5hs9dMGDV4e9pDpN5J25sB9WSU2qNDxoEBK4D7AyJV+KOmedUHEWr6tD+krOnerekWlvZtDx0SpZwmIlzR7YnHY5z8EFi5LsgNmT3A/Qhnp8mSQJr3m8YYKWIfMszKViq3wMCR11ri31D4D1hJ3+osAQnhg9uh9q26EL3Tv4mELUjqlJeL+5SnTBcp1GvG52sh57UKN2YwGZ+3b8gQa2GvIihxY72g/hU6PDIMSmbnW7XIBbB4F4PheLTrOYL7rNaRNX6/qQwBwJimK4ir2Xb9ZCS0rgBV4m2edKBeKbzuUGFo0WPAPLl7rGrfWbbu97efqz4SvgMqeQGkVGXkD7Vq4BIoAy8aPNyRh9gZbpudlmd07NPHP8PGb4PBd7qoT1ZZnQpY9MskS7nhGLpHmyjahzK7A/71UoVj/TRjgWfpojj2Q1dLvYaI3IRnZtGH/TdZYJu3cKShcLU6IVdxQofSRhXFDqJK26Me1++2IYEX9JxC9DWhxJydPUmGkW2gjmGr2zMX/w9ygJuAZtBI4dxjUVVcd84RYgWqkIT6EJjWIYEG7NhjIhfm+b+pDL36qP4kdGchepJk4RIpgPGR033HQ6LgAkxgznD4g1WgDRT4YV/gyHp6GH0JyaPMbAVBOGzWHOTeFcZ5x6+TwAHZcDcbcSl8+ZrGmEyHUVXPq7oNHHL5uPFLcav4oiLTr7EW4QJML6S93iAPylLvNZzfR+fiWMBoPmWdWjnCDGldxTw7wnpFSnArgGmYuUEomDceWxgdUbM9IasP8U1JVkw2KX+grQxjQztpYNfQ6bBmFsFi7T0fwo7sjM4cL/j0tUarGo2tNzODAHzZqSOTkqMasWR0OEkYHEgbEHKmyotAYQ71CcyIsZ6zLjWAqF3zsoPX9Kcq7X13CSADwoMDK8tfu3q6Vqf1Iq4BCwd/rHAG01daP91ru9jd20fmLENyfLeIUMQUdobkDAUbgUZT0By4V4c4DnbuDEDXLyLTjB76go9/QKd/dGdYrkap5OvZdEv2oGxiaoZOBYvn0uGlF1mZQVLyMR4JKcdVXxxuUUCvHQe2yzusxZiBL5koGyke56S0Ys0dI4Y3xCTKj0IbDL31D6xKHT0vxnXlqie4M4Vy5B8m18GnQNh53zAJawFbLDFdmLV3hErISvqsfbsqypq/dS+kc9Y4J3f/sFd/WOc0W5TO/fi1GDygyAr6Kgwz2XoeMeGd3DzKUKme9uJcGGUAJDm8K7bSX1iU/voeqc9wDNxWLFtsQJfIottXMNVtjOpexHYeOKPRPjILoK5QJd3669F+qx9kGHba075lKNCE7qNDxoEBZ4D7A9rSAsDE9SZo0/cFCb4c61ukriD8vnankZtH2p5TxbBNNBA77/qAGdf0nH2WpE7m9Xr7WSzvB/dsnw3IZsPdvAZaDpCVgHpUN4/fF9ERdd3h2BJWzt3Sv27P0p3Clc2oERT84YrIbFwx9Q86ggOHyZdir2gXavkSmriSC4WFYxtciRCvkLRbVnoO6WIV8vc21XAzNHik97XKSgp9yAY+KorMpIaDWIH3+OZKl1S3hzb3960ZVyPKm+luZw0l86IH4BTVRCsIVPLTbBSL3mN2oU90tSEuLV25JcJk5Dmg8Um4T9uNvvjVfgIxkYRxGoB1sTccboJ3kbMR4p5TrOnQESsYLfccdaYsbN0e/luGRN7e03B/XUCfxDYJUF+n/mBiM6WaN2PD+0aObsNhXGUKTgGf1Rbjph6l5kYzj5uCy9zsgd3WoUAEpUQCyNEA5poYzFC7dJhxsyq8/QOVbynV5+YlMfoLxnEi+VyTpcGrWJm4tjJM6ZPpcTEHLcCsAnT5vxcWyAeX25yecLq0RPg8SA1PPqMQWv8b1+EdS4HwS5uSGsGxf4GUbXxsA0qxvr+dMbSOzoXqE/K7zd4wd02tDdodS4WQpxBl7HKcvLPIB/QF5V7hWhteB7zJ7kRG75vAQzPO1t2Y17jtj8qpWmlT/OuqBKxi483WA7ROe1SY0dPwUkdAH1uS8eo9h+26asakuZm23BNIZYM2mSJfw7Msd+Vb4ATgflm/V2KdCYsgoSKZZtroKHhA4hptQAdbQwKvBgMLeZjOln+B6edGiY9A/aiUnkvSEjSMZEqs5Pik43vtLHclYgndKzMN9tttURdnzcRoVigyuUCEo+0NmQRQMjsUCDr3wsMrLqF2USu0VmLPSnuMO/9u6pxn4MS8pVCvr0XQuSrkTxxncw+VRhswucR/b4LXkEq8rY3tUwmgszUwFuTjwTftacicCRQKHRu+hDXHAq3AVxalywbbkQqK/2bWBXEWcmidvYjHNR9RrD9dGoWDUKZXxglh1X1zkLEshzF+Kj50YpecEbYY6smsw3O5M1u2qdpTlwJSPiEIyRkexWB5wBUL4RUKBe9T6866Cp1NiZ/bbUEFI4VJsJSnNKFeKif1tYChMwbogpz1vQYFpJs6Mgbfr3p5LqH2rACkmuCJpfAvOPHLGqAVBhASp5LQWP50ep8k8MFnMSWvaB4OxlBdwwZsPhGfLi6RnpA/sjpopch0/mRubDQgnwRe4aiQMnbqeQ/KZitwBAnTWs7fHjdS3ILKe2YXzuzeaJxfE6NDxoEBo4D7A9q21xnoeVBXxUZNt86EckrUdXEPblrN5g6KON7g/sBIvrWilehWghtoAsKIw2ljF2CsjTRnfMlrvw32kIcvvH6jCt3Ah6ARaWd9Q+wgEcWN4yhspnQOl2W9vO6siablwN/MBmRvrClxiHfvRIEKXwWO6A/V6qxyS1Bv7erAf5du8rbkD1xgr2TSOhLVad2+bnJPO1zhXjoZvDT/Kk5+tcyEslWVHn/UbJiYvID0mvhcF9o4+jIgepgIQiGrBY5DWwRh5iJjiIcizRCLlAWIuilj+TeJzCUpl+vdfojCPVIlvmQDhEFbgLRI0kZT05EuLBUdUQ4npJvzb6PorjzknXF53e9nwF7uoFkVrqKvvD7p43G5U70o2vf5L7egEZ4SGt5752MOR0C679mUxuzhbl2vSueeCchILV32vlks5tH+7YJ56fkOr8/ExTuoSqHszTlQbB7STpI6gDof0EfhsniaomX0s0FZm6eEjVcwJJDSMr6eeUitA3MRrsTGIx0cRvWzhlzAQuFsEqM/8IVfuFMAoF/fVCDxBNPE1A67gZh/6kO4rWaH2Suos3FeRf6+OYVedn9Hqicq39NAOFP4I0zgitBSOzZVe/o7/fNOpjtdyt4CxjJ5lCv6/G/aWNjMwVuQc18+v7/JApomW9DjjK0uv+fL8CuoeU7iPWzfMRzntPK/RZyv1UKySzK3AZdQthnJ/C6Vcn4yLU9VxTKQLMAdV5/DcWnOjsDI7kZlObVTivOeXT8kx4l8GKYQdun2sN/25q+SqegaNYmH896LzYIfCJoWT206YbREtl2hfDc4DdH7411iZb1AMQ1WegEINeN8EORGC8q9GpaPQzmvhBfxZ6RqsSkvYHGVcceN6u4+7jUmWZVybRr+BQbeRVyNBsWYom/alMzWdw7N5LL72rHta3uLCJrnmtd6oUIJg/w6RqWlw4qVLpbh49fZax2V3veWdvC5eopxG8C418RmPLQ4QykyGIU4DRJcv4qwVjlrTiexjbwI49ZJwdiMnFBnT+k6Awil2tCTRRakJ/C1gDq18sttd4nSS12upPXTBPMcldPytvemgaUUokSrH9l7bCs9JzbticiF523aNGK87m1Z2aM4hA+6izu5Na0XZEgvVUglvxwm5fkta7nBjdvfmtsxVVui5SAF2HHbAB2pBazdJtNuSkpicJGQ1YA5rpS/3HKxPJz5sod/+45XxzNdq29f8BNvLXCXqimgG2lnljF8ho6G0gJPnbJF4GYn9apu71jO6+ZKxp3SYDDvfw80G6NDxoEB34D7A+2F23bVB7F6eiukpX+Jf8P2xKCYobX7GKge3cS21HPQWpmp1akYtfJBa4HYH1uOSsCv7es9GFuMkdEQUS2p0qzmAbZagyzx35ZkrQEXjWYy1fCQkoqbJ5nnbjnLqfc1liuh3VGv1FI8nKUFmasnBkZ2HLtpTIXyLbUnC+FhTljiSSXiADoROR0BgWZFzQNbVToSUOaS3HMlXUny1Vm7jRvsSVPAfa6OjWnkGwc4WzeneZJIkB4oH/72/6gE7dKza7ESHojQH9CYs9Gk0E2aP8MO6se7VRqP8+m7YzhPPPa/S7A6ZC0dF51QLhE7l9pX0FmFNbyTAe3YuivJhl5BCzWZfffCRnrkMIjKUOU4GZz6O/GglINZL+nje5Mxri6gddIGU0xXPNphiII3uA7GG5RDOeolmr2GeX4giFPc24Qh76wRqunlz/pan3h7PrX9q0ZewTLtzxNlIdbLZ6crM4XT/NX7CA/IWbrpAc1tbnNv55knOOAETgUD2ugsHsbuBjIccEkwttIjAFfilbpakRF+rnSDAhDWwCXaVto1XLStzcS1dDpbVdoS0AzsXwxAiKJTMPTn/Q1Ni/FzALObm9vMHSIfcpOi/ow21RMM5by3g3L8osTfV6JWIsJv0Xb3ibLyzLE8DxJTCM993kqMeuEuI2qOn1irpli4OBP/SX29AiryymH/v4B+FQwVMsDbRBwHZiWqlNuUsQygv6FDki/Ce5MLf5HenT5GWscxkaQrWqGXEAP5obheuTkLWGZkGKPoCHB6FxwHA6CTK/PETH2W2NkIq9NtHDnK7VEWRKc82msy0wmuKoOGEdyScbcU0sv7tFySV0zIHxrtCX7wNCc/W8IKfI0WpIhB9xPP0jGp2JCmVzd8wSydk+lJL14fH6e1/BXAba3LCHxeCfeR/eHMMlUPcEmlljJ4ugMVbnin5YGYM8exHpkUPl4yG5G336fKvu7hnq5Hkrl3nzg0oMj6UvKqDQnBlcGepukOvucH8fIGZAbiikpvkQBvBV3YLjFoR6rPKuiwufEFmnMJew30go2eGSKhXkyYvk9KbLoSlH7nOZsZdNxmhIq0yjfR5Mfg2u7Anc/06+k704rnJTzRjiEBZ9O3nrusRRnM0EDBHs5tyk0pWztKBXgL8qkWVwrqdiECisMkl0drHrmku+ez3LxBVre3ZSegW7ON3RxEGtbr44/ifq3W/CL1/58T0FEoCtZGr4S4Sjl2jl1OF8ohWtrtdnm6QUFmBdi25SsyaLimygmTU85Hm2Wv++EAhaNDxoECG4D7AxolOa0FFDRg0O+y7mOemSDxbV3EQpY2RKpGBb+UTB9vbqiB5H067p7Dun8o+7YqgLmHlK6GlevsZOunOPQfdRydK6ALtpPzGQqvd7LCk3dISuGTRLKBRD1VV8mYLD+ECYE5eM3+l30lvd3EodcNg9wXBlQKNOWkiqITKEfpfZMK3M4qJFZt97JDzV1Vzvp0eKfvpD+qQEjdUIundyq3VrlBxlBQl/uK0JPlP+sEqClgBl67JwEza6E+gFZLQyiJcVrwngRjGeohtctcHQQkeSK4uLL2VgJ/BCV0KVayQB0oHBZs+axcbXmsv/9iHKLMs9vd/uIFg5V9vy/OGBVets9UnyfJdma4kGuwVXsLLECSOonFAmO2Q/HIe2NomtXmAoUk7EfBaG34RWsfdWf5OUuuRZesAxKdhaXRYZpdFio08Ag0ys6ipyWnNovPF1FjWRf6Ez0nD/I24jOCcf41JfRhY1sJQ/3+y4T2j4oSqKNsX0DaNnlklCFbIPjTSi53X2H43EUG7nyHdC8edWt8Yn/OtqHs4Z5a8osSk6eO7ktVfif9pvj4uuMG1BzjHqjhtmVdSPCx6APRCJdrhsEB5DwfBWyd/HWpd/ySqAxIBDTzagxNa54gQjGOejfXsS7TZLdgJv8FMcEUbp39W30/Hn0ZU6c6BLfC9gjYMxsJEtexM/vNoJqCUQRhFnWH2W1cQt/jT2w5Ppz1p+OrOM0+h4rXX9nPqJMk1KWDpYyK9VIua8TvKdN5Z6OYjq06HcBI6miv3YeVcNlCkNtgHB7ZJmsmBHyXqRg9mtiSovNx2rIEeTlApoUi7tSArVBpjWLdCJ3ZQecSC2a6UMtspi5bgg3tkrmrB0ViKMJMIADa/p/PErxR6zmKQK3rtBItTOmEXzS9R6GXx2AFFkVjM2F4v5g9llWzEY91wotZBBhY6WAKSpl24Mh0Rwh2dsMBr7W3ZVDbCYPGPruHbzQbZimmmLjH9GAQQk/u3hKeuycq0flu5zkPdPpBuHRypEcOGPvJP1OydeW6zwmCr2OgAYSHBTnCOQ22B+MpALTBjUpJ7dML8YenZG2nE5hw/Dk7+ossZQGj9UA4AUhLB/d9jCMnMurSe2ZHQzqN3WNtBqFd8WmYK8HErgE0lpf4+6VM8kO2hA0K9tA0hMN7lNW7qJp+5g7PhhwOMV4D+10FUSffKBaaW/uQpnP6mbWp5bxuwHBR4diJbxBA4wrEjtWW4B6JnfVE81FBfMAB7834IcNtk0MAUL7zcuOxz4Bi4/LLG7oCOaNEaoECV4D7g/5C/gxwAxpTPR+c8wC+9Py6d86sJ+g+oW+G7vJ6cKXnd2hHAkEjdbcmZpnrTC1//SnuwK9OmOU0are4tYuH/1ej1OtOph2jSZ5/amt3q1lJkEjEV9zrpCflRPzq6Hi6BUUk10SIvyVIAb3A/kGVadVnFmHhSb/WtLwWL/MLvQe2achOAm5s9YKoj/9tZJMTF+JbOjho8c3G6VFzoACwAZOnlsK5H4PjiGcaUgOJ5FXtt5lYmFdejV5euXGYyjqP+KItzsZC1l6hl6sboYaw2K9Ap20JCbSAT5dmM8XKYy1tbvd1n+tq/GcIaI5bKMar0M/wgnPfJGCQNVzFFPtSiYI+3VjMb3ZF6t2WS1wazAWoxulBIbvbl2gPXUMdJanOfqPUpFwhO9WBvZi6yyiTli+/XqtHk8MV1JJ6e3uAeCRLIKajjh1sJKgEXiO+O8Lbqw+TgSCyJAmOxpz/0XnTR9noWRnmfHAhPJSaQq0gQfLDRP/JViN9qzyO4opGoSEbXkSuUXaZg6zGc6ga9KOKKcIVYaAmojklECnSE28hSTrLNoyr3nN6Dg2d1xoKAYBRhaEFBVm88h7PMrPew4rGpWLT9EdpQ+Q3NvRfdBmwZwkLAOKPLXZ+wKTvf/zTAyu7zxV99I7rc0+zy2O46hGfM5a1LOPsxGcx2GSA3cNjCt4fRAI9ceV75TkTRVG5Ibmw4XVWHnhxyAnFW73oQtoyOQ3NDcALI0LEGQQex739QkgyRQW3b5PLoh6LacWFQRidooFfWnLyHZd9O47ozMWv9SoJGFwh4cP3izTcQxDMugN0f93XY8LXB7d00hyQGDrdt0aq728ReNEPVg0lTzgIU4iX3egd6caOr2IM9u5eOxxHsviIorv/w4nTvs5PlmPQ3RqxtgpW5fCFb6fgbNCDA+v6P8mPhbfk4jQNDVOKSwB1d1ISsdOpTZlJNhbWarqFfNA+TziVVXZTO4m4+lzIzyLURxQbPlQoP6DbyA/SOMmGHduHyXP6w1cOmMvfyDBjT8xMW1l1QcGc5dJYxSYLA0TFKfuwYa36+gj8K5fmPBHS67WUa7T/ZZmOU1tzMwwkb9HrTIy3mhyVPyFuwexU1lgxT2nHHmuIGQEmgRYLXBlK8cV+GMcjyaYSFNsL4fGUQgUHflQcJJrbAbsuOVS8m3VPELTC3B3B39Q+Ad/SmnqvTLU5HozqtiEXlHV7RbSJUtfsLcUEp0it0xK0bkXfwU8RKHqs7K3wAGsmHO2Vr8J3Ufca9ajZXQPjw+CNiTfnRMMYuBZQJcMjrETn3iwHSqlwfkU2THWCen34loP9h+HhBMM2svvy105+7m0Yy1e/hYbWBhD+el9RVez0Uzvkaik9O83mbSDtfh95AlVJoGJVxeu9D5lGWJIT1hsynPU1S4yUtaPh1FBGOqU86HrnMplUb3evsFEFXbTmYHhyGOU365tNQVlmD+rvqLknq6kVkRD7pBES8zn4jr5tDL8QdR2eS1x3","2"
"","","","","","html-button-response","6","9238","0.0-4.0-2.0","QZZ1ZED8462CA34E3992DBC1F4207A32D4","QZZ1ZED8462CA34E3992DBC1F4207A32D4","12354354364363","mgchgfjhgfjcj","{""participantId"":""QZZ1ZED8462CA34E3992DBC1F4207A32D4"",""assignmentId"":""12354354364363"",""projectId"":""mgchgfjhgfjcj"",""fast_test"":""1"",""num_seqs"":""0""}","https://test12345.live/?participantId=QZZ1ZED8462CA34E3992DBC1F4207A32D4&assignmentId=12354354364363&projectId=mgchgfjhgfjcj&fast_test=1&num_seqs=0","[]","QZZ1ZED8462CA34E3992DBC1F4207A32D4-2024-09-21-17-01-44","","599","","<p style=""font-size:48px; color:red;"">Is Microphone OK?</p>","1",""
"","","","","","instructions","7","10802","0.0-5.0","QZZ1ZED8462CA34E3992DBC1F4207A32D4","QZZ1ZED8462CA34E3992DBC1F4207A32D4","12354354364363","mgchgfjhgfjcj","{""participantId"":""QZZ1ZED8462CA34E3992DBC1F4207A32D4"",""assignmentId"":""12354354364363"",""projectId"":""mgchgfjhgfjcj"",""fast_test"":""1"",""num_seqs"":""0""}","https://test12345.live/?participantId=QZZ1ZED8462CA34E3992DBC1F4207A32D4&assignmentId=12354354364363&projectId=mgchgfjhgfjcj&fast_test=1&num_seqs=0","[]","QZZ1ZED8462CA34E3992DBC1F4207A32D4-2024-09-21-17-01-44","[{""page_index"":0,""viewing_time"":831},{""page_index"":1,""viewing_time"":732}]","1563","","","",""
"","","","","","image-button-response","8","12309","0.0-6.0-0.0","QZZ1ZED8462CA34E3992DBC1F4207A32D4","QZZ1ZED8462CA34E3992DBC1F4207A32D4","12354354364363","mgchgfjhgfjcj","{""participantId"":""QZZ1ZED8462CA34E3992DBC1F4207A32D4"",""assignmentId"":""12354354364363"",""projectId"":""mgchgfjhgfjcj"",""fast_test"":""1"",""num_seqs"":""0""}","https://test12345.live/?participantId=QZZ1ZED8462CA34E3992DBC1F4207A32D4&assignmentId=12354354364363&projectId=mgchgfjhgfjcj&fast_test=1&num_seqs=0","[]","QZZ1ZED8462CA34E3992DBC1F4207A32D4-2024-09-21-17-01-44","","null","","images/instructions/movie_0.png","null",""
"","","","","","image-button-response","9","12500","0.0-6.0-1.0-0.0","QZZ1ZED8462CA34E3992DBC1F4207A32D4","QZZ1ZED8462CA34E3992DBC1F4207A32D4","12354354364363","mgchgfjhgfjcj","{""participantId"":""QZZ1ZED8462CA34E3992DBC1F4207A32D4"",""assignmentId"":""12354354364363"",""projectId"":""mgchgfjhgfjcj"",""fast_test"":""1"",""num_seqs"":""0""}","https://test12345.live/?participantId=QZZ1ZED8462CA34E3992DBC1F4207A32D4&assignmentId=12354354364363&projectId=mgchgfjhgfjcj&fast_test=1&num_seqs=0","[]","QZZ1ZED8462CA34E3992DBC1F4207A32D4-2024-09-21-17-01-44","","null","","images/instructions/movie_1.png","null",""
"","","","","","image-button-response","10","12698","0.0-6.0-1.0-1.0","QZZ1ZED8462CA34E3992DBC1F4207A32D4","QZZ1ZED8462CA34E3992DBC1F4207A32D4","12354354364363","mgchgfjhgfjcj","{""participantId"":""QZZ1ZED8462CA34E3992DBC1F4207A32D4"",""assignmentId"":""12354354364363"",""projectId"":""mgchgfjhgfjcj"",""fast_test"":""1"",""num_seqs"":""0""}","https://test12345.live/?participantId=QZZ1ZED8462CA34E3992DBC1F4207A32D4&assignmentId=12354354364363&projectId=mgchgfjhgfjcj&fast_test=1&num_seqs=0","[]","QZZ1ZED8462CA34E3992DBC1F4207A32D4-2024-09-21-17-01-44","","null","","images/instructions/movie_1.png","null",""
"","","","","","image-button-response","11","12884","0.0-6.0-1.0-2.0","QZZ1ZED8462CA34E3992DBC1F4207A32D4","QZZ1ZED8462CA34E3992DBC1F4207A32D4","12354354364363","mgchgfjhgfjcj","{""participantId"":""QZZ1ZED8462CA34E3992DBC1F4207A32D4"",""assignmentId"":""12354354364363"",""projectId"":""mgchgfjhgfjcj"",""fast_test"":""1"",""num_seqs"":""0""}","https://test12345.live/?participantId=QZZ1ZED8462CA34E3992DBC1F4207A32D4&assignmentId=12354354364363&projectId=mgchgfjhgfjcj&fast_test=1&num_seqs=0","[]","QZZ1ZED8462CA34E3992DBC1F4207A32D4-2024-09-21-17-01-44","","null","","[]","null",""
"","","","","","image-button-response","12","13074","0.0-6.0-1.0-0.1","QZZ1ZED8462CA34E3992DBC1F4207A32D4","QZZ1ZED8462CA34E3992DBC1F4207A32D4","12354354364363","mgchgfjhgfjcj","{""participantId"":""QZZ1ZED8462CA34E3992DBC1F4207A32D4"",""assignmentId"":""12354354364363"",""projectId"":""mgchgfjhgfjcj"",""fast_test"":""1"",""num_seqs"":""0""}","https://test12345.live/?participantId=QZZ1ZED8462CA34E3992DBC1F4207A32D4&assignmentId=12354354364363&projectId=mgchgfjhgfjcj&fast_test=1&num_seqs=0","[]","QZZ1ZED8462CA34E3992DBC1F4207A32D4-2024-09-21-17-01-44","","null","","images/instructions/movie_2.png","null",""
"","","","","","image-button-response","13","13266","0.0-6.0-1.0-1.1","QZZ1ZED8462CA34E3992DBC1F4207A32D4","QZZ1ZED8462CA34E3992DBC1F4207A32D4","12354354364363","mgchgfjhgfjcj","{""participantId"":""QZZ1ZED8462CA34E3992DBC1F4207A32D4"",""assignmentId"":""12354354364363"",""projectId"":""mgchgfjhgfjcj"",""fast_test"":""1"",""num_seqs"":""0""}","https://test12345.live/?participantId=QZZ1ZED8462CA34E3992DBC1F4207A32D4&assignmentId=12354354364363&projectId=mgchgfjhgfjcj&fast_test=1&num_seqs=0","[]","QZZ1ZED8462CA34E3992DBC1F4207A32D4-2024-09-21-17-01-44","","null","","images/instructions/movie_2.png","null",""
"","","","","","image-button-response","14","13450","0.0-6.0-1.0-2.1","QZZ1ZED8462CA34E3992DBC1F4207A32D4","QZZ1ZED8462CA34E3992DBC1F4207A32D4","12354354364363","mgchgfjhgfjcj","{""participantId"":""QZZ1ZED8462CA34E3992DBC1F4207A32D4"",""assignmentId"":""12354354364363"",""projectId"":""mgchgfjhgfjcj"",""fast_test"":""1"",""num_seqs"":""0""}","https://test12345.live/?participantId=QZZ1ZED8462CA34E3992DBC1F4207A32D4&assignmentId=12354354364363&projectId=mgchgfjhgfjcj&fast_test=1&num_seqs=0","[]","QZZ1ZED8462CA34E3992DBC1F4207A32D4-2024-09-21-17-01-44","","null","","[]","null",""
"","","","","","image-button-response","15","13634","0.0-6.0-1.0-0.2","QZZ1ZED8462CA34E3992DBC1F4207A32D4","QZZ1ZED8462CA34E3992DBC1F4207A32D4","12354354364363","mgchgfjhgfjcj","{""participantId"":""QZZ1ZED8462CA34E3992DBC1F4207A32D4"",""assignmentId"":""12354354364363"",""projectId"":""mgchgfjhgfjcj"",""fast_test"":""1"",""num_seqs"":""0""}","https://test12345.live/?participantId=QZZ1ZED8462CA34E3992DBC1F4207A32D4&assignmentId=12354354364363&projectId=mgchgfjhgfjcj&fast_test=1&num_seqs=0","[]","QZZ1ZED8462CA34E3992DBC1F4207A32D4-2024-09-21-17-01-44","","null","","images/instructions/movie_3.png","null",""
"","","","","","image-button-response","16","13819","0.0-6.0-1.0-1.2","QZZ1ZED8462CA34E3992DBC1F4207A32D4","QZZ1ZED8462CA34E3992DBC1F4207A32D4","12354354364363","mgchgfjhgfjcj","{""participantId"":""QZZ1ZED8462CA34E3992DBC1F4207A32D4"",""assignmentId"":""12354354364363"",""projectId"":""mgchgfjhgfjcj"",""fast_test"":""1"",""num_seqs"":""0""}","https://test12345.live/?participantId=QZZ1ZED8462CA34E3992DBC1F4207A32D4&assignmentId=12354354364363&projectId=mgchgfjhgfjcj&fast_test=1&num_seqs=0","[]","QZZ1ZED8462CA34E3992DBC1F4207A32D4-2024-09-21-17-01-44","","null","","images/instructions/movie_3.png","null",""
"","","","","","image-button-response","17","14012","0.0-6.0-1.0-2.2","QZZ1ZED8462CA34E3992DBC1F4207A32D4","QZZ1ZED8462CA34E3992DBC1F4207A32D4","12354354364363","mgchgfjhgfjcj","{""participantId"":""QZZ1ZED8462CA34E3992DBC1F4207A32D4"",""assignmentId"":""12354354364363"",""projectId"":""mgchgfjhgfjcj"",""fast_test"":""1"",""num_seqs"":""0""}","https://test12345.live/?participantId=QZZ1ZED8462CA34E3992DBC1F4207A32D4&assignmentId=12354354364363&projectId=mgchgfjhgfjcj&fast_test=1&num_seqs=0","[]","QZZ1ZED8462CA34E3992DBC1F4207A32D4-2024-09-21-17-01-44","","null","","[]","null",""
"","","","","","image-button-response","18","14200","0.0-6.0-1.0-0.3","QZZ1ZED8462CA34E3992DBC1F4207A32D4","QZZ1ZED8462CA34E3992DBC1F4207A32D4","12354354364363","mgchgfjhgfjcj","{""participantId"":""QZZ1ZED8462CA34E3992DBC1F4207A32D4"",""assignmentId"":""12354354364363"",""projectId"":""mgchgfjhgfjcj"",""fast_test"":""1"",""num_seqs"":""0""}","https://test12345.live/?participantId=QZZ1ZED8462CA34E3992DBC1F4207A32D4&assignmentId=12354354364363&projectId=mgchgfjhgfjcj&fast_test=1&num_seqs=0","[]","QZZ1ZED8462CA34E3992DBC1F4207A32D4-2024-09-21-17-01-44","","null","","images/instructions/movie_4.png","null",""
"","","","","","image-button-response","19","14385","0.0-6.0-1.0-1.3","QZZ1ZED8462CA34E3992DBC1F4207A32D4","QZZ1ZED8462CA34E3992DBC1F4207A32D4","12354354364363","mgchgfjhgfjcj","{""participantId"":""QZZ1ZED8462CA34E3992DBC1F4207A32D4"",""assignmentId"":""12354354364363"",""projectId"":""mgchgfjhgfjcj"",""fast_test"":""1"",""num_seqs"":""0""}","https://test12345.live/?participantId=QZZ1ZED8462CA34E3992DBC1F4207A32D4&assignmentId=12354354364363&projectId=mgchgfjhgfjcj&fast_test=1&num_seqs=0","[]","QZZ1ZED8462CA34E3992DBC1F4207A32D4-2024-09-21-17-01-44","","null","","images/instructions/movie_4.png","null",""
"","","","","","image-button-response","20","14572","0.0-6.0-1.0-2.3","QZZ1ZED8462CA34E3992DBC1F4207A32D4","QZZ1ZED8462CA34E3992DBC1F4207A32D4","12354354364363","mgchgfjhgfjcj","{""participantId"":""QZZ1ZED8462CA34E3992DBC1F4207A32D4"",""assignmentId"":""12354354364363"",""projectId"":""mgchgfjhgfjcj"",""fast_test"":""1"",""num_seqs"":""0""}","https://test12345.live/?participantId=QZZ1ZED8462CA34E3992DBC1F4207A32D4&assignmentId=12354354364363&projectId=mgchgfjhgfjcj&fast_test=1&num_seqs=0","[]","QZZ1ZED8462CA34E3992DBC1F4207A32D4-2024-09-21-17-01-44","","null","","[]","null",""
"","","","","","instructions","21","16324","0.0-7.0","QZZ1ZED8462CA34E3992DBC1F4207A32D4","QZZ1ZED8462CA34E3992DBC1F4207A32D4","12354354364363","mgchgfjhgfjcj","{""participantId"":""QZZ1ZED8462CA34E3992DBC1F4207A32D4"",""assignmentId"":""12354354364363"",""projectId"":""mgchgfjhgfjcj"",""fast_test"":""1"",""num_seqs"":""0""}","https://test12345.live/?participantId=QZZ1ZED8462CA34E3992DBC1F4207A32D4&assignmentId=12354354364363&projectId=mgchgfjhgfjcj&fast_test=1&num_seqs=0","[]","QZZ1ZED8462CA34E3992DBC1F4207A32D4-2024-09-21-17-01-44","[{""page_index"":0,""viewing_time"":912},{""page_index"":1,""viewing_time"":839}]","1752","","","",""
"","","","","","html-audio-response","22","17881","0.0-8.0","QZZ1ZED8462CA34E3992DBC1F4207A32D4","QZZ1ZED8462CA34E3992DBC1F4207A32D4","12354354364363","mgchgfjhgfjcj","{""participantId"":""QZZ1ZED8462CA34E3992DBC1F4207A32D4"",""assignmentId"":""12354354364363"",""projectId"":""mgchgfjhgfjcj"",""fast_test"":""1"",""num_seqs"":""0""}","https://test12345.live/?participantId=QZZ1ZED8462CA34E3992DBC1F4207A32D4&assignmentId=12354354364363&projectId=mgchgfjhgfjcj&fast_test=1&num_seqs=0","[]","QZZ1ZED8462CA34E3992DBC1F4207A32D4-2024-09-21-17-01-44","","731","","[""<span style=\""color: red; font-size: 24px\""> NOW RECORDING</span><p>Please say out loud all the images you saw, as many as you can remember. The images can be said in any order.</p>""]","GkXfo59ChoEBQveBAULygQRC84EIQoKEd2VibUKHgQRChYECGFOAZwH/////////FUmpZpkq17GDD0JATYCGQ2hyb21lV0GGQ2hyb21lFlSua7+uvdeBAXPFh6LxFB7IBdiDgQKGhkFfT1BVU2Oik09wdXNIZWFkAQEAAIC7AAAAAADhjbWERzuAAJ+BAWJkgSAfQ7Z1Af/////////ngQCjRDuBAACA+4P8N/0KfsqwqtQH7fpbConPco5RSjU2XEgKWt0lXUGS2Qxl91sjtRFvYFZ2CG9RYfxS89VSs+3E6hXe+FwTys0MqrPYIsZEJszXSrQX/iSaErsoNaIcp0tk/bpCyqCuUyU7mOieuzUKRUkCB3ww0VzrNkZpktiLdLGOeZGCh3Kfz35W+pfM8Eu+UMjleDgW2uRraBF2jajE1WrAfhmkmeeHhKBFqb/tIpPEJs+VVbL4cLNvq/1gA5qvQYjbIRr3ySjhercUnDOgeAqDTXxn42ifI5IadilkAJTtN1I7Vmzz+M8AAAAAAAAMnQndMTj1HkTEMaygLu+7O0OdABdkzg4eBW7An874oQlDccs4j1fEf2pGCEUORCwRQrP9abWHce9cCqFQcRlDjYitn+OThcAIqHL52jBdgipTjCLyeJH0/9umgXTHl3JiyU7KYlZYfVivRZ/pC/tbk2JyjiC8FodQ0lI0FxBlrDFBCDX3jh6gopxnP2q484CQ6ALSJ0j6LgCIalSlvLWJfiqEjxwCyydaWJmPrL25EtV0ffK4dtA4bXOzm+syGG01miIbMj09TDrNoqEO6mlzS79uA+5SgLDEnEETY/gd/psI59PXx6kod8Iwxprqx8NnA6I2WD+D01yPY4iYlQChzzwvWnFGkYIE64dQA1TcszlME96EiQ2AJLMppe5psCzNff9hKGJlpGxNSYq0/F4lyF1TdNHMNaYqqzKW94wm8IFpZRjiiAo9KsPGqcrXCl5g/+fkD7u0V7wK2VjEpEJc5fVEUwzcBwLBnXqozXtRDWRzMBlqW+Zs883ZK2fODPXU/W1mVevSKPXeRZd9MUQsF63Do8AZ4De5vXAzQUrXbZCY8AINkHaHdYNO/pmE+dC7vp29zn9qtCq3aHoftd4GE6QRbuq7t+8EFFhuZM+JAlYbMFRRXzaHCm/zz9/wI5OGGefA8WnNI3ltR6V+noboB6vzIyuVkCYSUxurtmFrmGCS3UvASDjEqAgFp04cdjo5eH9rfie5ScTBPzQyK+MV0PpfLz9BvjW7Dtj5vchPHo9+OM+IoWizYHz03m9Q9te4frq/bcop6eT0uZ9w42fpNrFUWVxfQO1VVg2l7iyZXEFFMR68sKROnHqjXxcepvv/oyTLsWIfLD+l5zO/V2VatIbu2i98Nj6ZtYtte5GZmWJ8zPIxTbU7kzVlbJ9BOQuI8a7hxHTAxgTr32jyu35LOOKzhOpo4zNEpSSgSFUmYq9Im4f0EG/XGMg11KFTFsEa2eX//a9pfv78ExQm/IyzdYxiQ00lFgtcC4Ah9QzRF9F0nl6niyPwA5GH9SG7BUu4cczQkJ61/0HHq21z/9HoNoCrqkGpCFlxCa6mKQwOkQf0KCpDN9pYYCS84XUqRdhfsPH6AQ3yb6s2qDGOSlvHaENji2lMDXTfkP/Aw66jQ32BADuA+4P9Cv0KP8o8woETjMUVFtmw+RzRlUpo8slpLCHcidJ3S90RFxdSyWtCMaDs6p0VsRBIrl4j7830XtPAG0jJJspHdOnbt5sdU6BKjCywHSGNbf0NvwQRzGNI5vXJp5J5bGiXg5TSvmdQirpCKqKXr8tKn9+ZDXgOX/I+kr2TQciF4WdDkyL9e5d6LlJz18tWiyRb433gMKK8N9SjO94tpsMu/CP2HAe4fp4j8iK9mSet2HwxBVSAXdmwdvf/QDrqxGxHbhpMQaytIlDMka9qQfVyjxQ5BoGApIlSdQO2THtB4/1FugAjAmLZ+ohvLQ0Rjb3A8xtvMU2WEqYMF289GZ+OF1SdQOqfcIzoP3+v0bESBFBmA9oQK+EqQHxt0nJMhNZw3dsy+b461ok/q+XBgHyjvCgsJ3JXOwDs3WcpqqAw+EMTBjZzM8IQbdFelmIHbdy+J06CCekQ8301Pxg/s0LuRkbrtaS9rhakHUzdbQcV9pHHOcNyRPnhqpFsFymvVRDsZQTmMcrrzzgiqKZhbaE5TxmkW6vUk8PwMVUX9lOlq2MV9S+gDqJsgWPNgC5Sc2/5/xvTyZrE8OUnqkTnuroRbziDFRnNNIKVyV1rO0FyF1jVfCVtqE1q0c87DW4fnB3Ieuj8ccZ+RXgLSUGC8sV3Fl4FEF7Qe+6zqZ7RnUgLfcm10GuMCIptNrf5zCaGnFxmh411gydTXiDSowpSV6BAKSPxvJePJnB/fL0mSYKogu9caYNzSgJsXHXVIZB6D0dIWECRk4pkUck1iC9Upe++M12YhjBr8fF7Aspj/i/NgXG3xAQD+QmtzxbNSvqyc3Un+b9pH4TLDEuwvLuYjfXFhmEw7hxn5fYS1A6cXEO2yqWfEjkca+np83rbYHdpE2nhff6TPW6xctv6SYC07E46NSrAfafZ3EpBWtPoLAZ7NztHpa1IWT1wmzOqKvW1sx+RD6XJ02s4CfURKdBR3eAe8epLO+Y3KHERNutTwETTomLnOBaeodeEe3nMHHyMOKqF2hFzK8gd2Jq+DfbXRBAi/04MgZdOCAGySkRgSNCLt1yIijXcHmHRoC0uNEK14wYRY/yAU67ka3jShWB0p8dQ93GHl3eDNtY4cM+gGip3FG5ogOKEKdyHhXtfMEYlS/KPnsxXEx/cysT00F9FmGcwJ5qGh/5yMqNDpoEAd4D7g/wL/A483RqEKAlWv/cXls3HzdzR5c+EC+4yr0dscf7fRtwu/9cZonlYT8CbGb5zMkCb885HpZNSVqW0OQYetDlG4uGLLdYpIZqlib7OV+ioVDgeH/l96aNTAMdDFhyyD07pGL6ygUm05W7yC+e6oFHBojim0U5Lc/XOzdnL3X/Bt42wZljBMRVVKJhdUQi2IxQbUZeXzxyy/KpiexzxaDGxOuLnyo07wABSgdyfL0ql/2dC2AmnAymMp/nImV2nSSF75duNL7OKK2RswlGZGVBlEzacPaJ3iCwZmOgJjl90/eKzS5irJIDDTqIJZCqy7TRBqrPHOwu7/CLPsuz4R+6pC2476gKhHY0veZxr7oburhLqusttop98MmJ7WIl2eKABPHQ3OD5DfJpkxkP/7bVyG6WHdwD42hNolym0y3ht14ArWTyHIYNOtL2h8deHyFJ8VyEfH5nyAMgojPUHOgh+Lm4MxzsIS/xcumhD8sTnXXRqQPMTdLVK2Es08N+wRJc3FjgdsKtUKPi15RlPWSs3L3ald59pacWc2IrzB1Kjte4HomQTeCHM9el0XKRhjjCgkwLAlNzbCLm2AJ6Ca5tOAtfY+BdC3Szm1Nd89SFlA0myn7Zua0UQ6ZSUwIO0K1WVKwyENsCM0tPhT1IcU/ispPDroMRKvEr2KkoTWd4wGrKMyhinf9p5PNJMFWdtsfLM7J+Iw+RVdYaLzOh3HR8Fl09ZriK1pwWiH7gMsEBSQU5fzz2VEiytX2vYAWpxYwLkTrB4Qqx8r3Ei67HZIF4MF1m8o4WlxCag6WAqfB3GGnumyfGBj9wdP8zkDZbbhCEo/G+ReoqLtW+GSdoRDZl4dRbkuGoUYMkvVgGwnIrrDVGqsyK3Wi6zm8EZKq/WtysiS2sd50s7/OQnaQUnu9yxlw89uZunDRMAPBnycxbU0strDkSM73ouxO6oIxpJf810VRlH4Sai3IQ8LEqcjyX+bPtfb1nPYbf/ZXg8NhRgC4yrrINMYBZSy2H0qPXa3RzhH6LKs1dG9vMTIZsuu/kGW/8SNxnfC2GYONmrE2s4wkp9soBepWCw8yQ2/+YE0fnVWHrXm/WywioISUXRf3wJY1s7JzqlJwnKYR3trO20fjBufeKzzAjFBqEkJU1seSJlOKaPYpwbI5TXwb8YU7lLFAD3+3Rxv4lhb2kF/2EER9biWl/IyG0TYtVEP29er5gZOzuuFFwTwDzlWXOdlNqjQ8aBALSA+wM/MXB5AXOwZ8ztoU5x5YV0hu0stGvIKT/bIngNDZ8IQx0Ft4wbG1Ka6xrKAOT16ef2VGoQ9gDMHnjZFScxHypMuyLnGDNCiNpGKPQzSLXmrmSgpuWN9SxCkVAXmPI9nol/bFhxY8LybypxrVXtq+SnRV4cao6e4j4qQLDzBB1SMMHJpsOlYFSVQw9vjQMYnnMGClz3aV5e3oXQb34+0Lxp0mJpgiGX6EIBhhhMt1A5cYE1bzhJU9rGggpfE/9yTbyBkMiRV0l6lm3Le4kmWWiE6KAQVoSWsEUJZJccAIdFdnn/BRU/oqAdi9Y2Npw1zyZCQcJ6+KdUlUTvn0CraIQnMDunbZkx+8W1LQoSAOwa7O9ZWPlt5Y2V4huDogsoCHHbnE30Jb3Tjf6gN31XeZKkC6DVpazqh+sBv2zu4h+5tJdzJ+Sk89OwMA1OYBsfMoeERRn4zpf8dPILTCs812IJ4Uyvnt7zZEaKrtAO9LWL3G6BSYKxAtuY0ZGwkIy14vsgRsXR61SzFQS5J9QML5skuZraSa6w4AhSxFuB7AIeYVtPlv/gU+EIYQrG0VtEpk4WKrCSYXyXbG8HZ1LAV7d8IHfQKzTPhJW+IeOH70LMtKHUEoLPyfNM76uC0KezCanoj7YqKZBl20c8GgjGGh9jcac4NCF+vn8GzgWzxsf4lku8xww8tx/gZioi3p9tZUs4UF9Y4X+0BJziXvIjLRE/9DScty+zvOCDzhlQxFknXPP+W6ckhSlJ2IIIql6PluaKj+hB78gXKMpKnVTJa7GHrRogWL2vZVAhG4HmojknGX6wKiyOyXNZxamUr1Aydwv9Z3zhkeQDVoOi2GOJBgo7PyCoWIg6rVDGKZ+tevUtI3ZM+JIZax31pTrE9hngiLd5i2hTGeU8qmtWT9ppvVBzeVqqeKcsb9iJB77v87XJZ2sSLGd1kXFxQoiStOibJx/kKxJblwyoHlY23HqciwTTdwzonOUdQbJFQ5sSZClq3DObYlHVH1w1ShNNA2GgOmqUuZqFvWYsB3Ob2i3nI61hTJ6jbPjTGUxvDtT1zs/6sulgtIYZdC5Aek/kzQFVl1bKLCwB8RsHnvhT1vrfJZWnAODvhEmby0IVf/03sbgGAVBuJUby0VPiI2S7b4Tn/fgRacOr/dmX9Q2TbyqR3p5apxu0K+6KIAgWycXTONVFw+a7frf28Xs69uhuHjk5hHMBCuNAmL0XqGroKME7vQ7M8iC1U+2eQ8DigLYJaEuAEnmQATWurG0oDf3xVYMmXF2jQ8aBAO+A+wM/VTkuRBIjDLk323YyviM4AK8yQ0EX4Z2D6qfGzBWQGl6bZLc8umC1kg3XToFRhF00veqp/zVXdLxWvL09oj4aYQJo8bXGD6kgn0S02oV3TXZDjh7qDPnQreQwsTQlVHakBzEmXILdlKzQTd4d4iv6vzUQQ+me6r35nuPtdnHYEhQNGiOigOSiWz3X4K+5rWz1n9+HaCPVJG5RUNjK272A1EhNXALGWoDBhkgcJQ0w3srtl6fQaofJaOw0w65saN6qe3jR1iyLPg/UpJqDRqR9PUPs/MgoXj1yTVT/isy3zCUAUGSE410UrZW0nnNXlKR9uZ0YRFJkeUiUVYlxrBWlUvjN1pGZvjzMOl3VOTaJpVzTFXZ5yfWqfl3Njy0qq4yib27wXUVA8SoeqdSUvKfOdvL7coV5nampkKLO03X6sxqzJ7/ws5tangBkeUEhpKqtz+0PSX7R6QVCbQvpx/s2lfHo2PJ9WIszWOQFZnJijX1c9AidxozjcMNUh3BbrmYQeb28y9u6OkT0Qt1mAt4jpfOgdHLp9UufFUTOelBPIkeabIwMGKXEbOOh7eDmWBpjTRnkd3OXwLAZ7Y+IRawZi2+FPozyXY0J/eF2bjM/cD9ly7YMmUR7D6s+QmwxkxSpM6gtdzinM6dmRdGJRM0ZimtuiyuUMfyXEFnmDKlJeeoA8FM7H8cJLz5qk4R7raIOoR1gQvne/9YyDvMpF33P0JlqgEwTQL3OGomGX/3G5RGJBwpxFIrBXv2AX/KFd6du/iHqVXHePbEjamgYASg7DET1VdclML/uZCI9XbrJhfRlfChINGrrCZvj+l2Yes3u48RZTJp0PnBSQUM7fxDIPX7PRL1Ic3Vp84++d+WpEKRbbWKmWD3cKSWlqBAUdAIcnFHzyL2UcjkrDzNtwcysrSVdhEn3lBrUjiNoXVsfPyuzqeB9M9+vA8vc6pJvwCJ+vccHQDLIhwtwDr9mzvRrXLNVEUupnV5Sx+3n+RBunUVMQ/jCi6ZRinEmMEHE9WKMXRq0IMs2jNGYuR9cqXWFdy4OcYd3aaed3jnS7dT9YXAVLZgia1RWU22hbH6vlJZ47aonLQhthK2P3/X9I0JEfxzIspxkTbGib9jKdXHBC+iGvOEG9sFr8F+me53eJcbv3m9NMoXlDdr3X3oeYmyee9Ta/bvGwK9ZhdvkstCPUOCcmlOeotAnxNXPRFh48P7KNy99r7Jnd74t5K9XkUWbXyeA0CXcYqWnceBpOzxzMhxQAdnrQ8PaaB+z0E5dB1GjQ8aBASuA+wOaorGzJRNceTEuuylc1hpQ4x+9LcZnr5mbkEMyPvY89mv6vt911LCPVOfrpbvhNiguhGDVXtEP/QjwtpE3TEC949D4mv6SbKmje5VHvhgzsQ3ymnr4aKZXBPmPotI4n7shHookSHSyiCV6PwT2iCpIDcFQ994WkbOTWYOF63PDABvAiDRGJSdEMPrL3lFJpjh0p5THE5kipBqItJJHvZEelzvg7VCE0a+wp0xqHTNv9x/zOjX+cpNqqIvrOT0KfS+yPS/me91cMYdVyoZ6YuKHLq7MYkKgqVPgJoUixuQvss9l1YF1m1D+NSKQEtyz1HFm9utbFtL+QrHHeMrdFgojuxBa9HD7QIhhAtaDoXLOdwq2zFczyFXhVgTnCktT6qqf24O9YUuTa5+YRLQ287oJGxeaKdxe/toICESSNOjuND2atGj5/VPlDm3OWBczE2eUPQTKHoDG1ZNV9uXRSr0ZqWlu2C8hLpbjLO3f3Anlygdxdh0XrvfPjFVGypgoF5RDpXh+bUWusO7UOE+05FXBTgjHVPKDZpnPTAwj95SPC2eDjGdepYw+X5/T1G9Cb/tAa43I780xNriYl2G2moXS2SGtB6YEsbQUrQDRDqs01ItIDg+U+i+mYV9D1m+VP5vUaIMp8ahd6gpjg3HUN+jPpQd60xomGCjXQEb7mYDgYNQDi5HBZThEQpzOF3zpBxosY53PFlajSgfhgy7VujsHauI1imce/PglsPSuvY7kpaRLoSeso/eSMF9RMBIhYT3pc++pnQtXyJO4EpZiviQxmyVN2mIqWYpFuBR5Sr/SYaLhk+R7OHvcvIl/23H45VwSVNfSz0qrGJI4xxy8TkBUP13/Icatu8TuPWidz6VTW3K9KEWT/MgB08Tp+dvYx9RsWEg3JudkWIL9BsULvl957h6WHVYGDc31E+/xp0o9ixFXxa/ID9invJDHrlpsCyQHaXD/h4Ft+n9rEax/bZXW+7+eyNg8QmHMHZEMSKmAo+qDluYuB0ZV3DU9bNGDaaCfVtHfco7v2DV1Dl8I2kevQyW32IVYGsJ1O+At07cnq+vN05tp0rqfRoObul40tb6R+fgpvYy+QGojg/0nLu6iOP+MUFd7zqjlD8nTTZ1YqelbUB0xcvyQEQs0BVxkqgt6PxxjXh6qYkpGtlZYjMH1CzW71ArjhFgr5ouyv3aRG76yN8zo7WmBKUOJ1F/h9x2Ops2RuQuLMjxfdsJehJzLNWJmAXKVLY8BF1vBAOEB4aN6pg+fzym1y8mUUkDELUKjQ8aBAWeA+wPv7gX9DZohYyMMpenAH8lGmCKRs8lD+wQ+tMzIRerzn4MCiBPAeswgLVQ9KIvskYW2Yd2PzA19te6XVFNQ0AYUUAGsmumKDTrdHW3PExkHjYvHUBYPmGTtAD1mIp8bo1V/4hoYRi4VKbCC3v92Payz+2kzftD4ou4SXUFw/PRRzYBGbPlsR/WpqkbPB6It9sK4PXCu50VNPzTfqBDUfUmT35AdBSt7e00ya0aSMLMCbaC0CZweIcCFm5wEUqBYc8iGbPsiwvQS61B3eAA+PR7jc3kQXSrZV6RAO8XlxMsg1NM9JAACpVRa4zWvZ+eZPv/Ua8rnRwDucXkj1/nMSrjevDSXAL8i/NJrGQDBkpADtRvWci72z/79Oz8WHtoXhCWB9onMMGX1B2rxEpTlXVzSBcKhsrA9bSICMDJMAXLyFz0r4EwJj2/Mbz7qPkMx7roC9RzFQlN69ECVzoKvhqZCN/RN/M/bBul/rSHBg/6Iy/YM8iPUADs8WRemZCzXHaVNGAVdYVRc4kba2i9wCO7R4eIxhrDZXUj/DjDUegWL7NCz9cDCFtNgtomkn/B2YH+5EZOn5i/lgy5tTSvyt0k2CZgyThmC/200ypjd8xQDIBcaiW/eh9mzs8SB7F4GA5hiFgkzcLyC4ceB0SkzSbTBm0PLrKA/BMlSimonV0MtE4LsyUrKa82CYuF8I5OYcLc2fYG+2LSWbh0jNxkZtEYm38gdlPikws3LAAAfnT2KiefP1o2Lj395sv1BfHXcvLrmeWYD9+R2nLL2Ndya1pA5KMxEnQV/tbm8To9TthQOWe4sBQUfhDLyN/mVaTK2DC/+H/WcMaJRI5jjocK3X4KzP9jUVjilwdEOSeD90jWk8T89uOq0nhgl4/MHO0vHQNNGvvNUkzHKnUKra4yh9ZYbtw/wu7ZMFhaXxVnWa9yLVedmZQMelOBsqDp59XavRkTl1dgwAGXsqOzjob4+IXUj2CDomlQ5751qrFdyr8Ksp3XJOL4DYb4fl40KYCKlIQZjrneSa3s9oPuFpI/ab4LAn4uagyiePH/Zsa9tocK0/1oXykjZFciaTaf4GR+SeoFDnlMOScdonWR8snpxcOEcU84LI1t+fK43o4IGKImiuK3rgA6lIEY+lOGPOrxY75/SNlwI2H3Owjmm3O3DjDgSSWAHnS/9QsyqQLEvvpN9h9ojW8syaFXx530f6oxxIK5eP+u4Dg8qB0b0SoAy+pIUgCSsLF/P4ZZ1xf7HfkGJsVesJE+IV0fj1qZZtyZOMdWjQ+6BAaOA+4P8EfwRP1qs3wo1QjXE47NioPBszRuaDd2IaPDc1HbJaxZ69dmFzpeZKIgkOGQUKCTaOQYTyQR4i48eRaL75fulGmYwhB6GQm4xuJl5ngFU7XiVwCApBqKi6oXVdCVX3I7hrljObXFixsEDEXp3x1YrgV4MslxFT8Dpuwsu0O5EFj4uwh5SbwXfyI5Ti0JBcmeLC/d5/n6pbTdMjcdu2mnifAF+QpTwd7PGymtCx9uJg6ml0YEJ7/67ed894ak0z965aBgM8ETIrpvCpUcDvxfwOh8E2Cm86JxogyHpsuBoKEkO565RTOaR5EbdzUP+BnQJUo/o5bxY07ERt2oE0aU2Asoh0Zd5KqMTX2GCQW8vOQNcLtTtPbxt6hx2+1YXggU8B+FK+ud4vMqFvMYJrs0ZuWwky49W4yiOjKrVkZ9HMxEpgR5AwSwNsSVtM8Rp/ngBy42Us7qXuC2kq2TeFRDPiqI1NYV2tYJ7vHCuLLiIkzzIC7YscKDponypw1ul8i38E9EcBNkZBXyQuHK1N/1Zri3Bn701Hdfa3L6Q7bBCOnPz5PCqvWSEzkEey242mQJP/qlPvfND3a9HTq2aX1xdEQIQJJBDMGIel6kVgNbfldckoKzC8C5Zb2Nys1IIb/51Tel90jexmxzNsJQ4uJuPnEYci5wlZp8AefWbM/6TpVGsvAi8yqjMjoZywT37TVrD4IMSypZBki+Ltj+0YywCLdB1+5S7giROjjzpdCxoOur0oyIOaYnBtGff7M2jiR0ay/hoULGlydBi32YTJ5cwPE/rKYwsGAeqwTl4hdQ88djlurChBsAo0Jxw0yYHCujxGNEmggYLB4m6ubigfAS7vRJLLKvHqfg1qXVEPA70+DaJB7tHqz0TH3EXlCMci1smIr7JCMycRKIQ17GpvcKov0H9LMF/pJrPm7PQgouk129d5BiQ2mDx6043TGbsuXpTRQb6uhOY5hyScdvhQisFgozLGijeo8OJa2WOKmZtG2eUTmDh1Aw9RFMqbrdA+vNH8IYmcB72QGQnwAeh2MlsRPHWdPkeIEIIMWrnC5TY8XqIkHe2apjyPRDbp8WLQmuFrX1CYpEspRB48EBp9OJH4zdRJaMdS/aBre+d5WtW7OsuTEZT0G+Slrm9MNyn/fEDjLpXBAUrtMo00c5DN/NM96rFTtE8sjjC3O6J8cq90cjUjg0QmvrEqiVLNbNz5OfLiO6ozA4sCY8UeAQbJBe57FQm19ppAnHQoB9T8aKAIQpYR3JLwUXbw0Qo2OkRard6tDPOa5TvRbId5ZxZikrtLfA8HLYiAdOe0XtoDa/IwKWRT/L94Icco0PjgQHfgPuD/xz/DbSwGeYIdciHhsAzUzezsrChG4Lq4F54qx14iVBNOEmZFkBTg6lnXv9B0NjHBR6NRN+uYRUhEMTnFKBvtzbtDSKQF+VjRL52pkalTnBPTJ7ZMRmfvB6pnOh/e9JSzcqdJgxWt0GP6BI1NyfzUt1FnDxqXgTi4eXzEV6Zxnp4OBwii2AVZGMVxOiDDLnk7RzyqjodPFEZ9VZfEJ7jZVIT7cH7qXrH3m5FRIvWzrDKIO+p/pU5a3WjBjq9BodRxP4rl82hltTT3cd8mmcPbkAlDpWxtfp7tRwytTN3L2zCoB09jVGJcKhU7+R3KoL5Vm2jERRPQXIFM+D9TosnbHEE4rOhlnnrAQ9iryK9lzB1qF4iWimQGWBXgpBT46X3k5Z2E9v0mAKjSLzT5RR90PHJ+3/OaZ+/s0Vofk0uvJel8/gNphTpoIEhBZn3V4u3Nf5SJ3eMbrkkn6Txm1SkU+6HzmmzTDN7LsIXgfcPx8tKBtYLuMU8/H7yV/c6H0U4bYIlHQwWSSRl+MUUlqeic3aCpBQ9vUUl5d/q6JiQw1o3iretwKiFbsqmd/UhKwpEtCdiwv+2662xPXqOV4VIlmScj6qRrrj4+sHN9x1shwKJFF099tkhF7ffHS2qxi8TE0qRKxSpJmu3sEnToXg7pHxlSJgYejpBvXKiSlieDsNUg9iCx4q08Y13mzjDIjixic4lrvCj3T38T7+qYXvPqJ86+F4DopAGngzKrhaXkn9c5zPF9KSlI4rRXZ7lCkBroFM4EGVkgs0seJDKb8Nz8ALUcyqXC6YydC3s7KA+F46qbGxA4KjnN/I3a97RKIA52o1U00+ixrSsXUOD0t82AhMhqXyJyC5RiBbukKdp1iuYCPYJPQF1CnxFWKGtZj3A2OXZQxxOJTxVjMXYfQRJgQR2vGhAdi+6l27d1SW7rDxZtmumUK+TgtNcu1YEtkO2URNhSGRhIjgjJtdJap2elFKNx1zXQ/FbG8PkCH5DnCIF+s099xiH84dLsrIyyNZEWueIW2RIOUUZO11QzbWtSgGfS8Ul5SSzGIIHHm2jJmAK1PUoLeuIKWT20qocOCTdJCg88pHpRZf5PlC9IM0AJdKnc5KfRRmWOZMXiTIYWtHVFrW2ClL1+JOjt9Qd6Anv4BRECv7ljzGMNX5C8CaLffZEkGcsqzR2QyBrh66DHho5R0kRJtVKRb/j3WW3Oztu/kwSw4HVDdzu2be3Q9NizBKOimtBWDJMA6WVdFD/KpGFbFAY1+73qYWQggdooi3mw5qSSDRohUgKuyCXkdgGmkAy5IbSB5lqMKnj2oSjQ6yBAhyA+4P9Dv8OJFzJI32UzVzPIDBbHGCZE9D2v9feq0ZDnt4lDzJYBAfEs8yZRA0/cyAR7lLObrkg8aHPmR/Qq8TJpUeOIVPVcGqHalR4i/34TEkDn4cTbqFqgyYMHD5PPNCipOQWbOhJKqvstnis3X3FtLXl5PObVD2gGbd9g8zCBuhNnW2KXDB+Bz4C/Uv5hpx30VYt22UjtHzHvVrVBN+mTbp08Iy6QITs1U5v+rTzq7ZHhTIG4swUXyW2VR3yhl9vWeWNi1Wnu4sAnr9Od27QcL4SRCQl1jaRHE00MNm6HRhGeEh5vTXM63SZ+pOhNIGvjVDFVvPN7JhNtubvyQLhBo/MpSSZWfYHWQHuCGh0YaZE4COveQuX2AlOWtALLK3nzMLyrgAArH69Uxap5AHJYNImd3qZEUQZ5yUt2EyZ22lautlANo1+QNCg1KhB2m9WQgHyLrkNMQTJpYIBfjhjGkwgWq48lhNarSYoedG2d/NftIa92L9IyOfivIv+BK2eMKOKSpurO418QOu1xQjAUNo1DYYLvSq7YYKrMf6PbOAgKJhfcPblFF7wSVja8WfUyhek43gOBdeDkP7juH9iWvNo4bMTlQz64eCswZqJKia3Wwr+zzeqdouasV1UcKeI79PNTj+hxykOd3sySaKbd56scp/Ila9Dovg3PV1KBs8ELcqDgHt8Zqajh7/QkrCG+9br1HFA9vEB4Mhhru/nEvOnGE0dRg7bQIe2Y3+q9uwAVkXeXGC49p5vxMytWTSJc7FqLHb5BGDRWKAiV9LtPWu+X2/G9N5olqeeyuYCdYU0XSzsJsvsVKj5Z5YoZC/a2iIPAjz8/q9qH6tqs8g5MjKZBhpqtttIE3zopqfQMuw8BCbpHrHLUQzsjTztFUxcDKr9fXrkZUnKcbc9Zhlf9Ra2rHZQuX9FgYl1zRkkKUAvXUzIY7WWcNXrV0m6KsEb/PMqzF3Yps7pdOOOxH5ogOvxGQ36QyFrsKY+0AaWuc/Roci5syzg4A6g9wfyLLRyL6WZcIm5u0wOaKLOxvRkD8SxS1SLtZue8M2HglRxDbV1mnj7pTrrDZdu4U28y87djNnqo9Bn4KBE0NCLIPSCkHzitaaOOFgf0smRZL7sETqevMycb5ZdwjF6EUvvtP8dK9c+sh9nBrYAWMnCu55/uN6zP6NxNIkmvkfu5ouoXBCa5vkJFf1v0mXDt0gkpaoYevordhaVDYXIbuw0KGn06jM8KaW48rmjo0REgQJYgPuD/g7/NcDhNGGWozrHcoanrFCxaKcBCuTg3oOrYVWkWPKL+KIUwkZO62qeXhJ/NGoetBKGYej6dAv8FORzCTM7tcTSdfW/61lQfXtJ1nu5IWlT62FW53A7Ez7b6zPE9gMW8fKxb+/q37+O3dGhGYTt5NGcz9jF9xXreDDtAWaVrd0HMMgApnQtcm2SewH7vTqcbyPSwHxStCXkx4zowKVvpthTipxnsuH8y9xq/HCZ9kdts5c+LACNJv2nSzgMdDf7K91BSCQOm2IrZlL4j9ZKrCfFxhSymlcLE05qKC2+FU3tCtGZm9UHuZM7FvkWpCie/UgWVG3pnBHpJvcdy5ipQL8xZ02J8I0G9BIAEh1BAXGsjOjAkWPv8Z8CxbYPYdRlNNEfiEEL7icq6AWJIS+REgAWJJ2hsUa0ZJJ6AoOMPrkI3UrwrmqrOmQBaY3aLqm2UXlrb+P/6Yxz6gGk7lhtXfrp+0+md7beI76JpXpAmtg3Pz2/Q+3t+r8O94+AUfgj9GIW3FDVj5BLoijNXKQCII0D/UtRaqyY6lDEXjOTyzXX74mBsL9F5B6X8gAktnQtzSj0qUYR7/MR90bQcU5qXG4NiQ2gX5WuBKD9IX2nuUKiLopai40hUCroeOHUPEc1s8iqNrGbpnPBIf0U2WKspGQ0VfEztYJlh97IeEsIgAlDX9rJT+mdKCuutnjVUBzgA26eetOxL+cku+dFvN52IEBXdYGS3NBg+mCFyhdzFWFcrChkFoKf3tbrpVXrG73rClGzRzTgMy6lQNhvwy7xFevuO8VL5TpO0gU8+kaDK5nFOOpPs+Hfmtu2neD7bcPsYXaaqQc8gJBsWGNAxdXTx8hy8IGj+yS5dlkMCI+FwDa3jViihXP2zmOh+7ZGcx98SChZklh/WN93XJYCDevqYqgJcBzCzpNkbewB8dNXtkfh5aoL1jYXwyRv+4uoDahRST/IqpA+VSqUtFuoxVlRganPtk2iYCI4/N9MQSN5Sig9eWtN09x6QeWQqobbUA7P0RMU9sa6bPAkC5HvzxPT5yxyWtP0WVJCwh4P7ppUf2q4nkXvurnkBFSAJyrPrI2iKIpX/TarXwrvzbbHuT4cKs0MyLDg04w5o9BP4RVFY/ZMohlwthQncN16KOKU5I2nq9yS+3WlbOkzuA1pE9Je6mCmlE2HYsSc4itXO8m2rs284J9Sw5+RvVh/UXmDN2Nsarbfxe9Rrg7rArCIYu9iskX4ayC9PM8ggQI/90E8bAKh9vyazIwRSMlS4M1+GiNA7EwT0J2aUOSwglvYIwPVih1yy39jP5vB6SR6QLUf2ugRXKZWKWnvyxhAt+opNVVE27TwazBT6f/yjsNNuZQb51hXUS3jMJUgv7eGH0MHYdQmjqTkvjjJ0LsqMRyh6DYTjsfRCWm5ZRzWxST5B3x1PfoIVMhc+98TNTefE2lpo0RxgQKUgPuD/A79Da5y6yvcjGUbN2uubLRgX0mMAu1VPmUusmcln/Pl3HeZGqbZrSzbu5Ylv5cE6gCuVcGUiBHfp8PTnmiNh4U28OkoVoFI4sjQDMjpQqEy/U0wmow/c/5lVGR04j0jDFz0b0K03vN/phd9biXEmf6ZjOA4QL18d+K2JpMbR1qE8NX7NqS8XGtHOV0gl8u4957bpGjc3l1iDZT51EWXLJWCCwQ4c3yV82ns0OPfEro8GqgBG6BShnjFqNs8Ch3cnZ2if8ABUEGk1Us3UhRjh2TN6zyJnHYL0+8LZx2dSbrvMGsGwdGBDQAS/NMxqaBw5828rS/EsGaHwRMnmjNi89ED2eZ+Tju4ubf2B5/uJxP0x580Anvsus/i8ACDPBM1vXpLkx271JQgeu/BZKXZtz7jOG/VLmDzMp3Hmw6vHpKsH48KaTyWpgZAkw9rZl2Z1DmDHuRaiwQ54bns5kYsSJAtreGUtPP5Cda8xqYW4rcBjOS+3LofDHKtm7xkjMuuK3hR/O468Is5btoEVJGWQfYtYznHdtGypzBGA+hrBuLC3qNn8ob+5WUcNVQYPw6c+3ZbqsRX3gULnFfgJDmKd4iUC55Pn2CgvN6o6Q0M/Ol+9zXwpFQIXR031ZYaerxmNR4xT1KR3NQVmhiPWhdc/aoYSUwbiEkLx1eDIaDM8YxwsyWLdp/FzR6y09R9qRz+HWcdlk4gk2Sa1eUTGQtiR7YvD8xLKm7RPgVZcSqDhQ/UVeTTCV6dihBl4QnQJLtAvXlrLmZvU7G/eeoJBCCFPnpfj39jbBSD/Lzjoh1GxWpxYK0GqF8KKYHJhA7VocMNzePqLLrJkicyNOVBp1ad+dKv/Qv5PUUMi1vLvYkdwODxU3Q/dDa+KpUsw+KaxvA5zKEXbnvZMG+1P4V2HChdgbzzUSX62m+7Ww2um+mudnqxJhRAbjnjXDR5/HL9wQ4vLKZZScD43o2b3S7Aby0Qvjg9EHlC8+zoPeeNbjqXi2BIazXj6CYNcl6ITvWNWTvfVkPTpen8Pl16Eh9MWzWHCtk3WoH6DCdl5J4CRKZEoXEjr6oe1ZrOldiD5+7cAw98bz3yODf2g0Txz1ddzJxBSzLc9RKgVVzPCGZxfX2CvlhbsoQ0rJ+v7zBzeqNZhy/gCCR+OcsB7/r09uYxnDl+zyYV/ZZIxmcp4WyKGXymZBrYGcZXSJqo7oc8bgwoqglfXZdl4c8TfBnbryxQDGRdfwbgwbOHriHkHJCyqOHptK2yk/GWoOdVzlKVX9EhfEMVDz+DUvZRdbBnLjmJxjqVcWNavZIIF5/mSpS9HSZoDoZ0CcMZ3Lwp2Epy8AMmsiXtiFlxpXidNMzmRizFgKpi/OQGJz46A7LM2vuzaE/CD+pOsNGIMM9mRXa0EbxUhae3rSFKCkpEhEtzjthzU/zOdysmFAv/jwg7uzk5iJJys4Unwt5GvKNHf8SdmcfL17vbYxRoKbZ3uIunmFdWcXEAg1a9+l9dHQ9SpbXHo0OigQLPgPuD/Q3+DccCnBOFxZ83K8BiUevVh3bax4HGjHPt5cr08ZdhyvGEJ+FYP4OZriL56LEc08T0Wz9Ik2CDAcdMZeJGuO7hX0Rjt5mL/Mg8wQbvUAzY0dvRiSrWq024L3DZJ+nJTARAsNfHowoRJTkt/nqeicUH106ACTcqetZxvF7aBExzAg88ecLtghaSeftxwb/KduOwuoZ4t1G3bSHV+Bk2/0+65Of310MssHly1p/5szAPlCD+ChW5guwcAnWhJsq4HUVkOfXHi+YDH8a31bdqnlrJ83D+fXJobhANOFtyXj/wctAQAPHmLmP5msutDTq+VEIw4W9U81K0W489HAerWGaVE2dqtITLqlLiMWffRpk5ck7G22dH8ZU78cBqfHXnj+ncs2E9iylJZqlKhR6h1p6XZX3JwsC5kBIufQbTypxPtjJG6RrixLfstOo/QiSVKmoMZMIvU1+gKW3oCxUzX+S48oYm5wON8pf4yew7QlL858Kk3hTWo3fo6h28EEj2nt5shfFDwN0D0z8COvvAOWifI1l0g2J0UfvtfD/huLuFn+Dznx5wvQaXthwLVNKV8F4ggghf+xj/T/VN40a5Hd8et1dE73PK80GK+fz6KmSaFOYqkkbiqgKXkr+jCl6ixykniQyW5s+Si5yhvACZ2gE/VDYcrMDW/r7GYzLNLDn2YXo3VsE3qkyh6uJCoYGgRKTCqXqrfbnsLItlpUbiLHcNW/92gCLavmXtL9LrnWM7wUVqbYy93MsY3HLjgDVZ9iGFVOe4kQfaB+UcA273XM6r9FU7T+73eFp7VDY56oZvOccpLRnXBezMDl9Rd23FZYIOf89xtFTgju6EigCCCgSsmEq0gpW2tOulx02anzIeH9JGDIat+eJXGgequjhiyLlLjDYPA/JqkNMbQDbZHqtarYeaEgEwh9hOefJEbzuUWzm0uRF5+2hN/Ugei7kd37dWbdH9J63E5KOZgtQfMQTkSLMnEXMvLOZ3+IBPhPajWbJbuM9SD5IKUfZImIO6Nl0G3sJtP2emvMMPO29TWUB0cpkicZTKUziuHAVnzHoc5/+kCpYy8DAkEzDQu6+OJtYANvsVMh2Iw9mbgUumvaDaJ1bwJxNFDY4/NCd2PloO8h+aSPaMPDs32JSRBL9XpYuKQmtWT6WYWmtAUB4V+15eZ7aDgoRL75h/eS3szGkImzQG2IbqrN+mbUmEoTNP3oz2K5iz9xi8Zm6t","1"
"","","","","","instructions","23","19301","0.0-9.0","QZZ1ZED8462CA34E3992DBC1F4207A32D4","QZZ1ZED8462CA34E3992DBC1F4207A32D4","12354354364363","mgchgfjhgfjcj","{""participantId"":""QZZ1ZED8462CA34E3992DBC1F4207A32D4"",""assignmentId"":""12354354364363"",""projectId"":""mgchgfjhgfjcj"",""fast_test"":""1"",""num_seqs"":""0""}","https://test12345.live/?participantId=QZZ1ZED8462CA34E3992DBC1F4207A32D4&assignmentId=12354354364363&projectId=mgchgfjhgfjcj&fast_test=1&num_seqs=0","[]","QZZ1ZED8462CA34E3992DBC1F4207A32D4-2024-09-21-17-01-44","[{""page_index"":0,""viewing_time"":1419}]","1419","","","",""
"","","","","","survey-text","24","21059","0.0-10.0","QZZ1ZED8462CA34E3992DBC1F4207A32D4","QZZ1ZED8462CA34E3992DBC1F4207A32D4","12354354364363","mgchgfjhgfjcj","{""participantId"":""QZZ1ZED8462CA34E3992DBC1F4207A32D4"",""assignmentId"":""12354354364363"",""projectId"":""mgchgfjhgfjcj"",""fast_test"":""1"",""num_seqs"":""0""}","https://test12345.live/?participantId=QZZ1ZED8462CA34E3992DBC1F4207A32D4&assignmentId=12354354364363&projectId=mgchgfjhgfjcj&fast_test=1&num_seqs=0","[]","QZZ1ZED8462CA34E3992DBC1F4207A32D4-2024-09-21-17-01-44","","1754","","","{""Q0"":"""",""Q1"":""""}",""
"","","","","","instructions","25","21989","0.0-11.0","QZZ1ZED8462CA34E3992DBC1F4207A32D4","QZZ1ZED8462CA34E3992DBC1F4207A32D4","12354354364363","mgchgfjhgfjcj","{""participantId"":""QZZ1ZED8462CA34E3992DBC1F4207A32D4"",""assignmentId"":""12354354364363"",""projectId"":""mgchgfjhgfjcj"",""fast_test"":""1"",""num_seqs"":""0""}","https://test12345.live/?participantId=QZZ1ZED8462CA34E3992DBC1F4207A32D4&assignmentId=12354354364363&projectId=mgchgfjhgfjcj&fast_test=1&num_seqs=0","[]","QZZ1ZED8462CA34E3992DBC1F4207A32D4-2024-09-21-17-01-44","[{""page_index"":0,""viewing_time"":929}]","929","","","",""
"","","","","","survey-text","26","23278","0.0-12.0","QZZ1ZED8462CA34E3992DBC1F4207A32D4","QZZ1ZED8462CA34E3992DBC1F4207A32D4","12354354364363","mgchgfjhgfjcj","{""participantId"":""QZZ1ZED8462CA34E3992DBC1F4207A32D4"",""assignmentId"":""12354354364363"",""projectId"":""mgchgfjhgfjcj"",""fast_test"":""1"",""num_seqs"":""0""}","https://test12345.live/?participantId=QZZ1ZED8462CA34E3992DBC1F4207A32D4&assignmentId=12354354364363&projectId=mgchgfjhgfjcj&fast_test=1&num_seqs=0","[]","QZZ1ZED8462CA34E3992DBC1F4207A32D4-2024-09-21-17-01-44","","1288","","","{""Q0"":""""}",""
