"success","timeout","failed_images","failed_audio","failed_video","trial_type","trial_index","time_elapsed","internal_node_id","subject","subject_id","study_id","session_id","urlvar","current_url","audio_id","view_history","rt","device_id","stimulus","response","estimated_stimulus_onset","seq_name"
"true","false","[]","[]","[]","preload","0","291","0.0-0.0","test_aa1124","test_aa1124","assnmnt123","proj123666","{""participantId"":""test_aa1124"",""assignmentId"":""assnmnt123"",""projectId"":""proj123666"",""fast_test"":""1"",""num_seqs"":""1""}","https://test12345.live/?participantId=test_aa1124&assignmentId=assnmnt123&projectId=proj123666&fast_test=1&num_seqs=1","test_aa1124-2024-11-24-13-53-43","","","","","","",""
"","","","","","instructions","1","2927","0.0-1.0","test_aa1124","test_aa1124","assnmnt123","proj123666","{""participantId"":""test_aa1124"",""assignmentId"":""assnmnt123"",""projectId"":""proj123666"",""fast_test"":""1"",""num_seqs"":""1""}","https://test12345.live/?participantId=test_aa1124&assignmentId=assnmnt123&projectId=proj123666&fast_test=1&num_seqs=1","test_aa1124-2024-11-24-13-53-43","[{""page_index"":0,""viewing_time"":2635}]","2636","","","","",""
"","","","","","instructions","2","4809","0.0-2.0","test_aa1124","test_aa1124","assnmnt123","proj123666","{""participantId"":""test_aa1124"",""assignmentId"":""assnmnt123"",""projectId"":""proj123666"",""fast_test"":""1"",""num_seqs"":""1""}","https://test12345.live/?participantId=test_aa1124&assignmentId=assnmnt123&projectId=proj123666&fast_test=1&num_seqs=1","test_aa1124-2024-11-24-13-53-43","[{""page_index"":0,""viewing_time"":1881}]","1881","","","","",""
"true","","","","","fullscreen","3","6823","0.0-3.0","test_aa1124","test_aa1124","assnmnt123","proj123666","{""participantId"":""test_aa1124"",""assignmentId"":""assnmnt123"",""projectId"":""proj123666"",""fast_test"":""1"",""num_seqs"":""1""}","https://test12345.live/?participantId=test_aa1124&assignmentId=assnmnt123&projectId=proj123666&fast_test=1&num_seqs=1","test_aa1124-2024-11-24-13-53-43","","1009","","","","",""
"","","","","","initialize-microphone","4","8308","0.0-4.0-0.0","test_aa1124","test_aa1124","assnmnt123","proj123666","{""participantId"":""test_aa1124"",""assignmentId"":""assnmnt123"",""projectId"":""proj123666"",""fast_test"":""1"",""num_seqs"":""1""}","https://test12345.live/?participantId=test_aa1124&assignmentId=assnmnt123&projectId=proj123666&fast_test=1&num_seqs=1","test_aa1124-2024-11-24-13-53-43","","","53f28a877f6599c740caa800dc23624f51fa5bbcd1b1a1ded038d292d93582d7","","","",""
"","","","","","html-audio-response","5","9671","0.0-4.0-1.0","test_aa1124","test_aa1124","assnmnt123","proj123666","{""participantId"":""test_aa1124"",""assignmentId"":""assnmnt123"",""projectId"":""proj123666"",""fast_test"":""1"",""num_seqs"":""1""}","https://test12345.live/?participantId=test_aa1124&assignmentId=assnmnt123&projectId=proj123666&fast_test=1&num_seqs=1","test_aa1124-2024-11-24-13-53-43","","749","","<span style=""color: red; font-size: 24px""> NOW RECORDING</span>
        <p>Please test Microphone</p>","","4",""
"","","","","","html-button-response","6","10272","0.0-4.0-2.0","test_aa1124","test_aa1124","assnmnt123","proj123666","{""participantId"":""test_aa1124"",""assignmentId"":""assnmnt123"",""projectId"":""proj123666"",""fast_test"":""1"",""num_seqs"":""1""}","https://test12345.live/?participantId=test_aa1124&assignmentId=assnmnt123&projectId=proj123666&fast_test=1&num_seqs=1","test_aa1124-2024-11-24-13-53-43","","599","","<p style=""font-size:48px; color:red;"">Is Microphone OK?</p>","1","",""
"","","","","","instructions","7","12343","0.0-5.0","test_aa1124","test_aa1124","assnmnt123","proj123666","{""participantId"":""test_aa1124"",""assignmentId"":""assnmnt123"",""projectId"":""proj123666"",""fast_test"":""1"",""num_seqs"":""1""}","https://test12345.live/?participantId=test_aa1124&assignmentId=assnmnt123&projectId=proj123666&fast_test=1&num_seqs=1","test_aa1124-2024-11-24-13-53-43","[{""page_index"":0,""viewing_time"":1189},{""page_index"":1,""viewing_time"":881}]","2070","","","","",""
"","","","","","image-button-response","8","13856","0.0-6.0-0.0","test_aa1124","test_aa1124","assnmnt123","proj123666","{""participantId"":""test_aa1124"",""assignmentId"":""assnmnt123"",""projectId"":""proj123666"",""fast_test"":""1"",""num_seqs"":""1""}","https://test12345.live/?participantId=test_aa1124&assignmentId=assnmnt123&projectId=proj123666&fast_test=1&num_seqs=1","test_aa1124-2024-11-24-13-53-43","","null","","images/instructions/movie_0.png","null","",""
"","","","","","image-button-response","9","14042","0.0-6.0-1.0-0.0","test_aa1124","test_aa1124","assnmnt123","proj123666","{""participantId"":""test_aa1124"",""assignmentId"":""assnmnt123"",""projectId"":""proj123666"",""fast_test"":""1"",""num_seqs"":""1""}","https://test12345.live/?participantId=test_aa1124&assignmentId=assnmnt123&projectId=proj123666&fast_test=1&num_seqs=1","test_aa1124-2024-11-24-13-53-43","","null","","images/instructions/movie_1.png","null","",""
"","","","","","image-button-response","10","14239","0.0-6.0-1.0-1.0","test_aa1124","test_aa1124","assnmnt123","proj123666","{""participantId"":""test_aa1124"",""assignmentId"":""assnmnt123"",""projectId"":""proj123666"",""fast_test"":""1"",""num_seqs"":""1""}","https://test12345.live/?participantId=test_aa1124&assignmentId=assnmnt123&projectId=proj123666&fast_test=1&num_seqs=1","test_aa1124-2024-11-24-13-53-43","","null","","images/instructions/movie_1.png","null","",""
"","","","","","image-button-response","11","14439","0.0-6.0-1.0-2.0","test_aa1124","test_aa1124","assnmnt123","proj123666","{""participantId"":""test_aa1124"",""assignmentId"":""assnmnt123"",""projectId"":""proj123666"",""fast_test"":""1"",""num_seqs"":""1""}","https://test12345.live/?participantId=test_aa1124&assignmentId=assnmnt123&projectId=proj123666&fast_test=1&num_seqs=1","test_aa1124-2024-11-24-13-53-43","","null","","[]","null","",""
"","","","","","image-button-response","12","14622","0.0-6.0-1.0-0.1","test_aa1124","test_aa1124","assnmnt123","proj123666","{""participantId"":""test_aa1124"",""assignmentId"":""assnmnt123"",""projectId"":""proj123666"",""fast_test"":""1"",""num_seqs"":""1""}","https://test12345.live/?participantId=test_aa1124&assignmentId=assnmnt123&projectId=proj123666&fast_test=1&num_seqs=1","test_aa1124-2024-11-24-13-53-43","","null","","images/instructions/movie_2.png","null","",""
"","","","","","image-button-response","13","14805","0.0-6.0-1.0-1.1","test_aa1124","test_aa1124","assnmnt123","proj123666","{""participantId"":""test_aa1124"",""assignmentId"":""assnmnt123"",""projectId"":""proj123666"",""fast_test"":""1"",""num_seqs"":""1""}","https://test12345.live/?participantId=test_aa1124&assignmentId=assnmnt123&projectId=proj123666&fast_test=1&num_seqs=1","test_aa1124-2024-11-24-13-53-43","","null","","images/instructions/movie_2.png","null","",""
"","","","","","image-button-response","14","14988","0.0-6.0-1.0-2.1","test_aa1124","test_aa1124","assnmnt123","proj123666","{""participantId"":""test_aa1124"",""assignmentId"":""assnmnt123"",""projectId"":""proj123666"",""fast_test"":""1"",""num_seqs"":""1""}","https://test12345.live/?participantId=test_aa1124&assignmentId=assnmnt123&projectId=proj123666&fast_test=1&num_seqs=1","test_aa1124-2024-11-24-13-53-43","","null","","[]","null","",""
"","","","","","image-button-response","15","15172","0.0-6.0-1.0-0.2","test_aa1124","test_aa1124","assnmnt123","proj123666","{""participantId"":""test_aa1124"",""assignmentId"":""assnmnt123"",""projectId"":""proj123666"",""fast_test"":""1"",""num_seqs"":""1""}","https://test12345.live/?participantId=test_aa1124&assignmentId=assnmnt123&projectId=proj123666&fast_test=1&num_seqs=1","test_aa1124-2024-11-24-13-53-43","","null","","images/instructions/movie_3.png","null","",""
"","","","","","image-button-response","16","15356","0.0-6.0-1.0-1.2","test_aa1124","test_aa1124","assnmnt123","proj123666","{""participantId"":""test_aa1124"",""assignmentId"":""assnmnt123"",""projectId"":""proj123666"",""fast_test"":""1"",""num_seqs"":""1""}","https://test12345.live/?participantId=test_aa1124&assignmentId=assnmnt123&projectId=proj123666&fast_test=1&num_seqs=1","test_aa1124-2024-11-24-13-53-43","","null","","images/instructions/movie_3.png","null","",""
"","","","","","image-button-response","17","15540","0.0-6.0-1.0-2.2","test_aa1124","test_aa1124","assnmnt123","proj123666","{""participantId"":""test_aa1124"",""assignmentId"":""assnmnt123"",""projectId"":""proj123666"",""fast_test"":""1"",""num_seqs"":""1""}","https://test12345.live/?participantId=test_aa1124&assignmentId=assnmnt123&projectId=proj123666&fast_test=1&num_seqs=1","test_aa1124-2024-11-24-13-53-43","","null","","[]","null","",""
"","","","","","image-button-response","18","15724","0.0-6.0-1.0-0.3","test_aa1124","test_aa1124","assnmnt123","proj123666","{""participantId"":""test_aa1124"",""assignmentId"":""assnmnt123"",""projectId"":""proj123666"",""fast_test"":""1"",""num_seqs"":""1""}","https://test12345.live/?participantId=test_aa1124&assignmentId=assnmnt123&projectId=proj123666&fast_test=1&num_seqs=1","test_aa1124-2024-11-24-13-53-43","","null","","images/instructions/movie_4.png","null","",""
"","","","","","image-button-response","19","15909","0.0-6.0-1.0-1.3","test_aa1124","test_aa1124","assnmnt123","proj123666","{""participantId"":""test_aa1124"",""assignmentId"":""assnmnt123"",""projectId"":""proj123666"",""fast_test"":""1"",""num_seqs"":""1""}","https://test12345.live/?participantId=test_aa1124&assignmentId=assnmnt123&projectId=proj123666&fast_test=1&num_seqs=1","test_aa1124-2024-11-24-13-53-43","","null","","images/instructions/movie_4.png","null","",""
"","","","","","image-button-response","20","16093","0.0-6.0-1.0-2.3","test_aa1124","test_aa1124","assnmnt123","proj123666","{""participantId"":""test_aa1124"",""assignmentId"":""assnmnt123"",""projectId"":""proj123666"",""fast_test"":""1"",""num_seqs"":""1""}","https://test12345.live/?participantId=test_aa1124&assignmentId=assnmnt123&projectId=proj123666&fast_test=1&num_seqs=1","test_aa1124-2024-11-24-13-53-43","","null","","[]","null","",""
"","","","","","instructions","21","19086","0.0-7.0","test_aa1124","test_aa1124","assnmnt123","proj123666","{""participantId"":""test_aa1124"",""assignmentId"":""assnmnt123"",""projectId"":""proj123666"",""fast_test"":""1"",""num_seqs"":""1""}","https://test12345.live/?participantId=test_aa1124&assignmentId=assnmnt123&projectId=proj123666&fast_test=1&num_seqs=1","test_aa1124-2024-11-24-13-53-43","[{""page_index"":0,""viewing_time"":1308},{""page_index"":1,""viewing_time"":1684}]","2993","","","","",""
"","","","","","html-audio-response","22","21102","0.0-8.0","test_aa1124","test_aa1124","assnmnt123","proj123666","{""participantId"":""test_aa1124"",""assignmentId"":""assnmnt123"",""projectId"":""proj123666"",""fast_test"":""1"",""num_seqs"":""1""}","https://test12345.live/?participantId=test_aa1124&assignmentId=assnmnt123&projectId=proj123666&fast_test=1&num_seqs=1","test_aa1124-2024-11-24-13-53-43","","1076","","[""<span style=\""color: red; font-size: 24px\""> NOW RECORDING</span><p>Please say out loud all the images you saw, as many as you can remember. The images can be said in any order.</p>""]","","3",""
"","","","","","instructions","23","21981","0.0-9.0","test_aa1124","test_aa1124","assnmnt123","proj123666","{""participantId"":""test_aa1124"",""assignmentId"":""assnmnt123"",""projectId"":""proj123666"",""fast_test"":""1"",""num_seqs"":""1""}","https://test12345.live/?participantId=test_aa1124&assignmentId=assnmnt123&projectId=proj123666&fast_test=1&num_seqs=1","test_aa1124-2024-11-24-13-53-43","[{""page_index"":0,""viewing_time"":876}]","876","","","","",""
"","","","","","image-button-response","24","23489","0.0-10.0-0.0","test_aa1124","test_aa1124","assnmnt123","proj123666","{""participantId"":""test_aa1124"",""assignmentId"":""assnmnt123"",""projectId"":""proj123666"",""fast_test"":""1"",""num_seqs"":""1""}","https://test12345.live/?participantId=test_aa1124&assignmentId=assnmnt123&projectId=proj123666&fast_test=1&num_seqs=1","test_aa1124-2024-11-24-13-53-43","","null","","images/causal_sequence/the_performance_causal/the_performance_causal_0.png","null","",""
"","","","","","image-button-response","25","23673","0.0-10.0-1.0-0.0","test_aa1124","test_aa1124","assnmnt123","proj123666","{""participantId"":""test_aa1124"",""assignmentId"":""assnmnt123"",""projectId"":""proj123666"",""fast_test"":""1"",""num_seqs"":""1""}","https://test12345.live/?participantId=test_aa1124&assignmentId=assnmnt123&projectId=proj123666&fast_test=1&num_seqs=1","test_aa1124-2024-11-24-13-53-43","","null","","images/causal_sequence/the_performance_causal/the_performance_causal_1.png","null","",""
"","","","","","image-button-response","26","23856","0.0-10.0-1.0-1.0","test_aa1124","test_aa1124","assnmnt123","proj123666","{""participantId"":""test_aa1124"",""assignmentId"":""assnmnt123"",""projectId"":""proj123666"",""fast_test"":""1"",""num_seqs"":""1""}","https://test12345.live/?participantId=test_aa1124&assignmentId=assnmnt123&projectId=proj123666&fast_test=1&num_seqs=1","test_aa1124-2024-11-24-13-53-43","","null","","images/causal_sequence/the_performance_causal/the_performance_causal_1.png","null","",""
"","","","","","image-button-response","27","24043","0.0-10.0-1.0-2.0","test_aa1124","test_aa1124","assnmnt123","proj123666","{""participantId"":""test_aa1124"",""assignmentId"":""assnmnt123"",""projectId"":""proj123666"",""fast_test"":""1"",""num_seqs"":""1""}","https://test12345.live/?participantId=test_aa1124&assignmentId=assnmnt123&projectId=proj123666&fast_test=1&num_seqs=1","test_aa1124-2024-11-24-13-53-43","","null","","[]","null","",""
"","","","","","image-button-response","28","24225","0.0-10.0-1.0-0.1","test_aa1124","test_aa1124","assnmnt123","proj123666","{""participantId"":""test_aa1124"",""assignmentId"":""assnmnt123"",""projectId"":""proj123666"",""fast_test"":""1"",""num_seqs"":""1""}","https://test12345.live/?participantId=test_aa1124&assignmentId=assnmnt123&projectId=proj123666&fast_test=1&num_seqs=1","test_aa1124-2024-11-24-13-53-43","","null","","images/causal_sequence/the_performance_causal/the_performance_causal_2.png","null","",""
"","","","","","image-button-response","29","24409","0.0-10.0-1.0-1.1","test_aa1124","test_aa1124","assnmnt123","proj123666","{""participantId"":""test_aa1124"",""assignmentId"":""assnmnt123"",""projectId"":""proj123666"",""fast_test"":""1"",""num_seqs"":""1""}","https://test12345.live/?participantId=test_aa1124&assignmentId=assnmnt123&projectId=proj123666&fast_test=1&num_seqs=1","test_aa1124-2024-11-24-13-53-43","","null","","images/causal_sequence/the_performance_causal/the_performance_causal_2.png","null","",""
"","","","","","image-button-response","30","24593","0.0-10.0-1.0-2.1","test_aa1124","test_aa1124","assnmnt123","proj123666","{""participantId"":""test_aa1124"",""assignmentId"":""assnmnt123"",""projectId"":""proj123666"",""fast_test"":""1"",""num_seqs"":""1""}","https://test12345.live/?participantId=test_aa1124&assignmentId=assnmnt123&projectId=proj123666&fast_test=1&num_seqs=1","test_aa1124-2024-11-24-13-53-43","","null","","[]","null","",""
"","","","","","image-button-response","31","24789","0.0-10.0-1.0-0.2","test_aa1124","test_aa1124","assnmnt123","proj123666","{""participantId"":""test_aa1124"",""assignmentId"":""assnmnt123"",""projectId"":""proj123666"",""fast_test"":""1"",""num_seqs"":""1""}","https://test12345.live/?participantId=test_aa1124&assignmentId=assnmnt123&projectId=proj123666&fast_test=1&num_seqs=1","test_aa1124-2024-11-24-13-53-43","","null","","images/causal_sequence/the_performance_causal/the_performance_causal_3.png","null","",""
"","","","","","image-button-response","32","24973","0.0-10.0-1.0-1.2","test_aa1124","test_aa1124","assnmnt123","proj123666","{""participantId"":""test_aa1124"",""assignmentId"":""assnmnt123"",""projectId"":""proj123666"",""fast_test"":""1"",""num_seqs"":""1""}","https://test12345.live/?participantId=test_aa1124&assignmentId=assnmnt123&projectId=proj123666&fast_test=1&num_seqs=1","test_aa1124-2024-11-24-13-53-43","","null","","images/causal_sequence/the_performance_causal/the_performance_causal_3.png","null","",""
"","","","","","image-button-response","33","25156","0.0-10.0-1.0-2.2","test_aa1124","test_aa1124","assnmnt123","proj123666","{""participantId"":""test_aa1124"",""assignmentId"":""assnmnt123"",""projectId"":""proj123666"",""fast_test"":""1"",""num_seqs"":""1""}","https://test12345.live/?participantId=test_aa1124&assignmentId=assnmnt123&projectId=proj123666&fast_test=1&num_seqs=1","test_aa1124-2024-11-24-13-53-43","","null","","[]","null","",""
"","","","","","image-button-response","34","25340","0.0-10.0-1.0-0.3","test_aa1124","test_aa1124","assnmnt123","proj123666","{""participantId"":""test_aa1124"",""assignmentId"":""assnmnt123"",""projectId"":""proj123666"",""fast_test"":""1"",""num_seqs"":""1""}","https://test12345.live/?participantId=test_aa1124&assignmentId=assnmnt123&projectId=proj123666&fast_test=1&num_seqs=1","test_aa1124-2024-11-24-13-53-43","","null","","images/causal_sequence/the_performance_causal/the_performance_causal_4.png","null","",""
"","","","","","image-button-response","35","25522","0.0-10.0-1.0-1.3","test_aa1124","test_aa1124","assnmnt123","proj123666","{""participantId"":""test_aa1124"",""assignmentId"":""assnmnt123"",""projectId"":""proj123666"",""fast_test"":""1"",""num_seqs"":""1""}","https://test12345.live/?participantId=test_aa1124&assignmentId=assnmnt123&projectId=proj123666&fast_test=1&num_seqs=1","test_aa1124-2024-11-24-13-53-43","","null","","images/causal_sequence/the_performance_causal/the_performance_causal_4.png","null","",""
"","","","","","image-button-response","36","25706","0.0-10.0-1.0-2.3","test_aa1124","test_aa1124","assnmnt123","proj123666","{""participantId"":""test_aa1124"",""assignmentId"":""assnmnt123"",""projectId"":""proj123666"",""fast_test"":""1"",""num_seqs"":""1""}","https://test12345.live/?participantId=test_aa1124&assignmentId=assnmnt123&projectId=proj123666&fast_test=1&num_seqs=1","test_aa1124-2024-11-24-13-53-43","","null","","[]","null","",""
"","","","","","image-button-response","37","25890","0.0-10.0-1.0-0.4","test_aa1124","test_aa1124","assnmnt123","proj123666","{""participantId"":""test_aa1124"",""assignmentId"":""assnmnt123"",""projectId"":""proj123666"",""fast_test"":""1"",""num_seqs"":""1""}","https://test12345.live/?participantId=test_aa1124&assignmentId=assnmnt123&projectId=proj123666&fast_test=1&num_seqs=1","test_aa1124-2024-11-24-13-53-43","","null","","images/causal_sequence/the_performance_causal/the_performance_causal_5.png","null","",""
"","","","","","image-button-response","38","26074","0.0-10.0-1.0-1.4","test_aa1124","test_aa1124","assnmnt123","proj123666","{""participantId"":""test_aa1124"",""assignmentId"":""assnmnt123"",""projectId"":""proj123666"",""fast_test"":""1"",""num_seqs"":""1""}","https://test12345.live/?participantId=test_aa1124&assignmentId=assnmnt123&projectId=proj123666&fast_test=1&num_seqs=1","test_aa1124-2024-11-24-13-53-43","","null","","images/causal_sequence/the_performance_causal/the_performance_causal_5.png","null","",""
"","","","","","image-button-response","39","26256","0.0-10.0-1.0-2.4","test_aa1124","test_aa1124","assnmnt123","proj123666","{""participantId"":""test_aa1124"",""assignmentId"":""assnmnt123"",""projectId"":""proj123666"",""fast_test"":""1"",""num_seqs"":""1""}","https://test12345.live/?participantId=test_aa1124&assignmentId=assnmnt123&projectId=proj123666&fast_test=1&num_seqs=1","test_aa1124-2024-11-24-13-53-43","","null","","[]","null","",""
"","","","","","image-button-response","40","26440","0.0-10.0-1.0-0.5","test_aa1124","test_aa1124","assnmnt123","proj123666","{""participantId"":""test_aa1124"",""assignmentId"":""assnmnt123"",""projectId"":""proj123666"",""fast_test"":""1"",""num_seqs"":""1""}","https://test12345.live/?participantId=test_aa1124&assignmentId=assnmnt123&projectId=proj123666&fast_test=1&num_seqs=1","test_aa1124-2024-11-24-13-53-43","","null","","images/causal_sequence/the_performance_causal/the_performance_causal_6.png","null","",""
"","","","","","image-button-response","41","26624","0.0-10.0-1.0-1.5","test_aa1124","test_aa1124","assnmnt123","proj123666","{""participantId"":""test_aa1124"",""assignmentId"":""assnmnt123"",""projectId"":""proj123666"",""fast_test"":""1"",""num_seqs"":""1""}","https://test12345.live/?participantId=test_aa1124&assignmentId=assnmnt123&projectId=proj123666&fast_test=1&num_seqs=1","test_aa1124-2024-11-24-13-53-43","","null","","images/causal_sequence/the_performance_causal/the_performance_causal_6.png","null","",""
"","","","","","image-button-response","42","26806","0.0-10.0-1.0-2.5","test_aa1124","test_aa1124","assnmnt123","proj123666","{""participantId"":""test_aa1124"",""assignmentId"":""assnmnt123"",""projectId"":""proj123666"",""fast_test"":""1"",""num_seqs"":""1""}","https://test12345.live/?participantId=test_aa1124&assignmentId=assnmnt123&projectId=proj123666&fast_test=1&num_seqs=1","test_aa1124-2024-11-24-13-53-43","","null","","[]","null","",""
"","","","","","image-button-response","43","26989","0.0-10.0-1.0-0.6","test_aa1124","test_aa1124","assnmnt123","proj123666","{""participantId"":""test_aa1124"",""assignmentId"":""assnmnt123"",""projectId"":""proj123666"",""fast_test"":""1"",""num_seqs"":""1""}","https://test12345.live/?participantId=test_aa1124&assignmentId=assnmnt123&projectId=proj123666&fast_test=1&num_seqs=1","test_aa1124-2024-11-24-13-53-43","","null","","images/causal_sequence/the_performance_causal/the_performance_causal_7.png","null","",""
"","","","","","image-button-response","44","27174","0.0-10.0-1.0-1.6","test_aa1124","test_aa1124","assnmnt123","proj123666","{""participantId"":""test_aa1124"",""assignmentId"":""assnmnt123"",""projectId"":""proj123666"",""fast_test"":""1"",""num_seqs"":""1""}","https://test12345.live/?participantId=test_aa1124&assignmentId=assnmnt123&projectId=proj123666&fast_test=1&num_seqs=1","test_aa1124-2024-11-24-13-53-43","","null","","images/causal_sequence/the_performance_causal/the_performance_causal_7.png","null","",""
"","","","","","image-button-response","45","27357","0.0-10.0-1.0-2.6","test_aa1124","test_aa1124","assnmnt123","proj123666","{""participantId"":""test_aa1124"",""assignmentId"":""assnmnt123"",""projectId"":""proj123666"",""fast_test"":""1"",""num_seqs"":""1""}","https://test12345.live/?participantId=test_aa1124&assignmentId=assnmnt123&projectId=proj123666&fast_test=1&num_seqs=1","test_aa1124-2024-11-24-13-53-43","","null","","[]","null","",""
"","","","","","image-button-response","46","27540","0.0-10.0-1.0-0.7","test_aa1124","test_aa1124","assnmnt123","proj123666","{""participantId"":""test_aa1124"",""assignmentId"":""assnmnt123"",""projectId"":""proj123666"",""fast_test"":""1"",""num_seqs"":""1""}","https://test12345.live/?participantId=test_aa1124&assignmentId=assnmnt123&projectId=proj123666&fast_test=1&num_seqs=1","test_aa1124-2024-11-24-13-53-43","","null","","images/causal_sequence/the_performance_causal/the_performance_causal_8.png","null","",""
"","","","","","image-button-response","47","27724","0.0-10.0-1.0-1.7","test_aa1124","test_aa1124","assnmnt123","proj123666","{""participantId"":""test_aa1124"",""assignmentId"":""assnmnt123"",""projectId"":""proj123666"",""fast_test"":""1"",""num_seqs"":""1""}","https://test12345.live/?participantId=test_aa1124&assignmentId=assnmnt123&projectId=proj123666&fast_test=1&num_seqs=1","test_aa1124-2024-11-24-13-53-43","","null","","images/causal_sequence/the_performance_causal/the_performance_causal_8.png","null","",""
"","","","","","image-button-response","48","27907","0.0-10.0-1.0-2.7","test_aa1124","test_aa1124","assnmnt123","proj123666","{""participantId"":""test_aa1124"",""assignmentId"":""assnmnt123"",""projectId"":""proj123666"",""fast_test"":""1"",""num_seqs"":""1""}","https://test12345.live/?participantId=test_aa1124&assignmentId=assnmnt123&projectId=proj123666&fast_test=1&num_seqs=1","test_aa1124-2024-11-24-13-53-43","","null","","[]","null","",""
"","","","","","image-button-response","49","28088","0.0-10.0-1.0-0.8","test_aa1124","test_aa1124","assnmnt123","proj123666","{""participantId"":""test_aa1124"",""assignmentId"":""assnmnt123"",""projectId"":""proj123666"",""fast_test"":""1"",""num_seqs"":""1""}","https://test12345.live/?participantId=test_aa1124&assignmentId=assnmnt123&projectId=proj123666&fast_test=1&num_seqs=1","test_aa1124-2024-11-24-13-53-43","","null","","images/causal_sequence/the_performance_causal/the_performance_causal_9.png","null","",""
"","","","","","image-button-response","50","28273","0.0-10.0-1.0-1.8","test_aa1124","test_aa1124","assnmnt123","proj123666","{""participantId"":""test_aa1124"",""assignmentId"":""assnmnt123"",""projectId"":""proj123666"",""fast_test"":""1"",""num_seqs"":""1""}","https://test12345.live/?participantId=test_aa1124&assignmentId=assnmnt123&projectId=proj123666&fast_test=1&num_seqs=1","test_aa1124-2024-11-24-13-53-43","","null","","images/causal_sequence/the_performance_causal/the_performance_causal_9.png","null","",""
"","","","","","image-button-response","51","28456","0.0-10.0-1.0-2.8","test_aa1124","test_aa1124","assnmnt123","proj123666","{""participantId"":""test_aa1124"",""assignmentId"":""assnmnt123"",""projectId"":""proj123666"",""fast_test"":""1"",""num_seqs"":""1""}","https://test12345.live/?participantId=test_aa1124&assignmentId=assnmnt123&projectId=proj123666&fast_test=1&num_seqs=1","test_aa1124-2024-11-24-13-53-43","","null","","[]","null","",""
"","","","","","image-button-response","52","28640","0.0-10.0-1.0-0.9","test_aa1124","test_aa1124","assnmnt123","proj123666","{""participantId"":""test_aa1124"",""assignmentId"":""assnmnt123"",""projectId"":""proj123666"",""fast_test"":""1"",""num_seqs"":""1""}","https://test12345.live/?participantId=test_aa1124&assignmentId=assnmnt123&projectId=proj123666&fast_test=1&num_seqs=1","test_aa1124-2024-11-24-13-53-43","","null","","images/causal_sequence/the_performance_causal/the_performance_causal_ten.png","null","",""
"","","","","","image-button-response","53","28824","0.0-10.0-1.0-1.9","test_aa1124","test_aa1124","assnmnt123","proj123666","{""participantId"":""test_aa1124"",""assignmentId"":""assnmnt123"",""projectId"":""proj123666"",""fast_test"":""1"",""num_seqs"":""1""}","https://test12345.live/?participantId=test_aa1124&assignmentId=assnmnt123&projectId=proj123666&fast_test=1&num_seqs=1","test_aa1124-2024-11-24-13-53-43","","null","","images/causal_sequence/the_performance_causal/the_performance_causal_ten.png","null","",""
"","","","","","image-button-response","54","29008","0.0-10.0-1.0-2.9","test_aa1124","test_aa1124","assnmnt123","proj123666","{""participantId"":""test_aa1124"",""assignmentId"":""assnmnt123"",""projectId"":""proj123666"",""fast_test"":""1"",""num_seqs"":""1""}","https://test12345.live/?participantId=test_aa1124&assignmentId=assnmnt123&projectId=proj123666&fast_test=1&num_seqs=1","test_aa1124-2024-11-24-13-53-43","","null","","[]","null","",""
"","","","","","html-audio-response","55","30655","0.0-11.0","test_aa1124","test_aa1124","assnmnt123","proj123666","{""participantId"":""test_aa1124"",""assignmentId"":""assnmnt123"",""projectId"":""proj123666"",""fast_test"":""1"",""num_seqs"":""1""}","https://test12345.live/?participantId=test_aa1124&assignmentId=assnmnt123&projectId=proj123666&fast_test=1&num_seqs=1","test_aa1124-2024-11-24-13-53-43","","1027","","[""<span style=\""color: red; font-size: 24px\""> NOW RECORDING</span><p>Please say out loud all the images you saw, as many as you can remember. The images can be said in any order.</p>""]","","2","the_performance_causal"
"","","","","","image-button-response","56","32157","0.0-12.0-0.0","test_aa1124","test_aa1124","assnmnt123","proj123666","{""participantId"":""test_aa1124"",""assignmentId"":""assnmnt123"",""projectId"":""proj123666"",""fast_test"":""1"",""num_seqs"":""1""}","https://test12345.live/?participantId=test_aa1124&assignmentId=assnmnt123&projectId=proj123666&fast_test=1&num_seqs=1","test_aa1124-2024-11-24-13-53-43","","null","","images/schematic_sequence/interview_scheme/interview_scheme_0.png","null","",""
"","","","","","image-button-response","57","32339","0.0-12.0-1.0-0.0","test_aa1124","test_aa1124","assnmnt123","proj123666","{""participantId"":""test_aa1124"",""assignmentId"":""assnmnt123"",""projectId"":""proj123666"",""fast_test"":""1"",""num_seqs"":""1""}","https://test12345.live/?participantId=test_aa1124&assignmentId=assnmnt123&projectId=proj123666&fast_test=1&num_seqs=1","test_aa1124-2024-11-24-13-53-43","","null","","images/schematic_sequence/interview_scheme/interview_scheme_1.png","null","",""
"","","","","","image-button-response","58","32523","0.0-12.0-1.0-1.0","test_aa1124","test_aa1124","assnmnt123","proj123666","{""participantId"":""test_aa1124"",""assignmentId"":""assnmnt123"",""projectId"":""proj123666"",""fast_test"":""1"",""num_seqs"":""1""}","https://test12345.live/?participantId=test_aa1124&assignmentId=assnmnt123&projectId=proj123666&fast_test=1&num_seqs=1","test_aa1124-2024-11-24-13-53-43","","null","","images/schematic_sequence/interview_scheme/interview_scheme_1.png","null","",""
"","","","","","image-button-response","59","32709","0.0-12.0-1.0-2.0","test_aa1124","test_aa1124","assnmnt123","proj123666","{""participantId"":""test_aa1124"",""assignmentId"":""assnmnt123"",""projectId"":""proj123666"",""fast_test"":""1"",""num_seqs"":""1""}","https://test12345.live/?participantId=test_aa1124&assignmentId=assnmnt123&projectId=proj123666&fast_test=1&num_seqs=1","test_aa1124-2024-11-24-13-53-43","","null","","[]","null","",""
"","","","","","image-button-response","60","32903","0.0-12.0-1.0-0.1","test_aa1124","test_aa1124","assnmnt123","proj123666","{""participantId"":""test_aa1124"",""assignmentId"":""assnmnt123"",""projectId"":""proj123666"",""fast_test"":""1"",""num_seqs"":""1""}","https://test12345.live/?participantId=test_aa1124&assignmentId=assnmnt123&projectId=proj123666&fast_test=1&num_seqs=1","test_aa1124-2024-11-24-13-53-43","","null","","images/schematic_sequence/interview_scheme/interview_scheme_2.png","null","",""
"","","","","","image-button-response","61","33088","0.0-12.0-1.0-1.1","test_aa1124","test_aa1124","assnmnt123","proj123666","{""participantId"":""test_aa1124"",""assignmentId"":""assnmnt123"",""projectId"":""proj123666"",""fast_test"":""1"",""num_seqs"":""1""}","https://test12345.live/?participantId=test_aa1124&assignmentId=assnmnt123&projectId=proj123666&fast_test=1&num_seqs=1","test_aa1124-2024-11-24-13-53-43","","null","","images/schematic_sequence/interview_scheme/interview_scheme_2.png","null","",""
"","","","","","image-button-response","62","33270","0.0-12.0-1.0-2.1","test_aa1124","test_aa1124","assnmnt123","proj123666","{""participantId"":""test_aa1124"",""assignmentId"":""assnmnt123"",""projectId"":""proj123666"",""fast_test"":""1"",""num_seqs"":""1""}","https://test12345.live/?participantId=test_aa1124&assignmentId=assnmnt123&projectId=proj123666&fast_test=1&num_seqs=1","test_aa1124-2024-11-24-13-53-43","","null","","[]","null","",""
"","","","","","image-button-response","63","33455","0.0-12.0-1.0-0.2","test_aa1124","test_aa1124","assnmnt123","proj123666","{""participantId"":""test_aa1124"",""assignmentId"":""assnmnt123"",""projectId"":""proj123666"",""fast_test"":""1"",""num_seqs"":""1""}","https://test12345.live/?participantId=test_aa1124&assignmentId=assnmnt123&projectId=proj123666&fast_test=1&num_seqs=1","test_aa1124-2024-11-24-13-53-43","","null","","images/schematic_sequence/interview_scheme/interview_scheme_3.png","null","",""
"","","","","","image-button-response","64","33639","0.0-12.0-1.0-1.2","test_aa1124","test_aa1124","assnmnt123","proj123666","{""participantId"":""test_aa1124"",""assignmentId"":""assnmnt123"",""projectId"":""proj123666"",""fast_test"":""1"",""num_seqs"":""1""}","https://test12345.live/?participantId=test_aa1124&assignmentId=assnmnt123&projectId=proj123666&fast_test=1&num_seqs=1","test_aa1124-2024-11-24-13-53-43","","null","","images/schematic_sequence/interview_scheme/interview_scheme_3.png","null","",""
"","","","","","image-button-response","65","33822","0.0-12.0-1.0-2.2","test_aa1124","test_aa1124","assnmnt123","proj123666","{""participantId"":""test_aa1124"",""assignmentId"":""assnmnt123"",""projectId"":""proj123666"",""fast_test"":""1"",""num_seqs"":""1""}","https://test12345.live/?participantId=test_aa1124&assignmentId=assnmnt123&projectId=proj123666&fast_test=1&num_seqs=1","test_aa1124-2024-11-24-13-53-43","","null","","[]","null","",""
"","","","","","image-button-response","66","34007","0.0-12.0-1.0-0.3","test_aa1124","test_aa1124","assnmnt123","proj123666","{""participantId"":""test_aa1124"",""assignmentId"":""assnmnt123"",""projectId"":""proj123666"",""fast_test"":""1"",""num_seqs"":""1""}","https://test12345.live/?participantId=test_aa1124&assignmentId=assnmnt123&projectId=proj123666&fast_test=1&num_seqs=1","test_aa1124-2024-11-24-13-53-43","","null","","images/schematic_sequence/interview_scheme/interview_scheme_4.png","null","",""
"","","","","","image-button-response","67","34193","0.0-12.0-1.0-1.3","test_aa1124","test_aa1124","assnmnt123","proj123666","{""participantId"":""test_aa1124"",""assignmentId"":""assnmnt123"",""projectId"":""proj123666"",""fast_test"":""1"",""num_seqs"":""1""}","https://test12345.live/?participantId=test_aa1124&assignmentId=assnmnt123&projectId=proj123666&fast_test=1&num_seqs=1","test_aa1124-2024-11-24-13-53-43","","null","","images/schematic_sequence/interview_scheme/interview_scheme_4.png","null","",""
"","","","","","image-button-response","68","34378","0.0-12.0-1.0-2.3","test_aa1124","test_aa1124","assnmnt123","proj123666","{""participantId"":""test_aa1124"",""assignmentId"":""assnmnt123"",""projectId"":""proj123666"",""fast_test"":""1"",""num_seqs"":""1""}","https://test12345.live/?participantId=test_aa1124&assignmentId=assnmnt123&projectId=proj123666&fast_test=1&num_seqs=1","test_aa1124-2024-11-24-13-53-43","","null","","[]","null","",""
"","","","","","image-button-response","69","34571","0.0-12.0-1.0-0.4","test_aa1124","test_aa1124","assnmnt123","proj123666","{""participantId"":""test_aa1124"",""assignmentId"":""assnmnt123"",""projectId"":""proj123666"",""fast_test"":""1"",""num_seqs"":""1""}","https://test12345.live/?participantId=test_aa1124&assignmentId=assnmnt123&projectId=proj123666&fast_test=1&num_seqs=1","test_aa1124-2024-11-24-13-53-43","","null","","images/schematic_sequence/interview_scheme/interview_scheme_5.png","null","",""
"","","","","","image-button-response","70","34755","0.0-12.0-1.0-1.4","test_aa1124","test_aa1124","assnmnt123","proj123666","{""participantId"":""test_aa1124"",""assignmentId"":""assnmnt123"",""projectId"":""proj123666"",""fast_test"":""1"",""num_seqs"":""1""}","https://test12345.live/?participantId=test_aa1124&assignmentId=assnmnt123&projectId=proj123666&fast_test=1&num_seqs=1","test_aa1124-2024-11-24-13-53-43","","null","","images/schematic_sequence/interview_scheme/interview_scheme_5.png","null","",""
"","","","","","image-button-response","71","34940","0.0-12.0-1.0-2.4","test_aa1124","test_aa1124","assnmnt123","proj123666","{""participantId"":""test_aa1124"",""assignmentId"":""assnmnt123"",""projectId"":""proj123666"",""fast_test"":""1"",""num_seqs"":""1""}","https://test12345.live/?participantId=test_aa1124&assignmentId=assnmnt123&projectId=proj123666&fast_test=1&num_seqs=1","test_aa1124-2024-11-24-13-53-43","","null","","[]","null","",""
"","","","","","image-button-response","72","35125","0.0-12.0-1.0-0.5","test_aa1124","test_aa1124","assnmnt123","proj123666","{""participantId"":""test_aa1124"",""assignmentId"":""assnmnt123"",""projectId"":""proj123666"",""fast_test"":""1"",""num_seqs"":""1""}","https://test12345.live/?participantId=test_aa1124&assignmentId=assnmnt123&projectId=proj123666&fast_test=1&num_seqs=1","test_aa1124-2024-11-24-13-53-43","","null","","images/schematic_sequence/interview_scheme/interview_scheme_6.png","null","",""
"","","","","","image-button-response","73","35308","0.0-12.0-1.0-1.5","test_aa1124","test_aa1124","assnmnt123","proj123666","{""participantId"":""test_aa1124"",""assignmentId"":""assnmnt123"",""projectId"":""proj123666"",""fast_test"":""1"",""num_seqs"":""1""}","https://test12345.live/?participantId=test_aa1124&assignmentId=assnmnt123&projectId=proj123666&fast_test=1&num_seqs=1","test_aa1124-2024-11-24-13-53-43","","null","","images/schematic_sequence/interview_scheme/interview_scheme_6.png","null","",""
"","","","","","image-button-response","74","35491","0.0-12.0-1.0-2.5","test_aa1124","test_aa1124","assnmnt123","proj123666","{""participantId"":""test_aa1124"",""assignmentId"":""assnmnt123"",""projectId"":""proj123666"",""fast_test"":""1"",""num_seqs"":""1""}","https://test12345.live/?participantId=test_aa1124&assignmentId=assnmnt123&projectId=proj123666&fast_test=1&num_seqs=1","test_aa1124-2024-11-24-13-53-43","","null","","[]","null","",""
"","","","","","image-button-response","75","35674","0.0-12.0-1.0-0.6","test_aa1124","test_aa1124","assnmnt123","proj123666","{""participantId"":""test_aa1124"",""assignmentId"":""assnmnt123"",""projectId"":""proj123666"",""fast_test"":""1"",""num_seqs"":""1""}","https://test12345.live/?participantId=test_aa1124&assignmentId=assnmnt123&projectId=proj123666&fast_test=1&num_seqs=1","test_aa1124-2024-11-24-13-53-43","","null","","images/schematic_sequence/interview_scheme/interview_scheme_7.png","null","",""
"","","","","","image-button-response","76","35857","0.0-12.0-1.0-1.6","test_aa1124","test_aa1124","assnmnt123","proj123666","{""participantId"":""test_aa1124"",""assignmentId"":""assnmnt123"",""projectId"":""proj123666"",""fast_test"":""1"",""num_seqs"":""1""}","https://test12345.live/?participantId=test_aa1124&assignmentId=assnmnt123&projectId=proj123666&fast_test=1&num_seqs=1","test_aa1124-2024-11-24-13-53-43","","null","","images/schematic_sequence/interview_scheme/interview_scheme_7.png","null","",""
"","","","","","image-button-response","77","36041","0.0-12.0-1.0-2.6","test_aa1124","test_aa1124","assnmnt123","proj123666","{""participantId"":""test_aa1124"",""assignmentId"":""assnmnt123"",""projectId"":""proj123666"",""fast_test"":""1"",""num_seqs"":""1""}","https://test12345.live/?participantId=test_aa1124&assignmentId=assnmnt123&projectId=proj123666&fast_test=1&num_seqs=1","test_aa1124-2024-11-24-13-53-43","","null","","[]","null","",""
"","","","","","image-button-response","78","36224","0.0-12.0-1.0-0.7","test_aa1124","test_aa1124","assnmnt123","proj123666","{""participantId"":""test_aa1124"",""assignmentId"":""assnmnt123"",""projectId"":""proj123666"",""fast_test"":""1"",""num_seqs"":""1""}","https://test12345.live/?participantId=test_aa1124&assignmentId=assnmnt123&projectId=proj123666&fast_test=1&num_seqs=1","test_aa1124-2024-11-24-13-53-43","","null","","images/schematic_sequence/interview_scheme/interview_scheme_8.png","null","",""
"","","","","","image-button-response","79","36406","0.0-12.0-1.0-1.7","test_aa1124","test_aa1124","assnmnt123","proj123666","{""participantId"":""test_aa1124"",""assignmentId"":""assnmnt123"",""projectId"":""proj123666"",""fast_test"":""1"",""num_seqs"":""1""}","https://test12345.live/?participantId=test_aa1124&assignmentId=assnmnt123&projectId=proj123666&fast_test=1&num_seqs=1","test_aa1124-2024-11-24-13-53-43","","null","","images/schematic_sequence/interview_scheme/interview_scheme_8.png","null","",""
"","","","","","image-button-response","80","36588","0.0-12.0-1.0-2.7","test_aa1124","test_aa1124","assnmnt123","proj123666","{""participantId"":""test_aa1124"",""assignmentId"":""assnmnt123"",""projectId"":""proj123666"",""fast_test"":""1"",""num_seqs"":""1""}","https://test12345.live/?participantId=test_aa1124&assignmentId=assnmnt123&projectId=proj123666&fast_test=1&num_seqs=1","test_aa1124-2024-11-24-13-53-43","","null","","[]","null","",""
"","","","","","image-button-response","81","36771","0.0-12.0-1.0-0.8","test_aa1124","test_aa1124","assnmnt123","proj123666","{""participantId"":""test_aa1124"",""assignmentId"":""assnmnt123"",""projectId"":""proj123666"",""fast_test"":""1"",""num_seqs"":""1""}","https://test12345.live/?participantId=test_aa1124&assignmentId=assnmnt123&projectId=proj123666&fast_test=1&num_seqs=1","test_aa1124-2024-11-24-13-53-43","","null","","images/schematic_sequence/interview_scheme/interview_scheme_9.png","null","",""
"","","","","","image-button-response","82","36956","0.0-12.0-1.0-1.8","test_aa1124","test_aa1124","assnmnt123","proj123666","{""participantId"":""test_aa1124"",""assignmentId"":""assnmnt123"",""projectId"":""proj123666"",""fast_test"":""1"",""num_seqs"":""1""}","https://test12345.live/?participantId=test_aa1124&assignmentId=assnmnt123&projectId=proj123666&fast_test=1&num_seqs=1","test_aa1124-2024-11-24-13-53-43","","null","","images/schematic_sequence/interview_scheme/interview_scheme_9.png","null","",""
"","","","","","image-button-response","83","37139","0.0-12.0-1.0-2.8","test_aa1124","test_aa1124","assnmnt123","proj123666","{""participantId"":""test_aa1124"",""assignmentId"":""assnmnt123"",""projectId"":""proj123666"",""fast_test"":""1"",""num_seqs"":""1""}","https://test12345.live/?participantId=test_aa1124&assignmentId=assnmnt123&projectId=proj123666&fast_test=1&num_seqs=1","test_aa1124-2024-11-24-13-53-43","","null","","[]","null","",""
"","","","","","image-button-response","84","37323","0.0-12.0-1.0-0.9","test_aa1124","test_aa1124","assnmnt123","proj123666","{""participantId"":""test_aa1124"",""assignmentId"":""assnmnt123"",""projectId"":""proj123666"",""fast_test"":""1"",""num_seqs"":""1""}","https://test12345.live/?participantId=test_aa1124&assignmentId=assnmnt123&projectId=proj123666&fast_test=1&num_seqs=1","test_aa1124-2024-11-24-13-53-43","","null","","images/schematic_sequence/interview_scheme/interview_scheme_ten.png","null","",""
"","","","","","image-button-response","85","37521","0.0-12.0-1.0-1.9","test_aa1124","test_aa1124","assnmnt123","proj123666","{""participantId"":""test_aa1124"",""assignmentId"":""assnmnt123"",""projectId"":""proj123666"",""fast_test"":""1"",""num_seqs"":""1""}","https://test12345.live/?participantId=test_aa1124&assignmentId=assnmnt123&projectId=proj123666&fast_test=1&num_seqs=1","test_aa1124-2024-11-24-13-53-43","","null","","images/schematic_sequence/interview_scheme/interview_scheme_ten.png","null","",""
"","","","","","image-button-response","86","37704","0.0-12.0-1.0-2.9","test_aa1124","test_aa1124","assnmnt123","proj123666","{""participantId"":""test_aa1124"",""assignmentId"":""assnmnt123"",""projectId"":""proj123666"",""fast_test"":""1"",""num_seqs"":""1""}","https://test12345.live/?participantId=test_aa1124&assignmentId=assnmnt123&projectId=proj123666&fast_test=1&num_seqs=1","test_aa1124-2024-11-24-13-53-43","","null","","[]","null","",""
"","","","","","html-audio-response","87","39366","0.0-13.0","test_aa1124","test_aa1124","assnmnt123","proj123666","{""participantId"":""test_aa1124"",""assignmentId"":""assnmnt123"",""projectId"":""proj123666"",""fast_test"":""1"",""num_seqs"":""1""}","https://test12345.live/?participantId=test_aa1124&assignmentId=assnmnt123&projectId=proj123666&fast_test=1&num_seqs=1","test_aa1124-2024-11-24-13-53-43","","990","","[""<span style=\""color: red; font-size: 24px\""> NOW RECORDING</span><p>Please say out loud all the images you saw, as many as you can remember. The images can be said in any order.</p>""]","","1","interview_scheme"
"","","","","","image-button-response","88","40871","0.0-14.0-0.0","test_aa1124","test_aa1124","assnmnt123","proj123666","{""participantId"":""test_aa1124"",""assignmentId"":""assnmnt123"",""projectId"":""proj123666"",""fast_test"":""1"",""num_seqs"":""1""}","https://test12345.live/?participantId=test_aa1124&assignmentId=assnmnt123&projectId=proj123666&fast_test=1&num_seqs=1","test_aa1124-2024-11-24-13-53-43","","null","","images/semantic_sequence/physical_activity_semantic/physical_activity_semantic_0.png","null","",""
"","","","","","image-button-response","89","41055","0.0-14.0-1.0-0.0","test_aa1124","test_aa1124","assnmnt123","proj123666","{""participantId"":""test_aa1124"",""assignmentId"":""assnmnt123"",""projectId"":""proj123666"",""fast_test"":""1"",""num_seqs"":""1""}","https://test12345.live/?participantId=test_aa1124&assignmentId=assnmnt123&projectId=proj123666&fast_test=1&num_seqs=1","test_aa1124-2024-11-24-13-53-43","","null","","images/semantic_sequence/physical_activity_semantic/physical_activity_semantic_1.png","null","",""
"","","","","","image-button-response","90","41240","0.0-14.0-1.0-1.0","test_aa1124","test_aa1124","assnmnt123","proj123666","{""participantId"":""test_aa1124"",""assignmentId"":""assnmnt123"",""projectId"":""proj123666"",""fast_test"":""1"",""num_seqs"":""1""}","https://test12345.live/?participantId=test_aa1124&assignmentId=assnmnt123&projectId=proj123666&fast_test=1&num_seqs=1","test_aa1124-2024-11-24-13-53-43","","null","","images/semantic_sequence/physical_activity_semantic/physical_activity_semantic_1.png","null","",""
"","","","","","image-button-response","91","41423","0.0-14.0-1.0-2.0","test_aa1124","test_aa1124","assnmnt123","proj123666","{""participantId"":""test_aa1124"",""assignmentId"":""assnmnt123"",""projectId"":""proj123666"",""fast_test"":""1"",""num_seqs"":""1""}","https://test12345.live/?participantId=test_aa1124&assignmentId=assnmnt123&projectId=proj123666&fast_test=1&num_seqs=1","test_aa1124-2024-11-24-13-53-43","","null","","[]","null","",""
"","","","","","image-button-response","92","41606","0.0-14.0-1.0-0.1","test_aa1124","test_aa1124","assnmnt123","proj123666","{""participantId"":""test_aa1124"",""assignmentId"":""assnmnt123"",""projectId"":""proj123666"",""fast_test"":""1"",""num_seqs"":""1""}","https://test12345.live/?participantId=test_aa1124&assignmentId=assnmnt123&projectId=proj123666&fast_test=1&num_seqs=1","test_aa1124-2024-11-24-13-53-43","","null","","images/semantic_sequence/physical_activity_semantic/physical_activity_semantic_2.png","null","",""
"","","","","","image-button-response","93","41791","0.0-14.0-1.0-1.1","test_aa1124","test_aa1124","assnmnt123","proj123666","{""participantId"":""test_aa1124"",""assignmentId"":""assnmnt123"",""projectId"":""proj123666"",""fast_test"":""1"",""num_seqs"":""1""}","https://test12345.live/?participantId=test_aa1124&assignmentId=assnmnt123&projectId=proj123666&fast_test=1&num_seqs=1","test_aa1124-2024-11-24-13-53-43","","null","","images/semantic_sequence/physical_activity_semantic/physical_activity_semantic_2.png","null","",""
"","","","","","image-button-response","94","41974","0.0-14.0-1.0-2.1","test_aa1124","test_aa1124","assnmnt123","proj123666","{""participantId"":""test_aa1124"",""assignmentId"":""assnmnt123"",""projectId"":""proj123666"",""fast_test"":""1"",""num_seqs"":""1""}","https://test12345.live/?participantId=test_aa1124&assignmentId=assnmnt123&projectId=proj123666&fast_test=1&num_seqs=1","test_aa1124-2024-11-24-13-53-43","","null","","[]","null","",""
"","","","","","image-button-response","95","42158","0.0-14.0-1.0-0.2","test_aa1124","test_aa1124","assnmnt123","proj123666","{""participantId"":""test_aa1124"",""assignmentId"":""assnmnt123"",""projectId"":""proj123666"",""fast_test"":""1"",""num_seqs"":""1""}","https://test12345.live/?participantId=test_aa1124&assignmentId=assnmnt123&projectId=proj123666&fast_test=1&num_seqs=1","test_aa1124-2024-11-24-13-53-43","","null","","images/semantic_sequence/physical_activity_semantic/physical_activity_semantic_3.png","null","",""
"","","","","","image-button-response","96","42356","0.0-14.0-1.0-1.2","test_aa1124","test_aa1124","assnmnt123","proj123666","{""participantId"":""test_aa1124"",""assignmentId"":""assnmnt123"",""projectId"":""proj123666"",""fast_test"":""1"",""num_seqs"":""1""}","https://test12345.live/?participantId=test_aa1124&assignmentId=assnmnt123&projectId=proj123666&fast_test=1&num_seqs=1","test_aa1124-2024-11-24-13-53-43","","null","","images/semantic_sequence/physical_activity_semantic/physical_activity_semantic_3.png","null","",""
"","","","","","image-button-response","97","42540","0.0-14.0-1.0-2.2","test_aa1124","test_aa1124","assnmnt123","proj123666","{""participantId"":""test_aa1124"",""assignmentId"":""assnmnt123"",""projectId"":""proj123666"",""fast_test"":""1"",""num_seqs"":""1""}","https://test12345.live/?participantId=test_aa1124&assignmentId=assnmnt123&projectId=proj123666&fast_test=1&num_seqs=1","test_aa1124-2024-11-24-13-53-43","","null","","[]","null","",""
"","","","","","image-button-response","98","42722","0.0-14.0-1.0-0.3","test_aa1124","test_aa1124","assnmnt123","proj123666","{""participantId"":""test_aa1124"",""assignmentId"":""assnmnt123"",""projectId"":""proj123666"",""fast_test"":""1"",""num_seqs"":""1""}","https://test12345.live/?participantId=test_aa1124&assignmentId=assnmnt123&projectId=proj123666&fast_test=1&num_seqs=1","test_aa1124-2024-11-24-13-53-43","","null","","images/semantic_sequence/physical_activity_semantic/physical_activity_semantic_4.png","null","",""
"","","","","","image-button-response","99","42904","0.0-14.0-1.0-1.3","test_aa1124","test_aa1124","assnmnt123","proj123666","{""participantId"":""test_aa1124"",""assignmentId"":""assnmnt123"",""projectId"":""proj123666"",""fast_test"":""1"",""num_seqs"":""1""}","https://test12345.live/?participantId=test_aa1124&assignmentId=assnmnt123&projectId=proj123666&fast_test=1&num_seqs=1","test_aa1124-2024-11-24-13-53-43","","null","","images/semantic_sequence/physical_activity_semantic/physical_activity_semantic_4.png","null","",""
"","","","","","image-button-response","100","43088","0.0-14.0-1.0-2.3","test_aa1124","test_aa1124","assnmnt123","proj123666","{""participantId"":""test_aa1124"",""assignmentId"":""assnmnt123"",""projectId"":""proj123666"",""fast_test"":""1"",""num_seqs"":""1""}","https://test12345.live/?participantId=test_aa1124&assignmentId=assnmnt123&projectId=proj123666&fast_test=1&num_seqs=1","test_aa1124-2024-11-24-13-53-43","","null","","[]","null","",""
"","","","","","image-button-response","101","43272","0.0-14.0-1.0-0.4","test_aa1124","test_aa1124","assnmnt123","proj123666","{""participantId"":""test_aa1124"",""assignmentId"":""assnmnt123"",""projectId"":""proj123666"",""fast_test"":""1"",""num_seqs"":""1""}","https://test12345.live/?participantId=test_aa1124&assignmentId=assnmnt123&projectId=proj123666&fast_test=1&num_seqs=1","test_aa1124-2024-11-24-13-53-43","","null","","images/semantic_sequence/physical_activity_semantic/physical_activity_semantic_5.png","null","",""
"","","","","","image-button-response","102","43454","0.0-14.0-1.0-1.4","test_aa1124","test_aa1124","assnmnt123","proj123666","{""participantId"":""test_aa1124"",""assignmentId"":""assnmnt123"",""projectId"":""proj123666"",""fast_test"":""1"",""num_seqs"":""1""}","https://test12345.live/?participantId=test_aa1124&assignmentId=assnmnt123&projectId=proj123666&fast_test=1&num_seqs=1","test_aa1124-2024-11-24-13-53-43","","null","","images/semantic_sequence/physical_activity_semantic/physical_activity_semantic_5.png","null","",""
"","","","","","image-button-response","103","43640","0.0-14.0-1.0-2.4","test_aa1124","test_aa1124","assnmnt123","proj123666","{""participantId"":""test_aa1124"",""assignmentId"":""assnmnt123"",""projectId"":""proj123666"",""fast_test"":""1"",""num_seqs"":""1""}","https://test12345.live/?participantId=test_aa1124&assignmentId=assnmnt123&projectId=proj123666&fast_test=1&num_seqs=1","test_aa1124-2024-11-24-13-53-43","","null","","[]","null","",""
"","","","","","image-button-response","104","43825","0.0-14.0-1.0-0.5","test_aa1124","test_aa1124","assnmnt123","proj123666","{""participantId"":""test_aa1124"",""assignmentId"":""assnmnt123"",""projectId"":""proj123666"",""fast_test"":""1"",""num_seqs"":""1""}","https://test12345.live/?participantId=test_aa1124&assignmentId=assnmnt123&projectId=proj123666&fast_test=1&num_seqs=1","test_aa1124-2024-11-24-13-53-43","","null","","images/semantic_sequence/physical_activity_semantic/physical_activity_semantic_6.png","null","",""
"","","","","","image-button-response","105","44007","0.0-14.0-1.0-1.5","test_aa1124","test_aa1124","assnmnt123","proj123666","{""participantId"":""test_aa1124"",""assignmentId"":""assnmnt123"",""projectId"":""proj123666"",""fast_test"":""1"",""num_seqs"":""1""}","https://test12345.live/?participantId=test_aa1124&assignmentId=assnmnt123&projectId=proj123666&fast_test=1&num_seqs=1","test_aa1124-2024-11-24-13-53-43","","null","","images/semantic_sequence/physical_activity_semantic/physical_activity_semantic_6.png","null","",""
"","","","","","image-button-response","106","44191","0.0-14.0-1.0-2.5","test_aa1124","test_aa1124","assnmnt123","proj123666","{""participantId"":""test_aa1124"",""assignmentId"":""assnmnt123"",""projectId"":""proj123666"",""fast_test"":""1"",""num_seqs"":""1""}","https://test12345.live/?participantId=test_aa1124&assignmentId=assnmnt123&projectId=proj123666&fast_test=1&num_seqs=1","test_aa1124-2024-11-24-13-53-43","","null","","[]","null","",""
"","","","","","image-button-response","107","44389","0.0-14.0-1.0-0.6","test_aa1124","test_aa1124","assnmnt123","proj123666","{""participantId"":""test_aa1124"",""assignmentId"":""assnmnt123"",""projectId"":""proj123666"",""fast_test"":""1"",""num_seqs"":""1""}","https://test12345.live/?participantId=test_aa1124&assignmentId=assnmnt123&projectId=proj123666&fast_test=1&num_seqs=1","test_aa1124-2024-11-24-13-53-43","","null","","images/semantic_sequence/physical_activity_semantic/physical_activity_semantic_7.png","null","",""
"","","","","","image-button-response","108","44587","0.0-14.0-1.0-1.6","test_aa1124","test_aa1124","assnmnt123","proj123666","{""participantId"":""test_aa1124"",""assignmentId"":""assnmnt123"",""projectId"":""proj123666"",""fast_test"":""1"",""num_seqs"":""1""}","https://test12345.live/?participantId=test_aa1124&assignmentId=assnmnt123&projectId=proj123666&fast_test=1&num_seqs=1","test_aa1124-2024-11-24-13-53-43","","null","","images/semantic_sequence/physical_activity_semantic/physical_activity_semantic_7.png","null","",""
"","","","","","image-button-response","109","44771","0.0-14.0-1.0-2.6","test_aa1124","test_aa1124","assnmnt123","proj123666","{""participantId"":""test_aa1124"",""assignmentId"":""assnmnt123"",""projectId"":""proj123666"",""fast_test"":""1"",""num_seqs"":""1""}","https://test12345.live/?participantId=test_aa1124&assignmentId=assnmnt123&projectId=proj123666&fast_test=1&num_seqs=1","test_aa1124-2024-11-24-13-53-43","","null","","[]","null","",""
"","","","","","image-button-response","110","44956","0.0-14.0-1.0-0.7","test_aa1124","test_aa1124","assnmnt123","proj123666","{""participantId"":""test_aa1124"",""assignmentId"":""assnmnt123"",""projectId"":""proj123666"",""fast_test"":""1"",""num_seqs"":""1""}","https://test12345.live/?participantId=test_aa1124&assignmentId=assnmnt123&projectId=proj123666&fast_test=1&num_seqs=1","test_aa1124-2024-11-24-13-53-43","","null","","images/semantic_sequence/physical_activity_semantic/physical_activity_semantic_8.png","null","",""
"","","","","","image-button-response","111","45142","0.0-14.0-1.0-1.7","test_aa1124","test_aa1124","assnmnt123","proj123666","{""participantId"":""test_aa1124"",""assignmentId"":""assnmnt123"",""projectId"":""proj123666"",""fast_test"":""1"",""num_seqs"":""1""}","https://test12345.live/?participantId=test_aa1124&assignmentId=assnmnt123&projectId=proj123666&fast_test=1&num_seqs=1","test_aa1124-2024-11-24-13-53-43","","null","","images/semantic_sequence/physical_activity_semantic/physical_activity_semantic_8.png","null","",""
"","","","","","image-button-response","112","45325","0.0-14.0-1.0-2.7","test_aa1124","test_aa1124","assnmnt123","proj123666","{""participantId"":""test_aa1124"",""assignmentId"":""assnmnt123"",""projectId"":""proj123666"",""fast_test"":""1"",""num_seqs"":""1""}","https://test12345.live/?participantId=test_aa1124&assignmentId=assnmnt123&projectId=proj123666&fast_test=1&num_seqs=1","test_aa1124-2024-11-24-13-53-43","","null","","[]","null","",""
"","","","","","image-button-response","113","45519","0.0-14.0-1.0-0.8","test_aa1124","test_aa1124","assnmnt123","proj123666","{""participantId"":""test_aa1124"",""assignmentId"":""assnmnt123"",""projectId"":""proj123666"",""fast_test"":""1"",""num_seqs"":""1""}","https://test12345.live/?participantId=test_aa1124&assignmentId=assnmnt123&projectId=proj123666&fast_test=1&num_seqs=1","test_aa1124-2024-11-24-13-53-43","","null","","images/semantic_sequence/physical_activity_semantic/physical_activity_semantic_9.png","null","",""
"","","","","","image-button-response","114","45704","0.0-14.0-1.0-1.8","test_aa1124","test_aa1124","assnmnt123","proj123666","{""participantId"":""test_aa1124"",""assignmentId"":""assnmnt123"",""projectId"":""proj123666"",""fast_test"":""1"",""num_seqs"":""1""}","https://test12345.live/?participantId=test_aa1124&assignmentId=assnmnt123&projectId=proj123666&fast_test=1&num_seqs=1","test_aa1124-2024-11-24-13-53-43","","null","","images/semantic_sequence/physical_activity_semantic/physical_activity_semantic_9.png","null","",""
"","","","","","image-button-response","115","45890","0.0-14.0-1.0-2.8","test_aa1124","test_aa1124","assnmnt123","proj123666","{""participantId"":""test_aa1124"",""assignmentId"":""assnmnt123"",""projectId"":""proj123666"",""fast_test"":""1"",""num_seqs"":""1""}","https://test12345.live/?participantId=test_aa1124&assignmentId=assnmnt123&projectId=proj123666&fast_test=1&num_seqs=1","test_aa1124-2024-11-24-13-53-43","","null","","[]","null","",""
"","","","","","image-button-response","116","46087","0.0-14.0-1.0-0.9","test_aa1124","test_aa1124","assnmnt123","proj123666","{""participantId"":""test_aa1124"",""assignmentId"":""assnmnt123"",""projectId"":""proj123666"",""fast_test"":""1"",""num_seqs"":""1""}","https://test12345.live/?participantId=test_aa1124&assignmentId=assnmnt123&projectId=proj123666&fast_test=1&num_seqs=1","test_aa1124-2024-11-24-13-53-43","","null","","images/semantic_sequence/physical_activity_semantic/physical_activity_semantic_ten.png","null","",""
"","","","","","image-button-response","117","46271","0.0-14.0-1.0-1.9","test_aa1124","test_aa1124","assnmnt123","proj123666","{""participantId"":""test_aa1124"",""assignmentId"":""assnmnt123"",""projectId"":""proj123666"",""fast_test"":""1"",""num_seqs"":""1""}","https://test12345.live/?participantId=test_aa1124&assignmentId=assnmnt123&projectId=proj123666&fast_test=1&num_seqs=1","test_aa1124-2024-11-24-13-53-43","","null","","images/semantic_sequence/physical_activity_semantic/physical_activity_semantic_ten.png","null","",""
"","","","","","image-button-response","118","46456","0.0-14.0-1.0-2.9","test_aa1124","test_aa1124","assnmnt123","proj123666","{""participantId"":""test_aa1124"",""assignmentId"":""assnmnt123"",""projectId"":""proj123666"",""fast_test"":""1"",""num_seqs"":""1""}","https://test12345.live/?participantId=test_aa1124&assignmentId=assnmnt123&projectId=proj123666&fast_test=1&num_seqs=1","test_aa1124-2024-11-24-13-53-43","","null","","[]","null","",""
"","","","","","html-audio-response","119","48142","0.0-15.0","test_aa1124","test_aa1124","assnmnt123","proj123666","{""participantId"":""test_aa1124"",""assignmentId"":""assnmnt123"",""projectId"":""proj123666"",""fast_test"":""1"",""num_seqs"":""1""}","https://test12345.live/?participantId=test_aa1124&assignmentId=assnmnt123&projectId=proj123666&fast_test=1&num_seqs=1","test_aa1124-2024-11-24-13-53-43","","1083","","[""<span style=\""color: red; font-size: 24px\""> NOW RECORDING</span><p>Please say out loud all the images you saw, as many as you can remember. The images can be said in any order.</p>""]","","1","physical_activity_semantic"
"","","","","","survey-text","120","49741","0.0-16.0","test_aa1124","test_aa1124","assnmnt123","proj123666","{""participantId"":""test_aa1124"",""assignmentId"":""assnmnt123"",""projectId"":""proj123666"",""fast_test"":""1"",""num_seqs"":""1""}","https://test12345.live/?participantId=test_aa1124&assignmentId=assnmnt123&projectId=proj123666&fast_test=1&num_seqs=1","test_aa1124-2024-11-24-13-53-43","","1590","","","{""Q0"":"""",""Q1"":""""}","",""
"","","","","","instructions","121","50918","0.0-17.0","test_aa1124","test_aa1124","assnmnt123","proj123666","{""participantId"":""test_aa1124"",""assignmentId"":""assnmnt123"",""projectId"":""proj123666"",""fast_test"":""1"",""num_seqs"":""1""}","https://test12345.live/?participantId=test_aa1124&assignmentId=assnmnt123&projectId=proj123666&fast_test=1&num_seqs=1","test_aa1124-2024-11-24-13-53-43","[{""page_index"":0,""viewing_time"":1176}]","1177","","","","",""
"","","","","","survey-text","122","51777","0.0-18.0","test_aa1124","test_aa1124","assnmnt123","proj123666","{""participantId"":""test_aa1124"",""assignmentId"":""assnmnt123"",""projectId"":""proj123666"",""fast_test"":""1"",""num_seqs"":""1""}","https://test12345.live/?participantId=test_aa1124&assignmentId=assnmnt123&projectId=proj123666&fast_test=1&num_seqs=1","test_aa1124-2024-11-24-13-53-43","","856","","","{""Q0"":""""}","",""
