"success","timeout","failed_images","failed_audio","failed_video","trial_type","trial_index","time_elapsed","internal_node_id","subject","subject_id","study_id","session_id","urlvar","current_url","audio_id","view_history","rt","device_id","stimulus","response","estimated_stimulus_onset","seq_name"
"true","false","[]","[]","[]","preload","0","43","0.0-0.0","","","","","{""fast_test"":""1"",""num_seqs"":""2""}","https://test12345.live/?fast_test=1&num_seqs=2","-2024-11-24-07-39-30","","","","","","",""
"","","","","","instructions","1","1929","0.0-1.0","","","","","{""fast_test"":""1"",""num_seqs"":""2""}","https://test12345.live/?fast_test=1&num_seqs=2","-2024-11-24-07-39-30","[{""page_index"":0,""viewing_time"":1886}]","1886","","","","",""
"","","","","","instructions","2","6561","0.0-2.0","","","","","{""fast_test"":""1"",""num_seqs"":""2""}","https://test12345.live/?fast_test=1&num_seqs=2","-2024-11-24-07-39-30","[{""page_index"":0,""viewing_time"":4630}]","4631","","","","",""
"true","","","","","fullscreen","3","8771","0.0-3.0","","","","","{""fast_test"":""1"",""num_seqs"":""2""}","https://test12345.live/?fast_test=1&num_seqs=2","-2024-11-24-07-39-30","","1197","","","","",""
"","","","","","initialize-microphone","4","11967","0.0-4.0-0.0","","","","","{""fast_test"":""1"",""num_seqs"":""2""}","https://test12345.live/?fast_test=1&num_seqs=2","-2024-11-24-07-39-30","","","53f28a877f6599c740caa800dc23624f51fa5bbcd1b1a1ded038d292d93582d7","","","",""
"","","","","","html-audio-response","5","17833","0.0-4.0-1.0","","","","","{""fast_test"":""1"",""num_seqs"":""2""}","https://test12345.live/?fast_test=1&num_seqs=2","-2024-11-24-07-39-30","","4148","","<span style=""color: red; font-size: 24px""> NOW RECORDING</span>
        <p>Please test Microphone</p>","","3",""
"","","","","","html-button-response","6","26594","0.0-4.0-2.0","","","","","{""fast_test"":""1"",""num_seqs"":""2""}","https://test12345.live/?fast_test=1&num_seqs=2","-2024-11-24-07-39-30","","8759","","<p style=""font-size:48px; color:red;"">Is Microphone OK?</p>","0","",""
"","","","","","initialize-microphone","7","32670","0.0-4.1-0.1","","","","","{""fast_test"":""1"",""num_seqs"":""2""}","https://test12345.live/?fast_test=1&num_seqs=2","-2024-11-24-07-39-30","","","53f28a877f6599c740caa800dc23624f51fa5bbcd1b1a1ded038d292d93582d7","","","",""
"","","","","","html-audio-response","8","39700","0.0-4.1-1.1","","","","","{""fast_test"":""1"",""num_seqs"":""2""}","https://test12345.live/?fast_test=1&num_seqs=2","-2024-11-24-07-39-30","","2467","","<span style=""color: red; font-size: 24px""> NOW RECORDING</span>
        <p>Please test Microphone</p>","","2",""
"","","","","","html-button-response","9","41536","0.0-4.1-2.1","","","","","{""fast_test"":""1"",""num_seqs"":""2""}","https://test12345.live/?fast_test=1&num_seqs=2","-2024-11-24-07-39-30","","1835","","<p style=""font-size:48px; color:red;"">Is Microphone OK?</p>","1","",""
"","","","","","instructions","10","43729","0.0-5.0","","","","","{""fast_test"":""1"",""num_seqs"":""2""}","https://test12345.live/?fast_test=1&num_seqs=2","-2024-11-24-07-39-30","[{""page_index"":0,""viewing_time"":1053},{""page_index"":1,""viewing_time"":1140}]","2193","","","","",""
"","","","","","image-button-response","11","45236","0.0-6.0-0.0","","","","","{""fast_test"":""1"",""num_seqs"":""2""}","https://test12345.live/?fast_test=1&num_seqs=2","-2024-11-24-07-39-30","","null","","images/instructions/movie_0.png","null","",""
"","","","","","image-button-response","12","45419","0.0-6.0-1.0-0.0","","","","","{""fast_test"":""1"",""num_seqs"":""2""}","https://test12345.live/?fast_test=1&num_seqs=2","-2024-11-24-07-39-30","","null","","images/instructions/movie_1.png","null","",""
"","","","","","image-button-response","13","45603","0.0-6.0-1.0-1.0","","","","","{""fast_test"":""1"",""num_seqs"":""2""}","https://test12345.live/?fast_test=1&num_seqs=2","-2024-11-24-07-39-30","","null","","images/instructions/movie_1.png","null","",""
"","","","","","image-button-response","14","45786","0.0-6.0-1.0-2.0","","","","","{""fast_test"":""1"",""num_seqs"":""2""}","https://test12345.live/?fast_test=1&num_seqs=2","-2024-11-24-07-39-30","","null","","[]","null","",""
"","","","","","image-button-response","15","45970","0.0-6.0-1.0-0.1","","","","","{""fast_test"":""1"",""num_seqs"":""2""}","https://test12345.live/?fast_test=1&num_seqs=2","-2024-11-24-07-39-30","","null","","images/instructions/movie_2.png","null","",""
"","","","","","image-button-response","16","46154","0.0-6.0-1.0-1.1","","","","","{""fast_test"":""1"",""num_seqs"":""2""}","https://test12345.live/?fast_test=1&num_seqs=2","-2024-11-24-07-39-30","","null","","images/instructions/movie_2.png","null","",""
"","","","","","image-button-response","17","46336","0.0-6.0-1.0-2.1","","","","","{""fast_test"":""1"",""num_seqs"":""2""}","https://test12345.live/?fast_test=1&num_seqs=2","-2024-11-24-07-39-30","","null","","[]","null","",""
"","","","","","image-button-response","18","46519","0.0-6.0-1.0-0.2","","","","","{""fast_test"":""1"",""num_seqs"":""2""}","https://test12345.live/?fast_test=1&num_seqs=2","-2024-11-24-07-39-30","","null","","images/instructions/movie_3.png","null","",""
"","","","","","image-button-response","19","46702","0.0-6.0-1.0-1.2","","","","","{""fast_test"":""1"",""num_seqs"":""2""}","https://test12345.live/?fast_test=1&num_seqs=2","-2024-11-24-07-39-30","","null","","images/instructions/movie_3.png","null","",""
"","","","","","image-button-response","20","46886","0.0-6.0-1.0-2.2","","","","","{""fast_test"":""1"",""num_seqs"":""2""}","https://test12345.live/?fast_test=1&num_seqs=2","-2024-11-24-07-39-30","","null","","[]","null","",""
"","","","","","image-button-response","21","47068","0.0-6.0-1.0-0.3","","","","","{""fast_test"":""1"",""num_seqs"":""2""}","https://test12345.live/?fast_test=1&num_seqs=2","-2024-11-24-07-39-30","","null","","images/instructions/movie_4.png","null","",""
"","","","","","image-button-response","22","47252","0.0-6.0-1.0-1.3","","","","","{""fast_test"":""1"",""num_seqs"":""2""}","https://test12345.live/?fast_test=1&num_seqs=2","-2024-11-24-07-39-30","","null","","images/instructions/movie_4.png","null","",""
"","","","","","image-button-response","23","47435","0.0-6.0-1.0-2.3","","","","","{""fast_test"":""1"",""num_seqs"":""2""}","https://test12345.live/?fast_test=1&num_seqs=2","-2024-11-24-07-39-30","","null","","[]","null","",""
"","","","","","instructions","24","49277","0.0-7.0","","","","","{""fast_test"":""1"",""num_seqs"":""2""}","https://test12345.live/?fast_test=1&num_seqs=2","-2024-11-24-07-39-30","[{""page_index"":0,""viewing_time"":940},{""page_index"":1,""viewing_time"":901}]","1841","","","","",""
"","","","","","html-audio-response","25","52817","0.0-8.0","","","","","{""fast_test"":""1"",""num_seqs"":""2""}","https://test12345.live/?fast_test=1&num_seqs=2","-2024-11-24-07-39-30","","2276","","[""<span style=\""color: red; font-size: 24px\""> NOW RECORDING</span><p>Please say out loud all the images you saw, as many as you can remember. The images can be said in any order.</p>""]","","19",""
"","","","","","instructions","26","53881","0.0-9.0","","","","","{""fast_test"":""1"",""num_seqs"":""2""}","https://test12345.live/?fast_test=1&num_seqs=2","-2024-11-24-07-39-30","[{""page_index"":0,""viewing_time"":1061}]","1061","","","","",""
"","","","","","image-button-response","27","55387","0.0-10.0-0.0","","","","","{""fast_test"":""1"",""num_seqs"":""2""}","https://test12345.live/?fast_test=1&num_seqs=2","-2024-11-24-07-39-30","","null","","images/causal_sequence/the_performance_causal/the_performance_causal_0.png","null","",""
"","","","","","image-button-response","28","55570","0.0-10.0-1.0-0.0","","","","","{""fast_test"":""1"",""num_seqs"":""2""}","https://test12345.live/?fast_test=1&num_seqs=2","-2024-11-24-07-39-30","","null","","images/causal_sequence/the_performance_causal/the_performance_causal_ten.png","null","",""
"","","","","","image-button-response","29","55753","0.0-10.0-1.0-1.0","","","","","{""fast_test"":""1"",""num_seqs"":""2""}","https://test12345.live/?fast_test=1&num_seqs=2","-2024-11-24-07-39-30","","null","","images/causal_sequence/the_performance_causal/the_performance_causal_ten.png","null","",""
"","","","","","image-button-response","30","55935","0.0-10.0-1.0-2.0","","","","","{""fast_test"":""1"",""num_seqs"":""2""}","https://test12345.live/?fast_test=1&num_seqs=2","-2024-11-24-07-39-30","","null","","[]","null","",""
"","","","","","image-button-response","31","56118","0.0-10.0-1.0-0.1","","","","","{""fast_test"":""1"",""num_seqs"":""2""}","https://test12345.live/?fast_test=1&num_seqs=2","-2024-11-24-07-39-30","","null","","images/causal_sequence/the_performance_causal/the_performance_causal_9.png","null","",""
"","","","","","image-button-response","32","56303","0.0-10.0-1.0-1.1","","","","","{""fast_test"":""1"",""num_seqs"":""2""}","https://test12345.live/?fast_test=1&num_seqs=2","-2024-11-24-07-39-30","","null","","images/causal_sequence/the_performance_causal/the_performance_causal_9.png","null","",""
"","","","","","image-button-response","33","56486","0.0-10.0-1.0-2.1","","","","","{""fast_test"":""1"",""num_seqs"":""2""}","https://test12345.live/?fast_test=1&num_seqs=2","-2024-11-24-07-39-30","","null","","[]","null","",""
"","","","","","image-button-response","34","56669","0.0-10.0-1.0-0.2","","","","","{""fast_test"":""1"",""num_seqs"":""2""}","https://test12345.live/?fast_test=1&num_seqs=2","-2024-11-24-07-39-30","","null","","images/causal_sequence/the_performance_causal/the_performance_causal_3.png","null","",""
"","","","","","image-button-response","35","56852","0.0-10.0-1.0-1.2","","","","","{""fast_test"":""1"",""num_seqs"":""2""}","https://test12345.live/?fast_test=1&num_seqs=2","-2024-11-24-07-39-30","","null","","images/causal_sequence/the_performance_causal/the_performance_causal_3.png","null","",""
"","","","","","image-button-response","36","57035","0.0-10.0-1.0-2.2","","","","","{""fast_test"":""1"",""num_seqs"":""2""}","https://test12345.live/?fast_test=1&num_seqs=2","-2024-11-24-07-39-30","","null","","[]","null","",""
"","","","","","image-button-response","37","57220","0.0-10.0-1.0-0.3","","","","","{""fast_test"":""1"",""num_seqs"":""2""}","https://test12345.live/?fast_test=1&num_seqs=2","-2024-11-24-07-39-30","","null","","images/causal_sequence/the_performance_causal/the_performance_causal_1.png","null","",""
"","","","","","image-button-response","38","57403","0.0-10.0-1.0-1.3","","","","","{""fast_test"":""1"",""num_seqs"":""2""}","https://test12345.live/?fast_test=1&num_seqs=2","-2024-11-24-07-39-30","","null","","images/causal_sequence/the_performance_causal/the_performance_causal_1.png","null","",""
"","","","","","image-button-response","39","57586","0.0-10.0-1.0-2.3","","","","","{""fast_test"":""1"",""num_seqs"":""2""}","https://test12345.live/?fast_test=1&num_seqs=2","-2024-11-24-07-39-30","","null","","[]","null","",""
"","","","","","image-button-response","40","57769","0.0-10.0-1.0-0.4","","","","","{""fast_test"":""1"",""num_seqs"":""2""}","https://test12345.live/?fast_test=1&num_seqs=2","-2024-11-24-07-39-30","","null","","images/causal_sequence/the_performance_causal/the_performance_causal_6.png","null","",""
"","","","","","image-button-response","41","57953","0.0-10.0-1.0-1.4","","","","","{""fast_test"":""1"",""num_seqs"":""2""}","https://test12345.live/?fast_test=1&num_seqs=2","-2024-11-24-07-39-30","","null","","images/causal_sequence/the_performance_causal/the_performance_causal_6.png","null","",""
"","","","","","image-button-response","42","58135","0.0-10.0-1.0-2.4","","","","","{""fast_test"":""1"",""num_seqs"":""2""}","https://test12345.live/?fast_test=1&num_seqs=2","-2024-11-24-07-39-30","","null","","[]","null","",""
"","","","","","image-button-response","43","58318","0.0-10.0-1.0-0.5","","","","","{""fast_test"":""1"",""num_seqs"":""2""}","https://test12345.live/?fast_test=1&num_seqs=2","-2024-11-24-07-39-30","","null","","images/causal_sequence/the_performance_causal/the_performance_causal_2.png","null","",""
"","","","","","image-button-response","44","58502","0.0-10.0-1.0-1.5","","","","","{""fast_test"":""1"",""num_seqs"":""2""}","https://test12345.live/?fast_test=1&num_seqs=2","-2024-11-24-07-39-30","","null","","images/causal_sequence/the_performance_causal/the_performance_causal_2.png","null","",""
"","","","","","image-button-response","45","58686","0.0-10.0-1.0-2.5","","","","","{""fast_test"":""1"",""num_seqs"":""2""}","https://test12345.live/?fast_test=1&num_seqs=2","-2024-11-24-07-39-30","","null","","[]","null","",""
"","","","","","image-button-response","46","58869","0.0-10.0-1.0-0.6","","","","","{""fast_test"":""1"",""num_seqs"":""2""}","https://test12345.live/?fast_test=1&num_seqs=2","-2024-11-24-07-39-30","","null","","images/causal_sequence/the_performance_causal/the_performance_causal_8.png","null","",""
"","","","","","image-button-response","47","59051","0.0-10.0-1.0-1.6","","","","","{""fast_test"":""1"",""num_seqs"":""2""}","https://test12345.live/?fast_test=1&num_seqs=2","-2024-11-24-07-39-30","","null","","images/causal_sequence/the_performance_causal/the_performance_causal_8.png","null","",""
"","","","","","image-button-response","48","59236","0.0-10.0-1.0-2.6","","","","","{""fast_test"":""1"",""num_seqs"":""2""}","https://test12345.live/?fast_test=1&num_seqs=2","-2024-11-24-07-39-30","","null","","[]","null","",""
"","","","","","image-button-response","49","59418","0.0-10.0-1.0-0.7","","","","","{""fast_test"":""1"",""num_seqs"":""2""}","https://test12345.live/?fast_test=1&num_seqs=2","-2024-11-24-07-39-30","","null","","images/causal_sequence/the_performance_causal/the_performance_causal_5.png","null","",""
"","","","","","image-button-response","50","59603","0.0-10.0-1.0-1.7","","","","","{""fast_test"":""1"",""num_seqs"":""2""}","https://test12345.live/?fast_test=1&num_seqs=2","-2024-11-24-07-39-30","","null","","images/causal_sequence/the_performance_causal/the_performance_causal_5.png","null","",""
"","","","","","image-button-response","51","59785","0.0-10.0-1.0-2.7","","","","","{""fast_test"":""1"",""num_seqs"":""2""}","https://test12345.live/?fast_test=1&num_seqs=2","-2024-11-24-07-39-30","","null","","[]","null","",""
"","","","","","image-button-response","52","59969","0.0-10.0-1.0-0.8","","","","","{""fast_test"":""1"",""num_seqs"":""2""}","https://test12345.live/?fast_test=1&num_seqs=2","-2024-11-24-07-39-30","","null","","images/causal_sequence/the_performance_causal/the_performance_causal_7.png","null","",""
"","","","","","image-button-response","53","60153","0.0-10.0-1.0-1.8","","","","","{""fast_test"":""1"",""num_seqs"":""2""}","https://test12345.live/?fast_test=1&num_seqs=2","-2024-11-24-07-39-30","","null","","images/causal_sequence/the_performance_causal/the_performance_causal_7.png","null","",""
"","","","","","image-button-response","54","60337","0.0-10.0-1.0-2.8","","","","","{""fast_test"":""1"",""num_seqs"":""2""}","https://test12345.live/?fast_test=1&num_seqs=2","-2024-11-24-07-39-30","","null","","[]","null","",""
"","","","","","image-button-response","55","60519","0.0-10.0-1.0-0.9","","","","","{""fast_test"":""1"",""num_seqs"":""2""}","https://test12345.live/?fast_test=1&num_seqs=2","-2024-11-24-07-39-30","","null","","images/causal_sequence/the_performance_causal/the_performance_causal_4.png","null","",""
"","","","","","image-button-response","56","60703","0.0-10.0-1.0-1.9","","","","","{""fast_test"":""1"",""num_seqs"":""2""}","https://test12345.live/?fast_test=1&num_seqs=2","-2024-11-24-07-39-30","","null","","images/causal_sequence/the_performance_causal/the_performance_causal_4.png","null","",""
"","","","","","image-button-response","57","60886","0.0-10.0-1.0-2.9","","","","","{""fast_test"":""1"",""num_seqs"":""2""}","https://test12345.live/?fast_test=1&num_seqs=2","-2024-11-24-07-39-30","","null","","[]","null","",""
"","","","","","html-audio-response","58","63361","0.0-11.0","","","","","{""fast_test"":""1"",""num_seqs"":""2""}","https://test12345.live/?fast_test=1&num_seqs=2","-2024-11-24-07-39-30","","1710","","[""<span style=\""color: red; font-size: 24px\""> NOW RECORDING</span><p>Please say out loud all the images you saw, as many as you can remember. The images can be said in any order.</p>""]","","2","the_performance_causal"
"","","","","","image-button-response","59","64869","0.0-12.0-0.0","","","","","{""fast_test"":""1"",""num_seqs"":""2""}","https://test12345.live/?fast_test=1&num_seqs=2","-2024-11-24-07-39-30","","null","","images/semantic_sequence/housework_semantic/housework_semantic_0.png","null","",""
"","","","","","image-button-response","60","65051","0.0-12.0-1.0-0.0","","","","","{""fast_test"":""1"",""num_seqs"":""2""}","https://test12345.live/?fast_test=1&num_seqs=2","-2024-11-24-07-39-30","","null","","images/semantic_sequence/housework_semantic/housework_semantic_7.png","null","",""
"","","","","","image-button-response","61","65235","0.0-12.0-1.0-1.0","","","","","{""fast_test"":""1"",""num_seqs"":""2""}","https://test12345.live/?fast_test=1&num_seqs=2","-2024-11-24-07-39-30","","null","","images/semantic_sequence/housework_semantic/housework_semantic_7.png","null","",""
"","","","","","image-button-response","62","65419","0.0-12.0-1.0-2.0","","","","","{""fast_test"":""1"",""num_seqs"":""2""}","https://test12345.live/?fast_test=1&num_seqs=2","-2024-11-24-07-39-30","","null","","[]","null","",""
"","","","","","image-button-response","63","65602","0.0-12.0-1.0-0.1","","","","","{""fast_test"":""1"",""num_seqs"":""2""}","https://test12345.live/?fast_test=1&num_seqs=2","-2024-11-24-07-39-30","","null","","images/semantic_sequence/housework_semantic/housework_semantic_3.png","null","",""
"","","","","","image-button-response","64","65799","0.0-12.0-1.0-1.1","","","","","{""fast_test"":""1"",""num_seqs"":""2""}","https://test12345.live/?fast_test=1&num_seqs=2","-2024-11-24-07-39-30","","null","","images/semantic_sequence/housework_semantic/housework_semantic_3.png","null","",""
"","","","","","image-button-response","65","65984","0.0-12.0-1.0-2.1","","","","","{""fast_test"":""1"",""num_seqs"":""2""}","https://test12345.live/?fast_test=1&num_seqs=2","-2024-11-24-07-39-30","","null","","[]","null","",""
"","","","","","image-button-response","66","66169","0.0-12.0-1.0-0.2","","","","","{""fast_test"":""1"",""num_seqs"":""2""}","https://test12345.live/?fast_test=1&num_seqs=2","-2024-11-24-07-39-30","","null","","images/semantic_sequence/housework_semantic/housework_semantic_ten.png","null","",""
"","","","","","image-button-response","67","66354","0.0-12.0-1.0-1.2","","","","","{""fast_test"":""1"",""num_seqs"":""2""}","https://test12345.live/?fast_test=1&num_seqs=2","-2024-11-24-07-39-30","","null","","images/semantic_sequence/housework_semantic/housework_semantic_ten.png","null","",""
"","","","","","image-button-response","68","66552","0.0-12.0-1.0-2.2","","","","","{""fast_test"":""1"",""num_seqs"":""2""}","https://test12345.live/?fast_test=1&num_seqs=2","-2024-11-24-07-39-30","","null","","[]","null","",""
"","","","","","image-button-response","69","66735","0.0-12.0-1.0-0.3","","","","","{""fast_test"":""1"",""num_seqs"":""2""}","https://test12345.live/?fast_test=1&num_seqs=2","-2024-11-24-07-39-30","","null","","images/semantic_sequence/housework_semantic/housework_semantic_8.png","null","",""
"","","","","","image-button-response","70","66919","0.0-12.0-1.0-1.3","","","","","{""fast_test"":""1"",""num_seqs"":""2""}","https://test12345.live/?fast_test=1&num_seqs=2","-2024-11-24-07-39-30","","null","","images/semantic_sequence/housework_semantic/housework_semantic_8.png","null","",""
"","","","","","image-button-response","71","67103","0.0-12.0-1.0-2.3","","","","","{""fast_test"":""1"",""num_seqs"":""2""}","https://test12345.live/?fast_test=1&num_seqs=2","-2024-11-24-07-39-30","","null","","[]","null","",""
"","","","","","image-button-response","72","67285","0.0-12.0-1.0-0.4","","","","","{""fast_test"":""1"",""num_seqs"":""2""}","https://test12345.live/?fast_test=1&num_seqs=2","-2024-11-24-07-39-30","","null","","images/semantic_sequence/housework_semantic/housework_semantic_4.png","null","",""
"","","","","","image-button-response","73","67468","0.0-12.0-1.0-1.4","","","","","{""fast_test"":""1"",""num_seqs"":""2""}","https://test12345.live/?fast_test=1&num_seqs=2","-2024-11-24-07-39-30","","null","","images/semantic_sequence/housework_semantic/housework_semantic_4.png","null","",""
"","","","","","image-button-response","74","67653","0.0-12.0-1.0-2.4","","","","","{""fast_test"":""1"",""num_seqs"":""2""}","https://test12345.live/?fast_test=1&num_seqs=2","-2024-11-24-07-39-30","","null","","[]","null","",""
"","","","","","image-button-response","75","67835","0.0-12.0-1.0-0.5","","","","","{""fast_test"":""1"",""num_seqs"":""2""}","https://test12345.live/?fast_test=1&num_seqs=2","-2024-11-24-07-39-30","","null","","images/semantic_sequence/housework_semantic/housework_semantic_1.png","null","",""
"","","","","","image-button-response","76","68019","0.0-12.0-1.0-1.5","","","","","{""fast_test"":""1"",""num_seqs"":""2""}","https://test12345.live/?fast_test=1&num_seqs=2","-2024-11-24-07-39-30","","null","","images/semantic_sequence/housework_semantic/housework_semantic_1.png","null","",""
"","","","","","image-button-response","77","68202","0.0-12.0-1.0-2.5","","","","","{""fast_test"":""1"",""num_seqs"":""2""}","https://test12345.live/?fast_test=1&num_seqs=2","-2024-11-24-07-39-30","","null","","[]","null","",""
"","","","","","image-button-response","78","68386","0.0-12.0-1.0-0.6","","","","","{""fast_test"":""1"",""num_seqs"":""2""}","https://test12345.live/?fast_test=1&num_seqs=2","-2024-11-24-07-39-30","","null","","images/semantic_sequence/housework_semantic/housework_semantic_6.png","null","",""
"","","","","","image-button-response","79","68568","0.0-12.0-1.0-1.6","","","","","{""fast_test"":""1"",""num_seqs"":""2""}","https://test12345.live/?fast_test=1&num_seqs=2","-2024-11-24-07-39-30","","null","","images/semantic_sequence/housework_semantic/housework_semantic_6.png","null","",""
"","","","","","image-button-response","80","68752","0.0-12.0-1.0-2.6","","","","","{""fast_test"":""1"",""num_seqs"":""2""}","https://test12345.live/?fast_test=1&num_seqs=2","-2024-11-24-07-39-30","","null","","[]","null","",""
"","","","","","image-button-response","81","68935","0.0-12.0-1.0-0.7","","","","","{""fast_test"":""1"",""num_seqs"":""2""}","https://test12345.live/?fast_test=1&num_seqs=2","-2024-11-24-07-39-30","","null","","images/semantic_sequence/housework_semantic/housework_semantic_2.png","null","",""
"","","","","","image-button-response","82","69119","0.0-12.0-1.0-1.7","","","","","{""fast_test"":""1"",""num_seqs"":""2""}","https://test12345.live/?fast_test=1&num_seqs=2","-2024-11-24-07-39-30","","null","","images/semantic_sequence/housework_semantic/housework_semantic_2.png","null","",""
"","","","","","image-button-response","83","69302","0.0-12.0-1.0-2.7","","","","","{""fast_test"":""1"",""num_seqs"":""2""}","https://test12345.live/?fast_test=1&num_seqs=2","-2024-11-24-07-39-30","","null","","[]","null","",""
"","","","","","image-button-response","84","69485","0.0-12.0-1.0-0.8","","","","","{""fast_test"":""1"",""num_seqs"":""2""}","https://test12345.live/?fast_test=1&num_seqs=2","-2024-11-24-07-39-30","","null","","images/semantic_sequence/housework_semantic/housework_semantic_9.png","null","",""
"","","","","","image-button-response","85","69670","0.0-12.0-1.0-1.8","","","","","{""fast_test"":""1"",""num_seqs"":""2""}","https://test12345.live/?fast_test=1&num_seqs=2","-2024-11-24-07-39-30","","null","","images/semantic_sequence/housework_semantic/housework_semantic_9.png","null","",""
"","","","","","image-button-response","86","69852","0.0-12.0-1.0-2.8","","","","","{""fast_test"":""1"",""num_seqs"":""2""}","https://test12345.live/?fast_test=1&num_seqs=2","-2024-11-24-07-39-30","","null","","[]","null","",""
"","","","","","image-button-response","87","70034","0.0-12.0-1.0-0.9","","","","","{""fast_test"":""1"",""num_seqs"":""2""}","https://test12345.live/?fast_test=1&num_seqs=2","-2024-11-24-07-39-30","","null","","images/semantic_sequence/housework_semantic/housework_semantic_5.png","null","",""
"","","","","","image-button-response","88","70218","0.0-12.0-1.0-1.9","","","","","{""fast_test"":""1"",""num_seqs"":""2""}","https://test12345.live/?fast_test=1&num_seqs=2","-2024-11-24-07-39-30","","null","","images/semantic_sequence/housework_semantic/housework_semantic_5.png","null","",""
"","","","","","image-button-response","89","70400","0.0-12.0-1.0-2.9","","","","","{""fast_test"":""1"",""num_seqs"":""2""}","https://test12345.live/?fast_test=1&num_seqs=2","-2024-11-24-07-39-30","","null","","[]","null","",""
"","","","","","html-audio-response","90","72140","0.0-13.0","","","","","{""fast_test"":""1"",""num_seqs"":""2""}","https://test12345.live/?fast_test=1&num_seqs=2","-2024-11-24-07-39-30","","1058","","[""<span style=\""color: red; font-size: 24px\""> NOW RECORDING</span><p>Please say out loud all the images you saw, as many as you can remember. The images can be said in any order.</p>""]","","1","housework_semantic"
"","","","","","image-button-response","91","73652","0.0-14.0-0.0","","","","","{""fast_test"":""1"",""num_seqs"":""2""}","https://test12345.live/?fast_test=1&num_seqs=2","-2024-11-24-07-39-30","","null","","images/causal_sequence/coin_causal/coin_causal_0.png","null","",""
"","","","","","image-button-response","92","73835","0.0-14.0-1.0-0.0","","","","","{""fast_test"":""1"",""num_seqs"":""2""}","https://test12345.live/?fast_test=1&num_seqs=2","-2024-11-24-07-39-30","","null","","images/causal_sequence/coin_causal/coin_causal_1.png","null","",""
"","","","","","image-button-response","93","74018","0.0-14.0-1.0-1.0","","","","","{""fast_test"":""1"",""num_seqs"":""2""}","https://test12345.live/?fast_test=1&num_seqs=2","-2024-11-24-07-39-30","","null","","images/causal_sequence/coin_causal/coin_causal_1.png","null","",""
"","","","","","image-button-response","94","74202","0.0-14.0-1.0-2.0","","","","","{""fast_test"":""1"",""num_seqs"":""2""}","https://test12345.live/?fast_test=1&num_seqs=2","-2024-11-24-07-39-30","","null","","[]","null","",""
"","","","","","image-button-response","95","74385","0.0-14.0-1.0-0.1","","","","","{""fast_test"":""1"",""num_seqs"":""2""}","https://test12345.live/?fast_test=1&num_seqs=2","-2024-11-24-07-39-30","","null","","images/causal_sequence/coin_causal/coin_causal_2.png","null","",""
"","","","","","image-button-response","96","74568","0.0-14.0-1.0-1.1","","","","","{""fast_test"":""1"",""num_seqs"":""2""}","https://test12345.live/?fast_test=1&num_seqs=2","-2024-11-24-07-39-30","","null","","images/causal_sequence/coin_causal/coin_causal_2.png","null","",""
"","","","","","image-button-response","97","74751","0.0-14.0-1.0-2.1","","","","","{""fast_test"":""1"",""num_seqs"":""2""}","https://test12345.live/?fast_test=1&num_seqs=2","-2024-11-24-07-39-30","","null","","[]","null","",""
"","","","","","image-button-response","98","74936","0.0-14.0-1.0-0.2","","","","","{""fast_test"":""1"",""num_seqs"":""2""}","https://test12345.live/?fast_test=1&num_seqs=2","-2024-11-24-07-39-30","","null","","images/causal_sequence/coin_causal/coin_causal_3.png","null","",""
"","","","","","image-button-response","99","75121","0.0-14.0-1.0-1.2","","","","","{""fast_test"":""1"",""num_seqs"":""2""}","https://test12345.live/?fast_test=1&num_seqs=2","-2024-11-24-07-39-30","","null","","images/causal_sequence/coin_causal/coin_causal_3.png","null","",""
"","","","","","image-button-response","100","75302","0.0-14.0-1.0-2.2","","","","","{""fast_test"":""1"",""num_seqs"":""2""}","https://test12345.live/?fast_test=1&num_seqs=2","-2024-11-24-07-39-30","","null","","[]","null","",""
"","","","","","image-button-response","101","75484","0.0-14.0-1.0-0.3","","","","","{""fast_test"":""1"",""num_seqs"":""2""}","https://test12345.live/?fast_test=1&num_seqs=2","-2024-11-24-07-39-30","","null","","images/causal_sequence/coin_causal/coin_causal_4.png","null","",""
"","","","","","image-button-response","102","75668","0.0-14.0-1.0-1.3","","","","","{""fast_test"":""1"",""num_seqs"":""2""}","https://test12345.live/?fast_test=1&num_seqs=2","-2024-11-24-07-39-30","","null","","images/causal_sequence/coin_causal/coin_causal_4.png","null","",""
"","","","","","image-button-response","103","75852","0.0-14.0-1.0-2.3","","","","","{""fast_test"":""1"",""num_seqs"":""2""}","https://test12345.live/?fast_test=1&num_seqs=2","-2024-11-24-07-39-30","","null","","[]","null","",""
"","","","","","image-button-response","104","76034","0.0-14.0-1.0-0.4","","","","","{""fast_test"":""1"",""num_seqs"":""2""}","https://test12345.live/?fast_test=1&num_seqs=2","-2024-11-24-07-39-30","","null","","images/causal_sequence/coin_causal/coin_causal_5.png","null","",""
"","","","","","image-button-response","105","76218","0.0-14.0-1.0-1.4","","","","","{""fast_test"":""1"",""num_seqs"":""2""}","https://test12345.live/?fast_test=1&num_seqs=2","-2024-11-24-07-39-30","","null","","images/causal_sequence/coin_causal/coin_causal_5.png","null","",""
"","","","","","image-button-response","106","76401","0.0-14.0-1.0-2.4","","","","","{""fast_test"":""1"",""num_seqs"":""2""}","https://test12345.live/?fast_test=1&num_seqs=2","-2024-11-24-07-39-30","","null","","[]","null","",""
"","","","","","image-button-response","107","76585","0.0-14.0-1.0-0.5","","","","","{""fast_test"":""1"",""num_seqs"":""2""}","https://test12345.live/?fast_test=1&num_seqs=2","-2024-11-24-07-39-30","","null","","images/causal_sequence/coin_causal/coin_causal_6.png","null","",""
"","","","","","image-button-response","108","76769","0.0-14.0-1.0-1.5","","","","","{""fast_test"":""1"",""num_seqs"":""2""}","https://test12345.live/?fast_test=1&num_seqs=2","-2024-11-24-07-39-30","","null","","images/causal_sequence/coin_causal/coin_causal_6.png","null","",""
"","","","","","image-button-response","109","76951","0.0-14.0-1.0-2.5","","","","","{""fast_test"":""1"",""num_seqs"":""2""}","https://test12345.live/?fast_test=1&num_seqs=2","-2024-11-24-07-39-30","","null","","[]","null","",""
"","","","","","image-button-response","110","77135","0.0-14.0-1.0-0.6","","","","","{""fast_test"":""1"",""num_seqs"":""2""}","https://test12345.live/?fast_test=1&num_seqs=2","-2024-11-24-07-39-30","","null","","images/causal_sequence/coin_causal/coin_causal_7.png","null","",""
"","","","","","image-button-response","111","77318","0.0-14.0-1.0-1.6","","","","","{""fast_test"":""1"",""num_seqs"":""2""}","https://test12345.live/?fast_test=1&num_seqs=2","-2024-11-24-07-39-30","","null","","images/causal_sequence/coin_causal/coin_causal_7.png","null","",""
"","","","","","image-button-response","112","77501","0.0-14.0-1.0-2.6","","","","","{""fast_test"":""1"",""num_seqs"":""2""}","https://test12345.live/?fast_test=1&num_seqs=2","-2024-11-24-07-39-30","","null","","[]","null","",""
"","","","","","image-button-response","113","77685","0.0-14.0-1.0-0.7","","","","","{""fast_test"":""1"",""num_seqs"":""2""}","https://test12345.live/?fast_test=1&num_seqs=2","-2024-11-24-07-39-30","","null","","images/causal_sequence/coin_causal/coin_causal_8.png","null","",""
"","","","","","image-button-response","114","77868","0.0-14.0-1.0-1.7","","","","","{""fast_test"":""1"",""num_seqs"":""2""}","https://test12345.live/?fast_test=1&num_seqs=2","-2024-11-24-07-39-30","","null","","images/causal_sequence/coin_causal/coin_causal_8.png","null","",""
"","","","","","image-button-response","115","78051","0.0-14.0-1.0-2.7","","","","","{""fast_test"":""1"",""num_seqs"":""2""}","https://test12345.live/?fast_test=1&num_seqs=2","-2024-11-24-07-39-30","","null","","[]","null","",""
"","","","","","image-button-response","116","78235","0.0-14.0-1.0-0.8","","","","","{""fast_test"":""1"",""num_seqs"":""2""}","https://test12345.live/?fast_test=1&num_seqs=2","-2024-11-24-07-39-30","","null","","images/causal_sequence/coin_causal/coin_causal_9.png","null","",""
"","","","","","image-button-response","117","78419","0.0-14.0-1.0-1.8","","","","","{""fast_test"":""1"",""num_seqs"":""2""}","https://test12345.live/?fast_test=1&num_seqs=2","-2024-11-24-07-39-30","","null","","images/causal_sequence/coin_causal/coin_causal_9.png","null","",""
"","","","","","image-button-response","118","78601","0.0-14.0-1.0-2.8","","","","","{""fast_test"":""1"",""num_seqs"":""2""}","https://test12345.live/?fast_test=1&num_seqs=2","-2024-11-24-07-39-30","","null","","[]","null","",""
"","","","","","image-button-response","119","78784","0.0-14.0-1.0-0.9","","","","","{""fast_test"":""1"",""num_seqs"":""2""}","https://test12345.live/?fast_test=1&num_seqs=2","-2024-11-24-07-39-30","","null","","images/causal_sequence/coin_causal/coin_causal_ten.png","null","",""
"","","","","","image-button-response","120","78968","0.0-14.0-1.0-1.9","","","","","{""fast_test"":""1"",""num_seqs"":""2""}","https://test12345.live/?fast_test=1&num_seqs=2","-2024-11-24-07-39-30","","null","","images/causal_sequence/coin_causal/coin_causal_ten.png","null","",""
"","","","","","image-button-response","121","79151","0.0-14.0-1.0-2.9","","","","","{""fast_test"":""1"",""num_seqs"":""2""}","https://test12345.live/?fast_test=1&num_seqs=2","-2024-11-24-07-39-30","","null","","[]","null","",""
"","","","","","html-audio-response","122","80868","0.0-15.0","","","","","{""fast_test"":""1"",""num_seqs"":""2""}","https://test12345.live/?fast_test=1&num_seqs=2","-2024-11-24-07-39-30","","1091","","[""<span style=\""color: red; font-size: 24px\""> NOW RECORDING</span><p>Please say out loud all the images you saw, as many as you can remember. The images can be said in any order.</p>""]","","1","coin_causal"
"","","","","","image-button-response","123","82385","0.0-16.0-0.0","","","","","{""fast_test"":""1"",""num_seqs"":""2""}","https://test12345.live/?fast_test=1&num_seqs=2","-2024-11-24-07-39-30","","null","","images/semantic_sequence/physical_activity_semantic/physical_activity_semantic_0.png","null","",""
"","","","","","image-button-response","124","82568","0.0-16.0-1.0-0.0","","","","","{""fast_test"":""1"",""num_seqs"":""2""}","https://test12345.live/?fast_test=1&num_seqs=2","-2024-11-24-07-39-30","","null","","images/semantic_sequence/physical_activity_semantic/physical_activity_semantic_1.png","null","",""
"","","","","","image-button-response","125","82751","0.0-16.0-1.0-1.0","","","","","{""fast_test"":""1"",""num_seqs"":""2""}","https://test12345.live/?fast_test=1&num_seqs=2","-2024-11-24-07-39-30","","null","","images/semantic_sequence/physical_activity_semantic/physical_activity_semantic_1.png","null","",""
"","","","","","image-button-response","126","82934","0.0-16.0-1.0-2.0","","","","","{""fast_test"":""1"",""num_seqs"":""2""}","https://test12345.live/?fast_test=1&num_seqs=2","-2024-11-24-07-39-30","","null","","[]","null","",""
"","","","","","image-button-response","127","83118","0.0-16.0-1.0-0.1","","","","","{""fast_test"":""1"",""num_seqs"":""2""}","https://test12345.live/?fast_test=1&num_seqs=2","-2024-11-24-07-39-30","","null","","images/semantic_sequence/physical_activity_semantic/physical_activity_semantic_2.png","null","",""
"","","","","","image-button-response","128","83301","0.0-16.0-1.0-1.1","","","","","{""fast_test"":""1"",""num_seqs"":""2""}","https://test12345.live/?fast_test=1&num_seqs=2","-2024-11-24-07-39-30","","null","","images/semantic_sequence/physical_activity_semantic/physical_activity_semantic_2.png","null","",""
"","","","","","image-button-response","129","83485","0.0-16.0-1.0-2.1","","","","","{""fast_test"":""1"",""num_seqs"":""2""}","https://test12345.live/?fast_test=1&num_seqs=2","-2024-11-24-07-39-30","","null","","[]","null","",""
"","","","","","image-button-response","130","83668","0.0-16.0-1.0-0.2","","","","","{""fast_test"":""1"",""num_seqs"":""2""}","https://test12345.live/?fast_test=1&num_seqs=2","-2024-11-24-07-39-30","","null","","images/semantic_sequence/physical_activity_semantic/physical_activity_semantic_3.png","null","",""
"","","","","","image-button-response","131","83850","0.0-16.0-1.0-1.2","","","","","{""fast_test"":""1"",""num_seqs"":""2""}","https://test12345.live/?fast_test=1&num_seqs=2","-2024-11-24-07-39-30","","null","","images/semantic_sequence/physical_activity_semantic/physical_activity_semantic_3.png","null","",""
"","","","","","image-button-response","132","84034","0.0-16.0-1.0-2.2","","","","","{""fast_test"":""1"",""num_seqs"":""2""}","https://test12345.live/?fast_test=1&num_seqs=2","-2024-11-24-07-39-30","","null","","[]","null","",""
"","","","","","image-button-response","133","84217","0.0-16.0-1.0-0.3","","","","","{""fast_test"":""1"",""num_seqs"":""2""}","https://test12345.live/?fast_test=1&num_seqs=2","-2024-11-24-07-39-30","","null","","images/semantic_sequence/physical_activity_semantic/physical_activity_semantic_4.png","null","",""
"","","","","","image-button-response","134","84401","0.0-16.0-1.0-1.3","","","","","{""fast_test"":""1"",""num_seqs"":""2""}","https://test12345.live/?fast_test=1&num_seqs=2","-2024-11-24-07-39-30","","null","","images/semantic_sequence/physical_activity_semantic/physical_activity_semantic_4.png","null","",""
"","","","","","image-button-response","135","84585","0.0-16.0-1.0-2.3","","","","","{""fast_test"":""1"",""num_seqs"":""2""}","https://test12345.live/?fast_test=1&num_seqs=2","-2024-11-24-07-39-30","","null","","[]","null","",""
"","","","","","image-button-response","136","84768","0.0-16.0-1.0-0.4","","","","","{""fast_test"":""1"",""num_seqs"":""2""}","https://test12345.live/?fast_test=1&num_seqs=2","-2024-11-24-07-39-30","","null","","images/semantic_sequence/physical_activity_semantic/physical_activity_semantic_5.png","null","",""
"","","","","","image-button-response","137","84953","0.0-16.0-1.0-1.4","","","","","{""fast_test"":""1"",""num_seqs"":""2""}","https://test12345.live/?fast_test=1&num_seqs=2","-2024-11-24-07-39-30","","null","","images/semantic_sequence/physical_activity_semantic/physical_activity_semantic_5.png","null","",""
"","","","","","image-button-response","138","85151","0.0-16.0-1.0-2.4","","","","","{""fast_test"":""1"",""num_seqs"":""2""}","https://test12345.live/?fast_test=1&num_seqs=2","-2024-11-24-07-39-30","","null","","[]","null","",""
"","","","","","image-button-response","139","85335","0.0-16.0-1.0-0.5","","","","","{""fast_test"":""1"",""num_seqs"":""2""}","https://test12345.live/?fast_test=1&num_seqs=2","-2024-11-24-07-39-30","","null","","images/semantic_sequence/physical_activity_semantic/physical_activity_semantic_6.png","null","",""
"","","","","","image-button-response","140","85532","0.0-16.0-1.0-1.5","","","","","{""fast_test"":""1"",""num_seqs"":""2""}","https://test12345.live/?fast_test=1&num_seqs=2","-2024-11-24-07-39-30","","null","","images/semantic_sequence/physical_activity_semantic/physical_activity_semantic_6.png","null","",""
"","","","","","image-button-response","141","85718","0.0-16.0-1.0-2.5","","","","","{""fast_test"":""1"",""num_seqs"":""2""}","https://test12345.live/?fast_test=1&num_seqs=2","-2024-11-24-07-39-30","","null","","[]","null","",""
"","","","","","image-button-response","142","85901","0.0-16.0-1.0-0.6","","","","","{""fast_test"":""1"",""num_seqs"":""2""}","https://test12345.live/?fast_test=1&num_seqs=2","-2024-11-24-07-39-30","","null","","images/semantic_sequence/physical_activity_semantic/physical_activity_semantic_7.png","null","",""
"","","","","","image-button-response","143","86086","0.0-16.0-1.0-1.6","","","","","{""fast_test"":""1"",""num_seqs"":""2""}","https://test12345.live/?fast_test=1&num_seqs=2","-2024-11-24-07-39-30","","null","","images/semantic_sequence/physical_activity_semantic/physical_activity_semantic_7.png","null","",""
"","","","","","image-button-response","144","86269","0.0-16.0-1.0-2.6","","","","","{""fast_test"":""1"",""num_seqs"":""2""}","https://test12345.live/?fast_test=1&num_seqs=2","-2024-11-24-07-39-30","","null","","[]","null","",""
"","","","","","image-button-response","145","86452","0.0-16.0-1.0-0.7","","","","","{""fast_test"":""1"",""num_seqs"":""2""}","https://test12345.live/?fast_test=1&num_seqs=2","-2024-11-24-07-39-30","","null","","images/semantic_sequence/physical_activity_semantic/physical_activity_semantic_8.png","null","",""
"","","","","","image-button-response","146","86634","0.0-16.0-1.0-1.7","","","","","{""fast_test"":""1"",""num_seqs"":""2""}","https://test12345.live/?fast_test=1&num_seqs=2","-2024-11-24-07-39-30","","null","","images/semantic_sequence/physical_activity_semantic/physical_activity_semantic_8.png","null","",""
"","","","","","image-button-response","147","86817","0.0-16.0-1.0-2.7","","","","","{""fast_test"":""1"",""num_seqs"":""2""}","https://test12345.live/?fast_test=1&num_seqs=2","-2024-11-24-07-39-30","","null","","[]","null","",""
"","","","","","image-button-response","148","87001","0.0-16.0-1.0-0.8","","","","","{""fast_test"":""1"",""num_seqs"":""2""}","https://test12345.live/?fast_test=1&num_seqs=2","-2024-11-24-07-39-30","","null","","images/semantic_sequence/physical_activity_semantic/physical_activity_semantic_9.png","null","",""
"","","","","","image-button-response","149","87184","0.0-16.0-1.0-1.8","","","","","{""fast_test"":""1"",""num_seqs"":""2""}","https://test12345.live/?fast_test=1&num_seqs=2","-2024-11-24-07-39-30","","null","","images/semantic_sequence/physical_activity_semantic/physical_activity_semantic_9.png","null","",""
"","","","","","image-button-response","150","87368","0.0-16.0-1.0-2.8","","","","","{""fast_test"":""1"",""num_seqs"":""2""}","https://test12345.live/?fast_test=1&num_seqs=2","-2024-11-24-07-39-30","","null","","[]","null","",""
"","","","","","image-button-response","151","87551","0.0-16.0-1.0-0.9","","","","","{""fast_test"":""1"",""num_seqs"":""2""}","https://test12345.live/?fast_test=1&num_seqs=2","-2024-11-24-07-39-30","","null","","images/semantic_sequence/physical_activity_semantic/physical_activity_semantic_ten.png","null","",""
"","","","","","image-button-response","152","87734","0.0-16.0-1.0-1.9","","","","","{""fast_test"":""1"",""num_seqs"":""2""}","https://test12345.live/?fast_test=1&num_seqs=2","-2024-11-24-07-39-30","","null","","images/semantic_sequence/physical_activity_semantic/physical_activity_semantic_ten.png","null","",""
"","","","","","image-button-response","153","87918","0.0-16.0-1.0-2.9","","","","","{""fast_test"":""1"",""num_seqs"":""2""}","https://test12345.live/?fast_test=1&num_seqs=2","-2024-11-24-07-39-30","","null","","[]","null","",""
"","","","","","html-audio-response","154","89832","0.0-17.0","","","","","{""fast_test"":""1"",""num_seqs"":""2""}","https://test12345.live/?fast_test=1&num_seqs=2","-2024-11-24-07-39-30","","1216","","[""<span style=\""color: red; font-size: 24px\""> NOW RECORDING</span><p>Please say out loud all the images you saw, as many as you can remember. The images can be said in any order.</p>""]","","1","physical_activity_semantic"
"","","","","","image-button-response","155","91334","0.0-18.0-0.0","","","","","{""fast_test"":""1"",""num_seqs"":""2""}","https://test12345.live/?fast_test=1&num_seqs=2","-2024-11-24-07-39-30","","null","","images/schematic_sequence/restaurant_scheme/restaurant_scheme_0.png","null","",""
"","","","","","image-button-response","156","91517","0.0-18.0-1.0-0.0","","","","","{""fast_test"":""1"",""num_seqs"":""2""}","https://test12345.live/?fast_test=1&num_seqs=2","-2024-11-24-07-39-30","","null","","images/schematic_sequence/restaurant_scheme/restaurant_scheme_7.png","null","",""
"","","","","","image-button-response","157","91701","0.0-18.0-1.0-1.0","","","","","{""fast_test"":""1"",""num_seqs"":""2""}","https://test12345.live/?fast_test=1&num_seqs=2","-2024-11-24-07-39-30","","null","","images/schematic_sequence/restaurant_scheme/restaurant_scheme_7.png","null","",""
"","","","","","image-button-response","158","91885","0.0-18.0-1.0-2.0","","","","","{""fast_test"":""1"",""num_seqs"":""2""}","https://test12345.live/?fast_test=1&num_seqs=2","-2024-11-24-07-39-30","","null","","[]","null","",""
"","","","","","image-button-response","159","92067","0.0-18.0-1.0-0.1","","","","","{""fast_test"":""1"",""num_seqs"":""2""}","https://test12345.live/?fast_test=1&num_seqs=2","-2024-11-24-07-39-30","","null","","images/schematic_sequence/restaurant_scheme/restaurant_scheme_1.png","null","",""
"","","","","","image-button-response","160","92252","0.0-18.0-1.0-1.1","","","","","{""fast_test"":""1"",""num_seqs"":""2""}","https://test12345.live/?fast_test=1&num_seqs=2","-2024-11-24-07-39-30","","null","","images/schematic_sequence/restaurant_scheme/restaurant_scheme_1.png","null","",""
"","","","","","image-button-response","161","92434","0.0-18.0-1.0-2.1","","","","","{""fast_test"":""1"",""num_seqs"":""2""}","https://test12345.live/?fast_test=1&num_seqs=2","-2024-11-24-07-39-30","","null","","[]","null","",""
"","","","","","image-button-response","162","92617","0.0-18.0-1.0-0.2","","","","","{""fast_test"":""1"",""num_seqs"":""2""}","https://test12345.live/?fast_test=1&num_seqs=2","-2024-11-24-07-39-30","","null","","images/schematic_sequence/restaurant_scheme/restaurant_scheme_6.png","null","",""
"","","","","","image-button-response","163","92801","0.0-18.0-1.0-1.2","","","","","{""fast_test"":""1"",""num_seqs"":""2""}","https://test12345.live/?fast_test=1&num_seqs=2","-2024-11-24-07-39-30","","null","","images/schematic_sequence/restaurant_scheme/restaurant_scheme_6.png","null","",""
"","","","","","image-button-response","164","92984","0.0-18.0-1.0-2.2","","","","","{""fast_test"":""1"",""num_seqs"":""2""}","https://test12345.live/?fast_test=1&num_seqs=2","-2024-11-24-07-39-30","","null","","[]","null","",""
"","","","","","image-button-response","165","93167","0.0-18.0-1.0-0.3","","","","","{""fast_test"":""1"",""num_seqs"":""2""}","https://test12345.live/?fast_test=1&num_seqs=2","-2024-11-24-07-39-30","","null","","images/schematic_sequence/restaurant_scheme/restaurant_scheme_3.png","null","",""
"","","","","","image-button-response","166","93351","0.0-18.0-1.0-1.3","","","","","{""fast_test"":""1"",""num_seqs"":""2""}","https://test12345.live/?fast_test=1&num_seqs=2","-2024-11-24-07-39-30","","null","","images/schematic_sequence/restaurant_scheme/restaurant_scheme_3.png","null","",""
"","","","","","image-button-response","167","93534","0.0-18.0-1.0-2.3","","","","","{""fast_test"":""1"",""num_seqs"":""2""}","https://test12345.live/?fast_test=1&num_seqs=2","-2024-11-24-07-39-30","","null","","[]","null","",""
"","","","","","image-button-response","168","93718","0.0-18.0-1.0-0.4","","","","","{""fast_test"":""1"",""num_seqs"":""2""}","https://test12345.live/?fast_test=1&num_seqs=2","-2024-11-24-07-39-30","","null","","images/schematic_sequence/restaurant_scheme/restaurant_scheme_5.png","null","",""
"","","","","","image-button-response","169","93902","0.0-18.0-1.0-1.4","","","","","{""fast_test"":""1"",""num_seqs"":""2""}","https://test12345.live/?fast_test=1&num_seqs=2","-2024-11-24-07-39-30","","null","","images/schematic_sequence/restaurant_scheme/restaurant_scheme_5.png","null","",""
"","","","","","image-button-response","170","94084","0.0-18.0-1.0-2.4","","","","","{""fast_test"":""1"",""num_seqs"":""2""}","https://test12345.live/?fast_test=1&num_seqs=2","-2024-11-24-07-39-30","","null","","[]","null","",""
"","","","","","image-button-response","171","94268","0.0-18.0-1.0-0.5","","","","","{""fast_test"":""1"",""num_seqs"":""2""}","https://test12345.live/?fast_test=1&num_seqs=2","-2024-11-24-07-39-30","","null","","images/schematic_sequence/restaurant_scheme/restaurant_scheme_9.png","null","",""
"","","","","","image-button-response","172","94450","0.0-18.0-1.0-1.5","","","","","{""fast_test"":""1"",""num_seqs"":""2""}","https://test12345.live/?fast_test=1&num_seqs=2","-2024-11-24-07-39-30","","null","","images/schematic_sequence/restaurant_scheme/restaurant_scheme_9.png","null","",""
"","","","","","image-button-response","173","94634","0.0-18.0-1.0-2.5","","","","","{""fast_test"":""1"",""num_seqs"":""2""}","https://test12345.live/?fast_test=1&num_seqs=2","-2024-11-24-07-39-30","","null","","[]","null","",""
"","","","","","image-button-response","174","94817","0.0-18.0-1.0-0.6","","","","","{""fast_test"":""1"",""num_seqs"":""2""}","https://test12345.live/?fast_test=1&num_seqs=2","-2024-11-24-07-39-30","","null","","images/schematic_sequence/restaurant_scheme/restaurant_scheme_2.png","null","",""
"","","","","","image-button-response","175","95001","0.0-18.0-1.0-1.6","","","","","{""fast_test"":""1"",""num_seqs"":""2""}","https://test12345.live/?fast_test=1&num_seqs=2","-2024-11-24-07-39-30","","null","","images/schematic_sequence/restaurant_scheme/restaurant_scheme_2.png","null","",""
"","","","","","image-button-response","176","95184","0.0-18.0-1.0-2.6","","","","","{""fast_test"":""1"",""num_seqs"":""2""}","https://test12345.live/?fast_test=1&num_seqs=2","-2024-11-24-07-39-30","","null","","[]","null","",""
"","","","","","image-button-response","177","95368","0.0-18.0-1.0-0.7","","","","","{""fast_test"":""1"",""num_seqs"":""2""}","https://test12345.live/?fast_test=1&num_seqs=2","-2024-11-24-07-39-30","","null","","images/schematic_sequence/restaurant_scheme/restaurant_scheme_8.png","null","",""
"","","","","","image-button-response","178","95550","0.0-18.0-1.0-1.7","","","","","{""fast_test"":""1"",""num_seqs"":""2""}","https://test12345.live/?fast_test=1&num_seqs=2","-2024-11-24-07-39-30","","null","","images/schematic_sequence/restaurant_scheme/restaurant_scheme_8.png","null","",""
"","","","","","image-button-response","179","95732","0.0-18.0-1.0-2.7","","","","","{""fast_test"":""1"",""num_seqs"":""2""}","https://test12345.live/?fast_test=1&num_seqs=2","-2024-11-24-07-39-30","","null","","[]","null","",""
"","","","","","image-button-response","180","95916","0.0-18.0-1.0-0.8","","","","","{""fast_test"":""1"",""num_seqs"":""2""}","https://test12345.live/?fast_test=1&num_seqs=2","-2024-11-24-07-39-30","","null","","images/schematic_sequence/restaurant_scheme/restaurant_scheme_ten.png","null","",""
"","","","","","image-button-response","181","96101","0.0-18.0-1.0-1.8","","","","","{""fast_test"":""1"",""num_seqs"":""2""}","https://test12345.live/?fast_test=1&num_seqs=2","-2024-11-24-07-39-30","","null","","images/schematic_sequence/restaurant_scheme/restaurant_scheme_ten.png","null","",""
"","","","","","image-button-response","182","96284","0.0-18.0-1.0-2.8","","","","","{""fast_test"":""1"",""num_seqs"":""2""}","https://test12345.live/?fast_test=1&num_seqs=2","-2024-11-24-07-39-30","","null","","[]","null","",""
"","","","","","image-button-response","183","96467","0.0-18.0-1.0-0.9","","","","","{""fast_test"":""1"",""num_seqs"":""2""}","https://test12345.live/?fast_test=1&num_seqs=2","-2024-11-24-07-39-30","","null","","images/schematic_sequence/restaurant_scheme/restaurant_scheme_4.png","null","",""
"","","","","","image-button-response","184","96653","0.0-18.0-1.0-1.9","","","","","{""fast_test"":""1"",""num_seqs"":""2""}","https://test12345.live/?fast_test=1&num_seqs=2","-2024-11-24-07-39-30","","null","","images/schematic_sequence/restaurant_scheme/restaurant_scheme_4.png","null","",""
"","","","","","image-button-response","185","96835","0.0-18.0-1.0-2.9","","","","","{""fast_test"":""1"",""num_seqs"":""2""}","https://test12345.live/?fast_test=1&num_seqs=2","-2024-11-24-07-39-30","","null","","[]","null","",""
"","","","","","html-audio-response","186","98455","0.0-19.0","","","","","{""fast_test"":""1"",""num_seqs"":""2""}","https://test12345.live/?fast_test=1&num_seqs=2","-2024-11-24-07-39-30","","975","","[""<span style=\""color: red; font-size: 24px\""> NOW RECORDING</span><p>Please say out loud all the images you saw, as many as you can remember. The images can be said in any order.</p>""]","","1","restaurant_scheme"
"","","","","","image-button-response","187","99968","0.0-20.0-0.0","","","","","{""fast_test"":""1"",""num_seqs"":""2""}","https://test12345.live/?fast_test=1&num_seqs=2","-2024-11-24-07-39-30","","null","","images/schematic_sequence/flight_scheme/flight_scheme_0.png","null","",""
"","","","","","image-button-response","188","100151","0.0-20.0-1.0-0.0","","","","","{""fast_test"":""1"",""num_seqs"":""2""}","https://test12345.live/?fast_test=1&num_seqs=2","-2024-11-24-07-39-30","","null","","images/schematic_sequence/flight_scheme/flight_scheme_1.png","null","",""
"","","","","","image-button-response","189","100335","0.0-20.0-1.0-1.0","","","","","{""fast_test"":""1"",""num_seqs"":""2""}","https://test12345.live/?fast_test=1&num_seqs=2","-2024-11-24-07-39-30","","null","","images/schematic_sequence/flight_scheme/flight_scheme_1.png","null","",""
"","","","","","image-button-response","190","100516","0.0-20.0-1.0-2.0","","","","","{""fast_test"":""1"",""num_seqs"":""2""}","https://test12345.live/?fast_test=1&num_seqs=2","-2024-11-24-07-39-30","","null","","[]","null","",""
"","","","","","image-button-response","191","100700","0.0-20.0-1.0-0.1","","","","","{""fast_test"":""1"",""num_seqs"":""2""}","https://test12345.live/?fast_test=1&num_seqs=2","-2024-11-24-07-39-30","","null","","images/schematic_sequence/flight_scheme/flight_scheme_2.png","null","",""
"","","","","","image-button-response","192","100884","0.0-20.0-1.0-1.1","","","","","{""fast_test"":""1"",""num_seqs"":""2""}","https://test12345.live/?fast_test=1&num_seqs=2","-2024-11-24-07-39-30","","null","","images/schematic_sequence/flight_scheme/flight_scheme_2.png","null","",""
"","","","","","image-button-response","193","101068","0.0-20.0-1.0-2.1","","","","","{""fast_test"":""1"",""num_seqs"":""2""}","https://test12345.live/?fast_test=1&num_seqs=2","-2024-11-24-07-39-30","","null","","[]","null","",""
"","","","","","image-button-response","194","101250","0.0-20.0-1.0-0.2","","","","","{""fast_test"":""1"",""num_seqs"":""2""}","https://test12345.live/?fast_test=1&num_seqs=2","-2024-11-24-07-39-30","","null","","images/schematic_sequence/flight_scheme/flight_scheme_3.png","null","",""
"","","","","","image-button-response","195","101434","0.0-20.0-1.0-1.2","","","","","{""fast_test"":""1"",""num_seqs"":""2""}","https://test12345.live/?fast_test=1&num_seqs=2","-2024-11-24-07-39-30","","null","","images/schematic_sequence/flight_scheme/flight_scheme_3.png","null","",""
"","","","","","image-button-response","196","101616","0.0-20.0-1.0-2.2","","","","","{""fast_test"":""1"",""num_seqs"":""2""}","https://test12345.live/?fast_test=1&num_seqs=2","-2024-11-24-07-39-30","","null","","[]","null","",""
"","","","","","image-button-response","197","101800","0.0-20.0-1.0-0.3","","","","","{""fast_test"":""1"",""num_seqs"":""2""}","https://test12345.live/?fast_test=1&num_seqs=2","-2024-11-24-07-39-30","","null","","images/schematic_sequence/flight_scheme/flight_scheme_4.png","null","",""
"","","","","","image-button-response","198","101984","0.0-20.0-1.0-1.3","","","","","{""fast_test"":""1"",""num_seqs"":""2""}","https://test12345.live/?fast_test=1&num_seqs=2","-2024-11-24-07-39-30","","null","","images/schematic_sequence/flight_scheme/flight_scheme_4.png","null","",""
"","","","","","image-button-response","199","102169","0.0-20.0-1.0-2.3","","","","","{""fast_test"":""1"",""num_seqs"":""2""}","https://test12345.live/?fast_test=1&num_seqs=2","-2024-11-24-07-39-30","","null","","[]","null","",""
"","","","","","image-button-response","200","102352","0.0-20.0-1.0-0.4","","","","","{""fast_test"":""1"",""num_seqs"":""2""}","https://test12345.live/?fast_test=1&num_seqs=2","-2024-11-24-07-39-30","","null","","images/schematic_sequence/flight_scheme/flight_scheme_5.png","null","",""
"","","","","","image-button-response","201","102535","0.0-20.0-1.0-1.4","","","","","{""fast_test"":""1"",""num_seqs"":""2""}","https://test12345.live/?fast_test=1&num_seqs=2","-2024-11-24-07-39-30","","null","","images/schematic_sequence/flight_scheme/flight_scheme_5.png","null","",""
"","","","","","image-button-response","202","102717","0.0-20.0-1.0-2.4","","","","","{""fast_test"":""1"",""num_seqs"":""2""}","https://test12345.live/?fast_test=1&num_seqs=2","-2024-11-24-07-39-30","","null","","[]","null","",""
"","","","","","image-button-response","203","102900","0.0-20.0-1.0-0.5","","","","","{""fast_test"":""1"",""num_seqs"":""2""}","https://test12345.live/?fast_test=1&num_seqs=2","-2024-11-24-07-39-30","","null","","images/schematic_sequence/flight_scheme/flight_scheme_6.png","null","",""
"","","","","","image-button-response","204","103084","0.0-20.0-1.0-1.5","","","","","{""fast_test"":""1"",""num_seqs"":""2""}","https://test12345.live/?fast_test=1&num_seqs=2","-2024-11-24-07-39-30","","null","","images/schematic_sequence/flight_scheme/flight_scheme_6.png","null","",""
"","","","","","image-button-response","205","103268","0.0-20.0-1.0-2.5","","","","","{""fast_test"":""1"",""num_seqs"":""2""}","https://test12345.live/?fast_test=1&num_seqs=2","-2024-11-24-07-39-30","","null","","[]","null","",""
"","","","","","image-button-response","206","103450","0.0-20.0-1.0-0.6","","","","","{""fast_test"":""1"",""num_seqs"":""2""}","https://test12345.live/?fast_test=1&num_seqs=2","-2024-11-24-07-39-30","","null","","images/schematic_sequence/flight_scheme/flight_scheme_7.png","null","",""
"","","","","","image-button-response","207","103634","0.0-20.0-1.0-1.6","","","","","{""fast_test"":""1"",""num_seqs"":""2""}","https://test12345.live/?fast_test=1&num_seqs=2","-2024-11-24-07-39-30","","null","","images/schematic_sequence/flight_scheme/flight_scheme_7.png","null","",""
"","","","","","image-button-response","208","103817","0.0-20.0-1.0-2.6","","","","","{""fast_test"":""1"",""num_seqs"":""2""}","https://test12345.live/?fast_test=1&num_seqs=2","-2024-11-24-07-39-30","","null","","[]","null","",""
"","","","","","image-button-response","209","104000","0.0-20.0-1.0-0.7","","","","","{""fast_test"":""1"",""num_seqs"":""2""}","https://test12345.live/?fast_test=1&num_seqs=2","-2024-11-24-07-39-30","","null","","images/schematic_sequence/flight_scheme/flight_scheme_8.png","null","",""
"","","","","","image-button-response","210","104184","0.0-20.0-1.0-1.7","","","","","{""fast_test"":""1"",""num_seqs"":""2""}","https://test12345.live/?fast_test=1&num_seqs=2","-2024-11-24-07-39-30","","null","","images/schematic_sequence/flight_scheme/flight_scheme_8.png","null","",""
"","","","","","image-button-response","211","104367","0.0-20.0-1.0-2.7","","","","","{""fast_test"":""1"",""num_seqs"":""2""}","https://test12345.live/?fast_test=1&num_seqs=2","-2024-11-24-07-39-30","","null","","[]","null","",""
"","","","","","image-button-response","212","104549","0.0-20.0-1.0-0.8","","","","","{""fast_test"":""1"",""num_seqs"":""2""}","https://test12345.live/?fast_test=1&num_seqs=2","-2024-11-24-07-39-30","","null","","images/schematic_sequence/flight_scheme/flight_scheme_9.png","null","",""
"","","","","","image-button-response","213","104734","0.0-20.0-1.0-1.8","","","","","{""fast_test"":""1"",""num_seqs"":""2""}","https://test12345.live/?fast_test=1&num_seqs=2","-2024-11-24-07-39-30","","null","","images/schematic_sequence/flight_scheme/flight_scheme_9.png","null","",""
"","","","","","image-button-response","214","104917","0.0-20.0-1.0-2.8","","","","","{""fast_test"":""1"",""num_seqs"":""2""}","https://test12345.live/?fast_test=1&num_seqs=2","-2024-11-24-07-39-30","","null","","[]","null","",""
"","","","","","image-button-response","215","105100","0.0-20.0-1.0-0.9","","","","","{""fast_test"":""1"",""num_seqs"":""2""}","https://test12345.live/?fast_test=1&num_seqs=2","-2024-11-24-07-39-30","","null","","images/schematic_sequence/flight_scheme/flight_scheme_ten.png","null","",""
"","","","","","image-button-response","216","105284","0.0-20.0-1.0-1.9","","","","","{""fast_test"":""1"",""num_seqs"":""2""}","https://test12345.live/?fast_test=1&num_seqs=2","-2024-11-24-07-39-30","","null","","images/schematic_sequence/flight_scheme/flight_scheme_ten.png","null","",""
"","","","","","image-button-response","217","105467","0.0-20.0-1.0-2.9","","","","","{""fast_test"":""1"",""num_seqs"":""2""}","https://test12345.live/?fast_test=1&num_seqs=2","-2024-11-24-07-39-30","","null","","[]","null","",""
"","","","","","html-audio-response","218","107143","0.0-21.0","","","","","{""fast_test"":""1"",""num_seqs"":""2""}","https://test12345.live/?fast_test=1&num_seqs=2","-2024-11-24-07-39-30","","1052","","[""<span style=\""color: red; font-size: 24px\""> NOW RECORDING</span><p>Please say out loud all the images you saw, as many as you can remember. The images can be said in any order.</p>""]","","1","flight_scheme"
"","","","","","survey-text","219","108093","0.0-22.0","","","","","{""fast_test"":""1"",""num_seqs"":""2""}","https://test12345.live/?fast_test=1&num_seqs=2","-2024-11-24-07-39-30","","945","","","{""Q0"":"""",""Q1"":""""}","",""
"","","","","","instructions","220","108715","0.0-23.0","","","","","{""fast_test"":""1"",""num_seqs"":""2""}","https://test12345.live/?fast_test=1&num_seqs=2","-2024-11-24-07-39-30","[{""page_index"":0,""viewing_time"":621}]","622","","","","",""
"","","","","","survey-text","221","109512","0.0-24.0","","","","","{""fast_test"":""1"",""num_seqs"":""2""}","https://test12345.live/?fast_test=1&num_seqs=2","-2024-11-24-07-39-30","","795","","","{""Q0"":""""}","",""
