"success","timeout","failed_images","failed_audio","failed_video","trial_type","trial_index","time_elapsed","internal_node_id","subject","subject_id","study_id","session_id","urlvar","current_url","audio_id","view_history","rt","device_id","stimulus","response","estimated_stimulus_onset","seq_name"
"true","false","[]","[]","[]","preload","0","42","0.0-0.0","user_487728","user_487728","","","{""num_seqs"":""1"",""num_scrambled_semantic"":""1"",""num_scrambled_causal"":""0"",""num_scrambled_schematic"":""1"",""fast_test"":""1""}","https://test12345.live/?num_seqs=1&num_scrambled_semantic=1&num_scrambled_causal=0&num_scrambled_schematic=1&fast_test=1","user_487728-2025-05-14-14-03-57","","","","","","",""
"","","","","","instructions","1","2915","0.0-1.0","user_487728","user_487728","","","{""num_seqs"":""1"",""num_scrambled_semantic"":""1"",""num_scrambled_causal"":""0"",""num_scrambled_schematic"":""1"",""fast_test"":""1""}","https://test12345.live/?num_seqs=1&num_scrambled_semantic=1&num_scrambled_causal=0&num_scrambled_schematic=1&fast_test=1","user_487728-2025-05-14-14-03-57","[{""page_index"":0,""viewing_time"":2872}]","2873","","","","",""
"","","","","","instructions","2","4790","0.0-2.0","user_487728","user_487728","","","{""num_seqs"":""1"",""num_scrambled_semantic"":""1"",""num_scrambled_causal"":""0"",""num_scrambled_schematic"":""1"",""fast_test"":""1""}","https://test12345.live/?num_seqs=1&num_scrambled_semantic=1&num_scrambled_causal=0&num_scrambled_schematic=1&fast_test=1","user_487728-2025-05-14-14-03-57","[{""page_index"":0,""viewing_time"":1875}]","1875","","","","",""
"true","","","","","fullscreen","3","6688","0.0-3.0","user_487728","user_487728","","","{""num_seqs"":""1"",""num_scrambled_semantic"":""1"",""num_scrambled_causal"":""0"",""num_scrambled_schematic"":""1"",""fast_test"":""1""}","https://test12345.live/?num_seqs=1&num_scrambled_semantic=1&num_scrambled_causal=0&num_scrambled_schematic=1&fast_test=1","user_487728-2025-05-14-14-03-57","","892","","","","",""
"","","","","","initialize-microphone","4","8287","0.0-4.0-0.0","user_487728","user_487728","","","{""num_seqs"":""1"",""num_scrambled_semantic"":""1"",""num_scrambled_causal"":""0"",""num_scrambled_schematic"":""1"",""fast_test"":""1""}","https://test12345.live/?num_seqs=1&num_scrambled_semantic=1&num_scrambled_causal=0&num_scrambled_schematic=1&fast_test=1","user_487728-2025-05-14-14-03-57","","","9498df1fae0661fa2b75ba54b696e1b79df8c09e2d84a13b691442c3e72aae0f","","","",""
"","","","","","html-audio-response","5","9578","0.0-4.0-1.0","user_487728","user_487728","","","{""num_seqs"":""1"",""num_scrambled_semantic"":""1"",""num_scrambled_causal"":""0"",""num_scrambled_schematic"":""1"",""fast_test"":""1""}","https://test12345.live/?num_seqs=1&num_scrambled_semantic=1&num_scrambled_causal=0&num_scrambled_schematic=1&fast_test=1","user_487728-2025-05-14-14-03-57","","678","","<span style=""color: red; font-size: 24px""> NOW RECORDING</span>
        <p>Please test Microphone</p>","","13",""
"","","","","","html-button-response","6","10227","0.0-4.0-2.0","user_487728","user_487728","","","{""num_seqs"":""1"",""num_scrambled_semantic"":""1"",""num_scrambled_causal"":""0"",""num_scrambled_schematic"":""1"",""fast_test"":""1""}","https://test12345.live/?num_seqs=1&num_scrambled_semantic=1&num_scrambled_causal=0&num_scrambled_schematic=1&fast_test=1","user_487728-2025-05-14-14-03-57","","647","","<p style=""font-size:48px; color:red;"">Is Microphone OK?</p>","1","",""
"","","","","","instructions","7","11875","0.0-5.0","user_487728","user_487728","","","{""num_seqs"":""1"",""num_scrambled_semantic"":""1"",""num_scrambled_causal"":""0"",""num_scrambled_schematic"":""1"",""fast_test"":""1""}","https://test12345.live/?num_seqs=1&num_scrambled_semantic=1&num_scrambled_causal=0&num_scrambled_schematic=1&fast_test=1","user_487728-2025-05-14-14-03-57","[{""page_index"":0,""viewing_time"":888},{""page_index"":1,""viewing_time"":760}]","1648","","","","",""
"","","","","","image-button-response","8","12087","0.0-6.0-0.0","user_487728","user_487728","","","{""num_seqs"":""1"",""num_scrambled_semantic"":""1"",""num_scrambled_causal"":""0"",""num_scrambled_schematic"":""1"",""fast_test"":""1""}","https://test12345.live/?num_seqs=1&num_scrambled_semantic=1&num_scrambled_causal=0&num_scrambled_schematic=1&fast_test=1","user_487728-2025-05-14-14-03-57","","null","","images/instructions/movie_0.png","null","",""
"","","","","","image-button-response","9","12289","0.0-6.0-1.0-0.0","user_487728","user_487728","","","{""num_seqs"":""1"",""num_scrambled_semantic"":""1"",""num_scrambled_causal"":""0"",""num_scrambled_schematic"":""1"",""fast_test"":""1""}","https://test12345.live/?num_seqs=1&num_scrambled_semantic=1&num_scrambled_causal=0&num_scrambled_schematic=1&fast_test=1","user_487728-2025-05-14-14-03-57","","null","","images/instructions/movie_1.png","null","",""
"","","","","","image-button-response","10","12342","0.0-6.0-1.0-1.0","user_487728","user_487728","","","{""num_seqs"":""1"",""num_scrambled_semantic"":""1"",""num_scrambled_causal"":""0"",""num_scrambled_schematic"":""1"",""fast_test"":""1""}","https://test12345.live/?num_seqs=1&num_scrambled_semantic=1&num_scrambled_causal=0&num_scrambled_schematic=1&fast_test=1","user_487728-2025-05-14-14-03-57","","null","","images/instructions/movie_1.png","null","",""
"","","","","","image-button-response","11","12394","0.0-6.0-1.0-2.0","user_487728","user_487728","","","{""num_seqs"":""1"",""num_scrambled_semantic"":""1"",""num_scrambled_causal"":""0"",""num_scrambled_schematic"":""1"",""fast_test"":""1""}","https://test12345.live/?num_seqs=1&num_scrambled_semantic=1&num_scrambled_causal=0&num_scrambled_schematic=1&fast_test=1","user_487728-2025-05-14-14-03-57","","null","","[]","null","",""
"","","","","","image-button-response","12","12605","0.0-6.0-1.0-0.1","user_487728","user_487728","","","{""num_seqs"":""1"",""num_scrambled_semantic"":""1"",""num_scrambled_causal"":""0"",""num_scrambled_schematic"":""1"",""fast_test"":""1""}","https://test12345.live/?num_seqs=1&num_scrambled_semantic=1&num_scrambled_causal=0&num_scrambled_schematic=1&fast_test=1","user_487728-2025-05-14-14-03-57","","null","","images/instructions/movie_2.png","null","",""
"","","","","","image-button-response","13","12660","0.0-6.0-1.0-1.1","user_487728","user_487728","","","{""num_seqs"":""1"",""num_scrambled_semantic"":""1"",""num_scrambled_causal"":""0"",""num_scrambled_schematic"":""1"",""fast_test"":""1""}","https://test12345.live/?num_seqs=1&num_scrambled_semantic=1&num_scrambled_causal=0&num_scrambled_schematic=1&fast_test=1","user_487728-2025-05-14-14-03-57","","null","","images/instructions/movie_2.png","null","",""
"","","","","","image-button-response","14","12714","0.0-6.0-1.0-2.1","user_487728","user_487728","","","{""num_seqs"":""1"",""num_scrambled_semantic"":""1"",""num_scrambled_causal"":""0"",""num_scrambled_schematic"":""1"",""fast_test"":""1""}","https://test12345.live/?num_seqs=1&num_scrambled_semantic=1&num_scrambled_causal=0&num_scrambled_schematic=1&fast_test=1","user_487728-2025-05-14-14-03-57","","null","","[]","null","",""
"","","","","","image-button-response","15","12916","0.0-6.0-1.0-0.2","user_487728","user_487728","","","{""num_seqs"":""1"",""num_scrambled_semantic"":""1"",""num_scrambled_causal"":""0"",""num_scrambled_schematic"":""1"",""fast_test"":""1""}","https://test12345.live/?num_seqs=1&num_scrambled_semantic=1&num_scrambled_causal=0&num_scrambled_schematic=1&fast_test=1","user_487728-2025-05-14-14-03-57","","null","","images/instructions/movie_3.png","null","",""
"","","","","","image-button-response","16","12968","0.0-6.0-1.0-1.2","user_487728","user_487728","","","{""num_seqs"":""1"",""num_scrambled_semantic"":""1"",""num_scrambled_causal"":""0"",""num_scrambled_schematic"":""1"",""fast_test"":""1""}","https://test12345.live/?num_seqs=1&num_scrambled_semantic=1&num_scrambled_causal=0&num_scrambled_schematic=1&fast_test=1","user_487728-2025-05-14-14-03-57","","null","","images/instructions/movie_3.png","null","",""
"","","","","","image-button-response","17","13020","0.0-6.0-1.0-2.2","user_487728","user_487728","","","{""num_seqs"":""1"",""num_scrambled_semantic"":""1"",""num_scrambled_causal"":""0"",""num_scrambled_schematic"":""1"",""fast_test"":""1""}","https://test12345.live/?num_seqs=1&num_scrambled_semantic=1&num_scrambled_causal=0&num_scrambled_schematic=1&fast_test=1","user_487728-2025-05-14-14-03-57","","null","","[]","null","",""
"","","","","","image-button-response","18","13229","0.0-6.0-1.0-0.3","user_487728","user_487728","","","{""num_seqs"":""1"",""num_scrambled_semantic"":""1"",""num_scrambled_causal"":""0"",""num_scrambled_schematic"":""1"",""fast_test"":""1""}","https://test12345.live/?num_seqs=1&num_scrambled_semantic=1&num_scrambled_causal=0&num_scrambled_schematic=1&fast_test=1","user_487728-2025-05-14-14-03-57","","null","","images/instructions/movie_4.png","null","",""
"","","","","","image-button-response","19","13286","0.0-6.0-1.0-1.3","user_487728","user_487728","","","{""num_seqs"":""1"",""num_scrambled_semantic"":""1"",""num_scrambled_causal"":""0"",""num_scrambled_schematic"":""1"",""fast_test"":""1""}","https://test12345.live/?num_seqs=1&num_scrambled_semantic=1&num_scrambled_causal=0&num_scrambled_schematic=1&fast_test=1","user_487728-2025-05-14-14-03-57","","null","","images/instructions/movie_4.png","null","",""
"","","","","","image-button-response","20","13341","0.0-6.0-1.0-2.3","user_487728","user_487728","","","{""num_seqs"":""1"",""num_scrambled_semantic"":""1"",""num_scrambled_causal"":""0"",""num_scrambled_schematic"":""1"",""fast_test"":""1""}","https://test12345.live/?num_seqs=1&num_scrambled_semantic=1&num_scrambled_causal=0&num_scrambled_schematic=1&fast_test=1","user_487728-2025-05-14-14-03-57","","null","","[]","null","",""
"","","","","","instructions","21","14867","0.0-7.0","user_487728","user_487728","","","{""num_seqs"":""1"",""num_scrambled_semantic"":""1"",""num_scrambled_causal"":""0"",""num_scrambled_schematic"":""1"",""fast_test"":""1""}","https://test12345.live/?num_seqs=1&num_scrambled_semantic=1&num_scrambled_causal=0&num_scrambled_schematic=1&fast_test=1","user_487728-2025-05-14-14-03-57","[{""page_index"":0,""viewing_time"":729},{""page_index"":1,""viewing_time"":797}]","1525","","","","",""
"","","","","","html-audio-response","22","16344","0.0-8.0","user_487728","user_487728","","","{""num_seqs"":""1"",""num_scrambled_semantic"":""1"",""num_scrambled_causal"":""0"",""num_scrambled_schematic"":""1"",""fast_test"":""1""}","https://test12345.live/?num_seqs=1&num_scrambled_semantic=1&num_scrambled_causal=0&num_scrambled_schematic=1&fast_test=1","user_487728-2025-05-14-14-03-57","","758","","[""<span style=\""color: red; font-size: 24px\""> NOW RECORDING</span><p>Please say out loud all the images you saw, as many as you can remember. The images can be said in any order.</p>""]","","17",""
"","","","","","instructions","23","17047","0.0-9.0","user_487728","user_487728","","","{""num_seqs"":""1"",""num_scrambled_semantic"":""1"",""num_scrambled_causal"":""0"",""num_scrambled_schematic"":""1"",""fast_test"":""1""}","https://test12345.live/?num_seqs=1&num_scrambled_semantic=1&num_scrambled_causal=0&num_scrambled_schematic=1&fast_test=1","user_487728-2025-05-14-14-03-57","[{""page_index"":0,""viewing_time"":701}]","702","","","","",""
"","","","","","image-button-response","24","17264","0.0-10.0-0.0","user_487728","user_487728","","","{""num_seqs"":""1"",""num_scrambled_semantic"":""1"",""num_scrambled_causal"":""0"",""num_scrambled_schematic"":""1"",""fast_test"":""1""}","https://test12345.live/?num_seqs=1&num_scrambled_semantic=1&num_scrambled_causal=0&num_scrambled_schematic=1&fast_test=1","user_487728-2025-05-14-14-03-57","","null","","images/schematic_sequence/interview_scheme/interview_scheme_0.png","null","",""
"","","","","","image-button-response","25","17484","0.0-10.0-1.0-0.0","user_487728","user_487728","","","{""num_seqs"":""1"",""num_scrambled_semantic"":""1"",""num_scrambled_causal"":""0"",""num_scrambled_schematic"":""1"",""fast_test"":""1""}","https://test12345.live/?num_seqs=1&num_scrambled_semantic=1&num_scrambled_causal=0&num_scrambled_schematic=1&fast_test=1","user_487728-2025-05-14-14-03-57","","null","","images/schematic_sequence/interview_scheme/interview_scheme_3.png","null","",""
"","","","","","image-button-response","26","17551","0.0-10.0-1.0-1.0","user_487728","user_487728","","","{""num_seqs"":""1"",""num_scrambled_semantic"":""1"",""num_scrambled_causal"":""0"",""num_scrambled_schematic"":""1"",""fast_test"":""1""}","https://test12345.live/?num_seqs=1&num_scrambled_semantic=1&num_scrambled_causal=0&num_scrambled_schematic=1&fast_test=1","user_487728-2025-05-14-14-03-57","","null","","images/schematic_sequence/interview_scheme/interview_scheme_3.png","null","",""
"","","","","","image-button-response","27","17606","0.0-10.0-1.0-2.0","user_487728","user_487728","","","{""num_seqs"":""1"",""num_scrambled_semantic"":""1"",""num_scrambled_causal"":""0"",""num_scrambled_schematic"":""1"",""fast_test"":""1""}","https://test12345.live/?num_seqs=1&num_scrambled_semantic=1&num_scrambled_causal=0&num_scrambled_schematic=1&fast_test=1","user_487728-2025-05-14-14-03-57","","null","","[]","null","",""
"","","","","","image-button-response","28","17814","0.0-10.0-1.0-0.1","user_487728","user_487728","","","{""num_seqs"":""1"",""num_scrambled_semantic"":""1"",""num_scrambled_causal"":""0"",""num_scrambled_schematic"":""1"",""fast_test"":""1""}","https://test12345.live/?num_seqs=1&num_scrambled_semantic=1&num_scrambled_causal=0&num_scrambled_schematic=1&fast_test=1","user_487728-2025-05-14-14-03-57","","null","","images/schematic_sequence/interview_scheme/interview_scheme_ten.png","null","",""
"","","","","","image-button-response","29","17868","0.0-10.0-1.0-1.1","user_487728","user_487728","","","{""num_seqs"":""1"",""num_scrambled_semantic"":""1"",""num_scrambled_causal"":""0"",""num_scrambled_schematic"":""1"",""fast_test"":""1""}","https://test12345.live/?num_seqs=1&num_scrambled_semantic=1&num_scrambled_causal=0&num_scrambled_schematic=1&fast_test=1","user_487728-2025-05-14-14-03-57","","null","","images/schematic_sequence/interview_scheme/interview_scheme_ten.png","null","",""
"","","","","","image-button-response","30","17930","0.0-10.0-1.0-2.1","user_487728","user_487728","","","{""num_seqs"":""1"",""num_scrambled_semantic"":""1"",""num_scrambled_causal"":""0"",""num_scrambled_schematic"":""1"",""fast_test"":""1""}","https://test12345.live/?num_seqs=1&num_scrambled_semantic=1&num_scrambled_causal=0&num_scrambled_schematic=1&fast_test=1","user_487728-2025-05-14-14-03-57","","null","","[]","null","",""
"","","","","","image-button-response","31","18132","0.0-10.0-1.0-0.2","user_487728","user_487728","","","{""num_seqs"":""1"",""num_scrambled_semantic"":""1"",""num_scrambled_causal"":""0"",""num_scrambled_schematic"":""1"",""fast_test"":""1""}","https://test12345.live/?num_seqs=1&num_scrambled_semantic=1&num_scrambled_causal=0&num_scrambled_schematic=1&fast_test=1","user_487728-2025-05-14-14-03-57","","null","","images/schematic_sequence/interview_scheme/interview_scheme_5.png","null","",""
"","","","","","image-button-response","32","18184","0.0-10.0-1.0-1.2","user_487728","user_487728","","","{""num_seqs"":""1"",""num_scrambled_semantic"":""1"",""num_scrambled_causal"":""0"",""num_scrambled_schematic"":""1"",""fast_test"":""1""}","https://test12345.live/?num_seqs=1&num_scrambled_semantic=1&num_scrambled_causal=0&num_scrambled_schematic=1&fast_test=1","user_487728-2025-05-14-14-03-57","","null","","images/schematic_sequence/interview_scheme/interview_scheme_5.png","null","",""
"","","","","","image-button-response","33","18238","0.0-10.0-1.0-2.2","user_487728","user_487728","","","{""num_seqs"":""1"",""num_scrambled_semantic"":""1"",""num_scrambled_causal"":""0"",""num_scrambled_schematic"":""1"",""fast_test"":""1""}","https://test12345.live/?num_seqs=1&num_scrambled_semantic=1&num_scrambled_causal=0&num_scrambled_schematic=1&fast_test=1","user_487728-2025-05-14-14-03-57","","null","","[]","null","",""
"","","","","","image-button-response","34","18454","0.0-10.0-1.0-0.3","user_487728","user_487728","","","{""num_seqs"":""1"",""num_scrambled_semantic"":""1"",""num_scrambled_causal"":""0"",""num_scrambled_schematic"":""1"",""fast_test"":""1""}","https://test12345.live/?num_seqs=1&num_scrambled_semantic=1&num_scrambled_causal=0&num_scrambled_schematic=1&fast_test=1","user_487728-2025-05-14-14-03-57","","null","","images/schematic_sequence/interview_scheme/interview_scheme_2.png","null","",""
"","","","","","image-button-response","35","18509","0.0-10.0-1.0-1.3","user_487728","user_487728","","","{""num_seqs"":""1"",""num_scrambled_semantic"":""1"",""num_scrambled_causal"":""0"",""num_scrambled_schematic"":""1"",""fast_test"":""1""}","https://test12345.live/?num_seqs=1&num_scrambled_semantic=1&num_scrambled_causal=0&num_scrambled_schematic=1&fast_test=1","user_487728-2025-05-14-14-03-57","","null","","images/schematic_sequence/interview_scheme/interview_scheme_2.png","null","",""
"","","","","","image-button-response","36","18563","0.0-10.0-1.0-2.3","user_487728","user_487728","","","{""num_seqs"":""1"",""num_scrambled_semantic"":""1"",""num_scrambled_causal"":""0"",""num_scrambled_schematic"":""1"",""fast_test"":""1""}","https://test12345.live/?num_seqs=1&num_scrambled_semantic=1&num_scrambled_causal=0&num_scrambled_schematic=1&fast_test=1","user_487728-2025-05-14-14-03-57","","null","","[]","null","",""
"","","","","","image-button-response","37","18790","0.0-10.0-1.0-0.4","user_487728","user_487728","","","{""num_seqs"":""1"",""num_scrambled_semantic"":""1"",""num_scrambled_causal"":""0"",""num_scrambled_schematic"":""1"",""fast_test"":""1""}","https://test12345.live/?num_seqs=1&num_scrambled_semantic=1&num_scrambled_causal=0&num_scrambled_schematic=1&fast_test=1","user_487728-2025-05-14-14-03-57","","null","","images/schematic_sequence/interview_scheme/interview_scheme_9.png","null","",""
"","","","","","image-button-response","38","18842","0.0-10.0-1.0-1.4","user_487728","user_487728","","","{""num_seqs"":""1"",""num_scrambled_semantic"":""1"",""num_scrambled_causal"":""0"",""num_scrambled_schematic"":""1"",""fast_test"":""1""}","https://test12345.live/?num_seqs=1&num_scrambled_semantic=1&num_scrambled_causal=0&num_scrambled_schematic=1&fast_test=1","user_487728-2025-05-14-14-03-57","","null","","images/schematic_sequence/interview_scheme/interview_scheme_9.png","null","",""
"","","","","","image-button-response","39","18902","0.0-10.0-1.0-2.4","user_487728","user_487728","","","{""num_seqs"":""1"",""num_scrambled_semantic"":""1"",""num_scrambled_causal"":""0"",""num_scrambled_schematic"":""1"",""fast_test"":""1""}","https://test12345.live/?num_seqs=1&num_scrambled_semantic=1&num_scrambled_causal=0&num_scrambled_schematic=1&fast_test=1","user_487728-2025-05-14-14-03-57","","null","","[]","null","",""
"","","","","","image-button-response","40","19105","0.0-10.0-1.0-0.5","user_487728","user_487728","","","{""num_seqs"":""1"",""num_scrambled_semantic"":""1"",""num_scrambled_causal"":""0"",""num_scrambled_schematic"":""1"",""fast_test"":""1""}","https://test12345.live/?num_seqs=1&num_scrambled_semantic=1&num_scrambled_causal=0&num_scrambled_schematic=1&fast_test=1","user_487728-2025-05-14-14-03-57","","null","","images/schematic_sequence/interview_scheme/interview_scheme_1.png","null","",""
"","","","","","image-button-response","41","19158","0.0-10.0-1.0-1.5","user_487728","user_487728","","","{""num_seqs"":""1"",""num_scrambled_semantic"":""1"",""num_scrambled_causal"":""0"",""num_scrambled_schematic"":""1"",""fast_test"":""1""}","https://test12345.live/?num_seqs=1&num_scrambled_semantic=1&num_scrambled_causal=0&num_scrambled_schematic=1&fast_test=1","user_487728-2025-05-14-14-03-57","","null","","images/schematic_sequence/interview_scheme/interview_scheme_1.png","null","",""
"","","","","","image-button-response","42","19213","0.0-10.0-1.0-2.5","user_487728","user_487728","","","{""num_seqs"":""1"",""num_scrambled_semantic"":""1"",""num_scrambled_causal"":""0"",""num_scrambled_schematic"":""1"",""fast_test"":""1""}","https://test12345.live/?num_seqs=1&num_scrambled_semantic=1&num_scrambled_causal=0&num_scrambled_schematic=1&fast_test=1","user_487728-2025-05-14-14-03-57","","null","","[]","null","",""
"","","","","","image-button-response","43","19422","0.0-10.0-1.0-0.6","user_487728","user_487728","","","{""num_seqs"":""1"",""num_scrambled_semantic"":""1"",""num_scrambled_causal"":""0"",""num_scrambled_schematic"":""1"",""fast_test"":""1""}","https://test12345.live/?num_seqs=1&num_scrambled_semantic=1&num_scrambled_causal=0&num_scrambled_schematic=1&fast_test=1","user_487728-2025-05-14-14-03-57","","null","","images/schematic_sequence/interview_scheme/interview_scheme_6.png","null","",""
"","","","","","image-button-response","44","19477","0.0-10.0-1.0-1.6","user_487728","user_487728","","","{""num_seqs"":""1"",""num_scrambled_semantic"":""1"",""num_scrambled_causal"":""0"",""num_scrambled_schematic"":""1"",""fast_test"":""1""}","https://test12345.live/?num_seqs=1&num_scrambled_semantic=1&num_scrambled_causal=0&num_scrambled_schematic=1&fast_test=1","user_487728-2025-05-14-14-03-57","","null","","images/schematic_sequence/interview_scheme/interview_scheme_6.png","null","",""
"","","","","","image-button-response","45","19531","0.0-10.0-1.0-2.6","user_487728","user_487728","","","{""num_seqs"":""1"",""num_scrambled_semantic"":""1"",""num_scrambled_causal"":""0"",""num_scrambled_schematic"":""1"",""fast_test"":""1""}","https://test12345.live/?num_seqs=1&num_scrambled_semantic=1&num_scrambled_causal=0&num_scrambled_schematic=1&fast_test=1","user_487728-2025-05-14-14-03-57","","null","","[]","null","",""
"","","","","","image-button-response","46","19745","0.0-10.0-1.0-0.7","user_487728","user_487728","","","{""num_seqs"":""1"",""num_scrambled_semantic"":""1"",""num_scrambled_causal"":""0"",""num_scrambled_schematic"":""1"",""fast_test"":""1""}","https://test12345.live/?num_seqs=1&num_scrambled_semantic=1&num_scrambled_causal=0&num_scrambled_schematic=1&fast_test=1","user_487728-2025-05-14-14-03-57","","null","","images/schematic_sequence/interview_scheme/interview_scheme_7.png","null","",""
"","","","","","image-button-response","47","19796","0.0-10.0-1.0-1.7","user_487728","user_487728","","","{""num_seqs"":""1"",""num_scrambled_semantic"":""1"",""num_scrambled_causal"":""0"",""num_scrambled_schematic"":""1"",""fast_test"":""1""}","https://test12345.live/?num_seqs=1&num_scrambled_semantic=1&num_scrambled_causal=0&num_scrambled_schematic=1&fast_test=1","user_487728-2025-05-14-14-03-57","","null","","images/schematic_sequence/interview_scheme/interview_scheme_7.png","null","",""
"","","","","","image-button-response","48","19851","0.0-10.0-1.0-2.7","user_487728","user_487728","","","{""num_seqs"":""1"",""num_scrambled_semantic"":""1"",""num_scrambled_causal"":""0"",""num_scrambled_schematic"":""1"",""fast_test"":""1""}","https://test12345.live/?num_seqs=1&num_scrambled_semantic=1&num_scrambled_causal=0&num_scrambled_schematic=1&fast_test=1","user_487728-2025-05-14-14-03-57","","null","","[]","null","",""
"","","","","","image-button-response","49","20067","0.0-10.0-1.0-0.8","user_487728","user_487728","","","{""num_seqs"":""1"",""num_scrambled_semantic"":""1"",""num_scrambled_causal"":""0"",""num_scrambled_schematic"":""1"",""fast_test"":""1""}","https://test12345.live/?num_seqs=1&num_scrambled_semantic=1&num_scrambled_causal=0&num_scrambled_schematic=1&fast_test=1","user_487728-2025-05-14-14-03-57","","null","","images/schematic_sequence/interview_scheme/interview_scheme_4.png","null","",""
"","","","","","image-button-response","50","20135","0.0-10.0-1.0-1.8","user_487728","user_487728","","","{""num_seqs"":""1"",""num_scrambled_semantic"":""1"",""num_scrambled_causal"":""0"",""num_scrambled_schematic"":""1"",""fast_test"":""1""}","https://test12345.live/?num_seqs=1&num_scrambled_semantic=1&num_scrambled_causal=0&num_scrambled_schematic=1&fast_test=1","user_487728-2025-05-14-14-03-57","","null","","images/schematic_sequence/interview_scheme/interview_scheme_4.png","null","",""
"","","","","","image-button-response","51","20193","0.0-10.0-1.0-2.8","user_487728","user_487728","","","{""num_seqs"":""1"",""num_scrambled_semantic"":""1"",""num_scrambled_causal"":""0"",""num_scrambled_schematic"":""1"",""fast_test"":""1""}","https://test12345.live/?num_seqs=1&num_scrambled_semantic=1&num_scrambled_causal=0&num_scrambled_schematic=1&fast_test=1","user_487728-2025-05-14-14-03-57","","null","","[]","null","",""
"","","","","","image-button-response","52","20407","0.0-10.0-1.0-0.9","user_487728","user_487728","","","{""num_seqs"":""1"",""num_scrambled_semantic"":""1"",""num_scrambled_causal"":""0"",""num_scrambled_schematic"":""1"",""fast_test"":""1""}","https://test12345.live/?num_seqs=1&num_scrambled_semantic=1&num_scrambled_causal=0&num_scrambled_schematic=1&fast_test=1","user_487728-2025-05-14-14-03-57","","null","","images/schematic_sequence/interview_scheme/interview_scheme_8.png","null","",""
"","","","","","image-button-response","53","20474","0.0-10.0-1.0-1.9","user_487728","user_487728","","","{""num_seqs"":""1"",""num_scrambled_semantic"":""1"",""num_scrambled_causal"":""0"",""num_scrambled_schematic"":""1"",""fast_test"":""1""}","https://test12345.live/?num_seqs=1&num_scrambled_semantic=1&num_scrambled_causal=0&num_scrambled_schematic=1&fast_test=1","user_487728-2025-05-14-14-03-57","","null","","images/schematic_sequence/interview_scheme/interview_scheme_8.png","null","",""
"","","","","","image-button-response","54","20526","0.0-10.0-1.0-2.9","user_487728","user_487728","","","{""num_seqs"":""1"",""num_scrambled_semantic"":""1"",""num_scrambled_causal"":""0"",""num_scrambled_schematic"":""1"",""fast_test"":""1""}","https://test12345.live/?num_seqs=1&num_scrambled_semantic=1&num_scrambled_causal=0&num_scrambled_schematic=1&fast_test=1","user_487728-2025-05-14-14-03-57","","null","","[]","null","",""
"","","","","","html-audio-response","55","22099","0.0-11.0","user_487728","user_487728","","","{""num_seqs"":""1"",""num_scrambled_semantic"":""1"",""num_scrambled_causal"":""0"",""num_scrambled_schematic"":""1"",""fast_test"":""1""}","https://test12345.live/?num_seqs=1&num_scrambled_semantic=1&num_scrambled_causal=0&num_scrambled_schematic=1&fast_test=1","user_487728-2025-05-14-14-03-57","","1042","","[""<span style=\""color: red; font-size: 24px\""> NOW RECORDING</span><p>Please say out loud all the images you saw, as many as you can remember. The images can be said in any order.</p>""]","","2","interview_scheme"
"","","","","","image-button-response","56","22309","0.0-12.0-0.0","user_487728","user_487728","","","{""num_seqs"":""1"",""num_scrambled_semantic"":""1"",""num_scrambled_causal"":""0"",""num_scrambled_schematic"":""1"",""fast_test"":""1""}","https://test12345.live/?num_seqs=1&num_scrambled_semantic=1&num_scrambled_causal=0&num_scrambled_schematic=1&fast_test=1","user_487728-2025-05-14-14-03-57","","null","","images/causal_sequence/museum_causal/museum_causal_0.png","null","",""
"","","","","","image-button-response","57","22512","0.0-12.0-1.0-0.0","user_487728","user_487728","","","{""num_seqs"":""1"",""num_scrambled_semantic"":""1"",""num_scrambled_causal"":""0"",""num_scrambled_schematic"":""1"",""fast_test"":""1""}","https://test12345.live/?num_seqs=1&num_scrambled_semantic=1&num_scrambled_causal=0&num_scrambled_schematic=1&fast_test=1","user_487728-2025-05-14-14-03-57","","null","","images/causal_sequence/museum_causal/museum_causal_1.png","null","",""
"","","","","","image-button-response","58","22570","0.0-12.0-1.0-1.0","user_487728","user_487728","","","{""num_seqs"":""1"",""num_scrambled_semantic"":""1"",""num_scrambled_causal"":""0"",""num_scrambled_schematic"":""1"",""fast_test"":""1""}","https://test12345.live/?num_seqs=1&num_scrambled_semantic=1&num_scrambled_causal=0&num_scrambled_schematic=1&fast_test=1","user_487728-2025-05-14-14-03-57","","null","","images/causal_sequence/museum_causal/museum_causal_1.png","null","",""
"","","","","","image-button-response","59","22622","0.0-12.0-1.0-2.0","user_487728","user_487728","","","{""num_seqs"":""1"",""num_scrambled_semantic"":""1"",""num_scrambled_causal"":""0"",""num_scrambled_schematic"":""1"",""fast_test"":""1""}","https://test12345.live/?num_seqs=1&num_scrambled_semantic=1&num_scrambled_causal=0&num_scrambled_schematic=1&fast_test=1","user_487728-2025-05-14-14-03-57","","null","","[]","null","",""
"","","","","","image-button-response","60","22838","0.0-12.0-1.0-0.1","user_487728","user_487728","","","{""num_seqs"":""1"",""num_scrambled_semantic"":""1"",""num_scrambled_causal"":""0"",""num_scrambled_schematic"":""1"",""fast_test"":""1""}","https://test12345.live/?num_seqs=1&num_scrambled_semantic=1&num_scrambled_causal=0&num_scrambled_schematic=1&fast_test=1","user_487728-2025-05-14-14-03-57","","null","","images/causal_sequence/museum_causal/museum_causal_2.png","null","",""
"","","","","","image-button-response","61","22891","0.0-12.0-1.0-1.1","user_487728","user_487728","","","{""num_seqs"":""1"",""num_scrambled_semantic"":""1"",""num_scrambled_causal"":""0"",""num_scrambled_schematic"":""1"",""fast_test"":""1""}","https://test12345.live/?num_seqs=1&num_scrambled_semantic=1&num_scrambled_causal=0&num_scrambled_schematic=1&fast_test=1","user_487728-2025-05-14-14-03-57","","null","","images/causal_sequence/museum_causal/museum_causal_2.png","null","",""
"","","","","","image-button-response","62","22943","0.0-12.0-1.0-2.1","user_487728","user_487728","","","{""num_seqs"":""1"",""num_scrambled_semantic"":""1"",""num_scrambled_causal"":""0"",""num_scrambled_schematic"":""1"",""fast_test"":""1""}","https://test12345.live/?num_seqs=1&num_scrambled_semantic=1&num_scrambled_causal=0&num_scrambled_schematic=1&fast_test=1","user_487728-2025-05-14-14-03-57","","null","","[]","null","",""
"","","","","","image-button-response","63","23149","0.0-12.0-1.0-0.2","user_487728","user_487728","","","{""num_seqs"":""1"",""num_scrambled_semantic"":""1"",""num_scrambled_causal"":""0"",""num_scrambled_schematic"":""1"",""fast_test"":""1""}","https://test12345.live/?num_seqs=1&num_scrambled_semantic=1&num_scrambled_causal=0&num_scrambled_schematic=1&fast_test=1","user_487728-2025-05-14-14-03-57","","null","","images/causal_sequence/museum_causal/museum_causal_3.png","null","",""
"","","","","","image-button-response","64","23205","0.0-12.0-1.0-1.2","user_487728","user_487728","","","{""num_seqs"":""1"",""num_scrambled_semantic"":""1"",""num_scrambled_causal"":""0"",""num_scrambled_schematic"":""1"",""fast_test"":""1""}","https://test12345.live/?num_seqs=1&num_scrambled_semantic=1&num_scrambled_causal=0&num_scrambled_schematic=1&fast_test=1","user_487728-2025-05-14-14-03-57","","null","","images/causal_sequence/museum_causal/museum_causal_3.png","null","",""
"","","","","","image-button-response","65","23261","0.0-12.0-1.0-2.2","user_487728","user_487728","","","{""num_seqs"":""1"",""num_scrambled_semantic"":""1"",""num_scrambled_causal"":""0"",""num_scrambled_schematic"":""1"",""fast_test"":""1""}","https://test12345.live/?num_seqs=1&num_scrambled_semantic=1&num_scrambled_causal=0&num_scrambled_schematic=1&fast_test=1","user_487728-2025-05-14-14-03-57","","null","","[]","null","",""
"","","","","","image-button-response","66","23464","0.0-12.0-1.0-0.3","user_487728","user_487728","","","{""num_seqs"":""1"",""num_scrambled_semantic"":""1"",""num_scrambled_causal"":""0"",""num_scrambled_schematic"":""1"",""fast_test"":""1""}","https://test12345.live/?num_seqs=1&num_scrambled_semantic=1&num_scrambled_causal=0&num_scrambled_schematic=1&fast_test=1","user_487728-2025-05-14-14-03-57","","null","","images/causal_sequence/museum_causal/museum_causal_4.png","null","",""
"","","","","","image-button-response","67","23517","0.0-12.0-1.0-1.3","user_487728","user_487728","","","{""num_seqs"":""1"",""num_scrambled_semantic"":""1"",""num_scrambled_causal"":""0"",""num_scrambled_schematic"":""1"",""fast_test"":""1""}","https://test12345.live/?num_seqs=1&num_scrambled_semantic=1&num_scrambled_causal=0&num_scrambled_schematic=1&fast_test=1","user_487728-2025-05-14-14-03-57","","null","","images/causal_sequence/museum_causal/museum_causal_4.png","null","",""
"","","","","","image-button-response","68","23573","0.0-12.0-1.0-2.3","user_487728","user_487728","","","{""num_seqs"":""1"",""num_scrambled_semantic"":""1"",""num_scrambled_causal"":""0"",""num_scrambled_schematic"":""1"",""fast_test"":""1""}","https://test12345.live/?num_seqs=1&num_scrambled_semantic=1&num_scrambled_causal=0&num_scrambled_schematic=1&fast_test=1","user_487728-2025-05-14-14-03-57","","null","","[]","null","",""
"","","","","","image-button-response","69","23780","0.0-12.0-1.0-0.4","user_487728","user_487728","","","{""num_seqs"":""1"",""num_scrambled_semantic"":""1"",""num_scrambled_causal"":""0"",""num_scrambled_schematic"":""1"",""fast_test"":""1""}","https://test12345.live/?num_seqs=1&num_scrambled_semantic=1&num_scrambled_causal=0&num_scrambled_schematic=1&fast_test=1","user_487728-2025-05-14-14-03-57","","null","","images/causal_sequence/museum_causal/museum_causal_5.png","null","",""
"","","","","","image-button-response","70","23834","0.0-12.0-1.0-1.4","user_487728","user_487728","","","{""num_seqs"":""1"",""num_scrambled_semantic"":""1"",""num_scrambled_causal"":""0"",""num_scrambled_schematic"":""1"",""fast_test"":""1""}","https://test12345.live/?num_seqs=1&num_scrambled_semantic=1&num_scrambled_causal=0&num_scrambled_schematic=1&fast_test=1","user_487728-2025-05-14-14-03-57","","null","","images/causal_sequence/museum_causal/museum_causal_5.png","null","",""
"","","","","","image-button-response","71","23885","0.0-12.0-1.0-2.4","user_487728","user_487728","","","{""num_seqs"":""1"",""num_scrambled_semantic"":""1"",""num_scrambled_causal"":""0"",""num_scrambled_schematic"":""1"",""fast_test"":""1""}","https://test12345.live/?num_seqs=1&num_scrambled_semantic=1&num_scrambled_causal=0&num_scrambled_schematic=1&fast_test=1","user_487728-2025-05-14-14-03-57","","null","","[]","null","",""
"","","","","","image-button-response","72","24093","0.0-12.0-1.0-0.5","user_487728","user_487728","","","{""num_seqs"":""1"",""num_scrambled_semantic"":""1"",""num_scrambled_causal"":""0"",""num_scrambled_schematic"":""1"",""fast_test"":""1""}","https://test12345.live/?num_seqs=1&num_scrambled_semantic=1&num_scrambled_causal=0&num_scrambled_schematic=1&fast_test=1","user_487728-2025-05-14-14-03-57","","null","","images/causal_sequence/museum_causal/museum_causal_6.png","null","",""
"","","","","","image-button-response","73","24149","0.0-12.0-1.0-1.5","user_487728","user_487728","","","{""num_seqs"":""1"",""num_scrambled_semantic"":""1"",""num_scrambled_causal"":""0"",""num_scrambled_schematic"":""1"",""fast_test"":""1""}","https://test12345.live/?num_seqs=1&num_scrambled_semantic=1&num_scrambled_causal=0&num_scrambled_schematic=1&fast_test=1","user_487728-2025-05-14-14-03-57","","null","","images/causal_sequence/museum_causal/museum_causal_6.png","null","",""
"","","","","","image-button-response","74","24209","0.0-12.0-1.0-2.5","user_487728","user_487728","","","{""num_seqs"":""1"",""num_scrambled_semantic"":""1"",""num_scrambled_causal"":""0"",""num_scrambled_schematic"":""1"",""fast_test"":""1""}","https://test12345.live/?num_seqs=1&num_scrambled_semantic=1&num_scrambled_causal=0&num_scrambled_schematic=1&fast_test=1","user_487728-2025-05-14-14-03-57","","null","","[]","null","",""
"","","","","","image-button-response","75","24424","0.0-12.0-1.0-0.6","user_487728","user_487728","","","{""num_seqs"":""1"",""num_scrambled_semantic"":""1"",""num_scrambled_causal"":""0"",""num_scrambled_schematic"":""1"",""fast_test"":""1""}","https://test12345.live/?num_seqs=1&num_scrambled_semantic=1&num_scrambled_causal=0&num_scrambled_schematic=1&fast_test=1","user_487728-2025-05-14-14-03-57","","null","","images/causal_sequence/museum_causal/museum_causal_7.png","null","",""
"","","","","","image-button-response","76","24478","0.0-12.0-1.0-1.6","user_487728","user_487728","","","{""num_seqs"":""1"",""num_scrambled_semantic"":""1"",""num_scrambled_causal"":""0"",""num_scrambled_schematic"":""1"",""fast_test"":""1""}","https://test12345.live/?num_seqs=1&num_scrambled_semantic=1&num_scrambled_causal=0&num_scrambled_schematic=1&fast_test=1","user_487728-2025-05-14-14-03-57","","null","","images/causal_sequence/museum_causal/museum_causal_7.png","null","",""
"","","","","","image-button-response","77","24543","0.0-12.0-1.0-2.6","user_487728","user_487728","","","{""num_seqs"":""1"",""num_scrambled_semantic"":""1"",""num_scrambled_causal"":""0"",""num_scrambled_schematic"":""1"",""fast_test"":""1""}","https://test12345.live/?num_seqs=1&num_scrambled_semantic=1&num_scrambled_causal=0&num_scrambled_schematic=1&fast_test=1","user_487728-2025-05-14-14-03-57","","null","","[]","null","",""
"","","","","","image-button-response","78","24757","0.0-12.0-1.0-0.7","user_487728","user_487728","","","{""num_seqs"":""1"",""num_scrambled_semantic"":""1"",""num_scrambled_causal"":""0"",""num_scrambled_schematic"":""1"",""fast_test"":""1""}","https://test12345.live/?num_seqs=1&num_scrambled_semantic=1&num_scrambled_causal=0&num_scrambled_schematic=1&fast_test=1","user_487728-2025-05-14-14-03-57","","null","","images/causal_sequence/museum_causal/museum_causal_8.png","null","",""
"","","","","","image-button-response","79","24826","0.0-12.0-1.0-1.7","user_487728","user_487728","","","{""num_seqs"":""1"",""num_scrambled_semantic"":""1"",""num_scrambled_causal"":""0"",""num_scrambled_schematic"":""1"",""fast_test"":""1""}","https://test12345.live/?num_seqs=1&num_scrambled_semantic=1&num_scrambled_causal=0&num_scrambled_schematic=1&fast_test=1","user_487728-2025-05-14-14-03-57","","null","","images/causal_sequence/museum_causal/museum_causal_8.png","null","",""
"","","","","","image-button-response","80","24883","0.0-12.0-1.0-2.7","user_487728","user_487728","","","{""num_seqs"":""1"",""num_scrambled_semantic"":""1"",""num_scrambled_causal"":""0"",""num_scrambled_schematic"":""1"",""fast_test"":""1""}","https://test12345.live/?num_seqs=1&num_scrambled_semantic=1&num_scrambled_causal=0&num_scrambled_schematic=1&fast_test=1","user_487728-2025-05-14-14-03-57","","null","","[]","null","",""
"","","","","","image-button-response","81","25092","0.0-12.0-1.0-0.8","user_487728","user_487728","","","{""num_seqs"":""1"",""num_scrambled_semantic"":""1"",""num_scrambled_causal"":""0"",""num_scrambled_schematic"":""1"",""fast_test"":""1""}","https://test12345.live/?num_seqs=1&num_scrambled_semantic=1&num_scrambled_causal=0&num_scrambled_schematic=1&fast_test=1","user_487728-2025-05-14-14-03-57","","null","","images/causal_sequence/museum_causal/museum_causal_9.png","null","",""
"","","","","","image-button-response","82","25143","0.0-12.0-1.0-1.8","user_487728","user_487728","","","{""num_seqs"":""1"",""num_scrambled_semantic"":""1"",""num_scrambled_causal"":""0"",""num_scrambled_schematic"":""1"",""fast_test"":""1""}","https://test12345.live/?num_seqs=1&num_scrambled_semantic=1&num_scrambled_causal=0&num_scrambled_schematic=1&fast_test=1","user_487728-2025-05-14-14-03-57","","null","","images/causal_sequence/museum_causal/museum_causal_9.png","null","",""
"","","","","","image-button-response","83","25207","0.0-12.0-1.0-2.8","user_487728","user_487728","","","{""num_seqs"":""1"",""num_scrambled_semantic"":""1"",""num_scrambled_causal"":""0"",""num_scrambled_schematic"":""1"",""fast_test"":""1""}","https://test12345.live/?num_seqs=1&num_scrambled_semantic=1&num_scrambled_causal=0&num_scrambled_schematic=1&fast_test=1","user_487728-2025-05-14-14-03-57","","null","","[]","null","",""
"","","","","","image-button-response","84","25417","0.0-12.0-1.0-0.9","user_487728","user_487728","","","{""num_seqs"":""1"",""num_scrambled_semantic"":""1"",""num_scrambled_causal"":""0"",""num_scrambled_schematic"":""1"",""fast_test"":""1""}","https://test12345.live/?num_seqs=1&num_scrambled_semantic=1&num_scrambled_causal=0&num_scrambled_schematic=1&fast_test=1","user_487728-2025-05-14-14-03-57","","null","","images/causal_sequence/museum_causal/museum_causal_ten.png","null","",""
"","","","","","image-button-response","85","25469","0.0-12.0-1.0-1.9","user_487728","user_487728","","","{""num_seqs"":""1"",""num_scrambled_semantic"":""1"",""num_scrambled_causal"":""0"",""num_scrambled_schematic"":""1"",""fast_test"":""1""}","https://test12345.live/?num_seqs=1&num_scrambled_semantic=1&num_scrambled_causal=0&num_scrambled_schematic=1&fast_test=1","user_487728-2025-05-14-14-03-57","","null","","images/causal_sequence/museum_causal/museum_causal_ten.png","null","",""
"","","","","","image-button-response","86","25523","0.0-12.0-1.0-2.9","user_487728","user_487728","","","{""num_seqs"":""1"",""num_scrambled_semantic"":""1"",""num_scrambled_causal"":""0"",""num_scrambled_schematic"":""1"",""fast_test"":""1""}","https://test12345.live/?num_seqs=1&num_scrambled_semantic=1&num_scrambled_causal=0&num_scrambled_schematic=1&fast_test=1","user_487728-2025-05-14-14-03-57","","null","","[]","null","",""
"","","","","","html-audio-response","87","26959","0.0-13.0","user_487728","user_487728","","","{""num_seqs"":""1"",""num_scrambled_semantic"":""1"",""num_scrambled_causal"":""0"",""num_scrambled_schematic"":""1"",""fast_test"":""1""}","https://test12345.live/?num_seqs=1&num_scrambled_semantic=1&num_scrambled_causal=0&num_scrambled_schematic=1&fast_test=1","user_487728-2025-05-14-14-03-57","","843","","[""<span style=\""color: red; font-size: 24px\""> NOW RECORDING</span><p>Please say out loud all the images you saw, as many as you can remember. The images can be said in any order.</p>""]","","6","museum_causal"
"","","","","","image-button-response","88","27163","0.0-14.0-0.0","user_487728","user_487728","","","{""num_seqs"":""1"",""num_scrambled_semantic"":""1"",""num_scrambled_causal"":""0"",""num_scrambled_schematic"":""1"",""fast_test"":""1""}","https://test12345.live/?num_seqs=1&num_scrambled_semantic=1&num_scrambled_causal=0&num_scrambled_schematic=1&fast_test=1","user_487728-2025-05-14-14-03-57","","null","","images/semantic_sequence/physical_activity_semantic/physical_activity_semantic_0.png","null","",""
"","","","","","image-button-response","89","27373","0.0-14.0-1.0-0.0","user_487728","user_487728","","","{""num_seqs"":""1"",""num_scrambled_semantic"":""1"",""num_scrambled_causal"":""0"",""num_scrambled_schematic"":""1"",""fast_test"":""1""}","https://test12345.live/?num_seqs=1&num_scrambled_semantic=1&num_scrambled_causal=0&num_scrambled_schematic=1&fast_test=1","user_487728-2025-05-14-14-03-57","","null","","images/semantic_sequence/physical_activity_semantic/physical_activity_semantic_3.png","null","",""
"","","","","","image-button-response","90","27441","0.0-14.0-1.0-1.0","user_487728","user_487728","","","{""num_seqs"":""1"",""num_scrambled_semantic"":""1"",""num_scrambled_causal"":""0"",""num_scrambled_schematic"":""1"",""fast_test"":""1""}","https://test12345.live/?num_seqs=1&num_scrambled_semantic=1&num_scrambled_causal=0&num_scrambled_schematic=1&fast_test=1","user_487728-2025-05-14-14-03-57","","null","","images/semantic_sequence/physical_activity_semantic/physical_activity_semantic_3.png","null","",""
"","","","","","image-button-response","91","27492","0.0-14.0-1.0-2.0","user_487728","user_487728","","","{""num_seqs"":""1"",""num_scrambled_semantic"":""1"",""num_scrambled_causal"":""0"",""num_scrambled_schematic"":""1"",""fast_test"":""1""}","https://test12345.live/?num_seqs=1&num_scrambled_semantic=1&num_scrambled_causal=0&num_scrambled_schematic=1&fast_test=1","user_487728-2025-05-14-14-03-57","","null","","[]","null","",""
"","","","","","image-button-response","92","27705","0.0-14.0-1.0-0.1","user_487728","user_487728","","","{""num_seqs"":""1"",""num_scrambled_semantic"":""1"",""num_scrambled_causal"":""0"",""num_scrambled_schematic"":""1"",""fast_test"":""1""}","https://test12345.live/?num_seqs=1&num_scrambled_semantic=1&num_scrambled_causal=0&num_scrambled_schematic=1&fast_test=1","user_487728-2025-05-14-14-03-57","","null","","images/semantic_sequence/physical_activity_semantic/physical_activity_semantic_1.png","null","",""
"","","","","","image-button-response","93","27760","0.0-14.0-1.0-1.1","user_487728","user_487728","","","{""num_seqs"":""1"",""num_scrambled_semantic"":""1"",""num_scrambled_causal"":""0"",""num_scrambled_schematic"":""1"",""fast_test"":""1""}","https://test12345.live/?num_seqs=1&num_scrambled_semantic=1&num_scrambled_causal=0&num_scrambled_schematic=1&fast_test=1","user_487728-2025-05-14-14-03-57","","null","","images/semantic_sequence/physical_activity_semantic/physical_activity_semantic_1.png","null","",""
"","","","","","image-button-response","94","27824","0.0-14.0-1.0-2.1","user_487728","user_487728","","","{""num_seqs"":""1"",""num_scrambled_semantic"":""1"",""num_scrambled_causal"":""0"",""num_scrambled_schematic"":""1"",""fast_test"":""1""}","https://test12345.live/?num_seqs=1&num_scrambled_semantic=1&num_scrambled_causal=0&num_scrambled_schematic=1&fast_test=1","user_487728-2025-05-14-14-03-57","","null","","[]","null","",""
"","","","","","image-button-response","95","28031","0.0-14.0-1.0-0.2","user_487728","user_487728","","","{""num_seqs"":""1"",""num_scrambled_semantic"":""1"",""num_scrambled_causal"":""0"",""num_scrambled_schematic"":""1"",""fast_test"":""1""}","https://test12345.live/?num_seqs=1&num_scrambled_semantic=1&num_scrambled_causal=0&num_scrambled_schematic=1&fast_test=1","user_487728-2025-05-14-14-03-57","","null","","images/semantic_sequence/physical_activity_semantic/physical_activity_semantic_8.png","null","",""
"","","","","","image-button-response","96","28087","0.0-14.0-1.0-1.2","user_487728","user_487728","","","{""num_seqs"":""1"",""num_scrambled_semantic"":""1"",""num_scrambled_causal"":""0"",""num_scrambled_schematic"":""1"",""fast_test"":""1""}","https://test12345.live/?num_seqs=1&num_scrambled_semantic=1&num_scrambled_causal=0&num_scrambled_schematic=1&fast_test=1","user_487728-2025-05-14-14-03-57","","null","","images/semantic_sequence/physical_activity_semantic/physical_activity_semantic_8.png","null","",""
"","","","","","image-button-response","97","28142","0.0-14.0-1.0-2.2","user_487728","user_487728","","","{""num_seqs"":""1"",""num_scrambled_semantic"":""1"",""num_scrambled_causal"":""0"",""num_scrambled_schematic"":""1"",""fast_test"":""1""}","https://test12345.live/?num_seqs=1&num_scrambled_semantic=1&num_scrambled_causal=0&num_scrambled_schematic=1&fast_test=1","user_487728-2025-05-14-14-03-57","","null","","[]","null","",""
"","","","","","image-button-response","98","28343","0.0-14.0-1.0-0.3","user_487728","user_487728","","","{""num_seqs"":""1"",""num_scrambled_semantic"":""1"",""num_scrambled_causal"":""0"",""num_scrambled_schematic"":""1"",""fast_test"":""1""}","https://test12345.live/?num_seqs=1&num_scrambled_semantic=1&num_scrambled_causal=0&num_scrambled_schematic=1&fast_test=1","user_487728-2025-05-14-14-03-57","","null","","images/semantic_sequence/physical_activity_semantic/physical_activity_semantic_9.png","null","",""
"","","","","","image-button-response","99","28412","0.0-14.0-1.0-1.3","user_487728","user_487728","","","{""num_seqs"":""1"",""num_scrambled_semantic"":""1"",""num_scrambled_causal"":""0"",""num_scrambled_schematic"":""1"",""fast_test"":""1""}","https://test12345.live/?num_seqs=1&num_scrambled_semantic=1&num_scrambled_causal=0&num_scrambled_schematic=1&fast_test=1","user_487728-2025-05-14-14-03-57","","null","","images/semantic_sequence/physical_activity_semantic/physical_activity_semantic_9.png","null","",""
"","","","","","image-button-response","100","28466","0.0-14.0-1.0-2.3","user_487728","user_487728","","","{""num_seqs"":""1"",""num_scrambled_semantic"":""1"",""num_scrambled_causal"":""0"",""num_scrambled_schematic"":""1"",""fast_test"":""1""}","https://test12345.live/?num_seqs=1&num_scrambled_semantic=1&num_scrambled_causal=0&num_scrambled_schematic=1&fast_test=1","user_487728-2025-05-14-14-03-57","","null","","[]","null","",""
"","","","","","image-button-response","101","28675","0.0-14.0-1.0-0.4","user_487728","user_487728","","","{""num_seqs"":""1"",""num_scrambled_semantic"":""1"",""num_scrambled_causal"":""0"",""num_scrambled_schematic"":""1"",""fast_test"":""1""}","https://test12345.live/?num_seqs=1&num_scrambled_semantic=1&num_scrambled_causal=0&num_scrambled_schematic=1&fast_test=1","user_487728-2025-05-14-14-03-57","","null","","images/semantic_sequence/physical_activity_semantic/physical_activity_semantic_6.png","null","",""
"","","","","","image-button-response","102","28753","0.0-14.0-1.0-1.4","user_487728","user_487728","","","{""num_seqs"":""1"",""num_scrambled_semantic"":""1"",""num_scrambled_causal"":""0"",""num_scrambled_schematic"":""1"",""fast_test"":""1""}","https://test12345.live/?num_seqs=1&num_scrambled_semantic=1&num_scrambled_causal=0&num_scrambled_schematic=1&fast_test=1","user_487728-2025-05-14-14-03-57","","null","","images/semantic_sequence/physical_activity_semantic/physical_activity_semantic_6.png","null","",""
"","","","","","image-button-response","103","28809","0.0-14.0-1.0-2.4","user_487728","user_487728","","","{""num_seqs"":""1"",""num_scrambled_semantic"":""1"",""num_scrambled_causal"":""0"",""num_scrambled_schematic"":""1"",""fast_test"":""1""}","https://test12345.live/?num_seqs=1&num_scrambled_semantic=1&num_scrambled_causal=0&num_scrambled_schematic=1&fast_test=1","user_487728-2025-05-14-14-03-57","","null","","[]","null","",""
"","","","","","image-button-response","104","29023","0.0-14.0-1.0-0.5","user_487728","user_487728","","","{""num_seqs"":""1"",""num_scrambled_semantic"":""1"",""num_scrambled_causal"":""0"",""num_scrambled_schematic"":""1"",""fast_test"":""1""}","https://test12345.live/?num_seqs=1&num_scrambled_semantic=1&num_scrambled_causal=0&num_scrambled_schematic=1&fast_test=1","user_487728-2025-05-14-14-03-57","","null","","images/semantic_sequence/physical_activity_semantic/physical_activity_semantic_ten.png","null","",""
"","","","","","image-button-response","105","29092","0.0-14.0-1.0-1.5","user_487728","user_487728","","","{""num_seqs"":""1"",""num_scrambled_semantic"":""1"",""num_scrambled_causal"":""0"",""num_scrambled_schematic"":""1"",""fast_test"":""1""}","https://test12345.live/?num_seqs=1&num_scrambled_semantic=1&num_scrambled_causal=0&num_scrambled_schematic=1&fast_test=1","user_487728-2025-05-14-14-03-57","","null","","images/semantic_sequence/physical_activity_semantic/physical_activity_semantic_ten.png","null","",""
"","","","","","image-button-response","106","29145","0.0-14.0-1.0-2.5","user_487728","user_487728","","","{""num_seqs"":""1"",""num_scrambled_semantic"":""1"",""num_scrambled_causal"":""0"",""num_scrambled_schematic"":""1"",""fast_test"":""1""}","https://test12345.live/?num_seqs=1&num_scrambled_semantic=1&num_scrambled_causal=0&num_scrambled_schematic=1&fast_test=1","user_487728-2025-05-14-14-03-57","","null","","[]","null","",""
"","","","","","image-button-response","107","29364","0.0-14.0-1.0-0.6","user_487728","user_487728","","","{""num_seqs"":""1"",""num_scrambled_semantic"":""1"",""num_scrambled_causal"":""0"",""num_scrambled_schematic"":""1"",""fast_test"":""1""}","https://test12345.live/?num_seqs=1&num_scrambled_semantic=1&num_scrambled_causal=0&num_scrambled_schematic=1&fast_test=1","user_487728-2025-05-14-14-03-57","","null","","images/semantic_sequence/physical_activity_semantic/physical_activity_semantic_2.png","null","",""
"","","","","","image-button-response","108","29425","0.0-14.0-1.0-1.6","user_487728","user_487728","","","{""num_seqs"":""1"",""num_scrambled_semantic"":""1"",""num_scrambled_causal"":""0"",""num_scrambled_schematic"":""1"",""fast_test"":""1""}","https://test12345.live/?num_seqs=1&num_scrambled_semantic=1&num_scrambled_causal=0&num_scrambled_schematic=1&fast_test=1","user_487728-2025-05-14-14-03-57","","null","","images/semantic_sequence/physical_activity_semantic/physical_activity_semantic_2.png","null","",""
"","","","","","image-button-response","109","29479","0.0-14.0-1.0-2.6","user_487728","user_487728","","","{""num_seqs"":""1"",""num_scrambled_semantic"":""1"",""num_scrambled_causal"":""0"",""num_scrambled_schematic"":""1"",""fast_test"":""1""}","https://test12345.live/?num_seqs=1&num_scrambled_semantic=1&num_scrambled_causal=0&num_scrambled_schematic=1&fast_test=1","user_487728-2025-05-14-14-03-57","","null","","[]","null","",""
"","","","","","image-button-response","110","29689","0.0-14.0-1.0-0.7","user_487728","user_487728","","","{""num_seqs"":""1"",""num_scrambled_semantic"":""1"",""num_scrambled_causal"":""0"",""num_scrambled_schematic"":""1"",""fast_test"":""1""}","https://test12345.live/?num_seqs=1&num_scrambled_semantic=1&num_scrambled_causal=0&num_scrambled_schematic=1&fast_test=1","user_487728-2025-05-14-14-03-57","","null","","images/semantic_sequence/physical_activity_semantic/physical_activity_semantic_4.png","null","",""
"","","","","","image-button-response","111","29741","0.0-14.0-1.0-1.7","user_487728","user_487728","","","{""num_seqs"":""1"",""num_scrambled_semantic"":""1"",""num_scrambled_causal"":""0"",""num_scrambled_schematic"":""1"",""fast_test"":""1""}","https://test12345.live/?num_seqs=1&num_scrambled_semantic=1&num_scrambled_causal=0&num_scrambled_schematic=1&fast_test=1","user_487728-2025-05-14-14-03-57","","null","","images/semantic_sequence/physical_activity_semantic/physical_activity_semantic_4.png","null","",""
"","","","","","image-button-response","112","29793","0.0-14.0-1.0-2.7","user_487728","user_487728","","","{""num_seqs"":""1"",""num_scrambled_semantic"":""1"",""num_scrambled_causal"":""0"",""num_scrambled_schematic"":""1"",""fast_test"":""1""}","https://test12345.live/?num_seqs=1&num_scrambled_semantic=1&num_scrambled_causal=0&num_scrambled_schematic=1&fast_test=1","user_487728-2025-05-14-14-03-57","","null","","[]","null","",""
"","","","","","image-button-response","113","29996","0.0-14.0-1.0-0.8","user_487728","user_487728","","","{""num_seqs"":""1"",""num_scrambled_semantic"":""1"",""num_scrambled_causal"":""0"",""num_scrambled_schematic"":""1"",""fast_test"":""1""}","https://test12345.live/?num_seqs=1&num_scrambled_semantic=1&num_scrambled_causal=0&num_scrambled_schematic=1&fast_test=1","user_487728-2025-05-14-14-03-57","","null","","images/semantic_sequence/physical_activity_semantic/physical_activity_semantic_5.png","null","",""
"","","","","","image-button-response","114","30059","0.0-14.0-1.0-1.8","user_487728","user_487728","","","{""num_seqs"":""1"",""num_scrambled_semantic"":""1"",""num_scrambled_causal"":""0"",""num_scrambled_schematic"":""1"",""fast_test"":""1""}","https://test12345.live/?num_seqs=1&num_scrambled_semantic=1&num_scrambled_causal=0&num_scrambled_schematic=1&fast_test=1","user_487728-2025-05-14-14-03-57","","null","","images/semantic_sequence/physical_activity_semantic/physical_activity_semantic_5.png","null","",""
"","","","","","image-button-response","115","30114","0.0-14.0-1.0-2.8","user_487728","user_487728","","","{""num_seqs"":""1"",""num_scrambled_semantic"":""1"",""num_scrambled_causal"":""0"",""num_scrambled_schematic"":""1"",""fast_test"":""1""}","https://test12345.live/?num_seqs=1&num_scrambled_semantic=1&num_scrambled_causal=0&num_scrambled_schematic=1&fast_test=1","user_487728-2025-05-14-14-03-57","","null","","[]","null","",""
"","","","","","image-button-response","116","30318","0.0-14.0-1.0-0.9","user_487728","user_487728","","","{""num_seqs"":""1"",""num_scrambled_semantic"":""1"",""num_scrambled_causal"":""0"",""num_scrambled_schematic"":""1"",""fast_test"":""1""}","https://test12345.live/?num_seqs=1&num_scrambled_semantic=1&num_scrambled_causal=0&num_scrambled_schematic=1&fast_test=1","user_487728-2025-05-14-14-03-57","","null","","images/semantic_sequence/physical_activity_semantic/physical_activity_semantic_7.png","null","",""
"","","","","","image-button-response","117","30376","0.0-14.0-1.0-1.9","user_487728","user_487728","","","{""num_seqs"":""1"",""num_scrambled_semantic"":""1"",""num_scrambled_causal"":""0"",""num_scrambled_schematic"":""1"",""fast_test"":""1""}","https://test12345.live/?num_seqs=1&num_scrambled_semantic=1&num_scrambled_causal=0&num_scrambled_schematic=1&fast_test=1","user_487728-2025-05-14-14-03-57","","null","","images/semantic_sequence/physical_activity_semantic/physical_activity_semantic_7.png","null","",""
"","","","","","image-button-response","118","30431","0.0-14.0-1.0-2.9","user_487728","user_487728","","","{""num_seqs"":""1"",""num_scrambled_semantic"":""1"",""num_scrambled_causal"":""0"",""num_scrambled_schematic"":""1"",""fast_test"":""1""}","https://test12345.live/?num_seqs=1&num_scrambled_semantic=1&num_scrambled_causal=0&num_scrambled_schematic=1&fast_test=1","user_487728-2025-05-14-14-03-57","","null","","[]","null","",""
"","","","","","html-audio-response","119","31723","0.0-15.0","user_487728","user_487728","","","{""num_seqs"":""1"",""num_scrambled_semantic"":""1"",""num_scrambled_causal"":""0"",""num_scrambled_schematic"":""1"",""fast_test"":""1""}","https://test12345.live/?num_seqs=1&num_scrambled_semantic=1&num_scrambled_causal=0&num_scrambled_schematic=1&fast_test=1","user_487728-2025-05-14-14-03-57","","760","","[""<span style=\""color: red; font-size: 24px\""> NOW RECORDING</span><p>Please say out loud all the images you saw, as many as you can remember. The images can be said in any order.</p>""]","","2","physical_activity_semantic"
"","","","","","survey-text","120","32792","0.0-16.0","user_487728","user_487728","","","{""num_seqs"":""1"",""num_scrambled_semantic"":""1"",""num_scrambled_causal"":""0"",""num_scrambled_schematic"":""1"",""fast_test"":""1""}","https://test12345.live/?num_seqs=1&num_scrambled_semantic=1&num_scrambled_causal=0&num_scrambled_schematic=1&fast_test=1","user_487728-2025-05-14-14-03-57","","1064","","","{""Q0"":"""",""Q1"":""""}","",""
"","","","","","instructions","121","34799","0.0-17.0","user_487728","user_487728","","","{""num_seqs"":""1"",""num_scrambled_semantic"":""1"",""num_scrambled_causal"":""0"",""num_scrambled_schematic"":""1"",""fast_test"":""1""}","https://test12345.live/?num_seqs=1&num_scrambled_semantic=1&num_scrambled_causal=0&num_scrambled_schematic=1&fast_test=1","user_487728-2025-05-14-14-03-57","[{""page_index"":0,""viewing_time"":2007}]","2007","","","","",""
"","","","","","survey-text","122","35610","0.0-18.0","user_487728","user_487728","","","{""num_seqs"":""1"",""num_scrambled_semantic"":""1"",""num_scrambled_causal"":""0"",""num_scrambled_schematic"":""1"",""fast_test"":""1""}","https://test12345.live/?num_seqs=1&num_scrambled_semantic=1&num_scrambled_causal=0&num_scrambled_schematic=1&fast_test=1","user_487728-2025-05-14-14-03-57","","809","","","{""Q0"":""""}","",""
