"success","timeout","failed_images","failed_audio","failed_video","trial_type","trial_index","time_elapsed","internal_node_id","subject_id","study_id","session_id","view_history","rt","stimulus","response","task","image_index","folder","sequence_type","presentation_order","valuable_image_index","reward_type","chosen_image_index","target_X","correct_choice"
"true","false","[]","[]","[]","preload","0","6453","0.0-0.0","E358623956CB40FBBCD4266DB111D775","019cf984-eaad-77b9-b850-6c4229b7dc80","019cf974-7aee-7bc9-8ea4-9f55741b365d","","","","","","","","","","","","","",""
"","","","","","instructions","1","8043","0.0-1.0","E358623956CB40FBBCD4266DB111D775","019cf984-eaad-77b9-b850-6c4229b7dc80","019cf974-7aee-7bc9-8ea4-9f55741b365d","[{""page_index"":0,""viewing_time"":1588}]","1589","","","","","","","","","","","",""
"","","","","","instructions","2","14622","0.0-2.0","E358623956CB40FBBCD4266DB111D775","019cf984-eaad-77b9-b850-6c4229b7dc80","019cf974-7aee-7bc9-8ea4-9f55741b365d","[{""page_index"":0,""viewing_time"":6578}]","6579","","","","","","","","","","","",""
"true","","","","","fullscreen","3","17440","0.0-3.0","E358623956CB40FBBCD4266DB111D775","019cf984-eaad-77b9-b850-6c4229b7dc80","019cf974-7aee-7bc9-8ea4-9f55741b365d","","1799","","","","","","","","","","","",""
"","","","","","instructions","4","233927","0.0-4.0","E358623956CB40FBBCD4266DB111D775","019cf984-eaad-77b9-b850-6c4229b7dc80","019cf974-7aee-7bc9-8ea4-9f55741b365d","[{""page_index"":0,""viewing_time"":216486}]","216487","","","","","","","","","","","",""
"","","","","","instructions","5","240121","0.0-5.0","E358623956CB40FBBCD4266DB111D775","019cf984-eaad-77b9-b850-6c4229b7dc80","019cf974-7aee-7bc9-8ea4-9f55741b365d","[{""page_index"":0,""viewing_time"":6192}]","6192","","","","","","","","","","","",""
"","","","","","html-keyboard-response","6","244128","0.0-6.0","E358623956CB40FBBCD4266DB111D775","019cf984-eaad-77b9-b850-6c4229b7dc80","019cf974-7aee-7bc9-8ea4-9f55741b365d","","null","
                <div class=""stimulus-container"">
                    <img src=""images/instructions/movie_1.png"" class=""exp-image"">
                    <div class=""question-area""></div> 
                </div>","null","","","","","","","","","",""
"","","","","","html-button-response","7","245645","0.0-7.0","E358623956CB40FBBCD4266DB111D775","019cf984-eaad-77b9-b850-6c4229b7dc80","019cf974-7aee-7bc9-8ea4-9f55741b365d","","1515","
                <div class=""stimulus-container"">
                    <img src=""images/instructions/movie_1.png"" class=""exp-image"">
                    <div class=""question-area"">
                        <p style=""font-size: 20px; font-weight: bold; margin: 0;"">Was there a person in this image?</p>
                    </div>
                </div>","0","example_question","1","","","","","","","",""
"","","","","","html-keyboard-response","8","249651","0.0-8.0","E358623956CB40FBBCD4266DB111D775","019cf984-eaad-77b9-b850-6c4229b7dc80","019cf974-7aee-7bc9-8ea4-9f55741b365d","","null","
                <div class=""stimulus-container"">
                    <img src=""images/instructions/movie_2.png"" class=""exp-image"">
                    <div class=""question-area""></div> 
                </div>","null","","","","","","","","","",""
"","","","","","html-button-response","9","251145","0.0-9.0","E358623956CB40FBBCD4266DB111D775","019cf984-eaad-77b9-b850-6c4229b7dc80","019cf974-7aee-7bc9-8ea4-9f55741b365d","","1493","
                <div class=""stimulus-container"">
                    <img src=""images/instructions/movie_2.png"" class=""exp-image"">
                    <div class=""question-area"">
                        <p style=""font-size: 20px; font-weight: bold; margin: 0;"">Was there a person in this image?</p>
                    </div>
                </div>","0","example_question","2","","","","","","","",""
"","","","","","html-keyboard-response","10","255164","0.0-10.0","E358623956CB40FBBCD4266DB111D775","019cf984-eaad-77b9-b850-6c4229b7dc80","019cf974-7aee-7bc9-8ea4-9f55741b365d","","null","
                <div class=""stimulus-container"">
                    <img src=""images/instructions/movie_3.png"" class=""exp-image"">
                    <div class=""question-area""></div> 
                </div>","null","","","","","","","","","",""
"","","","","","html-button-response","11","255993","0.0-11.0","E358623956CB40FBBCD4266DB111D775","019cf984-eaad-77b9-b850-6c4229b7dc80","019cf974-7aee-7bc9-8ea4-9f55741b365d","","825","
                <div class=""stimulus-container"">
                    <img src=""images/instructions/movie_3.png"" class=""exp-image"">
                    <div class=""question-area"">
                        <p style=""font-size: 20px; font-weight: bold; margin: 0;"">Was there a person in this image?</p>
                    </div>
                </div>","0","example_question","3","","","","","","","",""
"","","","","","html-keyboard-response","12","259994","0.0-12.0","E358623956CB40FBBCD4266DB111D775","019cf984-eaad-77b9-b850-6c4229b7dc80","019cf974-7aee-7bc9-8ea4-9f55741b365d","","null","
                <div class=""stimulus-container"">
                    <img src=""images/instructions/movie_4.png"" class=""exp-image"">
                    <div class=""question-area""></div> 
                </div>","null","","","","","","","","","",""
"","","","","","html-button-response","13","260648","0.0-13.0","E358623956CB40FBBCD4266DB111D775","019cf984-eaad-77b9-b850-6c4229b7dc80","019cf974-7aee-7bc9-8ea4-9f55741b365d","","652","
                <div class=""stimulus-container"">
                    <img src=""images/instructions/movie_4.png"" class=""exp-image"">
                    <div class=""question-area"">
                        <p style=""font-size: 20px; font-weight: bold; margin: 0;"">Was there a person in this image?</p>
                    </div>
                </div>","0","example_question","4","","","","","","","",""
"","","","","","instructions","14","262125","0.0-14.0","E358623956CB40FBBCD4266DB111D775","019cf984-eaad-77b9-b850-6c4229b7dc80","019cf974-7aee-7bc9-8ea4-9f55741b365d","[{""page_index"":0,""viewing_time"":1475}]","1476","","","","","","","","","","","",""
"","","","","","instructions","15","266659","0.0-15.0","E358623956CB40FBBCD4266DB111D775","019cf984-eaad-77b9-b850-6c4229b7dc80","019cf974-7aee-7bc9-8ea4-9f55741b365d","[{""page_index"":0,""viewing_time"":4532}]","4533","","","","","","","","","","","",""
"","","","","","html-keyboard-response","16","271667","0.0-16.0","E358623956CB40FBBCD4266DB111D775","019cf984-eaad-77b9-b850-6c4229b7dc80","019cf974-7aee-7bc9-8ea4-9f55741b365d","","null","<div style=""background-color: white; width: 100vw; height: 100vh;""></div>","null","","","","","","","","","",""
"","","","","","html-keyboard-response","17","272671","0.0-17.0","E358623956CB40FBBCD4266DB111D775","019cf984-eaad-77b9-b850-6c4229b7dc80","019cf974-7aee-7bc9-8ea4-9f55741b365d","","null","
                <div class=""stimulus-container"">
                    <img src=""images/semantic_sequence/exploring_nature_semantic/exploring_nature_semantic_5.png"" class=""exp-image"">
                    <div class=""question-area""></div> 
                </div>","null","","","","","","","","","",""
"","","","","","html-button-response","18","273780","0.0-18.0","E358623956CB40FBBCD4266DB111D775","019cf984-eaad-77b9-b850-6c4229b7dc80","019cf974-7aee-7bc9-8ea4-9f55741b365d","","1106","
                <div class=""stimulus-container"">
                    <img src=""images/semantic_sequence/exploring_nature_semantic/exploring_nature_semantic_5.png"" class=""exp-image"">
                    <div class=""question-area"">
                        <p style=""font-size: 20px; font-weight: bold; margin: 0;"">Is there a person in this image?</p>
                    </div>
                </div>","0","main_experiment_trial","5","exploring_nature_semantic","semantic_sequence","randomized","","","","",""
"","","","","","html-keyboard-response","19","274785","0.0-19.0","E358623956CB40FBBCD4266DB111D775","019cf984-eaad-77b9-b850-6c4229b7dc80","019cf974-7aee-7bc9-8ea4-9f55741b365d","","null","
                <div class=""stimulus-container"">
                    <img src=""images/semantic_sequence/exploring_nature_semantic/exploring_nature_semantic_4.png"" class=""exp-image"">
                    <div class=""question-area""></div> 
                </div>","null","","","","","","","","","",""
"","","","","","html-button-response","20","275306","0.0-20.0","E358623956CB40FBBCD4266DB111D775","019cf984-eaad-77b9-b850-6c4229b7dc80","019cf974-7aee-7bc9-8ea4-9f55741b365d","","515","
                <div class=""stimulus-container"">
                    <img src=""images/semantic_sequence/exploring_nature_semantic/exploring_nature_semantic_4.png"" class=""exp-image"">
                    <div class=""question-area"">
                        <p style=""font-size: 20px; font-weight: bold; margin: 0;"">Is there a person in this image?</p>
                    </div>
                </div>","0","main_experiment_trial","4","exploring_nature_semantic","semantic_sequence","randomized","","","","",""
"","","","","","html-keyboard-response","21","276322","0.0-21.0","E358623956CB40FBBCD4266DB111D775","019cf984-eaad-77b9-b850-6c4229b7dc80","019cf974-7aee-7bc9-8ea4-9f55741b365d","","null","
                <div class=""stimulus-container"">
                    <img src=""images/semantic_sequence/exploring_nature_semantic/exploring_nature_semantic_3.png"" class=""exp-image"">
                    <div class=""question-area""></div> 
                </div>","null","","","","","","","","","",""
"","","","","","html-button-response","22","276731","0.0-22.0","E358623956CB40FBBCD4266DB111D775","019cf984-eaad-77b9-b850-6c4229b7dc80","019cf974-7aee-7bc9-8ea4-9f55741b365d","","406","
                <div class=""stimulus-container"">
                    <img src=""images/semantic_sequence/exploring_nature_semantic/exploring_nature_semantic_3.png"" class=""exp-image"">
                    <div class=""question-area"">
                        <p style=""font-size: 20px; font-weight: bold; margin: 0;"">Is there a person in this image?</p>
                    </div>
                </div>","0","main_experiment_trial","3","exploring_nature_semantic","semantic_sequence","randomized","","","","",""
"","","","","","html-keyboard-response","23","277749","0.0-23.0","E358623956CB40FBBCD4266DB111D775","019cf984-eaad-77b9-b850-6c4229b7dc80","019cf974-7aee-7bc9-8ea4-9f55741b365d","","null","
                <div class=""stimulus-container"">
                    <img src=""images/semantic_sequence/exploring_nature_semantic/exploring_nature_semantic_9.png"" class=""exp-image"">
                    <div class=""question-area""></div> 
                </div>","null","","","","","","","","","",""
"","","","","","html-button-response","24","278142","0.0-24.0","E358623956CB40FBBCD4266DB111D775","019cf984-eaad-77b9-b850-6c4229b7dc80","019cf974-7aee-7bc9-8ea4-9f55741b365d","","390","
                <div class=""stimulus-container"">
                    <img src=""images/semantic_sequence/exploring_nature_semantic/exploring_nature_semantic_9.png"" class=""exp-image"">
                    <div class=""question-area"">
                        <p style=""font-size: 20px; font-weight: bold; margin: 0;"">Is there a person in this image?</p>
                    </div>
                </div>","0","main_experiment_trial","9","exploring_nature_semantic","semantic_sequence","randomized","","","","",""
"","","","","","html-keyboard-response","25","279146","0.0-25.0","E358623956CB40FBBCD4266DB111D775","019cf984-eaad-77b9-b850-6c4229b7dc80","019cf974-7aee-7bc9-8ea4-9f55741b365d","","null","
                <div class=""stimulus-container"">
                    <img src=""images/semantic_sequence/exploring_nature_semantic/exploring_nature_semantic_6.png"" class=""exp-image"">
                    <div class=""question-area""></div> 
                </div>","null","","","","","","","","","",""
"","","","","","html-button-response","26","279576","0.0-26.0","E358623956CB40FBBCD4266DB111D775","019cf984-eaad-77b9-b850-6c4229b7dc80","019cf974-7aee-7bc9-8ea4-9f55741b365d","","428","
                <div class=""stimulus-container"">
                    <img src=""images/semantic_sequence/exploring_nature_semantic/exploring_nature_semantic_6.png"" class=""exp-image"">
                    <div class=""question-area"">
                        <p style=""font-size: 20px; font-weight: bold; margin: 0;"">Is there a person in this image?</p>
                    </div>
                </div>","0","main_experiment_trial","6","exploring_nature_semantic","semantic_sequence","randomized","","","","",""
"","","","","","html-keyboard-response","27","280588","0.0-27.0","E358623956CB40FBBCD4266DB111D775","019cf984-eaad-77b9-b850-6c4229b7dc80","019cf974-7aee-7bc9-8ea4-9f55741b365d","","null","
                <div class=""stimulus-container"">
                    <img src=""images/semantic_sequence/exploring_nature_semantic/exploring_nature_semantic_1.png"" class=""exp-image"">
                    <div class=""question-area""></div> 
                </div>","null","","","","","","","","","",""
"","","","","","html-button-response","28","280953","0.0-28.0","E358623956CB40FBBCD4266DB111D775","019cf984-eaad-77b9-b850-6c4229b7dc80","019cf974-7aee-7bc9-8ea4-9f55741b365d","","363","
                <div class=""stimulus-container"">
                    <img src=""images/semantic_sequence/exploring_nature_semantic/exploring_nature_semantic_1.png"" class=""exp-image"">
                    <div class=""question-area"">
                        <p style=""font-size: 20px; font-weight: bold; margin: 0;"">Is there a person in this image?</p>
                    </div>
                </div>","0","main_experiment_trial","1","exploring_nature_semantic","semantic_sequence","randomized","","","","",""
"","","","","","html-keyboard-response","29","281967","0.0-29.0","E358623956CB40FBBCD4266DB111D775","019cf984-eaad-77b9-b850-6c4229b7dc80","019cf974-7aee-7bc9-8ea4-9f55741b365d","","null","
                <div class=""stimulus-container"">
                    <img src=""images/semantic_sequence/exploring_nature_semantic/exploring_nature_semantic_ten.png"" class=""exp-image"">
                    <div class=""question-area""></div> 
                </div>","null","","","","","","","","","",""
"","","","","","html-button-response","30","282470","0.0-30.0","E358623956CB40FBBCD4266DB111D775","019cf984-eaad-77b9-b850-6c4229b7dc80","019cf974-7aee-7bc9-8ea4-9f55741b365d","","500","
                <div class=""stimulus-container"">
                    <img src=""images/semantic_sequence/exploring_nature_semantic/exploring_nature_semantic_ten.png"" class=""exp-image"">
                    <div class=""question-area"">
                        <p style=""font-size: 20px; font-weight: bold; margin: 0;"">Is there a person in this image?</p>
                    </div>
                </div>","0","main_experiment_trial","ten","exploring_nature_semantic","semantic_sequence","randomized","","","","",""
"","","","","","html-keyboard-response","31","283485","0.0-31.0","E358623956CB40FBBCD4266DB111D775","019cf984-eaad-77b9-b850-6c4229b7dc80","019cf974-7aee-7bc9-8ea4-9f55741b365d","","null","
                <div class=""stimulus-container"">
                    <img src=""images/semantic_sequence/exploring_nature_semantic/exploring_nature_semantic_7.png"" class=""exp-image"">
                    <div class=""question-area""></div> 
                </div>","null","","","","","","","","","",""
"","","","","","html-button-response","32","283858","0.0-32.0","E358623956CB40FBBCD4266DB111D775","019cf984-eaad-77b9-b850-6c4229b7dc80","019cf974-7aee-7bc9-8ea4-9f55741b365d","","371","
                <div class=""stimulus-container"">
                    <img src=""images/semantic_sequence/exploring_nature_semantic/exploring_nature_semantic_7.png"" class=""exp-image"">
                    <div class=""question-area"">
                        <p style=""font-size: 20px; font-weight: bold; margin: 0;"">Is there a person in this image?</p>
                    </div>
                </div>","0","main_experiment_trial","7","exploring_nature_semantic","semantic_sequence","randomized","","","","",""
"","","","","","html-keyboard-response","33","284863","0.0-33.0","E358623956CB40FBBCD4266DB111D775","019cf984-eaad-77b9-b850-6c4229b7dc80","019cf974-7aee-7bc9-8ea4-9f55741b365d","","null","
                <div class=""stimulus-container"">
                    <img src=""images/semantic_sequence/exploring_nature_semantic/exploring_nature_semantic_8.png"" class=""exp-image"">
                    <div class=""question-area""></div> 
                </div>","null","","","","","","","","","",""
"","","","","","html-button-response","34","285325","0.0-34.0","E358623956CB40FBBCD4266DB111D775","019cf984-eaad-77b9-b850-6c4229b7dc80","019cf974-7aee-7bc9-8ea4-9f55741b365d","","460","
                <div class=""stimulus-container"">
                    <img src=""images/semantic_sequence/exploring_nature_semantic/exploring_nature_semantic_8.png"" class=""exp-image"">
                    <div class=""question-area"">
                        <p style=""font-size: 20px; font-weight: bold; margin: 0;"">Is there a person in this image?</p>
                    </div>
                </div>","0","main_experiment_trial","8","exploring_nature_semantic","semantic_sequence","randomized","","","","",""
"","","","","","html-keyboard-response","35","286334","0.0-35.0","E358623956CB40FBBCD4266DB111D775","019cf984-eaad-77b9-b850-6c4229b7dc80","019cf974-7aee-7bc9-8ea4-9f55741b365d","","null","
                <div class=""stimulus-container"">
                    <img src=""images/semantic_sequence/exploring_nature_semantic/exploring_nature_semantic_2.png"" class=""exp-image"">
                    <div class=""question-area""></div> 
                </div>","null","","","","","","","","","",""
"","","","","","html-button-response","36","286798","0.0-36.0","E358623956CB40FBBCD4266DB111D775","019cf984-eaad-77b9-b850-6c4229b7dc80","019cf974-7aee-7bc9-8ea4-9f55741b365d","","461","
                <div class=""stimulus-container"">
                    <img src=""images/semantic_sequence/exploring_nature_semantic/exploring_nature_semantic_2.png"" class=""exp-image"">
                    <div class=""question-area"">
                        <p style=""font-size: 20px; font-weight: bold; margin: 0;"">Is there a person in this image?</p>
                    </div>
                </div>","0","main_experiment_trial","2","exploring_nature_semantic","semantic_sequence","randomized","","","","",""
"","","","","","html-keyboard-response","37","291801","0.0-37.0","E358623956CB40FBBCD4266DB111D775","019cf984-eaad-77b9-b850-6c4229b7dc80","019cf974-7aee-7bc9-8ea4-9f55741b365d","","null","<div style=""background-color: white; width: 100vw; height: 100vh;""></div>","null","","","","","","","","","",""
"","","","","","html-keyboard-response","38","292803","0.0-38.0","E358623956CB40FBBCD4266DB111D775","019cf984-eaad-77b9-b850-6c4229b7dc80","019cf974-7aee-7bc9-8ea4-9f55741b365d","","null","
                <div class=""stimulus-container"">
                    <img src=""images/causal_sequence/coin_causal/coin_causal_5.png"" class=""exp-image"">
                    <div class=""question-area""></div> 
                </div>","null","","","","","","","","","",""
"","","","","","html-button-response","39","293554","0.0-39.0","E358623956CB40FBBCD4266DB111D775","019cf984-eaad-77b9-b850-6c4229b7dc80","019cf974-7aee-7bc9-8ea4-9f55741b365d","","749","
                <div class=""stimulus-container"">
                    <img src=""images/causal_sequence/coin_causal/coin_causal_5.png"" class=""exp-image"">
                    <div class=""question-area"">
                        <p style=""font-size: 20px; font-weight: bold; margin: 0;"">Is there a person in this image?</p>
                    </div>
                </div>","0","main_experiment_trial","5","coin_causal","causal_sequence","randomized","","","","",""
"","","","","","html-keyboard-response","40","294568","0.0-40.0","E358623956CB40FBBCD4266DB111D775","019cf984-eaad-77b9-b850-6c4229b7dc80","019cf974-7aee-7bc9-8ea4-9f55741b365d","","null","
                <div class=""stimulus-container"">
                    <img src=""images/causal_sequence/coin_causal/coin_causal_1.png"" class=""exp-image"">
                    <div class=""question-area""></div> 
                </div>","null","","","","","","","","","",""
"","","","","","html-button-response","41","294957","0.0-41.0","E358623956CB40FBBCD4266DB111D775","019cf984-eaad-77b9-b850-6c4229b7dc80","019cf974-7aee-7bc9-8ea4-9f55741b365d","","387","
                <div class=""stimulus-container"">
                    <img src=""images/causal_sequence/coin_causal/coin_causal_1.png"" class=""exp-image"">
                    <div class=""question-area"">
                        <p style=""font-size: 20px; font-weight: bold; margin: 0;"">Is there a person in this image?</p>
                    </div>
                </div>","0","main_experiment_trial","1","coin_causal","causal_sequence","randomized","","","","",""
"","","","","","html-keyboard-response","42","295962","0.0-42.0","E358623956CB40FBBCD4266DB111D775","019cf984-eaad-77b9-b850-6c4229b7dc80","019cf974-7aee-7bc9-8ea4-9f55741b365d","","null","
                <div class=""stimulus-container"">
                    <img src=""images/causal_sequence/coin_causal/coin_causal_7.png"" class=""exp-image"">
                    <div class=""question-area""></div> 
                </div>","null","","","","","","","","","",""
"","","","","","html-button-response","43","296387","0.0-43.0","E358623956CB40FBBCD4266DB111D775","019cf984-eaad-77b9-b850-6c4229b7dc80","019cf974-7aee-7bc9-8ea4-9f55741b365d","","422","
                <div class=""stimulus-container"">
                    <img src=""images/causal_sequence/coin_causal/coin_causal_7.png"" class=""exp-image"">
                    <div class=""question-area"">
                        <p style=""font-size: 20px; font-weight: bold; margin: 0;"">Is there a person in this image?</p>
                    </div>
                </div>","1","main_experiment_trial","7","coin_causal","causal_sequence","randomized","","","","",""
"","","","","","html-keyboard-response","44","297400","0.0-44.0","E358623956CB40FBBCD4266DB111D775","019cf984-eaad-77b9-b850-6c4229b7dc80","019cf974-7aee-7bc9-8ea4-9f55741b365d","","null","
                <div class=""stimulus-container"">
                    <img src=""images/causal_sequence/coin_causal/coin_causal_2.png"" class=""exp-image"">
                    <div class=""question-area""></div> 
                </div>","null","","","","","","","","","",""
"","","","","","html-button-response","45","297859","0.0-45.0","E358623956CB40FBBCD4266DB111D775","019cf984-eaad-77b9-b850-6c4229b7dc80","019cf974-7aee-7bc9-8ea4-9f55741b365d","","457","
                <div class=""stimulus-container"">
                    <img src=""images/causal_sequence/coin_causal/coin_causal_2.png"" class=""exp-image"">
                    <div class=""question-area"">
                        <p style=""font-size: 20px; font-weight: bold; margin: 0;"">Is there a person in this image?</p>
                    </div>
                </div>","0","main_experiment_trial","2","coin_causal","causal_sequence","randomized","","","","",""
"","","","","","html-keyboard-response","46","298865","0.0-46.0","E358623956CB40FBBCD4266DB111D775","019cf984-eaad-77b9-b850-6c4229b7dc80","019cf974-7aee-7bc9-8ea4-9f55741b365d","","null","
                <div class=""stimulus-container"">
                    <img src=""images/causal_sequence/coin_causal/coin_causal_4.png"" class=""exp-image"">
                    <div class=""question-area""></div> 
                </div>","null","","","","","","","","","",""
"","","","","","html-button-response","47","299259","0.0-47.0","E358623956CB40FBBCD4266DB111D775","019cf984-eaad-77b9-b850-6c4229b7dc80","019cf974-7aee-7bc9-8ea4-9f55741b365d","","392","
                <div class=""stimulus-container"">
                    <img src=""images/causal_sequence/coin_causal/coin_causal_4.png"" class=""exp-image"">
                    <div class=""question-area"">
                        <p style=""font-size: 20px; font-weight: bold; margin: 0;"">Is there a person in this image?</p>
                    </div>
                </div>","0","main_experiment_trial","4","coin_causal","causal_sequence","randomized","","","","",""
"","","","","","html-keyboard-response","48","300264","0.0-48.0","E358623956CB40FBBCD4266DB111D775","019cf984-eaad-77b9-b850-6c4229b7dc80","019cf974-7aee-7bc9-8ea4-9f55741b365d","","null","
                <div class=""stimulus-container"">
                    <img src=""images/causal_sequence/coin_causal/coin_causal_9.png"" class=""exp-image"">
                    <div class=""question-area""></div> 
                </div>","null","","","","","","","","","",""
"","","","","","html-button-response","49","300614","0.0-49.0","E358623956CB40FBBCD4266DB111D775","019cf984-eaad-77b9-b850-6c4229b7dc80","019cf974-7aee-7bc9-8ea4-9f55741b365d","","349","
                <div class=""stimulus-container"">
                    <img src=""images/causal_sequence/coin_causal/coin_causal_9.png"" class=""exp-image"">
                    <div class=""question-area"">
                        <p style=""font-size: 20px; font-weight: bold; margin: 0;"">Is there a person in this image?</p>
                    </div>
                </div>","0","main_experiment_trial","9","coin_causal","causal_sequence","randomized","","","","",""
"","","","","","html-keyboard-response","50","301621","0.0-50.0","E358623956CB40FBBCD4266DB111D775","019cf984-eaad-77b9-b850-6c4229b7dc80","019cf974-7aee-7bc9-8ea4-9f55741b365d","","null","
                <div class=""stimulus-container"">
                    <img src=""images/causal_sequence/coin_causal/coin_causal_ten.png"" class=""exp-image"">
                    <div class=""question-area""></div> 
                </div>","null","","","","","","","","","",""
"","","","","","html-button-response","51","302125","0.0-51.0","E358623956CB40FBBCD4266DB111D775","019cf984-eaad-77b9-b850-6c4229b7dc80","019cf974-7aee-7bc9-8ea4-9f55741b365d","","502","
                <div class=""stimulus-container"">
                    <img src=""images/causal_sequence/coin_causal/coin_causal_ten.png"" class=""exp-image"">
                    <div class=""question-area"">
                        <p style=""font-size: 20px; font-weight: bold; margin: 0;"">Is there a person in this image?</p>
                    </div>
                </div>","0","main_experiment_trial","ten","coin_causal","causal_sequence","randomized","","","","",""
"","","","","","html-keyboard-response","52","303132","0.0-52.0","E358623956CB40FBBCD4266DB111D775","019cf984-eaad-77b9-b850-6c4229b7dc80","019cf974-7aee-7bc9-8ea4-9f55741b365d","","null","
                <div class=""stimulus-container"">
                    <img src=""images/causal_sequence/coin_causal/coin_causal_6.png"" class=""exp-image"">
                    <div class=""question-area""></div> 
                </div>","null","","","","","","","","","",""
"","","","","","html-button-response","53","303523","0.0-53.0","E358623956CB40FBBCD4266DB111D775","019cf984-eaad-77b9-b850-6c4229b7dc80","019cf974-7aee-7bc9-8ea4-9f55741b365d","","390","
                <div class=""stimulus-container"">
                    <img src=""images/causal_sequence/coin_causal/coin_causal_6.png"" class=""exp-image"">
                    <div class=""question-area"">
                        <p style=""font-size: 20px; font-weight: bold; margin: 0;"">Is there a person in this image?</p>
                    </div>
                </div>","0","main_experiment_trial","6","coin_causal","causal_sequence","randomized","","","","",""
"","","","","","html-keyboard-response","54","304534","0.0-54.0","E358623956CB40FBBCD4266DB111D775","019cf984-eaad-77b9-b850-6c4229b7dc80","019cf974-7aee-7bc9-8ea4-9f55741b365d","","null","
                <div class=""stimulus-container"">
                    <img src=""images/causal_sequence/coin_causal/coin_causal_8.png"" class=""exp-image"">
                    <div class=""question-area""></div> 
                </div>","null","","","","","","","","","",""
"","","","","","html-button-response","55","305052","0.0-55.0","E358623956CB40FBBCD4266DB111D775","019cf984-eaad-77b9-b850-6c4229b7dc80","019cf974-7aee-7bc9-8ea4-9f55741b365d","","515","
                <div class=""stimulus-container"">
                    <img src=""images/causal_sequence/coin_causal/coin_causal_8.png"" class=""exp-image"">
                    <div class=""question-area"">
                        <p style=""font-size: 20px; font-weight: bold; margin: 0;"">Is there a person in this image?</p>
                    </div>
                </div>","0","main_experiment_trial","8","coin_causal","causal_sequence","randomized","","","","",""
"","","","","","html-keyboard-response","56","306069","0.0-56.0","E358623956CB40FBBCD4266DB111D775","019cf984-eaad-77b9-b850-6c4229b7dc80","019cf974-7aee-7bc9-8ea4-9f55741b365d","","null","
                <div class=""stimulus-container"">
                    <img src=""images/causal_sequence/coin_causal/coin_causal_3.png"" class=""exp-image"">
                    <div class=""question-area""></div> 
                </div>","null","","","","","","","","","",""
"","","","","","html-button-response","57","306459","0.0-57.0","E358623956CB40FBBCD4266DB111D775","019cf984-eaad-77b9-b850-6c4229b7dc80","019cf974-7aee-7bc9-8ea4-9f55741b365d","","388","
                <div class=""stimulus-container"">
                    <img src=""images/causal_sequence/coin_causal/coin_causal_3.png"" class=""exp-image"">
                    <div class=""question-area"">
                        <p style=""font-size: 20px; font-weight: bold; margin: 0;"">Is there a person in this image?</p>
                    </div>
                </div>","0","main_experiment_trial","3","coin_causal","causal_sequence","randomized","","","","",""
"","","","","","html-keyboard-response","58","311468","0.0-58.0","E358623956CB40FBBCD4266DB111D775","019cf984-eaad-77b9-b850-6c4229b7dc80","019cf974-7aee-7bc9-8ea4-9f55741b365d","","null","<div style=""background-color: white; width: 100vw; height: 100vh;""></div>","null","","","","","","","","","",""
"","","","","","html-keyboard-response","59","312487","0.0-59.0","E358623956CB40FBBCD4266DB111D775","019cf984-eaad-77b9-b850-6c4229b7dc80","019cf974-7aee-7bc9-8ea4-9f55741b365d","","null","
                <div class=""stimulus-container"">
                    <img src=""images/semantic_sequence/self_care_activities_semantic/self_care_activities_semantic_7.png"" class=""exp-image"">
                    <div class=""question-area""></div> 
                </div>","null","","","","","","","","","",""
"","","","","","html-button-response","60","312987","0.0-60.0","E358623956CB40FBBCD4266DB111D775","019cf984-eaad-77b9-b850-6c4229b7dc80","019cf974-7aee-7bc9-8ea4-9f55741b365d","","499","
                <div class=""stimulus-container"">
                    <img src=""images/semantic_sequence/self_care_activities_semantic/self_care_activities_semantic_7.png"" class=""exp-image"">
                    <div class=""question-area"">
                        <p style=""font-size: 20px; font-weight: bold; margin: 0;"">Is there a person in this image?</p>
                    </div>
                </div>","0","main_experiment_trial","7","self_care_activities_semantic","semantic_sequence","randomized","","","","",""
"","","","","","html-keyboard-response","61","313997","0.0-61.0","E358623956CB40FBBCD4266DB111D775","019cf984-eaad-77b9-b850-6c4229b7dc80","019cf974-7aee-7bc9-8ea4-9f55741b365d","","null","
                <div class=""stimulus-container"">
                    <img src=""images/semantic_sequence/self_care_activities_semantic/self_care_activities_semantic_6.png"" class=""exp-image"">
                    <div class=""question-area""></div> 
                </div>","null","","","","","","","","","",""
"","","","","","html-button-response","62","314404","0.0-62.0","E358623956CB40FBBCD4266DB111D775","019cf984-eaad-77b9-b850-6c4229b7dc80","019cf974-7aee-7bc9-8ea4-9f55741b365d","","406","
                <div class=""stimulus-container"">
                    <img src=""images/semantic_sequence/self_care_activities_semantic/self_care_activities_semantic_6.png"" class=""exp-image"">
                    <div class=""question-area"">
                        <p style=""font-size: 20px; font-weight: bold; margin: 0;"">Is there a person in this image?</p>
                    </div>
                </div>","1","main_experiment_trial","6","self_care_activities_semantic","semantic_sequence","randomized","","","","",""
"","","","","","html-keyboard-response","63","315416","0.0-63.0","E358623956CB40FBBCD4266DB111D775","019cf984-eaad-77b9-b850-6c4229b7dc80","019cf974-7aee-7bc9-8ea4-9f55741b365d","","null","
                <div class=""stimulus-container"">
                    <img src=""images/semantic_sequence/self_care_activities_semantic/self_care_activities_semantic_8.png"" class=""exp-image"">
                    <div class=""question-area""></div> 
                </div>","null","","","","","","","","","",""
"","","","","","html-button-response","64","315789","0.0-64.0","E358623956CB40FBBCD4266DB111D775","019cf984-eaad-77b9-b850-6c4229b7dc80","019cf974-7aee-7bc9-8ea4-9f55741b365d","","372","
                <div class=""stimulus-container"">
                    <img src=""images/semantic_sequence/self_care_activities_semantic/self_care_activities_semantic_8.png"" class=""exp-image"">
                    <div class=""question-area"">
                        <p style=""font-size: 20px; font-weight: bold; margin: 0;"">Is there a person in this image?</p>
                    </div>
                </div>","0","main_experiment_trial","8","self_care_activities_semantic","semantic_sequence","randomized","","","","",""
"","","","","","html-keyboard-response","65","316799","0.0-65.0","E358623956CB40FBBCD4266DB111D775","019cf984-eaad-77b9-b850-6c4229b7dc80","019cf974-7aee-7bc9-8ea4-9f55741b365d","","null","
                <div class=""stimulus-container"">
                    <img src=""images/semantic_sequence/self_care_activities_semantic/self_care_activities_semantic_4.png"" class=""exp-image"">
                    <div class=""question-area""></div> 
                </div>","null","","","","","","","","","",""
"","","","","","html-button-response","66","317186","0.0-66.0","E358623956CB40FBBCD4266DB111D775","019cf984-eaad-77b9-b850-6c4229b7dc80","019cf974-7aee-7bc9-8ea4-9f55741b365d","","383","
                <div class=""stimulus-container"">
                    <img src=""images/semantic_sequence/self_care_activities_semantic/self_care_activities_semantic_4.png"" class=""exp-image"">
                    <div class=""question-area"">
                        <p style=""font-size: 20px; font-weight: bold; margin: 0;"">Is there a person in this image?</p>
                    </div>
                </div>","0","main_experiment_trial","4","self_care_activities_semantic","semantic_sequence","randomized","","","","",""
"","","","","","html-keyboard-response","67","318206","0.0-67.0","E358623956CB40FBBCD4266DB111D775","019cf984-eaad-77b9-b850-6c4229b7dc80","019cf974-7aee-7bc9-8ea4-9f55741b365d","","null","
                <div class=""stimulus-container"">
                    <img src=""images/semantic_sequence/self_care_activities_semantic/self_care_activities_semantic_1.png"" class=""exp-image"">
                    <div class=""question-area""></div> 
                </div>","null","","","","","","","","","",""
"","","","","","html-button-response","68","318631","0.0-68.0","E358623956CB40FBBCD4266DB111D775","019cf984-eaad-77b9-b850-6c4229b7dc80","019cf974-7aee-7bc9-8ea4-9f55741b365d","","422","
                <div class=""stimulus-container"">
                    <img src=""images/semantic_sequence/self_care_activities_semantic/self_care_activities_semantic_1.png"" class=""exp-image"">
                    <div class=""question-area"">
                        <p style=""font-size: 20px; font-weight: bold; margin: 0;"">Is there a person in this image?</p>
                    </div>
                </div>","0","main_experiment_trial","1","self_care_activities_semantic","semantic_sequence","randomized","","","","",""
"","","","","","html-keyboard-response","69","319648","0.0-69.0","E358623956CB40FBBCD4266DB111D775","019cf984-eaad-77b9-b850-6c4229b7dc80","019cf974-7aee-7bc9-8ea4-9f55741b365d","","null","
                <div class=""stimulus-container"">
                    <img src=""images/semantic_sequence/self_care_activities_semantic/self_care_activities_semantic_3.png"" class=""exp-image"">
                    <div class=""question-area""></div> 
                </div>","null","","","","","","","","","",""
"","","","","","html-button-response","70","320059","0.0-70.0","E358623956CB40FBBCD4266DB111D775","019cf984-eaad-77b9-b850-6c4229b7dc80","019cf974-7aee-7bc9-8ea4-9f55741b365d","","407","
                <div class=""stimulus-container"">
                    <img src=""images/semantic_sequence/self_care_activities_semantic/self_care_activities_semantic_3.png"" class=""exp-image"">
                    <div class=""question-area"">
                        <p style=""font-size: 20px; font-weight: bold; margin: 0;"">Is there a person in this image?</p>
                    </div>
                </div>","0","main_experiment_trial","3","self_care_activities_semantic","semantic_sequence","randomized","","","","",""
"","","","","","html-keyboard-response","71","321066","0.0-71.0","E358623956CB40FBBCD4266DB111D775","019cf984-eaad-77b9-b850-6c4229b7dc80","019cf974-7aee-7bc9-8ea4-9f55741b365d","","null","
                <div class=""stimulus-container"">
                    <img src=""images/semantic_sequence/self_care_activities_semantic/self_care_activities_semantic_9.png"" class=""exp-image"">
                    <div class=""question-area""></div> 
                </div>","null","","","","","","","","","",""
"","","","","","html-button-response","72","321502","0.0-72.0","E358623956CB40FBBCD4266DB111D775","019cf984-eaad-77b9-b850-6c4229b7dc80","019cf974-7aee-7bc9-8ea4-9f55741b365d","","434","
                <div class=""stimulus-container"">
                    <img src=""images/semantic_sequence/self_care_activities_semantic/self_care_activities_semantic_9.png"" class=""exp-image"">
                    <div class=""question-area"">
                        <p style=""font-size: 20px; font-weight: bold; margin: 0;"">Is there a person in this image?</p>
                    </div>
                </div>","0","main_experiment_trial","9","self_care_activities_semantic","semantic_sequence","randomized","","","","",""
"","","","","","html-keyboard-response","73","322513","0.0-73.0","E358623956CB40FBBCD4266DB111D775","019cf984-eaad-77b9-b850-6c4229b7dc80","019cf974-7aee-7bc9-8ea4-9f55741b365d","","null","
                <div class=""stimulus-container"">
                    <img src=""images/semantic_sequence/self_care_activities_semantic/self_care_activities_semantic_ten.png"" class=""exp-image"">
                    <div class=""question-area""></div> 
                </div>","null","","","","","","","","","",""
"","","","","","html-button-response","74","322927","0.0-74.0","E358623956CB40FBBCD4266DB111D775","019cf984-eaad-77b9-b850-6c4229b7dc80","019cf974-7aee-7bc9-8ea4-9f55741b365d","","411","
                <div class=""stimulus-container"">
                    <img src=""images/semantic_sequence/self_care_activities_semantic/self_care_activities_semantic_ten.png"" class=""exp-image"">
                    <div class=""question-area"">
                        <p style=""font-size: 20px; font-weight: bold; margin: 0;"">Is there a person in this image?</p>
                    </div>
                </div>","0","main_experiment_trial","ten","self_care_activities_semantic","semantic_sequence","randomized","","","","",""
"","","","","","html-keyboard-response","75","323931","0.0-75.0","E358623956CB40FBBCD4266DB111D775","019cf984-eaad-77b9-b850-6c4229b7dc80","019cf974-7aee-7bc9-8ea4-9f55741b365d","","null","
                <div class=""stimulus-container"">
                    <img src=""images/semantic_sequence/self_care_activities_semantic/self_care_activities_semantic_5.png"" class=""exp-image"">
                    <div class=""question-area""></div> 
                </div>","null","","","","","","","","","",""
"","","","","","html-button-response","76","324305","0.0-76.0","E358623956CB40FBBCD4266DB111D775","019cf984-eaad-77b9-b850-6c4229b7dc80","019cf974-7aee-7bc9-8ea4-9f55741b365d","","373","
                <div class=""stimulus-container"">
                    <img src=""images/semantic_sequence/self_care_activities_semantic/self_care_activities_semantic_5.png"" class=""exp-image"">
                    <div class=""question-area"">
                        <p style=""font-size: 20px; font-weight: bold; margin: 0;"">Is there a person in this image?</p>
                    </div>
                </div>","0","main_experiment_trial","5","self_care_activities_semantic","semantic_sequence","randomized","","","","",""
"","","","","","html-keyboard-response","77","325315","0.0-77.0","E358623956CB40FBBCD4266DB111D775","019cf984-eaad-77b9-b850-6c4229b7dc80","019cf974-7aee-7bc9-8ea4-9f55741b365d","","null","
                <div class=""stimulus-container"">
                    <img src=""images/semantic_sequence/self_care_activities_semantic/self_care_activities_semantic_2.png"" class=""exp-image"">
                    <div class=""question-area""></div> 
                </div>","null","","","","","","","","","",""
"","","","","","html-button-response","78","325800","0.0-78.0","E358623956CB40FBBCD4266DB111D775","019cf984-eaad-77b9-b850-6c4229b7dc80","019cf974-7aee-7bc9-8ea4-9f55741b365d","","484","
                <div class=""stimulus-container"">
                    <img src=""images/semantic_sequence/self_care_activities_semantic/self_care_activities_semantic_2.png"" class=""exp-image"">
                    <div class=""question-area"">
                        <p style=""font-size: 20px; font-weight: bold; margin: 0;"">Is there a person in this image?</p>
                    </div>
                </div>","0","main_experiment_trial","2","self_care_activities_semantic","semantic_sequence","randomized","","","","",""
"","","","","","html-keyboard-response","79","330818","0.0-79.0","E358623956CB40FBBCD4266DB111D775","019cf984-eaad-77b9-b850-6c4229b7dc80","019cf974-7aee-7bc9-8ea4-9f55741b365d","","null","<div style=""background-color: white; width: 100vw; height: 100vh;""></div>","null","","","","","","","","","",""
"","","","","","html-keyboard-response","80","331828","0.0-80.0","E358623956CB40FBBCD4266DB111D775","019cf984-eaad-77b9-b850-6c4229b7dc80","019cf974-7aee-7bc9-8ea4-9f55741b365d","","null","
                <div class=""stimulus-container"">
                    <img src=""images/causal_sequence/dog_causal/dog_causal_ten.png"" class=""exp-image"">
                    <div class=""question-area""></div> 
                </div>","null","","","","","","","","","",""
"","","","","","html-button-response","81","332572","0.0-81.0","E358623956CB40FBBCD4266DB111D775","019cf984-eaad-77b9-b850-6c4229b7dc80","019cf974-7aee-7bc9-8ea4-9f55741b365d","","743","
                <div class=""stimulus-container"">
                    <img src=""images/causal_sequence/dog_causal/dog_causal_ten.png"" class=""exp-image"">
                    <div class=""question-area"">
                        <p style=""font-size: 20px; font-weight: bold; margin: 0;"">Is there a person in this image?</p>
                    </div>
                </div>","0","main_experiment_trial","ten","dog_causal","causal_sequence","randomized","","","","",""
"","","","","","html-keyboard-response","82","333574","0.0-82.0","E358623956CB40FBBCD4266DB111D775","019cf984-eaad-77b9-b850-6c4229b7dc80","019cf974-7aee-7bc9-8ea4-9f55741b365d","","null","
                <div class=""stimulus-container"">
                    <img src=""images/causal_sequence/dog_causal/dog_causal_4.png"" class=""exp-image"">
                    <div class=""question-area""></div> 
                </div>","null","","","","","","","","","",""
"","","","","","html-button-response","83","334012","0.0-83.0","E358623956CB40FBBCD4266DB111D775","019cf984-eaad-77b9-b850-6c4229b7dc80","019cf974-7aee-7bc9-8ea4-9f55741b365d","","435","
                <div class=""stimulus-container"">
                    <img src=""images/causal_sequence/dog_causal/dog_causal_4.png"" class=""exp-image"">
                    <div class=""question-area"">
                        <p style=""font-size: 20px; font-weight: bold; margin: 0;"">Is there a person in this image?</p>
                    </div>
                </div>","0","main_experiment_trial","4","dog_causal","causal_sequence","randomized","","","","",""
"","","","","","html-keyboard-response","84","335030","0.0-84.0","E358623956CB40FBBCD4266DB111D775","019cf984-eaad-77b9-b850-6c4229b7dc80","019cf974-7aee-7bc9-8ea4-9f55741b365d","","null","
                <div class=""stimulus-container"">
                    <img src=""images/causal_sequence/dog_causal/dog_causal_9.png"" class=""exp-image"">
                    <div class=""question-area""></div> 
                </div>","null","","","","","","","","","",""
"","","","","","html-button-response","85","335536","0.0-85.0","E358623956CB40FBBCD4266DB111D775","019cf984-eaad-77b9-b850-6c4229b7dc80","019cf974-7aee-7bc9-8ea4-9f55741b365d","","504","
                <div class=""stimulus-container"">
                    <img src=""images/causal_sequence/dog_causal/dog_causal_9.png"" class=""exp-image"">
                    <div class=""question-area"">
                        <p style=""font-size: 20px; font-weight: bold; margin: 0;"">Is there a person in this image?</p>
                    </div>
                </div>","0","main_experiment_trial","9","dog_causal","causal_sequence","randomized","","","","",""
"","","","","","html-keyboard-response","86","336552","0.0-86.0","E358623956CB40FBBCD4266DB111D775","019cf984-eaad-77b9-b850-6c4229b7dc80","019cf974-7aee-7bc9-8ea4-9f55741b365d","","null","
                <div class=""stimulus-container"">
                    <img src=""images/causal_sequence/dog_causal/dog_causal_7.png"" class=""exp-image"">
                    <div class=""question-area""></div> 
                </div>","null","","","","","","","","","",""
"","","","","","html-button-response","87","336884","0.0-87.0","E358623956CB40FBBCD4266DB111D775","019cf984-eaad-77b9-b850-6c4229b7dc80","019cf974-7aee-7bc9-8ea4-9f55741b365d","","331","
                <div class=""stimulus-container"">
                    <img src=""images/causal_sequence/dog_causal/dog_causal_7.png"" class=""exp-image"">
                    <div class=""question-area"">
                        <p style=""font-size: 20px; font-weight: bold; margin: 0;"">Is there a person in this image?</p>
                    </div>
                </div>","0","main_experiment_trial","7","dog_causal","causal_sequence","randomized","","","","",""
"","","","","","html-keyboard-response","88","337893","0.0-88.0","E358623956CB40FBBCD4266DB111D775","019cf984-eaad-77b9-b850-6c4229b7dc80","019cf974-7aee-7bc9-8ea4-9f55741b365d","","null","
                <div class=""stimulus-container"">
                    <img src=""images/causal_sequence/dog_causal/dog_causal_1.png"" class=""exp-image"">
                    <div class=""question-area""></div> 
                </div>","null","","","","","","","","","",""
"","","","","","html-button-response","89","338377","0.0-89.0","E358623956CB40FBBCD4266DB111D775","019cf984-eaad-77b9-b850-6c4229b7dc80","019cf974-7aee-7bc9-8ea4-9f55741b365d","","482","
                <div class=""stimulus-container"">
                    <img src=""images/causal_sequence/dog_causal/dog_causal_1.png"" class=""exp-image"">
                    <div class=""question-area"">
                        <p style=""font-size: 20px; font-weight: bold; margin: 0;"">Is there a person in this image?</p>
                    </div>
                </div>","0","main_experiment_trial","1","dog_causal","causal_sequence","randomized","","","","",""
"","","","","","html-keyboard-response","90","339386","0.0-90.0","E358623956CB40FBBCD4266DB111D775","019cf984-eaad-77b9-b850-6c4229b7dc80","019cf974-7aee-7bc9-8ea4-9f55741b365d","","null","
                <div class=""stimulus-container"">
                    <img src=""images/causal_sequence/dog_causal/dog_causal_5.png"" class=""exp-image"">
                    <div class=""question-area""></div> 
                </div>","null","","","","","","","","","",""
"","","","","","html-button-response","91","339930","0.0-91.0","E358623956CB40FBBCD4266DB111D775","019cf984-eaad-77b9-b850-6c4229b7dc80","019cf974-7aee-7bc9-8ea4-9f55741b365d","","542","
                <div class=""stimulus-container"">
                    <img src=""images/causal_sequence/dog_causal/dog_causal_5.png"" class=""exp-image"">
                    <div class=""question-area"">
                        <p style=""font-size: 20px; font-weight: bold; margin: 0;"">Is there a person in this image?</p>
                    </div>
                </div>","0","main_experiment_trial","5","dog_causal","causal_sequence","randomized","","","","",""
"","","","","","html-keyboard-response","92","340944","0.0-92.0","E358623956CB40FBBCD4266DB111D775","019cf984-eaad-77b9-b850-6c4229b7dc80","019cf974-7aee-7bc9-8ea4-9f55741b365d","","null","
                <div class=""stimulus-container"">
                    <img src=""images/causal_sequence/dog_causal/dog_causal_8.png"" class=""exp-image"">
                    <div class=""question-area""></div> 
                </div>","null","","","","","","","","","",""
"","","","","","html-button-response","93","341335","0.0-93.0","E358623956CB40FBBCD4266DB111D775","019cf984-eaad-77b9-b850-6c4229b7dc80","019cf974-7aee-7bc9-8ea4-9f55741b365d","","390","
                <div class=""stimulus-container"">
                    <img src=""images/causal_sequence/dog_causal/dog_causal_8.png"" class=""exp-image"">
                    <div class=""question-area"">
                        <p style=""font-size: 20px; font-weight: bold; margin: 0;"">Is there a person in this image?</p>
                    </div>
                </div>","0","main_experiment_trial","8","dog_causal","causal_sequence","randomized","","","","",""
"","","","","","html-keyboard-response","94","342341","0.0-94.0","E358623956CB40FBBCD4266DB111D775","019cf984-eaad-77b9-b850-6c4229b7dc80","019cf974-7aee-7bc9-8ea4-9f55741b365d","","null","
                <div class=""stimulus-container"">
                    <img src=""images/causal_sequence/dog_causal/dog_causal_6.png"" class=""exp-image"">
                    <div class=""question-area""></div> 
                </div>","null","","","","","","","","","",""
"","","","","","html-button-response","95","342743","0.0-95.0","E358623956CB40FBBCD4266DB111D775","019cf984-eaad-77b9-b850-6c4229b7dc80","019cf974-7aee-7bc9-8ea4-9f55741b365d","","400","
                <div class=""stimulus-container"">
                    <img src=""images/causal_sequence/dog_causal/dog_causal_6.png"" class=""exp-image"">
                    <div class=""question-area"">
                        <p style=""font-size: 20px; font-weight: bold; margin: 0;"">Is there a person in this image?</p>
                    </div>
                </div>","0","main_experiment_trial","6","dog_causal","causal_sequence","randomized","","","","",""
"","","","","","html-keyboard-response","96","343751","0.0-96.0","E358623956CB40FBBCD4266DB111D775","019cf984-eaad-77b9-b850-6c4229b7dc80","019cf974-7aee-7bc9-8ea4-9f55741b365d","","null","
                <div class=""stimulus-container"">
                    <img src=""images/causal_sequence/dog_causal/dog_causal_3.png"" class=""exp-image"">
                    <div class=""question-area""></div> 
                </div>","null","","","","","","","","","",""
"","","","","","html-button-response","97","344310","0.0-97.0","E358623956CB40FBBCD4266DB111D775","019cf984-eaad-77b9-b850-6c4229b7dc80","019cf974-7aee-7bc9-8ea4-9f55741b365d","","556","
                <div class=""stimulus-container"">
                    <img src=""images/causal_sequence/dog_causal/dog_causal_3.png"" class=""exp-image"">
                    <div class=""question-area"">
                        <p style=""font-size: 20px; font-weight: bold; margin: 0;"">Is there a person in this image?</p>
                    </div>
                </div>","0","main_experiment_trial","3","dog_causal","causal_sequence","randomized","","","","",""
"","","","","","html-keyboard-response","98","345327","0.0-98.0","E358623956CB40FBBCD4266DB111D775","019cf984-eaad-77b9-b850-6c4229b7dc80","019cf974-7aee-7bc9-8ea4-9f55741b365d","","null","
                <div class=""stimulus-container"">
                    <img src=""images/causal_sequence/dog_causal/dog_causal_2.png"" class=""exp-image"">
                    <div class=""question-area""></div> 
                </div>","null","","","","","","","","","",""
"","","","","","html-button-response","99","345750","0.0-99.0","E358623956CB40FBBCD4266DB111D775","019cf984-eaad-77b9-b850-6c4229b7dc80","019cf974-7aee-7bc9-8ea4-9f55741b365d","","421","
                <div class=""stimulus-container"">
                    <img src=""images/causal_sequence/dog_causal/dog_causal_2.png"" class=""exp-image"">
                    <div class=""question-area"">
                        <p style=""font-size: 20px; font-weight: bold; margin: 0;"">Is there a person in this image?</p>
                    </div>
                </div>","0","main_experiment_trial","2","dog_causal","causal_sequence","randomized","","","","",""
"","","","","","html-keyboard-response","100","350764","0.0-100.0","E358623956CB40FBBCD4266DB111D775","019cf984-eaad-77b9-b850-6c4229b7dc80","019cf974-7aee-7bc9-8ea4-9f55741b365d","","null","<div style=""background-color: white; width: 100vw; height: 100vh;""></div>","null","","","","","","","","","",""
"","","","","","html-keyboard-response","101","351778","0.0-101.0","E358623956CB40FBBCD4266DB111D775","019cf984-eaad-77b9-b850-6c4229b7dc80","019cf974-7aee-7bc9-8ea4-9f55741b365d","","null","
                <div class=""stimulus-container"">
                    <img src=""images/causal_sequence/museum_causal/museum_causal_5.png"" class=""exp-image"">
                    <div class=""question-area""></div> 
                </div>","null","","","","","","","","","",""
"","","","","","html-button-response","102","352169","0.0-102.0","E358623956CB40FBBCD4266DB111D775","019cf984-eaad-77b9-b850-6c4229b7dc80","019cf974-7aee-7bc9-8ea4-9f55741b365d","","389","
                <div class=""stimulus-container"">
                    <img src=""images/causal_sequence/museum_causal/museum_causal_5.png"" class=""exp-image"">
                    <div class=""question-area"">
                        <p style=""font-size: 20px; font-weight: bold; margin: 0;"">Is there a person in this image?</p>
                    </div>
                </div>","0","main_experiment_trial","5","museum_causal","causal_sequence","randomized","","","","",""
"","","","","","html-keyboard-response","103","353182","0.0-103.0","E358623956CB40FBBCD4266DB111D775","019cf984-eaad-77b9-b850-6c4229b7dc80","019cf974-7aee-7bc9-8ea4-9f55741b365d","","null","
                <div class=""stimulus-container"">
                    <img src=""images/causal_sequence/museum_causal/museum_causal_8.png"" class=""exp-image"">
                    <div class=""question-area""></div> 
                </div>","null","","","","","","","","","",""
"","","","","","html-button-response","104","354383","0.0-104.0","E358623956CB40FBBCD4266DB111D775","019cf984-eaad-77b9-b850-6c4229b7dc80","019cf974-7aee-7bc9-8ea4-9f55741b365d","","1200","
                <div class=""stimulus-container"">
                    <img src=""images/causal_sequence/museum_causal/museum_causal_8.png"" class=""exp-image"">
                    <div class=""question-area"">
                        <p style=""font-size: 20px; font-weight: bold; margin: 0;"">Is there a person in this image?</p>
                    </div>
                </div>","0","main_experiment_trial","8","museum_causal","causal_sequence","randomized","","","","",""
"","","","","","html-keyboard-response","105","355386","0.0-105.0","E358623956CB40FBBCD4266DB111D775","019cf984-eaad-77b9-b850-6c4229b7dc80","019cf974-7aee-7bc9-8ea4-9f55741b365d","","null","
                <div class=""stimulus-container"">
                    <img src=""images/causal_sequence/museum_causal/museum_causal_1.png"" class=""exp-image"">
                    <div class=""question-area""></div> 
                </div>","null","","","","","","","","","",""
"","","","","","html-button-response","106","356116","0.0-106.0","E358623956CB40FBBCD4266DB111D775","019cf984-eaad-77b9-b850-6c4229b7dc80","019cf974-7aee-7bc9-8ea4-9f55741b365d","","729","
                <div class=""stimulus-container"">
                    <img src=""images/causal_sequence/museum_causal/museum_causal_1.png"" class=""exp-image"">
                    <div class=""question-area"">
                        <p style=""font-size: 20px; font-weight: bold; margin: 0;"">Is there a person in this image?</p>
                    </div>
                </div>","0","main_experiment_trial","1","museum_causal","causal_sequence","randomized","","","","",""
"","","","","","html-keyboard-response","107","357128","0.0-107.0","E358623956CB40FBBCD4266DB111D775","019cf984-eaad-77b9-b850-6c4229b7dc80","019cf974-7aee-7bc9-8ea4-9f55741b365d","","null","
                <div class=""stimulus-container"">
                    <img src=""images/causal_sequence/museum_causal/museum_causal_4.png"" class=""exp-image"">
                    <div class=""question-area""></div> 
                </div>","null","","","","","","","","","",""
"","","","","","html-button-response","108","357560","0.0-108.0","E358623956CB40FBBCD4266DB111D775","019cf984-eaad-77b9-b850-6c4229b7dc80","019cf974-7aee-7bc9-8ea4-9f55741b365d","","430","
                <div class=""stimulus-container"">
                    <img src=""images/causal_sequence/museum_causal/museum_causal_4.png"" class=""exp-image"">
                    <div class=""question-area"">
                        <p style=""font-size: 20px; font-weight: bold; margin: 0;"">Is there a person in this image?</p>
                    </div>
                </div>","1","main_experiment_trial","4","museum_causal","causal_sequence","randomized","","","","",""
"","","","","","html-keyboard-response","109","358573","0.0-109.0","E358623956CB40FBBCD4266DB111D775","019cf984-eaad-77b9-b850-6c4229b7dc80","019cf974-7aee-7bc9-8ea4-9f55741b365d","","null","
                <div class=""stimulus-container"">
                    <img src=""images/causal_sequence/museum_causal/museum_causal_3.png"" class=""exp-image"">
                    <div class=""question-area""></div> 
                </div>","null","","","","","","","","","",""
"","","","","","html-button-response","110","359097","0.0-110.0","E358623956CB40FBBCD4266DB111D775","019cf984-eaad-77b9-b850-6c4229b7dc80","019cf974-7aee-7bc9-8ea4-9f55741b365d","","523","
                <div class=""stimulus-container"">
                    <img src=""images/causal_sequence/museum_causal/museum_causal_3.png"" class=""exp-image"">
                    <div class=""question-area"">
                        <p style=""font-size: 20px; font-weight: bold; margin: 0;"">Is there a person in this image?</p>
                    </div>
                </div>","0","main_experiment_trial","3","museum_causal","causal_sequence","randomized","","","","",""
"","","","","","html-keyboard-response","111","360111","0.0-111.0","E358623956CB40FBBCD4266DB111D775","019cf984-eaad-77b9-b850-6c4229b7dc80","019cf974-7aee-7bc9-8ea4-9f55741b365d","","null","
                <div class=""stimulus-container"">
                    <img src=""images/causal_sequence/museum_causal/museum_causal_ten.png"" class=""exp-image"">
                    <div class=""question-area""></div> 
                </div>","null","","","","","","","","","",""
"","","","","","html-button-response","112","360434","0.0-112.0","E358623956CB40FBBCD4266DB111D775","019cf984-eaad-77b9-b850-6c4229b7dc80","019cf974-7aee-7bc9-8ea4-9f55741b365d","","321","
                <div class=""stimulus-container"">
                    <img src=""images/causal_sequence/museum_causal/museum_causal_ten.png"" class=""exp-image"">
                    <div class=""question-area"">
                        <p style=""font-size: 20px; font-weight: bold; margin: 0;"">Is there a person in this image?</p>
                    </div>
                </div>","0","main_experiment_trial","ten","museum_causal","causal_sequence","randomized","","","","",""
"","","","","","html-keyboard-response","113","361440","0.0-113.0","E358623956CB40FBBCD4266DB111D775","019cf984-eaad-77b9-b850-6c4229b7dc80","019cf974-7aee-7bc9-8ea4-9f55741b365d","","null","
                <div class=""stimulus-container"">
                    <img src=""images/causal_sequence/museum_causal/museum_causal_9.png"" class=""exp-image"">
                    <div class=""question-area""></div> 
                </div>","null","","","","","","","","","",""
"","","","","","html-button-response","114","361900","0.0-114.0","E358623956CB40FBBCD4266DB111D775","019cf984-eaad-77b9-b850-6c4229b7dc80","019cf974-7aee-7bc9-8ea4-9f55741b365d","","458","
                <div class=""stimulus-container"">
                    <img src=""images/causal_sequence/museum_causal/museum_causal_9.png"" class=""exp-image"">
                    <div class=""question-area"">
                        <p style=""font-size: 20px; font-weight: bold; margin: 0;"">Is there a person in this image?</p>
                    </div>
                </div>","1","main_experiment_trial","9","museum_causal","causal_sequence","randomized","","","","",""
"","","","","","html-keyboard-response","115","362909","0.0-115.0","E358623956CB40FBBCD4266DB111D775","019cf984-eaad-77b9-b850-6c4229b7dc80","019cf974-7aee-7bc9-8ea4-9f55741b365d","","null","
                <div class=""stimulus-container"">
                    <img src=""images/causal_sequence/museum_causal/museum_causal_7.png"" class=""exp-image"">
                    <div class=""question-area""></div> 
                </div>","null","","","","","","","","","",""
"","","","","","html-button-response","116","363294","0.0-116.0","E358623956CB40FBBCD4266DB111D775","019cf984-eaad-77b9-b850-6c4229b7dc80","019cf974-7aee-7bc9-8ea4-9f55741b365d","","383","
                <div class=""stimulus-container"">
                    <img src=""images/causal_sequence/museum_causal/museum_causal_7.png"" class=""exp-image"">
                    <div class=""question-area"">
                        <p style=""font-size: 20px; font-weight: bold; margin: 0;"">Is there a person in this image?</p>
                    </div>
                </div>","1","main_experiment_trial","7","museum_causal","causal_sequence","randomized","","","","",""
"","","","","","html-keyboard-response","117","364306","0.0-117.0","E358623956CB40FBBCD4266DB111D775","019cf984-eaad-77b9-b850-6c4229b7dc80","019cf974-7aee-7bc9-8ea4-9f55741b365d","","null","
                <div class=""stimulus-container"">
                    <img src=""images/causal_sequence/museum_causal/museum_causal_6.png"" class=""exp-image"">
                    <div class=""question-area""></div> 
                </div>","null","","","","","","","","","",""
"","","","","","html-button-response","118","364687","0.0-118.0","E358623956CB40FBBCD4266DB111D775","019cf984-eaad-77b9-b850-6c4229b7dc80","019cf974-7aee-7bc9-8ea4-9f55741b365d","","380","
                <div class=""stimulus-container"">
                    <img src=""images/causal_sequence/museum_causal/museum_causal_6.png"" class=""exp-image"">
                    <div class=""question-area"">
                        <p style=""font-size: 20px; font-weight: bold; margin: 0;"">Is there a person in this image?</p>
                    </div>
                </div>","0","main_experiment_trial","6","museum_causal","causal_sequence","randomized","","","","",""
"","","","","","html-keyboard-response","119","365701","0.0-119.0","E358623956CB40FBBCD4266DB111D775","019cf984-eaad-77b9-b850-6c4229b7dc80","019cf974-7aee-7bc9-8ea4-9f55741b365d","","null","
                <div class=""stimulus-container"">
                    <img src=""images/causal_sequence/museum_causal/museum_causal_2.png"" class=""exp-image"">
                    <div class=""question-area""></div> 
                </div>","null","","","","","","","","","",""
"","","","","","html-button-response","120","366617","0.0-120.0","E358623956CB40FBBCD4266DB111D775","019cf984-eaad-77b9-b850-6c4229b7dc80","019cf974-7aee-7bc9-8ea4-9f55741b365d","","914","
                <div class=""stimulus-container"">
                    <img src=""images/causal_sequence/museum_causal/museum_causal_2.png"" class=""exp-image"">
                    <div class=""question-area"">
                        <p style=""font-size: 20px; font-weight: bold; margin: 0;"">Is there a person in this image?</p>
                    </div>
                </div>","0","main_experiment_trial","2","museum_causal","causal_sequence","randomized","","","","",""
"","","","","","html-keyboard-response","121","371629","0.0-121.0","E358623956CB40FBBCD4266DB111D775","019cf984-eaad-77b9-b850-6c4229b7dc80","019cf974-7aee-7bc9-8ea4-9f55741b365d","","null","<div style=""background-color: white; width: 100vw; height: 100vh;""></div>","null","","","","","","","","","",""
"","","","","","html-keyboard-response","122","372635","0.0-122.0","E358623956CB40FBBCD4266DB111D775","019cf984-eaad-77b9-b850-6c4229b7dc80","019cf974-7aee-7bc9-8ea4-9f55741b365d","","null","
                <div class=""stimulus-container"">
                    <img src=""images/causal_sequence/saving_a_cat_causal/saving_a_cat_causal_6.png"" class=""exp-image"">
                    <div class=""question-area""></div> 
                </div>","null","","","","","","","","","",""
"","","","","","html-button-response","123","373704","0.0-123.0","E358623956CB40FBBCD4266DB111D775","019cf984-eaad-77b9-b850-6c4229b7dc80","019cf974-7aee-7bc9-8ea4-9f55741b365d","","1067","
                <div class=""stimulus-container"">
                    <img src=""images/causal_sequence/saving_a_cat_causal/saving_a_cat_causal_6.png"" class=""exp-image"">
                    <div class=""question-area"">
                        <p style=""font-size: 20px; font-weight: bold; margin: 0;"">Is there a person in this image?</p>
                    </div>
                </div>","0","main_experiment_trial","6","saving_a_cat_causal","causal_sequence","randomized","","","","",""
"","","","","","html-keyboard-response","124","374718","0.0-124.0","E358623956CB40FBBCD4266DB111D775","019cf984-eaad-77b9-b850-6c4229b7dc80","019cf974-7aee-7bc9-8ea4-9f55741b365d","","null","
                <div class=""stimulus-container"">
                    <img src=""images/causal_sequence/saving_a_cat_causal/saving_a_cat_causal_9.png"" class=""exp-image"">
                    <div class=""question-area""></div> 
                </div>","null","","","","","","","","","",""
"","","","","","html-button-response","125","375333","0.0-125.0","E358623956CB40FBBCD4266DB111D775","019cf984-eaad-77b9-b850-6c4229b7dc80","019cf974-7aee-7bc9-8ea4-9f55741b365d","","612","
                <div class=""stimulus-container"">
                    <img src=""images/causal_sequence/saving_a_cat_causal/saving_a_cat_causal_9.png"" class=""exp-image"">
                    <div class=""question-area"">
                        <p style=""font-size: 20px; font-weight: bold; margin: 0;"">Is there a person in this image?</p>
                    </div>
                </div>","0","main_experiment_trial","9","saving_a_cat_causal","causal_sequence","randomized","","","","",""
"","","","","","html-keyboard-response","126","376341","0.0-126.0","E358623956CB40FBBCD4266DB111D775","019cf984-eaad-77b9-b850-6c4229b7dc80","019cf974-7aee-7bc9-8ea4-9f55741b365d","","null","
                <div class=""stimulus-container"">
                    <img src=""images/causal_sequence/saving_a_cat_causal/saving_a_cat_causal_4.png"" class=""exp-image"">
                    <div class=""question-area""></div> 
                </div>","null","","","","","","","","","",""
"","","","","","html-button-response","127","377239","0.0-127.0","E358623956CB40FBBCD4266DB111D775","019cf984-eaad-77b9-b850-6c4229b7dc80","019cf974-7aee-7bc9-8ea4-9f55741b365d","","895","
                <div class=""stimulus-container"">
                    <img src=""images/causal_sequence/saving_a_cat_causal/saving_a_cat_causal_4.png"" class=""exp-image"">
                    <div class=""question-area"">
                        <p style=""font-size: 20px; font-weight: bold; margin: 0;"">Is there a person in this image?</p>
                    </div>
                </div>","0","main_experiment_trial","4","saving_a_cat_causal","causal_sequence","randomized","","","","",""
"","","","","","html-keyboard-response","128","378244","0.0-128.0","E358623956CB40FBBCD4266DB111D775","019cf984-eaad-77b9-b850-6c4229b7dc80","019cf974-7aee-7bc9-8ea4-9f55741b365d","","null","
                <div class=""stimulus-container"">
                    <img src=""images/causal_sequence/saving_a_cat_causal/saving_a_cat_causal_3.png"" class=""exp-image"">
                    <div class=""question-area""></div> 
                </div>","null","","","","","","","","","",""
"","","","","","html-button-response","129","380651","0.0-129.0","E358623956CB40FBBCD4266DB111D775","019cf984-eaad-77b9-b850-6c4229b7dc80","019cf974-7aee-7bc9-8ea4-9f55741b365d","","2404","
                <div class=""stimulus-container"">
                    <img src=""images/causal_sequence/saving_a_cat_causal/saving_a_cat_causal_3.png"" class=""exp-image"">
                    <div class=""question-area"">
                        <p style=""font-size: 20px; font-weight: bold; margin: 0;"">Is there a person in this image?</p>
                    </div>
                </div>","1","main_experiment_trial","3","saving_a_cat_causal","causal_sequence","randomized","","","","",""
"","","","","","html-keyboard-response","130","381668","0.0-130.0","E358623956CB40FBBCD4266DB111D775","019cf984-eaad-77b9-b850-6c4229b7dc80","019cf974-7aee-7bc9-8ea4-9f55741b365d","","null","
                <div class=""stimulus-container"">
                    <img src=""images/causal_sequence/saving_a_cat_causal/saving_a_cat_causal_5.png"" class=""exp-image"">
                    <div class=""question-area""></div> 
                </div>","null","","","","","","","","","",""
"","","","","","html-button-response","131","384042","0.0-131.0","E358623956CB40FBBCD4266DB111D775","019cf984-eaad-77b9-b850-6c4229b7dc80","019cf974-7aee-7bc9-8ea4-9f55741b365d","","2372","
                <div class=""stimulus-container"">
                    <img src=""images/causal_sequence/saving_a_cat_causal/saving_a_cat_causal_5.png"" class=""exp-image"">
                    <div class=""question-area"">
                        <p style=""font-size: 20px; font-weight: bold; margin: 0;"">Is there a person in this image?</p>
                    </div>
                </div>","0","main_experiment_trial","5","saving_a_cat_causal","causal_sequence","randomized","","","","",""
"","","","","","html-keyboard-response","132","385056","0.0-132.0","E358623956CB40FBBCD4266DB111D775","019cf984-eaad-77b9-b850-6c4229b7dc80","019cf974-7aee-7bc9-8ea4-9f55741b365d","","null","
                <div class=""stimulus-container"">
                    <img src=""images/causal_sequence/saving_a_cat_causal/saving_a_cat_causal_7.png"" class=""exp-image"">
                    <div class=""question-area""></div> 
                </div>","null","","","","","","","","","",""
"","","","","","html-button-response","133","385552","0.0-133.0","E358623956CB40FBBCD4266DB111D775","019cf984-eaad-77b9-b850-6c4229b7dc80","019cf974-7aee-7bc9-8ea4-9f55741b365d","","495","
                <div class=""stimulus-container"">
                    <img src=""images/causal_sequence/saving_a_cat_causal/saving_a_cat_causal_7.png"" class=""exp-image"">
                    <div class=""question-area"">
                        <p style=""font-size: 20px; font-weight: bold; margin: 0;"">Is there a person in this image?</p>
                    </div>
                </div>","0","main_experiment_trial","7","saving_a_cat_causal","causal_sequence","randomized","","","","",""
"","","","","","html-keyboard-response","134","386562","0.0-134.0","E358623956CB40FBBCD4266DB111D775","019cf984-eaad-77b9-b850-6c4229b7dc80","019cf974-7aee-7bc9-8ea4-9f55741b365d","","null","
                <div class=""stimulus-container"">
                    <img src=""images/causal_sequence/saving_a_cat_causal/saving_a_cat_causal_8.png"" class=""exp-image"">
                    <div class=""question-area""></div> 
                </div>","null","","","","","","","","","",""
"","","","","","html-button-response","135","387053","0.0-135.0","E358623956CB40FBBCD4266DB111D775","019cf984-eaad-77b9-b850-6c4229b7dc80","019cf974-7aee-7bc9-8ea4-9f55741b365d","","490","
                <div class=""stimulus-container"">
                    <img src=""images/causal_sequence/saving_a_cat_causal/saving_a_cat_causal_8.png"" class=""exp-image"">
                    <div class=""question-area"">
                        <p style=""font-size: 20px; font-weight: bold; margin: 0;"">Is there a person in this image?</p>
                    </div>
                </div>","0","main_experiment_trial","8","saving_a_cat_causal","causal_sequence","randomized","","","","",""
"","","","","","html-keyboard-response","136","388062","0.0-136.0","E358623956CB40FBBCD4266DB111D775","019cf984-eaad-77b9-b850-6c4229b7dc80","019cf974-7aee-7bc9-8ea4-9f55741b365d","","null","
                <div class=""stimulus-container"">
                    <img src=""images/causal_sequence/saving_a_cat_causal/saving_a_cat_causal_2.png"" class=""exp-image"">
                    <div class=""question-area""></div> 
                </div>","null","","","","","","","","","",""
"","","","","","html-button-response","137","388904","0.0-137.0","E358623956CB40FBBCD4266DB111D775","019cf984-eaad-77b9-b850-6c4229b7dc80","019cf974-7aee-7bc9-8ea4-9f55741b365d","","838","
                <div class=""stimulus-container"">
                    <img src=""images/causal_sequence/saving_a_cat_causal/saving_a_cat_causal_2.png"" class=""exp-image"">
                    <div class=""question-area"">
                        <p style=""font-size: 20px; font-weight: bold; margin: 0;"">Is there a person in this image?</p>
                    </div>
                </div>","1","main_experiment_trial","2","saving_a_cat_causal","causal_sequence","randomized","","","","",""
"","","","","","html-keyboard-response","138","389919","0.0-138.0","E358623956CB40FBBCD4266DB111D775","019cf984-eaad-77b9-b850-6c4229b7dc80","019cf974-7aee-7bc9-8ea4-9f55741b365d","","null","
                <div class=""stimulus-container"">
                    <img src=""images/causal_sequence/saving_a_cat_causal/saving_a_cat_causal_1.png"" class=""exp-image"">
                    <div class=""question-area""></div> 
                </div>","null","","","","","","","","","",""
"","","","","","html-button-response","139","390610","0.0-139.0","E358623956CB40FBBCD4266DB111D775","019cf984-eaad-77b9-b850-6c4229b7dc80","019cf974-7aee-7bc9-8ea4-9f55741b365d","","689","
                <div class=""stimulus-container"">
                    <img src=""images/causal_sequence/saving_a_cat_causal/saving_a_cat_causal_1.png"" class=""exp-image"">
                    <div class=""question-area"">
                        <p style=""font-size: 20px; font-weight: bold; margin: 0;"">Is there a person in this image?</p>
                    </div>
                </div>","0","main_experiment_trial","1","saving_a_cat_causal","causal_sequence","randomized","","","","",""
"","","","","","html-keyboard-response","140","391617","0.0-140.0","E358623956CB40FBBCD4266DB111D775","019cf984-eaad-77b9-b850-6c4229b7dc80","019cf974-7aee-7bc9-8ea4-9f55741b365d","","null","
                <div class=""stimulus-container"">
                    <img src=""images/causal_sequence/saving_a_cat_causal/saving_a_cat_causal_ten.png"" class=""exp-image"">
                    <div class=""question-area""></div> 
                </div>","null","","","","","","","","","",""
"","","","","","html-button-response","141","392172","0.0-141.0","E358623956CB40FBBCD4266DB111D775","019cf984-eaad-77b9-b850-6c4229b7dc80","019cf974-7aee-7bc9-8ea4-9f55741b365d","","554","
                <div class=""stimulus-container"">
                    <img src=""images/causal_sequence/saving_a_cat_causal/saving_a_cat_causal_ten.png"" class=""exp-image"">
                    <div class=""question-area"">
                        <p style=""font-size: 20px; font-weight: bold; margin: 0;"">Is there a person in this image?</p>
                    </div>
                </div>","0","main_experiment_trial","ten","saving_a_cat_causal","causal_sequence","randomized","","","","",""
"","","","","","html-keyboard-response","142","397176","0.0-142.0","E358623956CB40FBBCD4266DB111D775","019cf984-eaad-77b9-b850-6c4229b7dc80","019cf974-7aee-7bc9-8ea4-9f55741b365d","","null","<div style=""background-color: white; width: 100vw; height: 100vh;""></div>","null","","","","","","","","","",""
"","","","","","html-keyboard-response","143","398191","0.0-143.0","E358623956CB40FBBCD4266DB111D775","019cf984-eaad-77b9-b850-6c4229b7dc80","019cf974-7aee-7bc9-8ea4-9f55741b365d","","null","
                <div class=""stimulus-container"">
                    <img src=""images/semantic_sequence/physical_activity_semantic/physical_activity_semantic_6.png"" class=""exp-image"">
                    <div class=""question-area""></div> 
                </div>","null","","","","","","","","","",""
"","","","","","html-button-response","144","398887","0.0-144.0","E358623956CB40FBBCD4266DB111D775","019cf984-eaad-77b9-b850-6c4229b7dc80","019cf974-7aee-7bc9-8ea4-9f55741b365d","","694","
                <div class=""stimulus-container"">
                    <img src=""images/semantic_sequence/physical_activity_semantic/physical_activity_semantic_6.png"" class=""exp-image"">
                    <div class=""question-area"">
                        <p style=""font-size: 20px; font-weight: bold; margin: 0;"">Is there a person in this image?</p>
                    </div>
                </div>","0","main_experiment_trial","6","physical_activity_semantic","semantic_sequence","randomized","","","","",""
"","","","","","html-keyboard-response","145","399893","0.0-145.0","E358623956CB40FBBCD4266DB111D775","019cf984-eaad-77b9-b850-6c4229b7dc80","019cf974-7aee-7bc9-8ea4-9f55741b365d","","null","
                <div class=""stimulus-container"">
                    <img src=""images/semantic_sequence/physical_activity_semantic/physical_activity_semantic_5.png"" class=""exp-image"">
                    <div class=""question-area""></div> 
                </div>","null","","","","","","","","","",""
"","","","","","html-button-response","146","400565","0.0-146.0","E358623956CB40FBBCD4266DB111D775","019cf984-eaad-77b9-b850-6c4229b7dc80","019cf974-7aee-7bc9-8ea4-9f55741b365d","","668","
                <div class=""stimulus-container"">
                    <img src=""images/semantic_sequence/physical_activity_semantic/physical_activity_semantic_5.png"" class=""exp-image"">
                    <div class=""question-area"">
                        <p style=""font-size: 20px; font-weight: bold; margin: 0;"">Is there a person in this image?</p>
                    </div>
                </div>","0","main_experiment_trial","5","physical_activity_semantic","semantic_sequence","randomized","","","","",""
"","","","","","html-keyboard-response","147","401573","0.0-147.0","E358623956CB40FBBCD4266DB111D775","019cf984-eaad-77b9-b850-6c4229b7dc80","019cf974-7aee-7bc9-8ea4-9f55741b365d","","null","
                <div class=""stimulus-container"">
                    <img src=""images/semantic_sequence/physical_activity_semantic/physical_activity_semantic_1.png"" class=""exp-image"">
                    <div class=""question-area""></div> 
                </div>","null","","","","","","","","","",""
"","","","","","html-button-response","148","402404","0.0-148.0","E358623956CB40FBBCD4266DB111D775","019cf984-eaad-77b9-b850-6c4229b7dc80","019cf974-7aee-7bc9-8ea4-9f55741b365d","","827","
                <div class=""stimulus-container"">
                    <img src=""images/semantic_sequence/physical_activity_semantic/physical_activity_semantic_1.png"" class=""exp-image"">
                    <div class=""question-area"">
                        <p style=""font-size: 20px; font-weight: bold; margin: 0;"">Is there a person in this image?</p>
                    </div>
                </div>","0","main_experiment_trial","1","physical_activity_semantic","semantic_sequence","randomized","","","","",""
"","","","","","html-keyboard-response","149","403409","0.0-149.0","E358623956CB40FBBCD4266DB111D775","019cf984-eaad-77b9-b850-6c4229b7dc80","019cf974-7aee-7bc9-8ea4-9f55741b365d","","null","
                <div class=""stimulus-container"">
                    <img src=""images/semantic_sequence/physical_activity_semantic/physical_activity_semantic_7.png"" class=""exp-image"">
                    <div class=""question-area""></div> 
                </div>","null","","","","","","","","","",""
"","","","","","html-button-response","150","403825","0.0-150.0","E358623956CB40FBBCD4266DB111D775","019cf984-eaad-77b9-b850-6c4229b7dc80","019cf974-7aee-7bc9-8ea4-9f55741b365d","","414","
                <div class=""stimulus-container"">
                    <img src=""images/semantic_sequence/physical_activity_semantic/physical_activity_semantic_7.png"" class=""exp-image"">
                    <div class=""question-area"">
                        <p style=""font-size: 20px; font-weight: bold; margin: 0;"">Is there a person in this image?</p>
                    </div>
                </div>","0","main_experiment_trial","7","physical_activity_semantic","semantic_sequence","randomized","","","","",""
"","","","","","html-keyboard-response","151","404841","0.0-151.0","E358623956CB40FBBCD4266DB111D775","019cf984-eaad-77b9-b850-6c4229b7dc80","019cf974-7aee-7bc9-8ea4-9f55741b365d","","null","
                <div class=""stimulus-container"">
                    <img src=""images/semantic_sequence/physical_activity_semantic/physical_activity_semantic_2.png"" class=""exp-image"">
                    <div class=""question-area""></div> 
                </div>","null","","","","","","","","","",""
"","","","","","html-button-response","152","405291","0.0-152.0","E358623956CB40FBBCD4266DB111D775","019cf984-eaad-77b9-b850-6c4229b7dc80","019cf974-7aee-7bc9-8ea4-9f55741b365d","","449","
                <div class=""stimulus-container"">
                    <img src=""images/semantic_sequence/physical_activity_semantic/physical_activity_semantic_2.png"" class=""exp-image"">
                    <div class=""question-area"">
                        <p style=""font-size: 20px; font-weight: bold; margin: 0;"">Is there a person in this image?</p>
                    </div>
                </div>","0","main_experiment_trial","2","physical_activity_semantic","semantic_sequence","randomized","","","","",""
"","","","","","html-keyboard-response","153","406296","0.0-153.0","E358623956CB40FBBCD4266DB111D775","019cf984-eaad-77b9-b850-6c4229b7dc80","019cf974-7aee-7bc9-8ea4-9f55741b365d","","null","
                <div class=""stimulus-container"">
                    <img src=""images/semantic_sequence/physical_activity_semantic/physical_activity_semantic_ten.png"" class=""exp-image"">
                    <div class=""question-area""></div> 
                </div>","null","","","","","","","","","",""
"","","","","","html-button-response","154","406784","0.0-154.0","E358623956CB40FBBCD4266DB111D775","019cf984-eaad-77b9-b850-6c4229b7dc80","019cf974-7aee-7bc9-8ea4-9f55741b365d","","487","
                <div class=""stimulus-container"">
                    <img src=""images/semantic_sequence/physical_activity_semantic/physical_activity_semantic_ten.png"" class=""exp-image"">
                    <div class=""question-area"">
                        <p style=""font-size: 20px; font-weight: bold; margin: 0;"">Is there a person in this image?</p>
                    </div>
                </div>","0","main_experiment_trial","ten","physical_activity_semantic","semantic_sequence","randomized","","","","",""
"","","","","","html-keyboard-response","155","407800","0.0-155.0","E358623956CB40FBBCD4266DB111D775","019cf984-eaad-77b9-b850-6c4229b7dc80","019cf974-7aee-7bc9-8ea4-9f55741b365d","","null","
                <div class=""stimulus-container"">
                    <img src=""images/semantic_sequence/physical_activity_semantic/physical_activity_semantic_9.png"" class=""exp-image"">
                    <div class=""question-area""></div> 
                </div>","null","","","","","","","","","",""
"","","","","","html-button-response","156","408268","0.0-156.0","E358623956CB40FBBCD4266DB111D775","019cf984-eaad-77b9-b850-6c4229b7dc80","019cf974-7aee-7bc9-8ea4-9f55741b365d","","467","
                <div class=""stimulus-container"">
                    <img src=""images/semantic_sequence/physical_activity_semantic/physical_activity_semantic_9.png"" class=""exp-image"">
                    <div class=""question-area"">
                        <p style=""font-size: 20px; font-weight: bold; margin: 0;"">Is there a person in this image?</p>
                    </div>
                </div>","0","main_experiment_trial","9","physical_activity_semantic","semantic_sequence","randomized","","","","",""
"","","","","","html-keyboard-response","157","409272","0.0-157.0","E358623956CB40FBBCD4266DB111D775","019cf984-eaad-77b9-b850-6c4229b7dc80","019cf974-7aee-7bc9-8ea4-9f55741b365d","","null","
                <div class=""stimulus-container"">
                    <img src=""images/semantic_sequence/physical_activity_semantic/physical_activity_semantic_4.png"" class=""exp-image"">
                    <div class=""question-area""></div> 
                </div>","null","","","","","","","","","",""
"","","","","","html-button-response","158","409728","0.0-158.0","E358623956CB40FBBCD4266DB111D775","019cf984-eaad-77b9-b850-6c4229b7dc80","019cf974-7aee-7bc9-8ea4-9f55741b365d","","455","
                <div class=""stimulus-container"">
                    <img src=""images/semantic_sequence/physical_activity_semantic/physical_activity_semantic_4.png"" class=""exp-image"">
                    <div class=""question-area"">
                        <p style=""font-size: 20px; font-weight: bold; margin: 0;"">Is there a person in this image?</p>
                    </div>
                </div>","0","main_experiment_trial","4","physical_activity_semantic","semantic_sequence","randomized","","","","",""
"","","","","","html-keyboard-response","159","410730","0.0-159.0","E358623956CB40FBBCD4266DB111D775","019cf984-eaad-77b9-b850-6c4229b7dc80","019cf974-7aee-7bc9-8ea4-9f55741b365d","","null","
                <div class=""stimulus-container"">
                    <img src=""images/semantic_sequence/physical_activity_semantic/physical_activity_semantic_8.png"" class=""exp-image"">
                    <div class=""question-area""></div> 
                </div>","null","","","","","","","","","",""
"","","","","","html-button-response","160","411264","0.0-160.0","E358623956CB40FBBCD4266DB111D775","019cf984-eaad-77b9-b850-6c4229b7dc80","019cf974-7aee-7bc9-8ea4-9f55741b365d","","533","
                <div class=""stimulus-container"">
                    <img src=""images/semantic_sequence/physical_activity_semantic/physical_activity_semantic_8.png"" class=""exp-image"">
                    <div class=""question-area"">
                        <p style=""font-size: 20px; font-weight: bold; margin: 0;"">Is there a person in this image?</p>
                    </div>
                </div>","0","main_experiment_trial","8","physical_activity_semantic","semantic_sequence","randomized","","","","",""
"","","","","","html-keyboard-response","161","412270","0.0-161.0","E358623956CB40FBBCD4266DB111D775","019cf984-eaad-77b9-b850-6c4229b7dc80","019cf974-7aee-7bc9-8ea4-9f55741b365d","","null","
                <div class=""stimulus-container"">
                    <img src=""images/semantic_sequence/physical_activity_semantic/physical_activity_semantic_3.png"" class=""exp-image"">
                    <div class=""question-area""></div> 
                </div>","null","","","","","","","","","",""
"","","","","","html-button-response","162","412686","0.0-162.0","E358623956CB40FBBCD4266DB111D775","019cf984-eaad-77b9-b850-6c4229b7dc80","019cf974-7aee-7bc9-8ea4-9f55741b365d","","415","
                <div class=""stimulus-container"">
                    <img src=""images/semantic_sequence/physical_activity_semantic/physical_activity_semantic_3.png"" class=""exp-image"">
                    <div class=""question-area"">
                        <p style=""font-size: 20px; font-weight: bold; margin: 0;"">Is there a person in this image?</p>
                    </div>
                </div>","0","main_experiment_trial","3","physical_activity_semantic","semantic_sequence","randomized","","","","",""
"","","","","","html-keyboard-response","163","417691","0.0-163.0","E358623956CB40FBBCD4266DB111D775","019cf984-eaad-77b9-b850-6c4229b7dc80","019cf974-7aee-7bc9-8ea4-9f55741b365d","","null","<div style=""background-color: white; width: 100vw; height: 100vh;""></div>","null","","","","","","","","","",""
"","","","","","html-keyboard-response","164","418698","0.0-164.0","E358623956CB40FBBCD4266DB111D775","019cf984-eaad-77b9-b850-6c4229b7dc80","019cf974-7aee-7bc9-8ea4-9f55741b365d","","null","
                <div class=""stimulus-container"">
                    <img src=""images/semantic_sequence/housework_semantic/housework_semantic_4.png"" class=""exp-image"">
                    <div class=""question-area""></div> 
                </div>","null","","","","","","","","","",""
"","","","","","html-button-response","165","420274","0.0-165.0","E358623956CB40FBBCD4266DB111D775","019cf984-eaad-77b9-b850-6c4229b7dc80","019cf974-7aee-7bc9-8ea4-9f55741b365d","","1574","
                <div class=""stimulus-container"">
                    <img src=""images/semantic_sequence/housework_semantic/housework_semantic_4.png"" class=""exp-image"">
                    <div class=""question-area"">
                        <p style=""font-size: 20px; font-weight: bold; margin: 0;"">Is there a person in this image?</p>
                    </div>
                </div>","0","main_experiment_trial","4","housework_semantic","semantic_sequence","randomized","","","","",""
"","","","","","html-keyboard-response","166","421291","0.0-166.0","E358623956CB40FBBCD4266DB111D775","019cf984-eaad-77b9-b850-6c4229b7dc80","019cf974-7aee-7bc9-8ea4-9f55741b365d","","null","
                <div class=""stimulus-container"">
                    <img src=""images/semantic_sequence/housework_semantic/housework_semantic_2.png"" class=""exp-image"">
                    <div class=""question-area""></div> 
                </div>","null","","","","","","","","","",""
"","","","","","html-button-response","167","422084","0.0-167.0","E358623956CB40FBBCD4266DB111D775","019cf984-eaad-77b9-b850-6c4229b7dc80","019cf974-7aee-7bc9-8ea4-9f55741b365d","","792","
                <div class=""stimulus-container"">
                    <img src=""images/semantic_sequence/housework_semantic/housework_semantic_2.png"" class=""exp-image"">
                    <div class=""question-area"">
                        <p style=""font-size: 20px; font-weight: bold; margin: 0;"">Is there a person in this image?</p>
                    </div>
                </div>","0","main_experiment_trial","2","housework_semantic","semantic_sequence","randomized","","","","",""
"","","","","","html-keyboard-response","168","423096","0.0-168.0","E358623956CB40FBBCD4266DB111D775","019cf984-eaad-77b9-b850-6c4229b7dc80","019cf974-7aee-7bc9-8ea4-9f55741b365d","","null","
                <div class=""stimulus-container"">
                    <img src=""images/semantic_sequence/housework_semantic/housework_semantic_9.png"" class=""exp-image"">
                    <div class=""question-area""></div> 
                </div>","null","","","","","","","","","",""
"","","","","","html-button-response","169","425007","0.0-169.0","E358623956CB40FBBCD4266DB111D775","019cf984-eaad-77b9-b850-6c4229b7dc80","019cf974-7aee-7bc9-8ea4-9f55741b365d","","1909","
                <div class=""stimulus-container"">
                    <img src=""images/semantic_sequence/housework_semantic/housework_semantic_9.png"" class=""exp-image"">
                    <div class=""question-area"">
                        <p style=""font-size: 20px; font-weight: bold; margin: 0;"">Is there a person in this image?</p>
                    </div>
                </div>","0","main_experiment_trial","9","housework_semantic","semantic_sequence","randomized","","","","",""
"","","","","","html-keyboard-response","170","426009","0.0-170.0","E358623956CB40FBBCD4266DB111D775","019cf984-eaad-77b9-b850-6c4229b7dc80","019cf974-7aee-7bc9-8ea4-9f55741b365d","","null","
                <div class=""stimulus-container"">
                    <img src=""images/semantic_sequence/housework_semantic/housework_semantic_6.png"" class=""exp-image"">
                    <div class=""question-area""></div> 
                </div>","null","","","","","","","","","",""
"","","","","","html-button-response","171","426469","0.0-171.0","E358623956CB40FBBCD4266DB111D775","019cf984-eaad-77b9-b850-6c4229b7dc80","019cf974-7aee-7bc9-8ea4-9f55741b365d","","459","
                <div class=""stimulus-container"">
                    <img src=""images/semantic_sequence/housework_semantic/housework_semantic_6.png"" class=""exp-image"">
                    <div class=""question-area"">
                        <p style=""font-size: 20px; font-weight: bold; margin: 0;"">Is there a person in this image?</p>
                    </div>
                </div>","0","main_experiment_trial","6","housework_semantic","semantic_sequence","randomized","","","","",""
"","","","","","html-keyboard-response","172","427478","0.0-172.0","E358623956CB40FBBCD4266DB111D775","019cf984-eaad-77b9-b850-6c4229b7dc80","019cf974-7aee-7bc9-8ea4-9f55741b365d","","null","
                <div class=""stimulus-container"">
                    <img src=""images/semantic_sequence/housework_semantic/housework_semantic_3.png"" class=""exp-image"">
                    <div class=""question-area""></div> 
                </div>","null","","","","","","","","","",""
"","","","","","html-button-response","173","427958","0.0-173.0","E358623956CB40FBBCD4266DB111D775","019cf984-eaad-77b9-b850-6c4229b7dc80","019cf974-7aee-7bc9-8ea4-9f55741b365d","","479","
                <div class=""stimulus-container"">
                    <img src=""images/semantic_sequence/housework_semantic/housework_semantic_3.png"" class=""exp-image"">
                    <div class=""question-area"">
                        <p style=""font-size: 20px; font-weight: bold; margin: 0;"">Is there a person in this image?</p>
                    </div>
                </div>","0","main_experiment_trial","3","housework_semantic","semantic_sequence","randomized","","","","",""
"","","","","","html-keyboard-response","174","428961","0.0-174.0","E358623956CB40FBBCD4266DB111D775","019cf984-eaad-77b9-b850-6c4229b7dc80","019cf974-7aee-7bc9-8ea4-9f55741b365d","","null","
                <div class=""stimulus-container"">
                    <img src=""images/semantic_sequence/housework_semantic/housework_semantic_8.png"" class=""exp-image"">
                    <div class=""question-area""></div> 
                </div>","null","","","","","","","","","",""
"","","","","","html-button-response","175","429347","0.0-175.0","E358623956CB40FBBCD4266DB111D775","019cf984-eaad-77b9-b850-6c4229b7dc80","019cf974-7aee-7bc9-8ea4-9f55741b365d","","385","
                <div class=""stimulus-container"">
                    <img src=""images/semantic_sequence/housework_semantic/housework_semantic_8.png"" class=""exp-image"">
                    <div class=""question-area"">
                        <p style=""font-size: 20px; font-weight: bold; margin: 0;"">Is there a person in this image?</p>
                    </div>
                </div>","0","main_experiment_trial","8","housework_semantic","semantic_sequence","randomized","","","","",""
"","","","","","html-keyboard-response","176","430364","0.0-176.0","E358623956CB40FBBCD4266DB111D775","019cf984-eaad-77b9-b850-6c4229b7dc80","019cf974-7aee-7bc9-8ea4-9f55741b365d","","null","
                <div class=""stimulus-container"">
                    <img src=""images/semantic_sequence/housework_semantic/housework_semantic_ten.png"" class=""exp-image"">
                    <div class=""question-area""></div> 
                </div>","null","","","","","","","","","",""
"","","","","","html-button-response","177","430691","0.0-177.0","E358623956CB40FBBCD4266DB111D775","019cf984-eaad-77b9-b850-6c4229b7dc80","019cf974-7aee-7bc9-8ea4-9f55741b365d","","326","
                <div class=""stimulus-container"">
                    <img src=""images/semantic_sequence/housework_semantic/housework_semantic_ten.png"" class=""exp-image"">
                    <div class=""question-area"">
                        <p style=""font-size: 20px; font-weight: bold; margin: 0;"">Is there a person in this image?</p>
                    </div>
                </div>","0","main_experiment_trial","ten","housework_semantic","semantic_sequence","randomized","","","","",""
"","","","","","html-keyboard-response","178","431696","0.0-178.0","E358623956CB40FBBCD4266DB111D775","019cf984-eaad-77b9-b850-6c4229b7dc80","019cf974-7aee-7bc9-8ea4-9f55741b365d","","null","
                <div class=""stimulus-container"">
                    <img src=""images/semantic_sequence/housework_semantic/housework_semantic_7.png"" class=""exp-image"">
                    <div class=""question-area""></div> 
                </div>","null","","","","","","","","","",""
"","","","","","html-button-response","179","432157","0.0-179.0","E358623956CB40FBBCD4266DB111D775","019cf984-eaad-77b9-b850-6c4229b7dc80","019cf974-7aee-7bc9-8ea4-9f55741b365d","","460","
                <div class=""stimulus-container"">
