"success","timeout","failed_images","failed_audio","failed_video","trial_type","trial_index","time_elapsed","internal_node_id","subject_id","study_id","session_id","view_history","rt","stimulus","response","task","image_index","folder","sequence_type","valuable_image_index","reward_type","chosen_image_index","target_X","correct_choice"
"true","false","[]","[]","[]","preload","0","49985","0.0-0.0","9388B00C20254CC7A073220FB02A8C2C","019cf473-8a09-773e-a215-9f2d1f14d78a","019cf064-09e4-79bc-8453-421c166e6722","","","","","","","","","","","","",""
"","","","","","instructions","1","52623","0.0-1.0","9388B00C20254CC7A073220FB02A8C2C","019cf473-8a09-773e-a215-9f2d1f14d78a","019cf064-09e4-79bc-8453-421c166e6722","[{""page_index"":0,""viewing_time"":2635}]","2636","","","","","","","","","","",""
"","","","","","instructions","2","55666","0.0-2.0","9388B00C20254CC7A073220FB02A8C2C","019cf473-8a09-773e-a215-9f2d1f14d78a","019cf064-09e4-79bc-8453-421c166e6722","[{""page_index"":0,""viewing_time"":3030}]","3031","","","","","","","","","","",""
"true","","","","","fullscreen","3","58910","0.0-3.0","9388B00C20254CC7A073220FB02A8C2C","019cf473-8a09-773e-a215-9f2d1f14d78a","019cf064-09e4-79bc-8453-421c166e6722","","2236","","","","","","","","","","",""
"","","","","","instructions","4","67477","0.0-4.0","9388B00C20254CC7A073220FB02A8C2C","019cf473-8a09-773e-a215-9f2d1f14d78a","019cf064-09e4-79bc-8453-421c166e6722","[{""page_index"":0,""viewing_time"":8565}]","8566","","","","","","","","","","",""
"","","","","","instructions","5","77120","0.0-5.0","9388B00C20254CC7A073220FB02A8C2C","019cf473-8a09-773e-a215-9f2d1f14d78a","019cf064-09e4-79bc-8453-421c166e6722","[{""page_index"":0,""viewing_time"":9642}]","9642","","","","","","","","","","",""
"","","","","","html-keyboard-response","6","81124","0.0-6.0","9388B00C20254CC7A073220FB02A8C2C","019cf473-8a09-773e-a215-9f2d1f14d78a","019cf064-09e4-79bc-8453-421c166e6722","","null","
                <div class=""stimulus-container"">
                    <img src=""images/instructions/movie_1.png"" class=""exp-image"">
                    <div class=""question-area""></div> 
                </div>","null","","","","","","","","",""
"","","","","","html-button-response","7","82838","0.0-7.0","9388B00C20254CC7A073220FB02A8C2C","019cf473-8a09-773e-a215-9f2d1f14d78a","019cf064-09e4-79bc-8453-421c166e6722","","1709","
                <div class=""stimulus-container"">
                    <img src=""images/instructions/movie_1.png"" class=""exp-image"">
                    <div class=""question-area"">
                        <p style=""font-size: 20px; font-weight: bold; margin: 0;"">Was there a person in this image?</p>
                    </div>
                </div>","0","example_question","1","","","","","","",""
"","","","","","html-keyboard-response","8","86842","0.0-8.0","9388B00C20254CC7A073220FB02A8C2C","019cf473-8a09-773e-a215-9f2d1f14d78a","019cf064-09e4-79bc-8453-421c166e6722","","null","
                <div class=""stimulus-container"">
                    <img src=""images/instructions/movie_2.png"" class=""exp-image"">
                    <div class=""question-area""></div> 
                </div>","null","","","","","","","","",""
"","","","","","html-button-response","9","87730","0.0-9.0","9388B00C20254CC7A073220FB02A8C2C","019cf473-8a09-773e-a215-9f2d1f14d78a","019cf064-09e4-79bc-8453-421c166e6722","","883","
                <div class=""stimulus-container"">
                    <img src=""images/instructions/movie_2.png"" class=""exp-image"">
                    <div class=""question-area"">
                        <p style=""font-size: 20px; font-weight: bold; margin: 0;"">Was there a person in this image?</p>
                    </div>
                </div>","0","example_question","2","","","","","","",""
"","","","","","html-keyboard-response","10","91733","0.0-10.0","9388B00C20254CC7A073220FB02A8C2C","019cf473-8a09-773e-a215-9f2d1f14d78a","019cf064-09e4-79bc-8453-421c166e6722","","null","
                <div class=""stimulus-container"">
                    <img src=""images/instructions/movie_3.png"" class=""exp-image"">
                    <div class=""question-area""></div> 
                </div>","null","","","","","","","","",""
"","","","","","html-button-response","11","92361","0.0-11.0","9388B00C20254CC7A073220FB02A8C2C","019cf473-8a09-773e-a215-9f2d1f14d78a","019cf064-09e4-79bc-8453-421c166e6722","","625","
                <div class=""stimulus-container"">
                    <img src=""images/instructions/movie_3.png"" class=""exp-image"">
                    <div class=""question-area"">
                        <p style=""font-size: 20px; font-weight: bold; margin: 0;"">Was there a person in this image?</p>
                    </div>
                </div>","0","example_question","3","","","","","","",""
"","","","","","html-keyboard-response","12","96366","0.0-12.0","9388B00C20254CC7A073220FB02A8C2C","019cf473-8a09-773e-a215-9f2d1f14d78a","019cf064-09e4-79bc-8453-421c166e6722","","null","
                <div class=""stimulus-container"">
                    <img src=""images/instructions/movie_4.png"" class=""exp-image"">
                    <div class=""question-area""></div> 
                </div>","null","","","","","","","","",""
"","","","","","html-button-response","13","97216","0.0-13.0","9388B00C20254CC7A073220FB02A8C2C","019cf473-8a09-773e-a215-9f2d1f14d78a","019cf064-09e4-79bc-8453-421c166e6722","","844","
                <div class=""stimulus-container"">
                    <img src=""images/instructions/movie_4.png"" class=""exp-image"">
                    <div class=""question-area"">
                        <p style=""font-size: 20px; font-weight: bold; margin: 0;"">Was there a person in this image?</p>
                    </div>
                </div>","0","example_question","4","","","","","","",""
"","","","","","instructions","14","98584","0.0-14.0","9388B00C20254CC7A073220FB02A8C2C","019cf473-8a09-773e-a215-9f2d1f14d78a","019cf064-09e4-79bc-8453-421c166e6722","[{""page_index"":0,""viewing_time"":1366}]","1367","","","","","","","","","","",""
"","","","","","instructions","15","102453","0.0-15.0","9388B00C20254CC7A073220FB02A8C2C","019cf473-8a09-773e-a215-9f2d1f14d78a","019cf064-09e4-79bc-8453-421c166e6722","[{""page_index"":0,""viewing_time"":3866}]","3867","","","","","","","","","","",""
"","","","","","html-keyboard-response","16","103455","0.0-16.0","9388B00C20254CC7A073220FB02A8C2C","019cf473-8a09-773e-a215-9f2d1f14d78a","019cf064-09e4-79bc-8453-421c166e6722","","null","<div style=""background-color: white; width: 100vw; height: 100vh;""></div>","null","","","","","","","","",""
"","","","","","html-keyboard-response","17","108458","0.0-17.0","9388B00C20254CC7A073220FB02A8C2C","019cf473-8a09-773e-a215-9f2d1f14d78a","019cf064-09e4-79bc-8453-421c166e6722","","null","
                <div class=""stimulus-container"">
                    <img src=""images/schematic_sequence/dinner_party_scheme/dinner_party_scheme_1.png"" class=""exp-image"">
                    <div class=""question-area""></div> 
                </div>","null","","","","","","","","",""
"","","","","","html-button-response","18","109374","0.0-18.0","9388B00C20254CC7A073220FB02A8C2C","019cf473-8a09-773e-a215-9f2d1f14d78a","019cf064-09e4-79bc-8453-421c166e6722","","913","
                <div class=""stimulus-container"">
                    <img src=""images/schematic_sequence/dinner_party_scheme/dinner_party_scheme_1.png"" class=""exp-image"">
                    <div class=""question-area"">
                        <p style=""font-size: 20px; font-weight: bold; margin: 0;"">Is there a person in this image?</p>
                    </div>
                </div>","0","main_experiment_trial","1","dinner_party_scheme","schematic_sequence","","","","",""
"","","","","","html-keyboard-response","19","114380","0.0-19.0","9388B00C20254CC7A073220FB02A8C2C","019cf473-8a09-773e-a215-9f2d1f14d78a","019cf064-09e4-79bc-8453-421c166e6722","","null","
                <div class=""stimulus-container"">
                    <img src=""images/schematic_sequence/dinner_party_scheme/dinner_party_scheme_2.png"" class=""exp-image"">
                    <div class=""question-area""></div> 
                </div>","null","","","","","","","","",""
"","","","","","html-button-response","20","115093","0.0-20.0","9388B00C20254CC7A073220FB02A8C2C","019cf473-8a09-773e-a215-9f2d1f14d78a","019cf064-09e4-79bc-8453-421c166e6722","","706","
                <div class=""stimulus-container"">
                    <img src=""images/schematic_sequence/dinner_party_scheme/dinner_party_scheme_2.png"" class=""exp-image"">
                    <div class=""question-area"">
                        <p style=""font-size: 20px; font-weight: bold; margin: 0;"">Is there a person in this image?</p>
                    </div>
                </div>","0","main_experiment_trial","2","dinner_party_scheme","schematic_sequence","","","","",""
"","","","","","html-keyboard-response","21","120098","0.0-21.0","9388B00C20254CC7A073220FB02A8C2C","019cf473-8a09-773e-a215-9f2d1f14d78a","019cf064-09e4-79bc-8453-421c166e6722","","null","
                <div class=""stimulus-container"">
                    <img src=""images/schematic_sequence/dinner_party_scheme/dinner_party_scheme_3.png"" class=""exp-image"">
                    <div class=""question-area""></div> 
                </div>","null","","","","","","","","",""
"","","","","","html-button-response","22","120880","0.0-22.0","9388B00C20254CC7A073220FB02A8C2C","019cf473-8a09-773e-a215-9f2d1f14d78a","019cf064-09e4-79bc-8453-421c166e6722","","773","
                <div class=""stimulus-container"">
                    <img src=""images/schematic_sequence/dinner_party_scheme/dinner_party_scheme_3.png"" class=""exp-image"">
                    <div class=""question-area"">
                        <p style=""font-size: 20px; font-weight: bold; margin: 0;"">Is there a person in this image?</p>
                    </div>
                </div>","0","main_experiment_trial","3","dinner_party_scheme","schematic_sequence","","","","",""
"","","","","","html-keyboard-response","23","125887","0.0-23.0","9388B00C20254CC7A073220FB02A8C2C","019cf473-8a09-773e-a215-9f2d1f14d78a","019cf064-09e4-79bc-8453-421c166e6722","","null","
                <div class=""stimulus-container"">
                    <img src=""images/schematic_sequence/dinner_party_scheme/dinner_party_scheme_4.png"" class=""exp-image"">
                    <div class=""question-area""></div> 
                </div>","null","","","","","","","","",""
"","","","","","html-button-response","24","126699","0.0-24.0","9388B00C20254CC7A073220FB02A8C2C","019cf473-8a09-773e-a215-9f2d1f14d78a","019cf064-09e4-79bc-8453-421c166e6722","","805","
                <div class=""stimulus-container"">
                    <img src=""images/schematic_sequence/dinner_party_scheme/dinner_party_scheme_4.png"" class=""exp-image"">
                    <div class=""question-area"">
                        <p style=""font-size: 20px; font-weight: bold; margin: 0;"">Is there a person in this image?</p>
                    </div>
                </div>","0","main_experiment_trial","4","dinner_party_scheme","schematic_sequence","","","","",""
"","","","","","html-keyboard-response","25","131705","0.0-25.0","9388B00C20254CC7A073220FB02A8C2C","019cf473-8a09-773e-a215-9f2d1f14d78a","019cf064-09e4-79bc-8453-421c166e6722","","null","
                <div class=""stimulus-container"">
                    <img src=""images/schematic_sequence/dinner_party_scheme/dinner_party_scheme_5.png"" class=""exp-image"">
                    <div class=""question-area""></div> 
                </div>","null","","","","","","","","",""
"","","","","","html-button-response","26","132580","0.0-26.0","9388B00C20254CC7A073220FB02A8C2C","019cf473-8a09-773e-a215-9f2d1f14d78a","019cf064-09e4-79bc-8453-421c166e6722","","860","
                <div class=""stimulus-container"">
                    <img src=""images/schematic_sequence/dinner_party_scheme/dinner_party_scheme_5.png"" class=""exp-image"">
                    <div class=""question-area"">
                        <p style=""font-size: 20px; font-weight: bold; margin: 0;"">Is there a person in this image?</p>
                    </div>
                </div>","0","main_experiment_trial","5","dinner_party_scheme","schematic_sequence","","","","",""
"","","","","","html-keyboard-response","27","137585","0.0-27.0","9388B00C20254CC7A073220FB02A8C2C","019cf473-8a09-773e-a215-9f2d1f14d78a","019cf064-09e4-79bc-8453-421c166e6722","","null","
                <div class=""stimulus-container"">
                    <img src=""images/schematic_sequence/dinner_party_scheme/dinner_party_scheme_6.png"" class=""exp-image"">
                    <div class=""question-area""></div> 
                </div>","null","","","","","","","","",""
"","","","","","html-button-response","28","138316","0.0-28.0","9388B00C20254CC7A073220FB02A8C2C","019cf473-8a09-773e-a215-9f2d1f14d78a","019cf064-09e4-79bc-8453-421c166e6722","","729","
                <div class=""stimulus-container"">
                    <img src=""images/schematic_sequence/dinner_party_scheme/dinner_party_scheme_6.png"" class=""exp-image"">
                    <div class=""question-area"">
                        <p style=""font-size: 20px; font-weight: bold; margin: 0;"">Is there a person in this image?</p>
                    </div>
                </div>","0","main_experiment_trial","6","dinner_party_scheme","schematic_sequence","","","","",""
"","","","","","html-keyboard-response","29","143322","0.0-29.0","9388B00C20254CC7A073220FB02A8C2C","019cf473-8a09-773e-a215-9f2d1f14d78a","019cf064-09e4-79bc-8453-421c166e6722","","null","
                <div class=""stimulus-container"">
                    <img src=""images/schematic_sequence/dinner_party_scheme/dinner_party_scheme_7.png"" class=""exp-image"">
                    <div class=""question-area""></div> 
                </div>","null","","","","","","","","",""
"","","","","","html-button-response","30","145962","0.0-30.0","9388B00C20254CC7A073220FB02A8C2C","019cf473-8a09-773e-a215-9f2d1f14d78a","019cf064-09e4-79bc-8453-421c166e6722","","2632","
                <div class=""stimulus-container"">
                    <img src=""images/schematic_sequence/dinner_party_scheme/dinner_party_scheme_7.png"" class=""exp-image"">
                    <div class=""question-area"">
                        <p style=""font-size: 20px; font-weight: bold; margin: 0;"">Is there a person in this image?</p>
                    </div>
                </div>","0","main_experiment_trial","7","dinner_party_scheme","schematic_sequence","","","","",""
"","","","","","html-keyboard-response","31","150967","0.0-31.0","9388B00C20254CC7A073220FB02A8C2C","019cf473-8a09-773e-a215-9f2d1f14d78a","019cf064-09e4-79bc-8453-421c166e6722","","null","
                <div class=""stimulus-container"">
                    <img src=""images/schematic_sequence/dinner_party_scheme/dinner_party_scheme_8.png"" class=""exp-image"">
                    <div class=""question-area""></div> 
                </div>","null","","","","","","","","",""
"","","","","","html-button-response","32","152106","0.0-32.0","9388B00C20254CC7A073220FB02A8C2C","019cf473-8a09-773e-a215-9f2d1f14d78a","019cf064-09e4-79bc-8453-421c166e6722","","1131","
                <div class=""stimulus-container"">
                    <img src=""images/schematic_sequence/dinner_party_scheme/dinner_party_scheme_8.png"" class=""exp-image"">
                    <div class=""question-area"">
                        <p style=""font-size: 20px; font-weight: bold; margin: 0;"">Is there a person in this image?</p>
                    </div>
                </div>","0","main_experiment_trial","8","dinner_party_scheme","schematic_sequence","","","","",""
"","","","","","html-keyboard-response","33","157111","0.0-33.0","9388B00C20254CC7A073220FB02A8C2C","019cf473-8a09-773e-a215-9f2d1f14d78a","019cf064-09e4-79bc-8453-421c166e6722","","null","
                <div class=""stimulus-container"">
                    <img src=""images/schematic_sequence/dinner_party_scheme/dinner_party_scheme_9.png"" class=""exp-image"">
                    <div class=""question-area""></div> 
                </div>","null","","","","","","","","",""
"","","","","","html-button-response","34","157920","0.0-34.0","9388B00C20254CC7A073220FB02A8C2C","019cf473-8a09-773e-a215-9f2d1f14d78a","019cf064-09e4-79bc-8453-421c166e6722","","802","
                <div class=""stimulus-container"">
                    <img src=""images/schematic_sequence/dinner_party_scheme/dinner_party_scheme_9.png"" class=""exp-image"">
                    <div class=""question-area"">
                        <p style=""font-size: 20px; font-weight: bold; margin: 0;"">Is there a person in this image?</p>
                    </div>
                </div>","0","main_experiment_trial","9","dinner_party_scheme","schematic_sequence","","","","",""
"","","","","","html-keyboard-response","35","162928","0.0-35.0","9388B00C20254CC7A073220FB02A8C2C","019cf473-8a09-773e-a215-9f2d1f14d78a","019cf064-09e4-79bc-8453-421c166e6722","","null","
                <div class=""stimulus-container"">
                    <img src=""images/schematic_sequence/dinner_party_scheme/dinner_party_scheme_ten.png"" class=""exp-image"">
                    <div class=""question-area""></div> 
                </div>","null","","","","","","","","",""
"","","","","","html-button-response","36","163617","0.0-36.0","9388B00C20254CC7A073220FB02A8C2C","019cf473-8a09-773e-a215-9f2d1f14d78a","019cf064-09e4-79bc-8453-421c166e6722","","683","
                <div class=""stimulus-container"">
                    <img src=""images/schematic_sequence/dinner_party_scheme/dinner_party_scheme_ten.png"" class=""exp-image"">
                    <div class=""question-area"">
                        <p style=""font-size: 20px; font-weight: bold; margin: 0;"">Is there a person in this image?</p>
                    </div>
                </div>","0","main_experiment_trial","ten","dinner_party_scheme","schematic_sequence","","","","",""
"","","","","","html-keyboard-response","37","164620","0.0-37.0","9388B00C20254CC7A073220FB02A8C2C","019cf473-8a09-773e-a215-9f2d1f14d78a","019cf064-09e4-79bc-8453-421c166e6722","","null","<div style=""background-color: white; width: 100vw; height: 100vh;""></div>","null","","","","","","","","",""
"","","","","","html-keyboard-response","38","169628","0.0-38.0","9388B00C20254CC7A073220FB02A8C2C","019cf473-8a09-773e-a215-9f2d1f14d78a","019cf064-09e4-79bc-8453-421c166e6722","","null","
                <div class=""stimulus-container"">
                    <img src=""images/schematic_sequence/interview_scheme/interview_scheme_1.png"" class=""exp-image"">
                    <div class=""question-area""></div> 
                </div>","null","","","","","","","","",""
"","","","","","html-button-response","39","170802","0.0-39.0","9388B00C20254CC7A073220FB02A8C2C","019cf473-8a09-773e-a215-9f2d1f14d78a","019cf064-09e4-79bc-8453-421c166e6722","","1168","
                <div class=""stimulus-container"">
                    <img src=""images/schematic_sequence/interview_scheme/interview_scheme_1.png"" class=""exp-image"">
                    <div class=""question-area"">
                        <p style=""font-size: 20px; font-weight: bold; margin: 0;"">Is there a person in this image?</p>
                    </div>
                </div>","1","main_experiment_trial","1","interview_scheme","schematic_sequence","","","","",""
"","","","","","html-keyboard-response","40","175806","0.0-40.0","9388B00C20254CC7A073220FB02A8C2C","019cf473-8a09-773e-a215-9f2d1f14d78a","019cf064-09e4-79bc-8453-421c166e6722","","null","
                <div class=""stimulus-container"">
                    <img src=""images/schematic_sequence/interview_scheme/interview_scheme_2.png"" class=""exp-image"">
                    <div class=""question-area""></div> 
                </div>","null","","","","","","","","",""
"","","","","","html-button-response","41","176647","0.0-41.0","9388B00C20254CC7A073220FB02A8C2C","019cf473-8a09-773e-a215-9f2d1f14d78a","019cf064-09e4-79bc-8453-421c166e6722","","834","
                <div class=""stimulus-container"">
                    <img src=""images/schematic_sequence/interview_scheme/interview_scheme_2.png"" class=""exp-image"">
                    <div class=""question-area"">
                        <p style=""font-size: 20px; font-weight: bold; margin: 0;"">Is there a person in this image?</p>
                    </div>
                </div>","0","main_experiment_trial","2","interview_scheme","schematic_sequence","","","","",""
"","","","","","html-keyboard-response","42","181652","0.0-42.0","9388B00C20254CC7A073220FB02A8C2C","019cf473-8a09-773e-a215-9f2d1f14d78a","019cf064-09e4-79bc-8453-421c166e6722","","null","
                <div class=""stimulus-container"">
                    <img src=""images/schematic_sequence/interview_scheme/interview_scheme_3.png"" class=""exp-image"">
                    <div class=""question-area""></div> 
                </div>","null","","","","","","","","",""
"","","","","","html-button-response","43","182453","0.0-43.0","9388B00C20254CC7A073220FB02A8C2C","019cf473-8a09-773e-a215-9f2d1f14d78a","019cf064-09e4-79bc-8453-421c166e6722","","793","
                <div class=""stimulus-container"">
                    <img src=""images/schematic_sequence/interview_scheme/interview_scheme_3.png"" class=""exp-image"">
                    <div class=""question-area"">
                        <p style=""font-size: 20px; font-weight: bold; margin: 0;"">Is there a person in this image?</p>
                    </div>
                </div>","1","main_experiment_trial","3","interview_scheme","schematic_sequence","","","","",""
"","","","","","html-keyboard-response","44","187455","0.0-44.0","9388B00C20254CC7A073220FB02A8C2C","019cf473-8a09-773e-a215-9f2d1f14d78a","019cf064-09e4-79bc-8453-421c166e6722","","null","
                <div class=""stimulus-container"">
                    <img src=""images/schematic_sequence/interview_scheme/interview_scheme_4.png"" class=""exp-image"">
                    <div class=""question-area""></div> 
                </div>","null","","","","","","","","",""
"","","","","","html-button-response","45","188447","0.0-45.0","9388B00C20254CC7A073220FB02A8C2C","019cf473-8a09-773e-a215-9f2d1f14d78a","019cf064-09e4-79bc-8453-421c166e6722","","988","
                <div class=""stimulus-container"">
                    <img src=""images/schematic_sequence/interview_scheme/interview_scheme_4.png"" class=""exp-image"">
                    <div class=""question-area"">
                        <p style=""font-size: 20px; font-weight: bold; margin: 0;"">Is there a person in this image?</p>
                    </div>
                </div>","1","main_experiment_trial","4","interview_scheme","schematic_sequence","","","","",""
"","","","","","html-keyboard-response","46","193453","0.0-46.0","9388B00C20254CC7A073220FB02A8C2C","019cf473-8a09-773e-a215-9f2d1f14d78a","019cf064-09e4-79bc-8453-421c166e6722","","null","
                <div class=""stimulus-container"">
                    <img src=""images/schematic_sequence/interview_scheme/interview_scheme_5.png"" class=""exp-image"">
                    <div class=""question-area""></div> 
                </div>","null","","","","","","","","",""
"","","","","","html-button-response","47","194164","0.0-47.0","9388B00C20254CC7A073220FB02A8C2C","019cf473-8a09-773e-a215-9f2d1f14d78a","019cf064-09e4-79bc-8453-421c166e6722","","689","
                <div class=""stimulus-container"">
                    <img src=""images/schematic_sequence/interview_scheme/interview_scheme_5.png"" class=""exp-image"">
                    <div class=""question-area"">
                        <p style=""font-size: 20px; font-weight: bold; margin: 0;"">Is there a person in this image?</p>
                    </div>
                </div>","0","main_experiment_trial","5","interview_scheme","schematic_sequence","","","","",""
"","","","","","html-keyboard-response","48","199169","0.0-48.0","9388B00C20254CC7A073220FB02A8C2C","019cf473-8a09-773e-a215-9f2d1f14d78a","019cf064-09e4-79bc-8453-421c166e6722","","null","
                <div class=""stimulus-container"">
                    <img src=""images/schematic_sequence/interview_scheme/interview_scheme_6.png"" class=""exp-image"">
                    <div class=""question-area""></div> 
                </div>","null","","","","","","","","",""
"","","","","","html-button-response","49","200046","0.0-49.0","9388B00C20254CC7A073220FB02A8C2C","019cf473-8a09-773e-a215-9f2d1f14d78a","019cf064-09e4-79bc-8453-421c166e6722","","869","
                <div class=""stimulus-container"">
                    <img src=""images/schematic_sequence/interview_scheme/interview_scheme_6.png"" class=""exp-image"">
                    <div class=""question-area"">
                        <p style=""font-size: 20px; font-weight: bold; margin: 0;"">Is there a person in this image?</p>
                    </div>
                </div>","0","main_experiment_trial","6","interview_scheme","schematic_sequence","","","","",""
"","","","","","html-keyboard-response","50","205052","0.0-50.0","9388B00C20254CC7A073220FB02A8C2C","019cf473-8a09-773e-a215-9f2d1f14d78a","019cf064-09e4-79bc-8453-421c166e6722","","null","
                <div class=""stimulus-container"">
                    <img src=""images/schematic_sequence/interview_scheme/interview_scheme_7.png"" class=""exp-image"">
                    <div class=""question-area""></div> 
                </div>","null","","","","","","","","",""
"","","","","","html-button-response","51","206013","0.0-51.0","9388B00C20254CC7A073220FB02A8C2C","019cf473-8a09-773e-a215-9f2d1f14d78a","019cf064-09e4-79bc-8453-421c166e6722","","953","
                <div class=""stimulus-container"">
                    <img src=""images/schematic_sequence/interview_scheme/interview_scheme_7.png"" class=""exp-image"">
                    <div class=""question-area"">
                        <p style=""font-size: 20px; font-weight: bold; margin: 0;"">Is there a person in this image?</p>
                    </div>
                </div>","0","main_experiment_trial","7","interview_scheme","schematic_sequence","","","","",""
"","","","","","html-keyboard-response","52","211015","0.0-52.0","9388B00C20254CC7A073220FB02A8C2C","019cf473-8a09-773e-a215-9f2d1f14d78a","019cf064-09e4-79bc-8453-421c166e6722","","null","
                <div class=""stimulus-container"">
                    <img src=""images/schematic_sequence/interview_scheme/interview_scheme_8.png"" class=""exp-image"">
                    <div class=""question-area""></div> 
                </div>","null","","","","","","","","",""
"","","","","","html-button-response","53","211786","0.0-53.0","9388B00C20254CC7A073220FB02A8C2C","019cf473-8a09-773e-a215-9f2d1f14d78a","019cf064-09e4-79bc-8453-421c166e6722","","769","
                <div class=""stimulus-container"">
                    <img src=""images/schematic_sequence/interview_scheme/interview_scheme_8.png"" class=""exp-image"">
                    <div class=""question-area"">
                        <p style=""font-size: 20px; font-weight: bold; margin: 0;"">Is there a person in this image?</p>
                    </div>
                </div>","0","main_experiment_trial","8","interview_scheme","schematic_sequence","","","","",""
"","","","","","html-keyboard-response","54","216789","0.0-54.0","9388B00C20254CC7A073220FB02A8C2C","019cf473-8a09-773e-a215-9f2d1f14d78a","019cf064-09e4-79bc-8453-421c166e6722","","null","
                <div class=""stimulus-container"">
                    <img src=""images/schematic_sequence/interview_scheme/interview_scheme_9.png"" class=""exp-image"">
                    <div class=""question-area""></div> 
                </div>","null","","","","","","","","",""
"","","","","","html-button-response","55","217478","0.0-55.0","9388B00C20254CC7A073220FB02A8C2C","019cf473-8a09-773e-a215-9f2d1f14d78a","019cf064-09e4-79bc-8453-421c166e6722","","675","
                <div class=""stimulus-container"">
                    <img src=""images/schematic_sequence/interview_scheme/interview_scheme_9.png"" class=""exp-image"">
                    <div class=""question-area"">
                        <p style=""font-size: 20px; font-weight: bold; margin: 0;"">Is there a person in this image?</p>
                    </div>
                </div>","0","main_experiment_trial","9","interview_scheme","schematic_sequence","","","","",""
"","","","","","html-keyboard-response","56","222483","0.0-56.0","9388B00C20254CC7A073220FB02A8C2C","019cf473-8a09-773e-a215-9f2d1f14d78a","019cf064-09e4-79bc-8453-421c166e6722","","null","
                <div class=""stimulus-container"">
                    <img src=""images/schematic_sequence/interview_scheme/interview_scheme_ten.png"" class=""exp-image"">
                    <div class=""question-area""></div> 
                </div>","null","","","","","","","","",""
"","","","","","html-button-response","57","223257","0.0-57.0","9388B00C20254CC7A073220FB02A8C2C","019cf473-8a09-773e-a215-9f2d1f14d78a","019cf064-09e4-79bc-8453-421c166e6722","","766","
                <div class=""stimulus-container"">
                    <img src=""images/schematic_sequence/interview_scheme/interview_scheme_ten.png"" class=""exp-image"">
                    <div class=""question-area"">
                        <p style=""font-size: 20px; font-weight: bold; margin: 0;"">Is there a person in this image?</p>
                    </div>
                </div>","0","main_experiment_trial","ten","interview_scheme","schematic_sequence","","","","",""
"","","","","","html-keyboard-response","58","224260","0.0-58.0","9388B00C20254CC7A073220FB02A8C2C","019cf473-8a09-773e-a215-9f2d1f14d78a","019cf064-09e4-79bc-8453-421c166e6722","","null","<div style=""background-color: white; width: 100vw; height: 100vh;""></div>","null","","","","","","","","",""
"","","","","","html-keyboard-response","59","229267","0.0-59.0","9388B00C20254CC7A073220FB02A8C2C","019cf473-8a09-773e-a215-9f2d1f14d78a","019cf064-09e4-79bc-8453-421c166e6722","","null","
                <div class=""stimulus-container"">
                    <img src=""images/causal_sequence/the_performance_causal/the_performance_causal_1.png"" class=""exp-image"">
                    <div class=""question-area""></div> 
                </div>","null","","","","","","","","",""
"","","","","","html-button-response","60","230027","0.0-60.0","9388B00C20254CC7A073220FB02A8C2C","019cf473-8a09-773e-a215-9f2d1f14d78a","019cf064-09e4-79bc-8453-421c166e6722","","754","
                <div class=""stimulus-container"">
                    <img src=""images/causal_sequence/the_performance_causal/the_performance_causal_1.png"" class=""exp-image"">
                    <div class=""question-area"">
                        <p style=""font-size: 20px; font-weight: bold; margin: 0;"">Is there a person in this image?</p>
                    </div>
                </div>","0","main_experiment_trial","1","the_performance_causal","causal_sequence","","","","",""
"","","","","","html-keyboard-response","61","235032","0.0-61.0","9388B00C20254CC7A073220FB02A8C2C","019cf473-8a09-773e-a215-9f2d1f14d78a","019cf064-09e4-79bc-8453-421c166e6722","","null","
                <div class=""stimulus-container"">
                    <img src=""images/causal_sequence/the_performance_causal/the_performance_causal_2.png"" class=""exp-image"">
                    <div class=""question-area""></div> 
                </div>","null","","","","","","","","",""
"","","","","","html-button-response","62","235788","0.0-62.0","9388B00C20254CC7A073220FB02A8C2C","019cf473-8a09-773e-a215-9f2d1f14d78a","019cf064-09e4-79bc-8453-421c166e6722","","746","
                <div class=""stimulus-container"">
                    <img src=""images/causal_sequence/the_performance_causal/the_performance_causal_2.png"" class=""exp-image"">
                    <div class=""question-area"">
                        <p style=""font-size: 20px; font-weight: bold; margin: 0;"">Is there a person in this image?</p>
                    </div>
                </div>","0","main_experiment_trial","2","the_performance_causal","causal_sequence","","","","",""
"","","","","","html-keyboard-response","63","240794","0.0-63.0","9388B00C20254CC7A073220FB02A8C2C","019cf473-8a09-773e-a215-9f2d1f14d78a","019cf064-09e4-79bc-8453-421c166e6722","","null","
                <div class=""stimulus-container"">
                    <img src=""images/causal_sequence/the_performance_causal/the_performance_causal_3.png"" class=""exp-image"">
                    <div class=""question-area""></div> 
                </div>","null","","","","","","","","",""
"","","","","","html-button-response","64","241558","0.0-64.0","9388B00C20254CC7A073220FB02A8C2C","019cf473-8a09-773e-a215-9f2d1f14d78a","019cf064-09e4-79bc-8453-421c166e6722","","756","
                <div class=""stimulus-container"">
                    <img src=""images/causal_sequence/the_performance_causal/the_performance_causal_3.png"" class=""exp-image"">
                    <div class=""question-area"">
                        <p style=""font-size: 20px; font-weight: bold; margin: 0;"">Is there a person in this image?</p>
                    </div>
                </div>","0","main_experiment_trial","3","the_performance_causal","causal_sequence","","","","",""
"","","","","","html-keyboard-response","65","246564","0.0-65.0","9388B00C20254CC7A073220FB02A8C2C","019cf473-8a09-773e-a215-9f2d1f14d78a","019cf064-09e4-79bc-8453-421c166e6722","","null","
                <div class=""stimulus-container"">
                    <img src=""images/causal_sequence/the_performance_causal/the_performance_causal_4.png"" class=""exp-image"">
                    <div class=""question-area""></div> 
                </div>","null","","","","","","","","",""
"","","","","","html-button-response","66","247588","0.0-66.0","9388B00C20254CC7A073220FB02A8C2C","019cf473-8a09-773e-a215-9f2d1f14d78a","019cf064-09e4-79bc-8453-421c166e6722","","1016","
                <div class=""stimulus-container"">
                    <img src=""images/causal_sequence/the_performance_causal/the_performance_causal_4.png"" class=""exp-image"">
                    <div class=""question-area"">
                        <p style=""font-size: 20px; font-weight: bold; margin: 0;"">Is there a person in this image?</p>
                    </div>
                </div>","0","main_experiment_trial","4","the_performance_causal","causal_sequence","","","","",""
"","","","","","html-keyboard-response","67","252592","0.0-67.0","9388B00C20254CC7A073220FB02A8C2C","019cf473-8a09-773e-a215-9f2d1f14d78a","019cf064-09e4-79bc-8453-421c166e6722","","null","
                <div class=""stimulus-container"">
                    <img src=""images/causal_sequence/the_performance_causal/the_performance_causal_5.png"" class=""exp-image"">
                    <div class=""question-area""></div> 
                </div>","null","","","","","","","","",""
"","","","","","html-button-response","68","253350","0.0-68.0","9388B00C20254CC7A073220FB02A8C2C","019cf473-8a09-773e-a215-9f2d1f14d78a","019cf064-09e4-79bc-8453-421c166e6722","","751","
                <div class=""stimulus-container"">
                    <img src=""images/causal_sequence/the_performance_causal/the_performance_causal_5.png"" class=""exp-image"">
                    <div class=""question-area"">
                        <p style=""font-size: 20px; font-weight: bold; margin: 0;"">Is there a person in this image?</p>
                    </div>
                </div>","0","main_experiment_trial","5","the_performance_causal","causal_sequence","","","","",""
"","","","","","html-keyboard-response","69","258352","0.0-69.0","9388B00C20254CC7A073220FB02A8C2C","019cf473-8a09-773e-a215-9f2d1f14d78a","019cf064-09e4-79bc-8453-421c166e6722","","null","
                <div class=""stimulus-container"">
                    <img src=""images/causal_sequence/the_performance_causal/the_performance_causal_6.png"" class=""exp-image"">
                    <div class=""question-area""></div> 
                </div>","null","","","","","","","","",""
"","","","","","html-button-response","70","259092","0.0-70.0","9388B00C20254CC7A073220FB02A8C2C","019cf473-8a09-773e-a215-9f2d1f14d78a","019cf064-09e4-79bc-8453-421c166e6722","","737","
                <div class=""stimulus-container"">
                    <img src=""images/causal_sequence/the_performance_causal/the_performance_causal_6.png"" class=""exp-image"">
                    <div class=""question-area"">
                        <p style=""font-size: 20px; font-weight: bold; margin: 0;"">Is there a person in this image?</p>
                    </div>
                </div>","0","main_experiment_trial","6","the_performance_causal","causal_sequence","","","","",""
"","","","","","html-keyboard-response","71","264098","0.0-71.0","9388B00C20254CC7A073220FB02A8C2C","019cf473-8a09-773e-a215-9f2d1f14d78a","019cf064-09e4-79bc-8453-421c166e6722","","null","
                <div class=""stimulus-container"">
                    <img src=""images/causal_sequence/the_performance_causal/the_performance_causal_7.png"" class=""exp-image"">
                    <div class=""question-area""></div> 
                </div>","null","","","","","","","","",""
"","","","","","html-button-response","72","264846","0.0-72.0","9388B00C20254CC7A073220FB02A8C2C","019cf473-8a09-773e-a215-9f2d1f14d78a","019cf064-09e4-79bc-8453-421c166e6722","","741","
                <div class=""stimulus-container"">
                    <img src=""images/causal_sequence/the_performance_causal/the_performance_causal_7.png"" class=""exp-image"">
                    <div class=""question-area"">
                        <p style=""font-size: 20px; font-weight: bold; margin: 0;"">Is there a person in this image?</p>
                    </div>
                </div>","0","main_experiment_trial","7","the_performance_causal","causal_sequence","","","","",""
"","","","","","html-keyboard-response","73","269850","0.0-73.0","9388B00C20254CC7A073220FB02A8C2C","019cf473-8a09-773e-a215-9f2d1f14d78a","019cf064-09e4-79bc-8453-421c166e6722","","null","
                <div class=""stimulus-container"">
                    <img src=""images/causal_sequence/the_performance_causal/the_performance_causal_8.png"" class=""exp-image"">
                    <div class=""question-area""></div> 
                </div>","null","","","","","","","","",""
"","","","","","html-button-response","74","270551","0.0-74.0","9388B00C20254CC7A073220FB02A8C2C","019cf473-8a09-773e-a215-9f2d1f14d78a","019cf064-09e4-79bc-8453-421c166e6722","","692","
                <div class=""stimulus-container"">
                    <img src=""images/causal_sequence/the_performance_causal/the_performance_causal_8.png"" class=""exp-image"">
                    <div class=""question-area"">
                        <p style=""font-size: 20px; font-weight: bold; margin: 0;"">Is there a person in this image?</p>
                    </div>
                </div>","0","main_experiment_trial","8","the_performance_causal","causal_sequence","","","","",""
"","","","","","html-keyboard-response","75","275556","0.0-75.0","9388B00C20254CC7A073220FB02A8C2C","019cf473-8a09-773e-a215-9f2d1f14d78a","019cf064-09e4-79bc-8453-421c166e6722","","null","
                <div class=""stimulus-container"">
                    <img src=""images/causal_sequence/the_performance_causal/the_performance_causal_9.png"" class=""exp-image"">
                    <div class=""question-area""></div> 
                </div>","null","","","","","","","","",""
"","","","","","html-button-response","76","276361","0.0-76.0","9388B00C20254CC7A073220FB02A8C2C","019cf473-8a09-773e-a215-9f2d1f14d78a","019cf064-09e4-79bc-8453-421c166e6722","","797","
                <div class=""stimulus-container"">
                    <img src=""images/causal_sequence/the_performance_causal/the_performance_causal_9.png"" class=""exp-image"">
                    <div class=""question-area"">
                        <p style=""font-size: 20px; font-weight: bold; margin: 0;"">Is there a person in this image?</p>
                    </div>
                </div>","0","main_experiment_trial","9","the_performance_causal","causal_sequence","","","","",""
"","","","","","html-keyboard-response","77","281365","0.0-77.0","9388B00C20254CC7A073220FB02A8C2C","019cf473-8a09-773e-a215-9f2d1f14d78a","019cf064-09e4-79bc-8453-421c166e6722","","null","
                <div class=""stimulus-container"">
                    <img src=""images/causal_sequence/the_performance_causal/the_performance_causal_ten.png"" class=""exp-image"">
                    <div class=""question-area""></div> 
                </div>","null","","","","","","","","",""
"","","","","","html-button-response","78","282099","0.0-78.0","9388B00C20254CC7A073220FB02A8C2C","019cf473-8a09-773e-a215-9f2d1f14d78a","019cf064-09e4-79bc-8453-421c166e6722","","728","
                <div class=""stimulus-container"">
                    <img src=""images/causal_sequence/the_performance_causal/the_performance_causal_ten.png"" class=""exp-image"">
                    <div class=""question-area"">
                        <p style=""font-size: 20px; font-weight: bold; margin: 0;"">Is there a person in this image?</p>
                    </div>
                </div>","0","main_experiment_trial","ten","the_performance_causal","causal_sequence","","","","",""
"","","","","","html-keyboard-response","79","283104","0.0-79.0","9388B00C20254CC7A073220FB02A8C2C","019cf473-8a09-773e-a215-9f2d1f14d78a","019cf064-09e4-79bc-8453-421c166e6722","","null","<div style=""background-color: white; width: 100vw; height: 100vh;""></div>","null","","","","","","","","",""
"","","","","","html-keyboard-response","80","288113","0.0-80.0","9388B00C20254CC7A073220FB02A8C2C","019cf473-8a09-773e-a215-9f2d1f14d78a","019cf064-09e4-79bc-8453-421c166e6722","","null","
                <div class=""stimulus-container"">
                    <img src=""images/causal_sequence/dog_causal/dog_causal_1.png"" class=""exp-image"">
                    <div class=""question-area""></div> 
                </div>","null","","","","","","","","",""
"","","","","","html-button-response","81","288858","0.0-81.0","9388B00C20254CC7A073220FB02A8C2C","019cf473-8a09-773e-a215-9f2d1f14d78a","019cf064-09e4-79bc-8453-421c166e6722","","737","
                <div class=""stimulus-container"">
                    <img src=""images/causal_sequence/dog_causal/dog_causal_1.png"" class=""exp-image"">
                    <div class=""question-area"">
                        <p style=""font-size: 20px; font-weight: bold; margin: 0;"">Is there a person in this image?</p>
                    </div>
                </div>","0","main_experiment_trial","1","dog_causal","causal_sequence","","","","",""
"","","","","","html-keyboard-response","82","293863","0.0-82.0","9388B00C20254CC7A073220FB02A8C2C","019cf473-8a09-773e-a215-9f2d1f14d78a","019cf064-09e4-79bc-8453-421c166e6722","","null","
                <div class=""stimulus-container"">
                    <img src=""images/causal_sequence/dog_causal/dog_causal_2.png"" class=""exp-image"">
                    <div class=""question-area""></div> 
                </div>","null","","","","","","","","",""
"","","","","","html-button-response","83","294739","0.0-83.0","9388B00C20254CC7A073220FB02A8C2C","019cf473-8a09-773e-a215-9f2d1f14d78a","019cf064-09e4-79bc-8453-421c166e6722","","868","
                <div class=""stimulus-container"">
                    <img src=""images/causal_sequence/dog_causal/dog_causal_2.png"" class=""exp-image"">
                    <div class=""question-area"">
                        <p style=""font-size: 20px; font-weight: bold; margin: 0;"">Is there a person in this image?</p>
                    </div>
                </div>","0","main_experiment_trial","2","dog_causal","causal_sequence","","","","",""
"","","","","","html-keyboard-response","84","299744","0.0-84.0","9388B00C20254CC7A073220FB02A8C2C","019cf473-8a09-773e-a215-9f2d1f14d78a","019cf064-09e4-79bc-8453-421c166e6722","","null","
                <div class=""stimulus-container"">
                    <img src=""images/causal_sequence/dog_causal/dog_causal_3.png"" class=""exp-image"">
                    <div class=""question-area""></div> 
                </div>","null","","","","","","","","",""
"","","","","","html-button-response","85","300628","0.0-85.0","9388B00C20254CC7A073220FB02A8C2C","019cf473-8a09-773e-a215-9f2d1f14d78a","019cf064-09e4-79bc-8453-421c166e6722","","877","
                <div class=""stimulus-container"">
                    <img src=""images/causal_sequence/dog_causal/dog_causal_3.png"" class=""exp-image"">
                    <div class=""question-area"">
                        <p style=""font-size: 20px; font-weight: bold; margin: 0;"">Is there a person in this image?</p>
                    </div>
                </div>","0","main_experiment_trial","3","dog_causal","causal_sequence","","","","",""
"","","","","","html-keyboard-response","86","305634","0.0-86.0","9388B00C20254CC7A073220FB02A8C2C","019cf473-8a09-773e-a215-9f2d1f14d78a","019cf064-09e4-79bc-8453-421c166e6722","","null","
                <div class=""stimulus-container"">
                    <img src=""images/causal_sequence/dog_causal/dog_causal_4.png"" class=""exp-image"">
                    <div class=""question-area""></div> 
                </div>","null","","","","","","","","",""
"","","","","","html-button-response","87","306592","0.0-87.0","9388B00C20254CC7A073220FB02A8C2C","019cf473-8a09-773e-a215-9f2d1f14d78a","019cf064-09e4-79bc-8453-421c166e6722","","949","
                <div class=""stimulus-container"">
                    <img src=""images/causal_sequence/dog_causal/dog_causal_4.png"" class=""exp-image"">
                    <div class=""question-area"">
                        <p style=""font-size: 20px; font-weight: bold; margin: 0;"">Is there a person in this image?</p>
                    </div>
                </div>","0","main_experiment_trial","4","dog_causal","causal_sequence","","","","",""
"","","","","","html-keyboard-response","88","311598","0.0-88.0","9388B00C20254CC7A073220FB02A8C2C","019cf473-8a09-773e-a215-9f2d1f14d78a","019cf064-09e4-79bc-8453-421c166e6722","","null","
                <div class=""stimulus-container"">
                    <img src=""images/causal_sequence/dog_causal/dog_causal_5.png"" class=""exp-image"">
                    <div class=""question-area""></div> 
                </div>","null","","","","","","","","",""
"","","","","","html-button-response","89","313153","0.0-89.0","9388B00C20254CC7A073220FB02A8C2C","019cf473-8a09-773e-a215-9f2d1f14d78a","019cf064-09e4-79bc-8453-421c166e6722","","1549","
                <div class=""stimulus-container"">
                    <img src=""images/causal_sequence/dog_causal/dog_causal_5.png"" class=""exp-image"">
                    <div class=""question-area"">
                        <p style=""font-size: 20px; font-weight: bold; margin: 0;"">Is there a person in this image?</p>
                    </div>
                </div>","0","main_experiment_trial","5","dog_causal","causal_sequence","","","","",""
"","","","","","html-keyboard-response","90","318159","0.0-90.0","9388B00C20254CC7A073220FB02A8C2C","019cf473-8a09-773e-a215-9f2d1f14d78a","019cf064-09e4-79bc-8453-421c166e6722","","null","
                <div class=""stimulus-container"">
                    <img src=""images/causal_sequence/dog_causal/dog_causal_6.png"" class=""exp-image"">
                    <div class=""question-area""></div> 
                </div>","null","","","","","","","","",""
"","","","","","html-button-response","91","319191","0.0-91.0","9388B00C20254CC7A073220FB02A8C2C","019cf473-8a09-773e-a215-9f2d1f14d78a","019cf064-09e4-79bc-8453-421c166e6722","","1025","
                <div class=""stimulus-container"">
                    <img src=""images/causal_sequence/dog_causal/dog_causal_6.png"" class=""exp-image"">
                    <div class=""question-area"">
                        <p style=""font-size: 20px; font-weight: bold; margin: 0;"">Is there a person in this image?</p>
                    </div>
                </div>","0","main_experiment_trial","6","dog_causal","causal_sequence","","","","",""
"","","","","","html-keyboard-response","92","324196","0.0-92.0","9388B00C20254CC7A073220FB02A8C2C","019cf473-8a09-773e-a215-9f2d1f14d78a","019cf064-09e4-79bc-8453-421c166e6722","","null","
                <div class=""stimulus-container"">
                    <img src=""images/causal_sequence/dog_causal/dog_causal_7.png"" class=""exp-image"">
                    <div class=""question-area""></div> 
                </div>","null","","","","","","","","",""
"","","","","","html-button-response","93","324951","0.0-93.0","9388B00C20254CC7A073220FB02A8C2C","019cf473-8a09-773e-a215-9f2d1f14d78a","019cf064-09e4-79bc-8453-421c166e6722","","748","
                <div class=""stimulus-container"">
                    <img src=""images/causal_sequence/dog_causal/dog_causal_7.png"" class=""exp-image"">
                    <div class=""question-area"">
                        <p style=""font-size: 20px; font-weight: bold; margin: 0;"">Is there a person in this image?</p>
                    </div>
                </div>","0","main_experiment_trial","7","dog_causal","causal_sequence","","","","",""
"","","","","","html-keyboard-response","94","329956","0.0-94.0","9388B00C20254CC7A073220FB02A8C2C","019cf473-8a09-773e-a215-9f2d1f14d78a","019cf064-09e4-79bc-8453-421c166e6722","","null","
                <div class=""stimulus-container"">
                    <img src=""images/causal_sequence/dog_causal/dog_causal_8.png"" class=""exp-image"">
                    <div class=""question-area""></div> 
                </div>","null","","","","","","","","",""
"","","","","","html-button-response","95","332969","0.0-95.0","9388B00C20254CC7A073220FB02A8C2C","019cf473-8a09-773e-a215-9f2d1f14d78a","019cf064-09e4-79bc-8453-421c166e6722","","null","
                <div class=""stimulus-container"">
                    <img src=""images/causal_sequence/dog_causal/dog_causal_8.png"" class=""exp-image"">
                    <div class=""question-area"">
                        <p style=""font-size: 20px; font-weight: bold; margin: 0;"">Is there a person in this image?</p>
                    </div>
                </div>","null","main_experiment_trial","8","dog_causal","causal_sequence","","","","",""
"","","","","","html-keyboard-response","96","337975","0.0-96.0","9388B00C20254CC7A073220FB02A8C2C","019cf473-8a09-773e-a215-9f2d1f14d78a","019cf064-09e4-79bc-8453-421c166e6722","","null","
                <div class=""stimulus-container"">
                    <img src=""images/causal_sequence/dog_causal/dog_causal_9.png"" class=""exp-image"">
                    <div class=""question-area""></div> 
                </div>","null","","","","","","","","",""
"","","","","","html-button-response","97","338691","0.0-97.0","9388B00C20254CC7A073220FB02A8C2C","019cf473-8a09-773e-a215-9f2d1f14d78a","019cf064-09e4-79bc-8453-421c166e6722","","708","
                <div class=""stimulus-container"">
                    <img src=""images/causal_sequence/dog_causal/dog_causal_9.png"" class=""exp-image"">
                    <div class=""question-area"">
                        <p style=""font-size: 20px; font-weight: bold; margin: 0;"">Is there a person in this image?</p>
                    </div>
                </div>","0","main_experiment_trial","9","dog_causal","causal_sequence","","","","",""
"","","","","","html-keyboard-response","98","343695","0.0-98.0","9388B00C20254CC7A073220FB02A8C2C","019cf473-8a09-773e-a215-9f2d1f14d78a","019cf064-09e4-79bc-8453-421c166e6722","","null","
                <div class=""stimulus-container"">
                    <img src=""images/causal_sequence/dog_causal/dog_causal_ten.png"" class=""exp-image"">
                    <div class=""question-area""></div> 
                </div>","null","","","","","","","","",""
"","","","","","html-button-response","99","344437","0.0-99.0","9388B00C20254CC7A073220FB02A8C2C","019cf473-8a09-773e-a215-9f2d1f14d78a","019cf064-09e4-79bc-8453-421c166e6722","","738","
                <div class=""stimulus-container"">
                    <img src=""images/causal_sequence/dog_causal/dog_causal_ten.png"" class=""exp-image"">
                    <div class=""question-area"">
                        <p style=""font-size: 20px; font-weight: bold; margin: 0;"">Is there a person in this image?</p>
                    </div>
                </div>","0","main_experiment_trial","ten","dog_causal","causal_sequence","","","","",""
"","","","","","html-keyboard-response","100","345442","0.0-100.0","9388B00C20254CC7A073220FB02A8C2C","019cf473-8a09-773e-a215-9f2d1f14d78a","019cf064-09e4-79bc-8453-421c166e6722","","null","<div style=""background-color: white; width: 100vw; height: 100vh;""></div>","null","","","","","","","","",""
"","","","","","html-keyboard-response","101","350451","0.0-101.0","9388B00C20254CC7A073220FB02A8C2C","019cf473-8a09-773e-a215-9f2d1f14d78a","019cf064-09e4-79bc-8453-421c166e6722","","null","
                <div class=""stimulus-container"">
                    <img src=""images/causal_sequence/package_causal/package_causal_1.png"" class=""exp-image"">
                    <div class=""question-area""></div> 
                </div>","null","","","","","","","","",""
"","","","","","html-button-response","102","351241","0.0-102.0","9388B00C20254CC7A073220FB02A8C2C","019cf473-8a09-773e-a215-9f2d1f14d78a","019cf064-09e4-79bc-8453-421c166e6722","","783","
                <div class=""stimulus-container"">
                    <img src=""images/causal_sequence/package_causal/package_causal_1.png"" class=""exp-image"">
                    <div class=""question-area"">
                        <p style=""font-size: 20px; font-weight: bold; margin: 0;"">Is there a person in this image?</p>
                    </div>
                </div>","0","main_experiment_trial","1","package_causal","causal_sequence","","","","",""
"","","","","","html-keyboard-response","103","356246","0.0-103.0","9388B00C20254CC7A073220FB02A8C2C","019cf473-8a09-773e-a215-9f2d1f14d78a","019cf064-09e4-79bc-8453-421c166e6722","","null","
                <div class=""stimulus-container"">
                    <img src=""images/causal_sequence/package_causal/package_causal_2.png"" class=""exp-image"">
                    <div class=""question-area""></div> 
                </div>","null","","","","","","","","",""
"","","","","","html-button-response","104","357011","0.0-104.0","9388B00C20254CC7A073220FB02A8C2C","019cf473-8a09-773e-a215-9f2d1f14d78a","019cf064-09e4-79bc-8453-421c166e6722","","759","
                <div class=""stimulus-container"">
                    <img src=""images/causal_sequence/package_causal/package_causal_2.png"" class=""exp-image"">
                    <div class=""question-area"">
                        <p style=""font-size: 20px; font-weight: bold; margin: 0;"">Is there a person in this image?</p>
                    </div>
                </div>","0","main_experiment_trial","2","package_causal","causal_sequence","","","","",""
"","","","","","html-keyboard-response","105","362018","0.0-105.0","9388B00C20254CC7A073220FB02A8C2C","019cf473-8a09-773e-a215-9f2d1f14d78a","019cf064-09e4-79bc-8453-421c166e6722","","null","
                <div class=""stimulus-container"">
                    <img src=""images/causal_sequence/package_causal/package_causal_3.png"" class=""exp-image"">
                    <div class=""question-area""></div> 
                </div>","null","","","","","","","","",""
"","","","","","html-button-response","106","362787","0.0-106.0","9388B00C20254CC7A073220FB02A8C2C","019cf473-8a09-773e-a215-9f2d1f14d78a","019cf064-09e4-79bc-8453-421c166e6722","","761","
                <div class=""stimulus-container"">
                    <img src=""images/causal_sequence/package_causal/package_causal_3.png"" class=""exp-image"">
                    <div class=""question-area"">
                        <p style=""font-size: 20px; font-weight: bold; margin: 0;"">Is there a person in this image?</p>
                    </div>
                </div>","0","main_experiment_trial","3","package_causal","causal_sequence","","","","",""
"","","","","","html-keyboard-response","107","367790","0.0-107.0","9388B00C20254CC7A073220FB02A8C2C","019cf473-8a09-773e-a215-9f2d1f14d78a","019cf064-09e4-79bc-8453-421c166e6722","","null","
                <div class=""stimulus-container"">
                    <img src=""images/causal_sequence/package_causal/package_causal_4.png"" class=""exp-image"">
                    <div class=""question-area""></div> 
                </div>","null","","","","","","","","",""
"","","","","","html-button-response","108","368466","0.0-108.0","9388B00C20254CC7A073220FB02A8C2C","019cf473-8a09-773e-a215-9f2d1f14d78a","019cf064-09e4-79bc-8453-421c166e6722","","671","
                <div class=""stimulus-container"">
                    <img src=""images/causal_sequence/package_causal/package_causal_4.png"" class=""exp-image"">
                    <div class=""question-area"">
                        <p style=""font-size: 20px; font-weight: bold; margin: 0;"">Is there a person in this image?</p>
                    </div>
                </div>","0","main_experiment_trial","4","package_causal","causal_sequence","","","","",""
"","","","","","html-keyboard-response","109","373471","0.0-109.0","9388B00C20254CC7A073220FB02A8C2C","019cf473-8a09-773e-a215-9f2d1f14d78a","019cf064-09e4-79bc-8453-421c166e6722","","null","
                <div class=""stimulus-container"">
                    <img src=""images/causal_sequence/package_causal/package_causal_5.png"" class=""exp-image"">
                    <div class=""question-area""></div> 
                </div>","null","","","","","","","","",""
"","","","","","html-button-response","110","374140","0.0-110.0","9388B00C20254CC7A073220FB02A8C2C","019cf473-8a09-773e-a215-9f2d1f14d78a","019cf064-09e4-79bc-8453-421c166e6722","","661","
                <div class=""stimulus-container"">
                    <img src=""images/causal_sequence/package_causal/package_causal_5.png"" class=""exp-image"">
                    <div class=""question-area"">
                        <p style=""font-size: 20px; font-weight: bold; margin: 0;"">Is there a person in this image?</p>
                    </div>
                </div>","0","main_experiment_trial","5","package_causal","causal_sequence","","","","",""
"","","","","","html-keyboard-response","111","379145","0.0-111.0","9388B00C20254CC7A073220FB02A8C2C","019cf473-8a09-773e-a215-9f2d1f14d78a","019cf064-09e4-79bc-8453-421c166e6722","","null","
                <div class=""stimulus-container"">
                    <img src=""images/causal_sequence/package_causal/package_causal_6.png"" class=""exp-image"">
                    <div class=""question-area""></div> 
                </div>","null","","","","","","","","",""
"","","","","","html-button-response","112","379922","0.0-112.0","9388B00C20254CC7A073220FB02A8C2C","019cf473-8a09-773e-a215-9f2d1f14d78a","019cf064-09e4-79bc-8453-421c166e6722","","769","
                <div class=""stimulus-container"">
                    <img src=""images/causal_sequence/package_causal/package_causal_6.png"" class=""exp-image"">
                    <div class=""question-area"">
                        <p style=""font-size: 20px; font-weight: bold; margin: 0;"">Is there a person in this image?</p>
                    </div>
                </div>","0","main_experiment_trial","6","package_causal","causal_sequence","","","","",""
"","","","","","html-keyboard-response","113","384927","0.0-113.0","9388B00C20254CC7A073220FB02A8C2C","019cf473-8a09-773e-a215-9f2d1f14d78a","019cf064-09e4-79bc-8453-421c166e6722","","null","
                <div class=""stimulus-container"">
                    <img src=""images/causal_sequence/package_causal/package_causal_7.png"" class=""exp-image"">
                    <div class=""question-area""></div> 
                </div>","null","","","","","","","","",""
"","","","","","html-button-response","114","386318","0.0-114.0","9388B00C20254CC7A073220FB02A8C2C","019cf473-8a09-773e-a215-9f2d1f14d78a","019cf064-09e4-79bc-8453-421c166e6722","","1385","
                <div class=""stimulus-container"">
                    <img src=""images/causal_sequence/package_causal/package_causal_7.png"" class=""exp-image"">
                    <div class=""question-area"">
                        <p style=""font-size: 20px; font-weight: bold; margin: 0;"">Is there a person in this image?</p>
                    </div>
                </div>","0","main_experiment_trial","7","package_causal","causal_sequence","","","","",""
"","","","","","html-keyboard-response","115","391321","0.0-115.0","9388B00C20254CC7A073220FB02A8C2C","019cf473-8a09-773e-a215-9f2d1f14d78a","019cf064-09e4-79bc-8453-421c166e6722","","null","
                <div class=""stimulus-container"">
                    <img src=""images/causal_sequence/package_causal/package_causal_8.png"" class=""exp-image"">
                    <div class=""question-area""></div> 
                </div>","null","","","","","","","","",""
"","","","","","html-button-response","116","392121","0.0-116.0","9388B00C20254CC7A073220FB02A8C2C","019cf473-8a09-773e-a215-9f2d1f14d78a","019cf064-09e4-79bc-8453-421c166e6722","","790","
                <div class=""stimulus-container"">
                    <img src=""images/causal_sequence/package_causal/package_causal_8.png"" class=""exp-image"">
                    <div class=""question-area"">
                        <p style=""font-size: 20px; font-weight: bold; margin: 0;"">Is there a person in this image?</p>
                    </div>
                </div>","0","main_experiment_trial","8","package_causal","causal_sequence","","","","",""
"","","","","","html-keyboard-response","117","397126","0.0-117.0","9388B00C20254CC7A073220FB02A8C2C","019cf473-8a09-773e-a215-9f2d1f14d78a","019cf064-09e4-79bc-8453-421c166e6722","","null","
                <div class=""stimulus-container"">
                    <img src=""images/causal_sequence/package_causal/package_causal_9.png"" class=""exp-image"">
                    <div class=""question-area""></div> 
                </div>","null","","","","","","","","",""
"","","","","","html-button-response","118","398015","0.0-118.0","9388B00C20254CC7A073220FB02A8C2C","019cf473-8a09-773e-a215-9f2d1f14d78a","019cf064-09e4-79bc-8453-421c166e6722","","882","
                <div class=""stimulus-container"">
                    <img src=""images/causal_sequence/package_causal/package_causal_9.png"" class=""exp-image"">
                    <div class=""question-area"">
                        <p style=""font-size: 20px; font-weight: bold; margin: 0;"">Is there a person in this image?</p>
                    </div>
                </div>","0","main_experiment_trial","9","package_causal","causal_sequence","","","","",""
"","","","","","html-keyboard-response","119","403019","0.0-119.0","9388B00C20254CC7A073220FB02A8C2C","019cf473-8a09-773e-a215-9f2d1f14d78a","019cf064-09e4-79bc-8453-421c166e6722","","null","
                <div class=""stimulus-container"">
                    <img src=""images/causal_sequence/package_causal/package_causal_ten.png"" class=""exp-image"">
                    <div class=""question-area""></div> 
                </div>","null","","","","","","","","",""
"","","","","","html-button-response","120","403906","0.0-120.0","9388B00C20254CC7A073220FB02A8C2C","019cf473-8a09-773e-a215-9f2d1f14d78a","019cf064-09e4-79bc-8453-421c166e6722","","879","
                <div class=""stimulus-container"">
                    <img src=""images/causal_sequence/package_causal/package_causal_ten.png"" class=""exp-image"">
                    <div class=""question-area"">
                        <p style=""font-size: 20px; font-weight: bold; margin: 0;"">Is there a person in this image?</p>
                    </div>
                </div>","0","main_experiment_trial","ten","package_causal","causal_sequence","","","","",""
"","","","","","html-keyboard-response","121","404912","0.0-121.0","9388B00C20254CC7A073220FB02A8C2C","019cf473-8a09-773e-a215-9f2d1f14d78a","019cf064-09e4-79bc-8453-421c166e6722","","null","<div style=""background-color: white; width: 100vw; height: 100vh;""></div>","null","","","","","","","","",""
"","","","","","html-keyboard-response","122","409921","0.0-122.0","9388B00C20254CC7A073220FB02A8C2C","019cf473-8a09-773e-a215-9f2d1f14d78a","019cf064-09e4-79bc-8453-421c166e6722","","null","
                <div class=""stimulus-container"">
                    <img src=""images/schematic_sequence/flight_scheme/flight_scheme_1.png"" class=""exp-image"">
                    <div class=""question-area""></div> 
                </div>","null","","","","","","","","",""
"","","","","","html-button-response","123","410823","0.0-123.0","9388B00C20254CC7A073220FB02A8C2C","019cf473-8a09-773e-a215-9f2d1f14d78a","019cf064-09e4-79bc-8453-421c166e6722","","895","
                <div class=""stimulus-container"">
                    <img src=""images/schematic_sequence/flight_scheme/flight_scheme_1.png"" class=""exp-image"">
                    <div class=""question-area"">
                        <p style=""font-size: 20px; font-weight: bold; margin: 0;"">Is there a person in this image?</p>
                    </div>
                </div>","0","main_experiment_trial","1","flight_scheme","schematic_sequence","","","","",""
"","","","","","html-keyboard-response","124","415826","0.0-124.0","9388B00C20254CC7A073220FB02A8C2C","019cf473-8a09-773e-a215-9f2d1f14d78a","019cf064-09e4-79bc-8453-421c166e6722","","null","
                <div class=""stimulus-container"">
                    <img src=""images/schematic_sequence/flight_scheme/flight_scheme_2.png"" class=""exp-image"">
                    <div class=""question-area""></div> 
                </div>","null","","","","","","","","",""
"","","","","","html-button-response","125","416611","0.0-125.0","9388B00C20254CC7A073220FB02A8C2C","019cf473-8a09-773e-a215-9f2d1f14d78a","019cf064-09e4-79bc-8453-421c166e6722","","782","
                <div class=""stimulus-container"">
                    <img src=""images/schematic_sequence/flight_scheme/flight_scheme_2.png"" class=""exp-image"">
                    <div class=""question-area"">
                        <p style=""font-size: 20px; font-weight: bold; margin: 0;"">Is there a person in this image?</p>
                    </div>
                </div>","1","main_experiment_trial","2","flight_scheme","schematic_sequence","","","","",""
"","","","","","html-keyboard-response","126","421618","0.0-126.0","9388B00C20254CC7A073220FB02A8C2C","019cf473-8a09-773e-a215-9f2d1f14d78a","019cf064-09e4-79bc-8453-421c166e6722","","null","
                <div class=""stimulus-container"">
                    <img src=""images/schematic_sequence/flight_scheme/flight_scheme_3.png"" class=""exp-image"">
                    <div class=""question-area""></div> 
                </div>","null","","","","","","","","",""
"","","","","","html-button-response","127","422331","0.0-127.0","9388B00C20254CC7A073220FB02A8C2C","019cf473-8a09-773e-a215-9f2d1f14d78a","019cf064-09e4-79bc-8453-421c166e6722","","703","
                <div class=""stimulus-container"">
                    <img src=""images/schematic_sequence/flight_scheme/flight_scheme_3.png"" class=""exp-image"">
                    <div class=""question-area"">
                        <p style=""font-size: 20px; font-weight: bold; margin: 0;"">Is there a person in this image?</p>
                    </div>
                </div>","0","main_experiment_trial","3","flight_scheme","schematic_sequence","","","","",""
"","","","","","html-keyboard-response","128","427335","0.0-128.0","9388B00C20254CC7A073220FB02A8C2C","019cf473-8a09-773e-a215-9f2d1f14d78a","019cf064-09e4-79bc-8453-421c166e6722","","null","
                <div class=""stimulus-container"">
                    <img src=""images/schematic_sequence/flight_scheme/flight_scheme_4.png"" class=""exp-image"">
                    <div class=""question-area""></div> 
                </div>","null","","","","","","","","",""
"","","","","","html-button-response","129","428176","0.0-129.0","9388B00C20254CC7A073220FB02A8C2C","019cf473-8a09-773e-a215-9f2d1f14d78a","019cf064-09e4-79bc-8453-421c166e6722","","835","
                <div class=""stimulus-container"">
                    <img src=""images/schematic_sequence/flight_scheme/flight_scheme_4.png"" class=""exp-image"">
                    <div class=""question-area"">
                        <p style=""font-size: 20px; font-weight: bold; margin: 0;"">Is there a person in this image?</p>
                    </div>
                </div>","0","main_experiment_trial","4","flight_scheme","schematic_sequence","","","","",""
"","","","","","html-keyboard-response","130","433182","0.0-130.0","9388B00C20254CC7A073220FB02A8C2C","019cf473-8a09-773e-a215-9f2d1f14d78a","019cf064-09e4-79bc-8453-421c166e6722","","null","
                <div class=""stimulus-container"">
                    <img src=""images/schematic_sequence/flight_scheme/flight_scheme_5.png"" class=""exp-image"">
                    <div class=""question-area""></div> 
                </div>","null","","","","","","","","",""
"","","","","","html-button-response","131","434129","0.0-131.0","9388B00C20254CC7A073220FB02A8C2C","019cf473-8a09-773e-a215-9f2d1f14d78a","019cf064-09e4-79bc-8453-421c166e6722","","941","
                <div class=""stimulus-container"">
                    <img src=""images/schematic_sequence/flight_scheme/flight_scheme_5.png"" class=""exp-image"">
                    <div class=""question-area"">
                        <p style=""font-size: 20px; font-weight: bold; margin: 0;"">Is there a person in this image?</p>
                    </div>
                </div>","0","main_experiment_trial","5","flight_scheme","schematic_sequence","","","","",""
"","","","","","html-keyboard-response","132","439135","0.0-132.0","9388B00C20254CC7A073220FB02A8C2C","019cf473-8a09-773e-a215-9f2d1f14d78a","019cf064-09e4-79bc-8453-421c166e6722","","null","
                <div class=""stimulus-container"">
                    <img src=""images/schematic_sequence/flight_scheme/flight_scheme_6.png"" class=""exp-image"">
                    <div class=""question-area""></div> 
                </div>","null","","","","","","","","",""
"","","","","","html-button-response","133","440130","0.0-133.0","9388B00C20254CC7A073220FB02A8C2C","019cf473-8a09-773e-a215-9f2d1f14d78a","019cf064-09e4-79bc-8453-421c166e6722","","989","
                <div class=""stimulus-container"">
                    <img src=""images/schematic_sequence/flight_scheme/flight_scheme_6.png"" class=""exp-image"">
                    <div class=""question-area"">
                        <p style=""font-size: 20px; font-weight: bold; margin: 0;"">Is there a person in this image?</p>
                    </div>
                </div>","0","main_experiment_trial","6","flight_scheme","schematic_sequence","","","","",""
"","","","","","html-keyboard-response","134","445135","0.0-134.0","9388B00C20254CC7A073220FB02A8C2C","019cf473-8a09-773e-a215-9f2d1f14d78a","019cf064-09e4-79bc-8453-421c166e6722","","null","
                <div class=""stimulus-container"">
                    <img src=""images/schematic_sequence/flight_scheme/flight_scheme_7.png"" class=""exp-image"">
                    <div class=""question-area""></div> 
                </div>","null","","","","","","","","",""
"","","","","","html-button-response","135","445810","0.0-135.0","9388B00C20254CC7A073220FB02A8C2C","019cf473-8a09-773e-a215-9f2d1f14d78a","019cf064-09e4-79bc-8453-421c166e6722","","667","
                <div class=""stimulus-container"">
                    <img src=""images/schematic_sequence/flight_scheme/flight_scheme_7.png"" class=""exp-image"">
                    <div class=""question-area"">
                        <p style=""font-size: 20px; font-weight: bold; margin: 0;"">Is there a person in this image?</p>
                    </div>
                </div>","0","main_experiment_trial","7","flight_scheme","schematic_sequence","","","","",""
"","","","","","html-keyboard-response","136","450815","0.0-136.0","9388B00C20254CC7A073220FB02A8C2C","019cf473-8a09-773e-a215-9f2d1f14d78a","019cf064-09e4-79bc-8453-421c166e6722","","null","
                <div class=""stimulus-container"">
                    <img src=""images/schematic_sequence/flight_scheme/flight_scheme_8.png"" class=""exp-image"">
                    <div class=""question-area""></div> 
                </div>","null","","","","","","","","",""
"","","","","","html-button-response","137","451592","0.0-137.0","9388B00C20254CC7A073220FB02A8C2C","019cf473-8a09-773e-a215-9f2d1f14d78a","019cf064-09e4-79bc-8453-421c166e6722","","767","
                <div class=""stimulus-container"">
                    <img src=""images/schematic_sequence/flight_scheme/flight_scheme_8.png"" class=""exp-image"">
                    <div class=""question-area"">
                        <p style=""font-size: 20px; font-weight: bold; margin: 0;"">Is there a person in this image?</p>
                    </div>
                </div>","1","main_experiment_trial","8","flight_scheme","schematic_sequence","","","","",""
"","","","","","html-keyboard-response","138","456597","0.0-138.0","9388B00C20254CC7A073220FB02A8C2C","019cf473-8a09-773e-a215-9f2d1f14d78a","019cf064-09e4-79bc-8453-421c166e6722","","null","
                <div class=""stimulus-container"">
                    <img src=""images/schematic_sequence/flight_scheme/flight_scheme_9.png"" class=""exp-image"">
                    <div class=""question-area""></div> 
                </div>","null","","","","","","","","",""
"","","","","","html-button-response","139","457284","0.0-139.0","9388B00C20254CC7A073220FB02A8C2C","019cf473-8a09-773e-a215-9f2d1f14d78a","019cf064-09e4-79bc-8453-421c166e6722","","679","
                <div class=""stimulus-container"">
                    <img src=""images/schematic_sequence/flight_scheme/flight_scheme_9.png"" class=""exp-image"">
                    <div class=""question-area"">
                        <p style=""font-size: 20px; font-weight: bold; margin: 0;"">Is there a person in this image?</p>
                    </div>
                </div>","0","main_experiment_trial","9","flight_scheme","schematic_sequence","","","","",""
"","","","","","html-keyboard-response","140","462288","0.0-140.0","9388B00C20254CC7A073220FB02A8C2C","019cf473-8a09-773e-a215-9f2d1f14d78a","019cf064-09e4-79bc-8453-421c166e6722","","null","
                <div class=""stimulus-container"">
                    <img src=""images/schematic_sequence/flight_scheme/flight_scheme_ten.png"" class=""exp-image"">
                    <div class=""question-area""></div> 
                </div>","null","","","","","","","","",""
"","","","","","html-button-response","141","462987","0.0-141.0","9388B00C20254CC7A073220FB02A8C2C","019cf473-8a09-773e-a215-9f2d1f14d78a","019cf064-09e4-79bc-8453-421c166e6722","","693","
                <div class=""stimulus-container"">
                    <img src=""images/schematic_sequence/flight_scheme/flight_scheme_ten.png"" class=""exp-image"">
                    <div class=""question-area"">
                        <p style=""font-size: 20px; font-weight: bold; margin: 0;"">Is there a person in this image?</p>
                    </div>
                </div>","0","main_experiment_trial","ten","flight_scheme","schematic_sequence","","","","",""
"","","","","","html-keyboard-response","142","463991","0.0-142.0","9388B00C20254CC7A073220FB02A8C2C","019cf473-8a09-773e-a215-9f2d1f14d78a","019cf064-09e4-79bc-8453-421c166e6722","","null","<div style=""background-color: white; width: 100vw; height: 100vh;""></div>","null","","","","","","","","",""
"","","","","","html-keyboard-response","143","468997","0.0-143.0","9388B00C20254CC7A073220FB02A8C2C","019cf473-8a09-773e-a215-9f2d1f14d78a","019cf064-09e4-79bc-8453-421c166e6722","","null","
                <div class=""stimulus-container"">
                    <img src=""images/schematic_sequence/restaurant_scheme/restaurant_scheme_1.png"" class=""exp-image"">
                    <div class=""question-area""></div> 
                </div>","null","","","","","","","","",""
"","","","","","html-button-response","144","469624","0.0-144.0","9388B00C20254CC7A073220FB02A8C2C","019cf473-8a09-773e-a215-9f2d1f14d78a","019cf064-09e4-79bc-8453-421c166e6722","","621","
                <div class=""stimulus-container"">
                    <img src=""images/schematic_sequence/restaurant_scheme/restaurant_scheme_1.png"" class=""exp-image"">
                    <div class=""question-area"">
                        <p style=""font-size: 20px; font-weight: bold; margin: 0;"">Is there a person in this image?</p>
                    </div>
                </div>","0","main_experiment_trial","1","restaurant_scheme","schematic_sequence","","","","",""
"","","","","","html-keyboard-response","145","474631","0.0-145.0","9388B00C20254CC7A073220FB02A8C2C","019cf473-8a09-773e-a215-9f2d1f14d78a","019cf064-09e4-79bc-8453-421c166e6722","","null","
                <div class=""stimulus-container"">
                    <img src=""images/schematic_sequence/restaurant_scheme/restaurant_scheme_2.png"" class=""exp-image"">
                    <div class=""question-area""></div> 
                </div>","null","","","","","","","","",""
"","","","","","html-button-response","146","475381","0.0-146.0","9388B00C20254CC7A073220FB02A8C2C","019cf473-8a09-773e-a215-9f2d1f14d78a","019cf064-09e4-79bc-8453-421c166e6722","","743","
                <div class=""stimulus-container"">
                    <img src=""images/schematic_sequence/restaurant_scheme/restaurant_scheme_2.png"" class=""exp-image"">
                    <div class=""question-area"">
                        <p style=""font-size: 20px; font-weight: bold; margin: 0;"">Is there a person in this image?</p>
                    </div>
                </div>","1","main_experiment_trial","2","restaurant_scheme","schematic_sequence","","","","",""
"","","","","","html-keyboard-response","147","480386","0.0-147.0","9388B00C20254CC7A073220FB02A8C2C","019cf473-8a09-773e-a215-9f2d1f14d78a","019cf064-09e4-79bc-8453-421c166e6722","","null","
                <div class=""stimulus-container"">
                    <img src=""images/schematic_sequence/restaurant_scheme/restaurant_scheme_3.png"" class=""exp-image"">
                    <div class=""question-area""></div> 
                </div>","null","","","","","","","","",""
"","","","","","html-button-response","148","483399","0.0-148.0","9388B00C20254CC7A073220FB02A8C2C","019cf473-8a09-773e-a215-9f2d1f14d78a","019cf064-09e4-79bc-8453-421c166e6722","","null","
                <div class=""stimulus-container"">
                    <img src=""images/schematic_sequence/restaurant_scheme/restaurant_scheme_3.png"" class=""exp-image"">
                    <div class=""question-area"">
                        <p style=""font-size: 20px; font-weight: bold; margin: 0;"">Is there a person in this image?</p>
                    </div>
                </div>","null","main_experiment_trial","3","restaurant_scheme","schematic_sequence","","","","",""
"","","","","","html-keyboard-response","149","488409","0.0-149.0","9388B00C20254CC7A073220FB02A8C2C","019cf473-8a09-773e-a215-9f2d1f14d78a","019cf064-09e4-79bc-8453-421c166e6722","","null","
                <div class=""stimulus-container"">
                    <img src=""images/schematic_sequence/restaurant_scheme/restaurant_scheme_4.png"" class=""exp-image"">
                    <div class=""question-area""></div> 
                </div>","null","","","","","","","","",""
"","","","","","html-button-response","150","489315","0.0-150.0","9388B00C20254CC7A073220FB02A8C2C","019cf473-8a09-773e-a215-9f2d1f14d78a","019cf064-09e4-79bc-8453-421c166e6722","","898","
                <div class=""stimulus-container"">
                    <img src=""images/schematic_sequence/restaurant_scheme/restaurant_scheme_4.png"" class=""exp-image"">
                    <div class=""question-area"">
                        <p style=""font-size: 20px; font-weight: bold; margin: 0;"">Is there a person in this image?</p>
                    </div>
                </div>","0","main_experiment_trial","4","restaurant_scheme","schematic_sequence","","","","",""
"","","","","","html-keyboard-response","151","494318","0.0-151.0","9388B00C20254CC7A073220FB02A8C2C","019cf473-8a09-773e-a215-9f2d1f14d78a","019cf064-09e4-79bc-8453-421c166e6722","","null","
                <div class=""stimulus-container"">
                    <img src=""images/schematic_sequence/restaurant_scheme/restaurant_scheme_5.png"" class=""exp-image"">
                    <div class=""question-area""></div> 
                </div>","null","","","","","","","","",""
"","","","","","html-button-response","152","495105","0.0-152.0","9388B00C20254CC7A073220FB02A8C2C","019cf473-8a09-773e-a215-9f2d1f14d78a","019cf064-09e4-79bc-8453-421c166e6722","","780","
                <div class=""stimulus-container"">
                    <img src=""images/schematic_sequence/restaurant_scheme/restaurant_scheme_5.png"" class=""exp-image"">
                    <div class=""question-area"">
                        <p style=""font-size: 20px; font-weight: bold; margin: 0;"">Is there a person in this image?</p>
                    </div>
                </div>","0","main_experiment_trial","5","restaurant_scheme","schematic_sequence","","","","",""
"","","","","","html-keyboard-response","153","500110","0.0-153.0","9388B00C20254CC7A073220FB02A8C2C","019cf473-8a09-773e-a215-9f2d1f14d78a","019cf064-09e4-79bc-8453-421c166e6722","","null","
                <div class=""stimulus-container"">
                    <img src=""images/schematic_sequence/restaurant_scheme/restaurant_scheme_6.png"" class=""exp-image"">
                    <div class=""question-area""></div> 
                </div>","null","","","","","","","","",""
"","","","","","html-button-response","154","500893","0.0-154.0","9388B00C20254CC7A073220FB02A8C2C","019cf473-8a09-773e-a215-9f2d1f14d78a","019cf064-09e4-79bc-8453-421c166e6722","","776","
                <div class=""stimulus-container"">
                    <img src=""images/schematic_sequence/restaurant_scheme/restaurant_scheme_6.png"" class=""exp-image"">
                    <div class=""question-area"">
                        <p style=""font-size: 20px; font-weight: bold; margin: 0;"">Is there a person in this image?</p>
                    </div>
                </div>","1","main_experiment_trial","6","restaurant_scheme","schematic_sequence","","","","",""
"","","","","","html-keyboard-response","155","505897","0.0-155.0","9388B00C20254CC7A073220FB02A8C2C","019cf473-8a09-773e-a215-9f2d1f14d78a","019cf064-09e4-79bc-8453-421c166e6722","","null","
                <div class=""stimulus-container"">
                    <img src=""images/schematic_sequence/restaurant_scheme/restaurant_scheme_7.png"" class=""exp-image"">
                    <div class=""question-area""></div> 
                </div>","null","","","","","","","","",""
"","","","","","html-button-response","156","506556","0.0-156.0","9388B00C20254CC7A073220FB02A8C2C","019cf473-8a09-773e-a215-9f2d1f14d78a","019cf064-09e4-79bc-8453-421c166e6722","","652","
                <div class=""stimulus-container"">
                    <img src=""images/schematic_sequence/restaurant_scheme/restaurant_scheme_7.png"" class=""exp-image"">
                    <div class=""question-area"">
                        <p style=""font-size: 20px; font-weight: bold; margin: 0;"">Is there a person in this image?</p>
                    </div>
                </div>","1","main_experiment_trial","7","restaurant_scheme","schematic_sequence","","","","",""
"","","","","","html-keyboard-response","157","511563","0.0-157.0","9388B00C20254CC7A073220FB02A8C2C","019cf473-8a09-773e-a215-9f2d1f14d78a","019cf064-09e4-79bc-8453-421c166e6722","","null","
                <div class=""stimulus-container"">
                    <img src=""images/schematic_sequence/restaurant_scheme/restaurant_scheme_8.png"" class=""exp-image"">
                    <div class=""question-area""></div> 
                </div>","null","","","","","","","","",""
"","","","","","html-button-response","158","512260","0.0-158.0","9388B00C20254CC7A073220FB02A8C2C","019cf473-8a09-773e-a215-9f2d1f14d78a","019cf064-09e4-79bc-8453-421c166e6722","","689","
                <div class=""stimulus-container"">
                    <img src=""images/schematic_sequence/restaurant_scheme/restaurant_scheme_8.png"" class=""exp-image"">
                    <div class=""question-area"">
                        <p style=""font-size: 20px; font-weight: bold; margin: 0;"">Is there a person in this image?</p>
                    </div>
                </div>","0","main_experiment_trial","8","restaurant_scheme","schematic_sequence","","","","",""
"","","","","","html-keyboard-response","159","517266","0.0-159.0","9388B00C20254CC7A073220FB02A8C2C","019cf473-8a09-773e-a215-9f2d1f14d78a","019cf064-09e4-79bc-8453-421c166e6722","","null","
                <div class=""stimulus-container"">
                    <img src=""images/schematic_sequence/restaurant_scheme/restaurant_scheme_9.png"" class=""exp-image"">
                    <div class=""question-area""></div> 
                </div>","null","","","","","","","","",""
"","","","","","html-button-response","160","517948","0.0-160.0","9388B00C20254CC7A073220FB02A8C2C","019cf473-8a09-773e-a215-9f2d1f14d78a","019cf064-09e4-79bc-8453-421c166e6722","","676","
                <div class=""stimulus-container"">
                    <img src=""images/schematic_sequence/restaurant_scheme/restaurant_scheme_9.png"" class=""exp-image"">
                    <div class=""question-area"">
                        <p style=""font-size: 20px; font-weight: bold; margin: 0;"">Is there a person in this image?</p>
                    </div>
                </div>","0","main_experiment_trial","9","restaurant_scheme","schematic_sequence","","","","",""
"","","","","","html-keyboard-response","161","522953","0.0-161.0","9388B00C20254CC7A073220FB02A8C2C","019cf473-8a09-773e-a215-9f2d1f14d78a","019cf064-09e4-79bc-8453-421c166e6722","","null","
                <div class=""stimulus-container"">
                    <img src=""images/schematic_sequence/restaurant_scheme/restaurant_scheme_ten.png"" class=""exp-image"">
                    <div class=""question-area""></div> 
                </div>","null","","","","","","","","",""
"","","","","","html-button-response","162","524338","0.0-162.0","9388B00C20254CC7A073220FB02A8C2C","019cf473-8a09-773e-a215-9f2d1f14d78a","019cf064-09e4-79bc-8453-421c166e6722","","1377","
                <div class=""stimulus-container"">
                    <img src=""images/schematic_sequence/restaurant_scheme/restaurant_scheme_ten.png"" class=""exp-image"">
                    <div class=""question-area"">
                        <p style=""font-size: 20px; font-weight: bold; margin: 0;"">Is there a person in this image?</p>
                    </div>
                </div>","0","main_experiment_trial","ten","restaurant_scheme","schematic_sequence","","","","",""
"","","","","","html-keyboard-response","163","525342","0.0-163.0","9388B00C20254CC7A073220FB02A8C2C","019cf473-8a09-773e-a215-9f2d1f14d78a","019cf064-09e4-79bc-8453-421c166e6722","","null","<div style=""background-color: white; width: 100vw; height: 100vh;""></div>","null","","","","","","","","",""
"","","","","","html-keyboard-response","164","530349","0.0-164.0","9388B00C20254CC7A073220FB02A8C2C","019cf473-8a09-773e-a215-9f2d1f14d78a","019cf064-09e4-79bc-8453-421c166e6722","","null","
                <div class=""stimulus-container"">
                    <img src=""images/causal_sequence/saving_a_cat_causal/saving_a_cat_causal_1.png"" class=""exp-image"">
                    <div class=""question-area""></div> 
                </div>","null","","","","","","","","",""
"","","","","","html-button-response","165","531251","0.0-165.0","9388B00C20254CC7A073220FB02A8C2C","019cf473-8a09-773e-a215-9f2d1f14d78a","019cf064-09e4-79bc-8453-421c166e6722","","896","
                <div class=""stimulus-container"">
                    <img src=""images/causal_sequence/saving_a_cat_causal/saving_a_cat_causal_1.png"" class=""exp-image"">
                    <div class=""question-area"">
                        <p style=""font-size: 20px; font-weight: bold; margin: 0;"">Is there a person in this image?</p>
                    </div>
                </div>","0","main_experiment_trial","1","saving_a_cat_causal","causal_sequence","","","","",""
"","","","","","html-keyboard-response","166","536256","0.0-166.0","9388B00C20254CC7A073220FB02A8C2C","019cf473-8a09-773e-a215-9f2d1f14d78a","019cf064-09e4-79bc-8453-421c166e6722","","null","
                <div class=""stimulus-container"">
                    <img src=""images/causal_sequence/saving_a_cat_causal/saving_a_cat_causal_2.png"" class=""exp-image"">
                    <div class=""question-area""></div> 
                </div>","null","","","","","","","","",""
"","","","","","html-button-response","167","537255","0.0-167.0","9388B00C20254CC7A073220FB02A8C2C","019cf473-8a09-773e-a215-9f2d1f14d78a","019cf064-09e4-79bc-8453-421c166e6722","","992","
                <div class=""stimulus-container"">
                    <img src=""images/causal_sequence/saving_a_cat_causal/saving_a_cat_causal_2.png"" class=""exp-image"">
                    <div class=""question-area"">
                        <p style=""font-size: 20px; font-weight: bold; margin: 0;"">Is there a person in this image?</p>
                    </div>
                </div>","0","main_experiment_trial","2","saving_a_cat_causal","causal_sequence","","","","",""
"","","","","","html-keyboard-response","168","542259","0.0-168.0","9388B00C20254CC7A073220FB02A8C2C","019cf473-8a09-773e-a215-9f2d1f14d78a","019cf064-09e4-79bc-8453-421c166e6722","","null","
                <div class=""stimulus-container"">
                    <img src=""images/causal_sequence/saving_a_cat_causal/saving_a_cat_causal_3.png"" class=""exp-image"">
                    <div class=""question-area""></div> 
                </div>","null","","","","","","","","",""
"","","","","","html-button-response","169","543001","0.0-169.0","9388B00C20254CC7A073220FB02A8C2C","019cf473-8a09-773e-a215-9f2d1f14d78a","019cf064-09e4-79bc-8453-421c166e6722","","736","
                <div class=""stimulus-container"">
                    <img src=""images/causal_sequence/saving_a_cat_causal/saving_a_cat_causal_3.png"" class=""exp-image"">
                    <div class=""question-area"">
                        <p style=""font-size: 20px; font-weight: bold; margin: 0;"">Is there a person in this image?</p>
                    </div>
                </div>","1","main_experiment_trial","3","saving_a_cat_causal","causal_sequence","","","","",""
"","","","","","html-keyboard-response","170","548007","0.0-170.0","9388B00C20254CC7A073220FB02A8C2C","019cf473-8a09-773e-a215-9f2d1f14d78a","019cf064-09e4-79bc-8453-421c166e6722","","null","
                <div class=""stimulus-container"">
                    <img src=""images/causal_sequence/saving_a_cat_causal/saving_a_cat_causal_4.png"" class=""exp-image"">
                    <div class=""question-area""></div> 
                </div>","null","","","","","","","","",""
"","","","","","html-button-response","171","548669","0.0-171.0","9388B00C20254CC7A073220FB02A8C2C","019cf473-8a09-773e-a215-9f2d1f14d78a","019cf064-09e4-79bc-8453-421c166e6722","","654","
                <div class=""stimulus-container"">
                    <img src=""images/causal_sequence/saving_a_cat_causal/saving_a_cat_causal_4.png"" class=""exp-image"">
                    <div class=""question-area"">
                        <p style=""font-size: 20px; font-weight: bold; margin: 0;"">Is there a person in this image?</p>
                    </div>
                </div>","0","main_experiment_trial","4","saving_a_cat_causal","causal_sequence","","","","",""
"","","","","","html-keyboard-response","172","553673","0.0-172.0","9388B00C20254CC7A073220FB02A8C2C","019cf473-8a09-773e-a215-9f2d1f14d78a","019cf064-09e4-79bc-8453-421c166e6722","","null","
                <div class=""stimulus-container"">
                    <img src=""images/causal_sequence/saving_a_cat_causal/saving_a_cat_causal_5.png"" class=""exp-image"">
                    <div class=""question-area""></div> 
                </div>","null","","","","","","","","",""
"","","","","","html-button-response","173","554779","0.0-173.0","9388B00C20254CC7A073220FB02A8C2C","019cf473-8a09-773e-a215-9f2d1f14d78a","019cf064-09e4-79bc-8453-421c166e6722","","1100","
                <div class=""stimulus-container"">
                    <img src=""images/causal_sequence/saving_a_cat_causal/saving_a_cat_causal_5.png"" class=""exp-image"">
                    <div class=""question-area"">
                        <p style=""font-size: 20px; font-weight: bold; margin: 0;"">Is there a person in this image?</p>
                    </div>
                </div>","0","main_experiment_trial","5","saving_a_cat_causal","causal_sequence","","","","",""
"","","","","","html-keyboard-response","174","559785","0.0-174.0","9388B00C20254CC7A073220FB02A8C2C","019cf473-8a09-773e-a215-9f2d1f14d78a","019cf064-09e4-79bc-8453-421c166e6722","","null","
                <div class=""stimulus-container"">
                    <img src=""images/causal_sequence/saving_a_cat_causal/saving_a_cat_causal_6.png"" class=""exp-image"">
                    <div class=""question-area""></div> 
                </div>","null","","","","","","","","",""
"","","","","","html-button-response","175","560834","0.0-175.0","9388B00C20254CC7A073220FB02A8C2C","019cf473-8a09-773e-a215-9f2d1f14d78a","019cf064-09e4-79bc-8453-421c166e6722","","1039","
                <div class=""stimulus-container"">
                    <img src=""images/causal_sequence/saving_a_cat_causal/saving_a_cat_causal_6.png"" class=""exp-image"">
                    <div class=""question-area"">
                        <p style=""font-size: 20px; font-weight: bold; margin: 0;"">Is there a person in this image?</p>
                    </div>
                </div>","0","main_experiment_trial","6","saving_a_cat_causal","causal_sequence","","","","",""
"","","","","","html-keyboard-response","176","565838","0.0-176.0","9388B00C20254CC7A073220FB02A8C2C","019cf473-8a09-773e-a215-9f2d1f14d78a","019cf064-09e4-79bc-8453-421c166e6722","","null","
                <div class=""stimulus-container"">
                    <img src=""images/causal_sequence/saving_a_cat_causal/saving_a_cat_causal_7.png"" class=""exp-image"">
                    <div class=""question-area""></div> 
                </div>","null","","","","","","","","",""
"","","","","","html-button-response","177","567144","0.0-177.0","9388B00C20254CC7A073220FB02A8C2C","019cf473-8a09-773e-a215-9f2d1f14d78a","019cf064-09e4-79bc-8453-421c166e6722","","1299","
                <div class=""stimulus-container"">
                    <img src=""images/causal_sequence/saving_a_cat_causal/saving_a_cat_causal_7.png"" class=""exp-image"">
                    <div class=""question-area"">
                        <p style=""font-size: 20px; font-weight: bold; margin: 0;"">Is there a person in this image?</p>
                    </div>
                </div>","0","main_experiment_trial","7","saving_a_cat_causal","causal_sequence","","","","",""
"","","","","","html-keyboard-response","178","572151","0.0-178.0","9388B00C20254CC7A073220FB02A8C2C","019cf473-8a09-773e-a215-9f2d1f14d78a","019cf064-09e4-79bc-8453-421c166e6722","","null","
                <div class=""stimulus-container"">
                    <img src=""images/causal_sequence/saving_a_cat_causal/saving_a_cat_causal_8.png"" class=""exp-image"">
                    <div class=""question-area""></div> 
                </div>","null","","","","","","","","",""
"","","","","","html-button-response","179","572937","0.0-179.0","9388B00C20254CC7A073220FB02A8C2C","019cf473-8a09-773e-a215-9f2d1f14d78a","019cf064-09e4-79bc-8453-421c166e6722","","779","
                <div class=""stimulus-container"">
                    <img src=""images/causal_sequence/saving_a_cat_causal/saving_a_cat_causal_8.png"" class=""exp-image"">
                    <div class=""question-area"">
                        <p style=""font-size: 20px; font-weight: bold; margin: 0;"">Is there a person in this image?</p>
                    </div>
                </div>","0","main_experiment_trial","8","saving_a_cat_causal","causal_sequence","","","","",""
"","","","","","html-keyboard-response","180","577941","0.0-180.0","9388B00C20254CC7A073220FB02A8C2C","019cf473-8a09-773e-a215-9f2d1f14d78a","019cf064-09e4-79bc-8453-421c166e6722","","null","
                <div class=""stimulus-container"">
                    <img src=""images/causal_sequence/saving_a_cat_causal/saving_a_cat_causal_9.png"" class=""exp-image"">
                    <div class=""question-area""></div> 
                </div>","null","","","","","","","","",""
"","","","","","html-button-response","181","579061","0.0-181.0","9388B00C20254CC7A073220FB02A8C2C","019cf473-8a09-773e-a215-9f2d1f14d78a","019cf064-09e4-79bc-8453-421c166e6722","","1113","
                <div class=""stimulus-container"">
                    <img src=""images/causal_sequence/saving_a_cat_causal/saving_a_cat_causal_9.png"" class=""exp-image"">
                    <div class=""question-area"">
                        <p style=""font-size: 20px; font-weight: bold; margin: 0;"">Is there a person in this image?</p>
                    </div>
                </div>","0","main_experiment_trial","9","saving_a_cat_causal","causal_sequence","","","","",""
"","","","","","html-keyboard-response","182","584066","0.0-182.0","9388B00C20254CC7A073220FB02A8C2C","019cf473-8a09-773e-a215-9f2d1f14d78a","019cf064-09e4-79bc-8453-421c166e6722","","null","
                <div class=""stimulus-container"">
                    <img src=""images/causal_sequence/saving_a_cat_causal/saving_a_cat_causal_ten.png"" class=""exp-image"">
                    <div class=""question-area""></div> 
                </div>","null","","","","","","","","",""
"","","","","","html-button-response","183","585202","0.0-183.0","9388B00C20254CC7A073220FB02A8C2C","019cf473-8a09-773e-a215-9f2d1f14d78a","019cf064-09e4-79bc-8453-421c166e6722","","1133","
                <div class=""stimulus-container"">
