"success","timeout","failed_images","failed_audio","failed_video","trial_type","trial_index","time_elapsed","internal_node_id","subject_id","study_id","session_id","view_history","rt","stimulus","response","task","image_index","folder","sequence_type","presentation_order","valuable_image_index","reward_type","distance_from_x","target_X","chosen_image_index","is_x_plus_dist","correct_choice"
"true","false","[]","[]","[]","preload","0","15186","0.0-0.0","CA4EAEC0FBE64074B392C4FC03A8A203","019d6b18-3cf8-7c33-9832-cf4e6b7c5afc","019d6ae6-5d89-74c6-b581-3918d1816346","","","","","","","","","","","","","","","",""
"","","","","","instructions","1","19214","0.0-1.0","CA4EAEC0FBE64074B392C4FC03A8A203","019d6b18-3cf8-7c33-9832-cf4e6b7c5afc","019d6ae6-5d89-74c6-b581-3918d1816346","[{""page_index"":0,""viewing_time"":4027}]","4027","","","","","","","","","","","","","",""
"","","","","","instructions","2","29343","0.0-2.0","CA4EAEC0FBE64074B392C4FC03A8A203","019d6b18-3cf8-7c33-9832-cf4e6b7c5afc","019d6ae6-5d89-74c6-b581-3918d1816346","[{""page_index"":0,""viewing_time"":10129}]","10129","","","","","","","","","","","","","",""
"true","","","","","fullscreen","3","43079","0.0-3.0","CA4EAEC0FBE64074B392C4FC03A8A203","019d6b18-3cf8-7c33-9832-cf4e6b7c5afc","019d6ae6-5d89-74c6-b581-3918d1816346","","12721","","","","","","","","","","","","","",""
"","","","","","instructions","4","54258","0.0-4.0","CA4EAEC0FBE64074B392C4FC03A8A203","019d6b18-3cf8-7c33-9832-cf4e6b7c5afc","019d6ae6-5d89-74c6-b581-3918d1816346","[{""page_index"":0,""viewing_time"":11178}]","11178","","","","","","","","","","","","","",""
"","","","","","instructions","5","70388","0.0-5.0","CA4EAEC0FBE64074B392C4FC03A8A203","019d6b18-3cf8-7c33-9832-cf4e6b7c5afc","019d6ae6-5d89-74c6-b581-3918d1816346","[{""page_index"":0,""viewing_time"":16130}]","16130","","","","","","","","","","","","","",""
"","","","","","html-keyboard-response","6","74399","0.0-6.0","CA4EAEC0FBE64074B392C4FC03A8A203","019d6b18-3cf8-7c33-9832-cf4e6b7c5afc","019d6ae6-5d89-74c6-b581-3918d1816346","","null","
            <div class=""stimulus-container"">
                <img src=""images/instructions/movie_1.png"" class=""exp-image"">
                <div class=""question-area""></div> 
            </div>","null","","","","","","","","","","","",""
"","","","","","html-button-response","7","77405","0.0-7.0","CA4EAEC0FBE64074B392C4FC03A8A203","019d6b18-3cf8-7c33-9832-cf4e6b7c5afc","019d6ae6-5d89-74c6-b581-3918d1816346","","null","
            <div class=""stimulus-container"">
                <img src=""images/instructions/movie_1.png"" class=""exp-image"">
                <div class=""question-area"">
                    <p style=""font-size: 20px; font-weight: bold; margin: 0;"">Was there a person in this image?</p>
                </div>
            </div>","null","example_question","1","","","","","","","","","",""
"","","","","","html-keyboard-response","8","81415","0.0-8.0","CA4EAEC0FBE64074B392C4FC03A8A203","019d6b18-3cf8-7c33-9832-cf4e6b7c5afc","019d6ae6-5d89-74c6-b581-3918d1816346","","null","
            <div class=""stimulus-container"">
                <img src=""images/instructions/movie_2.png"" class=""exp-image"">
                <div class=""question-area""></div> 
            </div>","null","","","","","","","","","","","",""
"","","","","","html-button-response","9","82420","0.0-9.0","CA4EAEC0FBE64074B392C4FC03A8A203","019d6b18-3cf8-7c33-9832-cf4e6b7c5afc","019d6ae6-5d89-74c6-b581-3918d1816346","","1003","
            <div class=""stimulus-container"">
                <img src=""images/instructions/movie_2.png"" class=""exp-image"">
                <div class=""question-area"">
                    <p style=""font-size: 20px; font-weight: bold; margin: 0;"">Was there a person in this image?</p>
                </div>
            </div>","0","example_question","2","","","","","","","","","",""
"","","","","","html-keyboard-response","10","86422","0.0-10.0","CA4EAEC0FBE64074B392C4FC03A8A203","019d6b18-3cf8-7c33-9832-cf4e6b7c5afc","019d6ae6-5d89-74c6-b581-3918d1816346","","null","
            <div class=""stimulus-container"">
                <img src=""images/instructions/movie_3.png"" class=""exp-image"">
                <div class=""question-area""></div> 
            </div>","null","","","","","","","","","","","",""
"","","","","","html-button-response","11","87424","0.0-11.0","CA4EAEC0FBE64074B392C4FC03A8A203","019d6b18-3cf8-7c33-9832-cf4e6b7c5afc","019d6ae6-5d89-74c6-b581-3918d1816346","","1002","
            <div class=""stimulus-container"">
                <img src=""images/instructions/movie_3.png"" class=""exp-image"">
                <div class=""question-area"">
                    <p style=""font-size: 20px; font-weight: bold; margin: 0;"">Was there a person in this image?</p>
                </div>
            </div>","0","example_question","3","","","","","","","","","",""
"","","","","","html-keyboard-response","12","91433","0.0-12.0","CA4EAEC0FBE64074B392C4FC03A8A203","019d6b18-3cf8-7c33-9832-cf4e6b7c5afc","019d6ae6-5d89-74c6-b581-3918d1816346","","null","
            <div class=""stimulus-container"">
                <img src=""images/instructions/movie_4.png"" class=""exp-image"">
                <div class=""question-area""></div> 
            </div>","null","","","","","","","","","","","",""
"","","","","","html-button-response","13","92552","0.0-13.0","CA4EAEC0FBE64074B392C4FC03A8A203","019d6b18-3cf8-7c33-9832-cf4e6b7c5afc","019d6ae6-5d89-74c6-b581-3918d1816346","","1118","
            <div class=""stimulus-container"">
                <img src=""images/instructions/movie_4.png"" class=""exp-image"">
                <div class=""question-area"">
                    <p style=""font-size: 20px; font-weight: bold; margin: 0;"">Was there a person in this image?</p>
                </div>
            </div>","0","example_question","4","","","","","","","","","",""
"","","","","","instructions","14","97077","0.0-14.0","CA4EAEC0FBE64074B392C4FC03A8A203","019d6b18-3cf8-7c33-9832-cf4e6b7c5afc","019d6ae6-5d89-74c6-b581-3918d1816346","[{""page_index"":0,""viewing_time"":4524}]","4525","","","","","","","","","","","","","",""
"","","","","","instructions","15","102151","0.0-15.0","CA4EAEC0FBE64074B392C4FC03A8A203","019d6b18-3cf8-7c33-9832-cf4e6b7c5afc","019d6ae6-5d89-74c6-b581-3918d1816346","[{""page_index"":0,""viewing_time"":5073}]","5074","","","","","","","","","","","","","",""
"","","","","","html-keyboard-response","16","107159","0.0-16.0","CA4EAEC0FBE64074B392C4FC03A8A203","019d6b18-3cf8-7c33-9832-cf4e6b7c5afc","019d6ae6-5d89-74c6-b581-3918d1816346","","null","<div style=""background-color: white; width: 100vw; height: 100vh;""></div>","null","","","","","","","","","","","",""
"","","","","","html-keyboard-response","17","112160","0.0-17.0","CA4EAEC0FBE64074B392C4FC03A8A203","019d6b18-3cf8-7c33-9832-cf4e6b7c5afc","019d6ae6-5d89-74c6-b581-3918d1816346","","null","
                <div class=""stimulus-container"">
                    <img src=""semantic_sequence_notimeline/transportation_semantic/transportation_semantic_1.png"" class=""exp-image"">
                    <div class=""question-area""></div> 
                </div>","null","","","","","","","","","","","",""
"","","","","","html-button-response","18","112895","0.0-18.0","CA4EAEC0FBE64074B392C4FC03A8A203","019d6b18-3cf8-7c33-9832-cf4e6b7c5afc","019d6ae6-5d89-74c6-b581-3918d1816346","","734","
                <div class=""stimulus-container"">
                    <img src=""semantic_sequence_notimeline/transportation_semantic/transportation_semantic_1.png"" class=""exp-image"">
                    <div class=""question-area"">
                        <p style=""font-size: 20px; font-weight: bold; margin: 0;"">Is there a person in this image?</p>
                    </div>
                </div>","1","main_experiment_trial","1","transportation_semantic","semantic_sequence_notimeline","chronological","","","","","","",""
"","","","","","html-keyboard-response","19","117900","0.0-19.0","CA4EAEC0FBE64074B392C4FC03A8A203","019d6b18-3cf8-7c33-9832-cf4e6b7c5afc","019d6ae6-5d89-74c6-b581-3918d1816346","","null","
                <div class=""stimulus-container"">
                    <img src=""semantic_sequence_notimeline/transportation_semantic/transportation_semantic_2.png"" class=""exp-image"">
                    <div class=""question-area""></div> 
                </div>","null","","","","","","","","","","","",""
"","","","","","html-button-response","20","118529","0.0-20.0","CA4EAEC0FBE64074B392C4FC03A8A203","019d6b18-3cf8-7c33-9832-cf4e6b7c5afc","019d6ae6-5d89-74c6-b581-3918d1816346","","628","
                <div class=""stimulus-container"">
                    <img src=""semantic_sequence_notimeline/transportation_semantic/transportation_semantic_2.png"" class=""exp-image"">
                    <div class=""question-area"">
                        <p style=""font-size: 20px; font-weight: bold; margin: 0;"">Is there a person in this image?</p>
                    </div>
                </div>","1","main_experiment_trial","2","transportation_semantic","semantic_sequence_notimeline","chronological","","","","","","",""
"","","","","","html-keyboard-response","21","123536","0.0-21.0","CA4EAEC0FBE64074B392C4FC03A8A203","019d6b18-3cf8-7c33-9832-cf4e6b7c5afc","019d6ae6-5d89-74c6-b581-3918d1816346","","null","
                <div class=""stimulus-container"">
                    <img src=""semantic_sequence_notimeline/transportation_semantic/transportation_semantic_3.png"" class=""exp-image"">
                    <div class=""question-area""></div> 
                </div>","null","","","","","","","","","","","",""
"","","","","","html-button-response","22","124086","0.0-22.0","CA4EAEC0FBE64074B392C4FC03A8A203","019d6b18-3cf8-7c33-9832-cf4e6b7c5afc","019d6ae6-5d89-74c6-b581-3918d1816346","","547","
                <div class=""stimulus-container"">
                    <img src=""semantic_sequence_notimeline/transportation_semantic/transportation_semantic_3.png"" class=""exp-image"">
                    <div class=""question-area"">
                        <p style=""font-size: 20px; font-weight: bold; margin: 0;"">Is there a person in this image?</p>
                    </div>
                </div>","1","main_experiment_trial","3","transportation_semantic","semantic_sequence_notimeline","chronological","","","","","","",""
"","","","","","html-keyboard-response","23","129090","0.0-23.0","CA4EAEC0FBE64074B392C4FC03A8A203","019d6b18-3cf8-7c33-9832-cf4e6b7c5afc","019d6ae6-5d89-74c6-b581-3918d1816346","","null","
                <div class=""stimulus-container"">
                    <img src=""semantic_sequence_notimeline/transportation_semantic/transportation_semantic_4.png"" class=""exp-image"">
                    <div class=""question-area""></div> 
                </div>","null","","","","","","","","","","","",""
"","","","","","html-button-response","24","129636","0.0-24.0","CA4EAEC0FBE64074B392C4FC03A8A203","019d6b18-3cf8-7c33-9832-cf4e6b7c5afc","019d6ae6-5d89-74c6-b581-3918d1816346","","545","
                <div class=""stimulus-container"">
                    <img src=""semantic_sequence_notimeline/transportation_semantic/transportation_semantic_4.png"" class=""exp-image"">
                    <div class=""question-area"">
                        <p style=""font-size: 20px; font-weight: bold; margin: 0;"">Is there a person in this image?</p>
                    </div>
                </div>","1","main_experiment_trial","4","transportation_semantic","semantic_sequence_notimeline","chronological","","","","","","",""
"","","","","","html-keyboard-response","25","134645","0.0-25.0","CA4EAEC0FBE64074B392C4FC03A8A203","019d6b18-3cf8-7c33-9832-cf4e6b7c5afc","019d6ae6-5d89-74c6-b581-3918d1816346","","null","
                <div class=""stimulus-container"">
                    <img src=""semantic_sequence_notimeline/transportation_semantic/transportation_semantic_5.png"" class=""exp-image"">
                    <div class=""question-area""></div> 
                </div>","null","","","","","","","","","","","",""
"","","","","","html-button-response","26","135963","0.0-26.0","CA4EAEC0FBE64074B392C4FC03A8A203","019d6b18-3cf8-7c33-9832-cf4e6b7c5afc","019d6ae6-5d89-74c6-b581-3918d1816346","","1317","
                <div class=""stimulus-container"">
                    <img src=""semantic_sequence_notimeline/transportation_semantic/transportation_semantic_5.png"" class=""exp-image"">
                    <div class=""question-area"">
                        <p style=""font-size: 20px; font-weight: bold; margin: 0;"">Is there a person in this image?</p>
                    </div>
                </div>","1","main_experiment_trial","5","transportation_semantic","semantic_sequence_notimeline","chronological","","","","","","",""
"","","","","","html-keyboard-response","27","140968","0.0-27.0","CA4EAEC0FBE64074B392C4FC03A8A203","019d6b18-3cf8-7c33-9832-cf4e6b7c5afc","019d6ae6-5d89-74c6-b581-3918d1816346","","null","
                <div class=""stimulus-container"">
                    <img src=""semantic_sequence_notimeline/transportation_semantic/transportation_semantic_6.png"" class=""exp-image"">
                    <div class=""question-area""></div> 
                </div>","null","","","","","","","","","","","",""
"","","","","","html-button-response","28","141618","0.0-28.0","CA4EAEC0FBE64074B392C4FC03A8A203","019d6b18-3cf8-7c33-9832-cf4e6b7c5afc","019d6ae6-5d89-74c6-b581-3918d1816346","","649","
                <div class=""stimulus-container"">
                    <img src=""semantic_sequence_notimeline/transportation_semantic/transportation_semantic_6.png"" class=""exp-image"">
                    <div class=""question-area"">
                        <p style=""font-size: 20px; font-weight: bold; margin: 0;"">Is there a person in this image?</p>
                    </div>
                </div>","0","main_experiment_trial","6","transportation_semantic","semantic_sequence_notimeline","chronological","","","","","","",""
"","","","","","html-keyboard-response","29","146627","0.0-29.0","CA4EAEC0FBE64074B392C4FC03A8A203","019d6b18-3cf8-7c33-9832-cf4e6b7c5afc","019d6ae6-5d89-74c6-b581-3918d1816346","","null","
                <div class=""stimulus-container"">
                    <img src=""semantic_sequence_notimeline/transportation_semantic/transportation_semantic_7.png"" class=""exp-image"">
                    <div class=""question-area""></div> 
                </div>","null","","","","","","","","","","","",""
"","","","","","html-button-response","30","147163","0.0-30.0","CA4EAEC0FBE64074B392C4FC03A8A203","019d6b18-3cf8-7c33-9832-cf4e6b7c5afc","019d6ae6-5d89-74c6-b581-3918d1816346","","536","
                <div class=""stimulus-container"">
                    <img src=""semantic_sequence_notimeline/transportation_semantic/transportation_semantic_7.png"" class=""exp-image"">
                    <div class=""question-area"">
                        <p style=""font-size: 20px; font-weight: bold; margin: 0;"">Is there a person in this image?</p>
                    </div>
                </div>","1","main_experiment_trial","7","transportation_semantic","semantic_sequence_notimeline","chronological","","","","","","",""
"","","","","","html-keyboard-response","31","152165","0.0-31.0","CA4EAEC0FBE64074B392C4FC03A8A203","019d6b18-3cf8-7c33-9832-cf4e6b7c5afc","019d6ae6-5d89-74c6-b581-3918d1816346","","null","
                <div class=""stimulus-container"">
                    <img src=""semantic_sequence_notimeline/transportation_semantic/transportation_semantic_8.png"" class=""exp-image"">
                    <div class=""question-area""></div> 
                </div>","null","","","","","","","","","","","",""
"","","","","","html-button-response","32","152622","0.0-32.0","CA4EAEC0FBE64074B392C4FC03A8A203","019d6b18-3cf8-7c33-9832-cf4e6b7c5afc","019d6ae6-5d89-74c6-b581-3918d1816346","","457","
                <div class=""stimulus-container"">
                    <img src=""semantic_sequence_notimeline/transportation_semantic/transportation_semantic_8.png"" class=""exp-image"">
                    <div class=""question-area"">
                        <p style=""font-size: 20px; font-weight: bold; margin: 0;"">Is there a person in this image?</p>
                    </div>
                </div>","1","main_experiment_trial","8","transportation_semantic","semantic_sequence_notimeline","chronological","","","","","","",""
"","","","","","html-keyboard-response","33","157635","0.0-33.0","CA4EAEC0FBE64074B392C4FC03A8A203","019d6b18-3cf8-7c33-9832-cf4e6b7c5afc","019d6ae6-5d89-74c6-b581-3918d1816346","","null","
                <div class=""stimulus-container"">
                    <img src=""semantic_sequence_notimeline/transportation_semantic/transportation_semantic_9.png"" class=""exp-image"">
                    <div class=""question-area""></div> 
                </div>","null","","","","","","","","","","","",""
"","","","","","html-button-response","34","158008","0.0-34.0","CA4EAEC0FBE64074B392C4FC03A8A203","019d6b18-3cf8-7c33-9832-cf4e6b7c5afc","019d6ae6-5d89-74c6-b581-3918d1816346","","372","
                <div class=""stimulus-container"">
                    <img src=""semantic_sequence_notimeline/transportation_semantic/transportation_semantic_9.png"" class=""exp-image"">
                    <div class=""question-area"">
                        <p style=""font-size: 20px; font-weight: bold; margin: 0;"">Is there a person in this image?</p>
                    </div>
                </div>","1","main_experiment_trial","9","transportation_semantic","semantic_sequence_notimeline","chronological","","","","","","",""
"","","","","","html-keyboard-response","35","163011","0.0-35.0","CA4EAEC0FBE64074B392C4FC03A8A203","019d6b18-3cf8-7c33-9832-cf4e6b7c5afc","019d6ae6-5d89-74c6-b581-3918d1816346","","null","
                <div class=""stimulus-container"">
                    <img src=""semantic_sequence_notimeline/transportation_semantic/transportation_semantic_ten.png"" class=""exp-image"">
                    <div class=""question-area""></div> 
                </div>","null","","","","","","","","","","","",""
"","","","","","html-button-response","36","163363","0.0-36.0","CA4EAEC0FBE64074B392C4FC03A8A203","019d6b18-3cf8-7c33-9832-cf4e6b7c5afc","019d6ae6-5d89-74c6-b581-3918d1816346","","351","
                <div class=""stimulus-container"">
                    <img src=""semantic_sequence_notimeline/transportation_semantic/transportation_semantic_ten.png"" class=""exp-image"">
                    <div class=""question-area"">
                        <p style=""font-size: 20px; font-weight: bold; margin: 0;"">Is there a person in this image?</p>
                    </div>
                </div>","1","main_experiment_trial","ten","transportation_semantic","semantic_sequence_notimeline","chronological","","","","","","",""
"","","","","","html-keyboard-response","37","168364","0.0-37.0","CA4EAEC0FBE64074B392C4FC03A8A203","019d6b18-3cf8-7c33-9832-cf4e6b7c5afc","019d6ae6-5d89-74c6-b581-3918d1816346","","null","<div style=""background-color: white; width: 100vw; height: 100vh;""></div>","null","","","","","","","","","","","",""
"","","","","","html-keyboard-response","38","173374","0.0-38.0","CA4EAEC0FBE64074B392C4FC03A8A203","019d6b18-3cf8-7c33-9832-cf4e6b7c5afc","019d6ae6-5d89-74c6-b581-3918d1816346","","null","
                <div class=""stimulus-container"">
                    <img src=""semantic_sequence_notimeline/fruits_semantic/fruits_semantic_1.png"" class=""exp-image"">
                    <div class=""question-area""></div> 
                </div>","null","","","","","","","","","","","",""
"","","","","","html-button-response","39","174169","0.0-39.0","CA4EAEC0FBE64074B392C4FC03A8A203","019d6b18-3cf8-7c33-9832-cf4e6b7c5afc","019d6ae6-5d89-74c6-b581-3918d1816346","","795","
                <div class=""stimulus-container"">
                    <img src=""semantic_sequence_notimeline/fruits_semantic/fruits_semantic_1.png"" class=""exp-image"">
                    <div class=""question-area"">
                        <p style=""font-size: 20px; font-weight: bold; margin: 0;"">Is there a person in this image?</p>
                    </div>
                </div>","1","main_experiment_trial","1","fruits_semantic","semantic_sequence_notimeline","chronological","","","","","","",""
"","","","","","html-keyboard-response","40","179183","0.0-40.0","CA4EAEC0FBE64074B392C4FC03A8A203","019d6b18-3cf8-7c33-9832-cf4e6b7c5afc","019d6ae6-5d89-74c6-b581-3918d1816346","","null","
                <div class=""stimulus-container"">
                    <img src=""semantic_sequence_notimeline/fruits_semantic/fruits_semantic_2.png"" class=""exp-image"">
                    <div class=""question-area""></div> 
                </div>","null","","","","","","","","","","","",""
"","","","","","html-button-response","41","179727","0.0-41.0","CA4EAEC0FBE64074B392C4FC03A8A203","019d6b18-3cf8-7c33-9832-cf4e6b7c5afc","019d6ae6-5d89-74c6-b581-3918d1816346","","543","
                <div class=""stimulus-container"">
                    <img src=""semantic_sequence_notimeline/fruits_semantic/fruits_semantic_2.png"" class=""exp-image"">
                    <div class=""question-area"">
                        <p style=""font-size: 20px; font-weight: bold; margin: 0;"">Is there a person in this image?</p>
                    </div>
                </div>","1","main_experiment_trial","2","fruits_semantic","semantic_sequence_notimeline","chronological","","","","","","",""
"","","","","","html-keyboard-response","42","184729","0.0-42.0","CA4EAEC0FBE64074B392C4FC03A8A203","019d6b18-3cf8-7c33-9832-cf4e6b7c5afc","019d6ae6-5d89-74c6-b581-3918d1816346","","null","
                <div class=""stimulus-container"">
                    <img src=""semantic_sequence_notimeline/fruits_semantic/fruits_semantic_3.png"" class=""exp-image"">
                    <div class=""question-area""></div> 
                </div>","null","","","","","","","","","","","",""
"","","","","","html-button-response","43","185287","0.0-43.0","CA4EAEC0FBE64074B392C4FC03A8A203","019d6b18-3cf8-7c33-9832-cf4e6b7c5afc","019d6ae6-5d89-74c6-b581-3918d1816346","","557","
                <div class=""stimulus-container"">
                    <img src=""semantic_sequence_notimeline/fruits_semantic/fruits_semantic_3.png"" class=""exp-image"">
                    <div class=""question-area"">
                        <p style=""font-size: 20px; font-weight: bold; margin: 0;"">Is there a person in this image?</p>
                    </div>
                </div>","1","main_experiment_trial","3","fruits_semantic","semantic_sequence_notimeline","chronological","","","","","","",""
"","","","","","html-keyboard-response","44","190292","0.0-44.0","CA4EAEC0FBE64074B392C4FC03A8A203","019d6b18-3cf8-7c33-9832-cf4e6b7c5afc","019d6ae6-5d89-74c6-b581-3918d1816346","","null","
                <div class=""stimulus-container"">
                    <img src=""semantic_sequence_notimeline/fruits_semantic/fruits_semantic_4.png"" class=""exp-image"">
                    <div class=""question-area""></div> 
                </div>","null","","","","","","","","","","","",""
"","","","","","html-button-response","45","190608","0.0-45.0","CA4EAEC0FBE64074B392C4FC03A8A203","019d6b18-3cf8-7c33-9832-cf4e6b7c5afc","019d6ae6-5d89-74c6-b581-3918d1816346","","316","
                <div class=""stimulus-container"">
                    <img src=""semantic_sequence_notimeline/fruits_semantic/fruits_semantic_4.png"" class=""exp-image"">
                    <div class=""question-area"">
                        <p style=""font-size: 20px; font-weight: bold; margin: 0;"">Is there a person in this image?</p>
                    </div>
                </div>","1","main_experiment_trial","4","fruits_semantic","semantic_sequence_notimeline","chronological","","","","","","",""
"","","","","","html-keyboard-response","46","195620","0.0-46.0","CA4EAEC0FBE64074B392C4FC03A8A203","019d6b18-3cf8-7c33-9832-cf4e6b7c5afc","019d6ae6-5d89-74c6-b581-3918d1816346","","null","
                <div class=""stimulus-container"">
                    <img src=""semantic_sequence_notimeline/fruits_semantic/fruits_semantic_5.png"" class=""exp-image"">
                    <div class=""question-area""></div> 
                </div>","null","","","","","","","","","","","",""
"","","","","","html-button-response","47","195912","0.0-47.0","CA4EAEC0FBE64074B392C4FC03A8A203","019d6b18-3cf8-7c33-9832-cf4e6b7c5afc","019d6ae6-5d89-74c6-b581-3918d1816346","","291","
                <div class=""stimulus-container"">
                    <img src=""semantic_sequence_notimeline/fruits_semantic/fruits_semantic_5.png"" class=""exp-image"">
                    <div class=""question-area"">
                        <p style=""font-size: 20px; font-weight: bold; margin: 0;"">Is there a person in this image?</p>
                    </div>
                </div>","1","main_experiment_trial","5","fruits_semantic","semantic_sequence_notimeline","chronological","","","","","","",""
"","","","","","html-keyboard-response","48","200913","0.0-48.0","CA4EAEC0FBE64074B392C4FC03A8A203","019d6b18-3cf8-7c33-9832-cf4e6b7c5afc","019d6ae6-5d89-74c6-b581-3918d1816346","","null","
                <div class=""stimulus-container"">
                    <img src=""semantic_sequence_notimeline/fruits_semantic/fruits_semantic_6.png"" class=""exp-image"">
                    <div class=""question-area""></div> 
                </div>","null","","","","","","","","","","","",""
"","","","","","html-button-response","49","201302","0.0-49.0","CA4EAEC0FBE64074B392C4FC03A8A203","019d6b18-3cf8-7c33-9832-cf4e6b7c5afc","019d6ae6-5d89-74c6-b581-3918d1816346","","388","
                <div class=""stimulus-container"">
                    <img src=""semantic_sequence_notimeline/fruits_semantic/fruits_semantic_6.png"" class=""exp-image"">
                    <div class=""question-area"">
                        <p style=""font-size: 20px; font-weight: bold; margin: 0;"">Is there a person in this image?</p>
                    </div>
                </div>","1","main_experiment_trial","6","fruits_semantic","semantic_sequence_notimeline","chronological","","","","","","",""
"","","","","","html-keyboard-response","50","206313","0.0-50.0","CA4EAEC0FBE64074B392C4FC03A8A203","019d6b18-3cf8-7c33-9832-cf4e6b7c5afc","019d6ae6-5d89-74c6-b581-3918d1816346","","null","
                <div class=""stimulus-container"">
                    <img src=""semantic_sequence_notimeline/fruits_semantic/fruits_semantic_7.png"" class=""exp-image"">
                    <div class=""question-area""></div> 
                </div>","null","","","","","","","","","","","",""
"","","","","","html-button-response","51","206747","0.0-51.0","CA4EAEC0FBE64074B392C4FC03A8A203","019d6b18-3cf8-7c33-9832-cf4e6b7c5afc","019d6ae6-5d89-74c6-b581-3918d1816346","","434","
                <div class=""stimulus-container"">
                    <img src=""semantic_sequence_notimeline/fruits_semantic/fruits_semantic_7.png"" class=""exp-image"">
                    <div class=""question-area"">
                        <p style=""font-size: 20px; font-weight: bold; margin: 0;"">Is there a person in this image?</p>
                    </div>
                </div>","1","main_experiment_trial","7","fruits_semantic","semantic_sequence_notimeline","chronological","","","","","","",""
"","","","","","html-keyboard-response","52","211753","0.0-52.0","CA4EAEC0FBE64074B392C4FC03A8A203","019d6b18-3cf8-7c33-9832-cf4e6b7c5afc","019d6ae6-5d89-74c6-b581-3918d1816346","","null","
                <div class=""stimulus-container"">
                    <img src=""semantic_sequence_notimeline/fruits_semantic/fruits_semantic_8.png"" class=""exp-image"">
                    <div class=""question-area""></div> 
                </div>","null","","","","","","","","","","","",""
"","","","","","html-button-response","53","212057","0.0-53.0","CA4EAEC0FBE64074B392C4FC03A8A203","019d6b18-3cf8-7c33-9832-cf4e6b7c5afc","019d6ae6-5d89-74c6-b581-3918d1816346","","303","
                <div class=""stimulus-container"">
                    <img src=""semantic_sequence_notimeline/fruits_semantic/fruits_semantic_8.png"" class=""exp-image"">
                    <div class=""question-area"">
                        <p style=""font-size: 20px; font-weight: bold; margin: 0;"">Is there a person in this image?</p>
                    </div>
                </div>","1","main_experiment_trial","8","fruits_semantic","semantic_sequence_notimeline","chronological","","","","","","",""
"","","","","","html-keyboard-response","54","217072","0.0-54.0","CA4EAEC0FBE64074B392C4FC03A8A203","019d6b18-3cf8-7c33-9832-cf4e6b7c5afc","019d6ae6-5d89-74c6-b581-3918d1816346","","null","
                <div class=""stimulus-container"">
                    <img src=""semantic_sequence_notimeline/fruits_semantic/fruits_semantic_9.png"" class=""exp-image"">
                    <div class=""question-area""></div> 
                </div>","null","","","","","","","","","","","",""
"","","","","","html-button-response","55","217399","0.0-55.0","CA4EAEC0FBE64074B392C4FC03A8A203","019d6b18-3cf8-7c33-9832-cf4e6b7c5afc","019d6ae6-5d89-74c6-b581-3918d1816346","","326","
                <div class=""stimulus-container"">
                    <img src=""semantic_sequence_notimeline/fruits_semantic/fruits_semantic_9.png"" class=""exp-image"">
                    <div class=""question-area"">
                        <p style=""font-size: 20px; font-weight: bold; margin: 0;"">Is there a person in this image?</p>
                    </div>
                </div>","1","main_experiment_trial","9","fruits_semantic","semantic_sequence_notimeline","chronological","","","","","","",""
"","","","","","html-keyboard-response","56","222409","0.0-56.0","CA4EAEC0FBE64074B392C4FC03A8A203","019d6b18-3cf8-7c33-9832-cf4e6b7c5afc","019d6ae6-5d89-74c6-b581-3918d1816346","","null","
                <div class=""stimulus-container"">
                    <img src=""semantic_sequence_notimeline/fruits_semantic/fruits_semantic_ten.png"" class=""exp-image"">
                    <div class=""question-area""></div> 
                </div>","null","","","","","","","","","","","",""
"","","","","","html-button-response","57","222714","0.0-57.0","CA4EAEC0FBE64074B392C4FC03A8A203","019d6b18-3cf8-7c33-9832-cf4e6b7c5afc","019d6ae6-5d89-74c6-b581-3918d1816346","","304","
                <div class=""stimulus-container"">
                    <img src=""semantic_sequence_notimeline/fruits_semantic/fruits_semantic_ten.png"" class=""exp-image"">
                    <div class=""question-area"">
                        <p style=""font-size: 20px; font-weight: bold; margin: 0;"">Is there a person in this image?</p>
                    </div>
                </div>","1","main_experiment_trial","ten","fruits_semantic","semantic_sequence_notimeline","chronological","","","","","","",""
"","","","","","html-keyboard-response","58","227717","0.0-58.0","CA4EAEC0FBE64074B392C4FC03A8A203","019d6b18-3cf8-7c33-9832-cf4e6b7c5afc","019d6ae6-5d89-74c6-b581-3918d1816346","","null","<div style=""background-color: white; width: 100vw; height: 100vh;""></div>","null","","","","","","","","","","","",""
"","","","","","html-keyboard-response","59","232718","0.0-59.0","CA4EAEC0FBE64074B392C4FC03A8A203","019d6b18-3cf8-7c33-9832-cf4e6b7c5afc","019d6ae6-5d89-74c6-b581-3918d1816346","","null","
                <div class=""stimulus-container"">
                    <img src=""images/causal_sequence/package_causal/package_causal_1.png"" class=""exp-image"">
                    <div class=""question-area""></div> 
                </div>","null","","","","","","","","","","","",""
"","","","","","html-button-response","60","233215","0.0-60.0","CA4EAEC0FBE64074B392C4FC03A8A203","019d6b18-3cf8-7c33-9832-cf4e6b7c5afc","019d6ae6-5d89-74c6-b581-3918d1816346","","495","
                <div class=""stimulus-container"">
                    <img src=""images/causal_sequence/package_causal/package_causal_1.png"" class=""exp-image"">
                    <div class=""question-area"">
                        <p style=""font-size: 20px; font-weight: bold; margin: 0;"">Is there a person in this image?</p>
                    </div>
                </div>","0","main_experiment_trial","1","package_causal","causal_sequence","chronological","","","","","","",""
"","","","","","html-keyboard-response","61","238227","0.0-61.0","CA4EAEC0FBE64074B392C4FC03A8A203","019d6b18-3cf8-7c33-9832-cf4e6b7c5afc","019d6ae6-5d89-74c6-b581-3918d1816346","","null","
                <div class=""stimulus-container"">
                    <img src=""images/causal_sequence/package_causal/package_causal_2.png"" class=""exp-image"">
                    <div class=""question-area""></div> 
                </div>","null","","","","","","","","","","","",""
"","","","","","html-button-response","62","238566","0.0-62.0","CA4EAEC0FBE64074B392C4FC03A8A203","019d6b18-3cf8-7c33-9832-cf4e6b7c5afc","019d6ae6-5d89-74c6-b581-3918d1816346","","339","
                <div class=""stimulus-container"">
                    <img src=""images/causal_sequence/package_causal/package_causal_2.png"" class=""exp-image"">
                    <div class=""question-area"">
                        <p style=""font-size: 20px; font-weight: bold; margin: 0;"">Is there a person in this image?</p>
                    </div>
                </div>","0","main_experiment_trial","2","package_causal","causal_sequence","chronological","","","","","","",""
"","","","","","html-keyboard-response","63","243571","0.0-63.0","CA4EAEC0FBE64074B392C4FC03A8A203","019d6b18-3cf8-7c33-9832-cf4e6b7c5afc","019d6ae6-5d89-74c6-b581-3918d1816346","","null","
                <div class=""stimulus-container"">
                    <img src=""images/causal_sequence/package_causal/package_causal_3.png"" class=""exp-image"">
                    <div class=""question-area""></div> 
                </div>","null","","","","","","","","","","","",""
"","","","","","html-button-response","64","244070","0.0-64.0","CA4EAEC0FBE64074B392C4FC03A8A203","019d6b18-3cf8-7c33-9832-cf4e6b7c5afc","019d6ae6-5d89-74c6-b581-3918d1816346","","498","
                <div class=""stimulus-container"">
                    <img src=""images/causal_sequence/package_causal/package_causal_3.png"" class=""exp-image"">
                    <div class=""question-area"">
                        <p style=""font-size: 20px; font-weight: bold; margin: 0;"">Is there a person in this image?</p>
                    </div>
                </div>","0","main_experiment_trial","3","package_causal","causal_sequence","chronological","","","","","","",""
"","","","","","html-keyboard-response","65","249083","0.0-65.0","CA4EAEC0FBE64074B392C4FC03A8A203","019d6b18-3cf8-7c33-9832-cf4e6b7c5afc","019d6ae6-5d89-74c6-b581-3918d1816346","","null","
                <div class=""stimulus-container"">
                    <img src=""images/causal_sequence/package_causal/package_causal_4.png"" class=""exp-image"">
                    <div class=""question-area""></div> 
                </div>","null","","","","","","","","","","","",""
"","","","","","html-button-response","66","249577","0.0-66.0","CA4EAEC0FBE64074B392C4FC03A8A203","019d6b18-3cf8-7c33-9832-cf4e6b7c5afc","019d6ae6-5d89-74c6-b581-3918d1816346","","493","
                <div class=""stimulus-container"">
                    <img src=""images/causal_sequence/package_causal/package_causal_4.png"" class=""exp-image"">
                    <div class=""question-area"">
                        <p style=""font-size: 20px; font-weight: bold; margin: 0;"">Is there a person in this image?</p>
                    </div>
                </div>","1","main_experiment_trial","4","package_causal","causal_sequence","chronological","","","","","","",""
"","","","","","html-keyboard-response","67","254580","0.0-67.0","CA4EAEC0FBE64074B392C4FC03A8A203","019d6b18-3cf8-7c33-9832-cf4e6b7c5afc","019d6ae6-5d89-74c6-b581-3918d1816346","","null","
                <div class=""stimulus-container"">
                    <img src=""images/causal_sequence/package_causal/package_causal_5.png"" class=""exp-image"">
                    <div class=""question-area""></div> 
                </div>","null","","","","","","","","","","","",""
"","","","","","html-button-response","68","254886","0.0-68.0","CA4EAEC0FBE64074B392C4FC03A8A203","019d6b18-3cf8-7c33-9832-cf4e6b7c5afc","019d6ae6-5d89-74c6-b581-3918d1816346","","306","
                <div class=""stimulus-container"">
                    <img src=""images/causal_sequence/package_causal/package_causal_5.png"" class=""exp-image"">
                    <div class=""question-area"">
                        <p style=""font-size: 20px; font-weight: bold; margin: 0;"">Is there a person in this image?</p>
                    </div>
                </div>","0","main_experiment_trial","5","package_causal","causal_sequence","chronological","","","","","","",""
"","","","","","html-keyboard-response","69","259897","0.0-69.0","CA4EAEC0FBE64074B392C4FC03A8A203","019d6b18-3cf8-7c33-9832-cf4e6b7c5afc","019d6ae6-5d89-74c6-b581-3918d1816346","","null","
                <div class=""stimulus-container"">
                    <img src=""images/causal_sequence/package_causal/package_causal_6.png"" class=""exp-image"">
                    <div class=""question-area""></div> 
                </div>","null","","","","","","","","","","","",""
"","","","","","html-button-response","70","260231","0.0-70.0","CA4EAEC0FBE64074B392C4FC03A8A203","019d6b18-3cf8-7c33-9832-cf4e6b7c5afc","019d6ae6-5d89-74c6-b581-3918d1816346","","334","
                <div class=""stimulus-container"">
                    <img src=""images/causal_sequence/package_causal/package_causal_6.png"" class=""exp-image"">
                    <div class=""question-area"">
                        <p style=""font-size: 20px; font-weight: bold; margin: 0;"">Is there a person in this image?</p>
                    </div>
                </div>","0","main_experiment_trial","6","package_causal","causal_sequence","chronological","","","","","","",""
"","","","","","html-keyboard-response","71","265246","0.0-71.0","CA4EAEC0FBE64074B392C4FC03A8A203","019d6b18-3cf8-7c33-9832-cf4e6b7c5afc","019d6ae6-5d89-74c6-b581-3918d1816346","","null","
                <div class=""stimulus-container"">
                    <img src=""images/causal_sequence/package_causal/package_causal_7.png"" class=""exp-image"">
                    <div class=""question-area""></div> 
                </div>","null","","","","","","","","","","","",""
"","","","","","html-button-response","72","265612","0.0-72.0","CA4EAEC0FBE64074B392C4FC03A8A203","019d6b18-3cf8-7c33-9832-cf4e6b7c5afc","019d6ae6-5d89-74c6-b581-3918d1816346","","364","
                <div class=""stimulus-container"">
                    <img src=""images/causal_sequence/package_causal/package_causal_7.png"" class=""exp-image"">
                    <div class=""question-area"">
                        <p style=""font-size: 20px; font-weight: bold; margin: 0;"">Is there a person in this image?</p>
                    </div>
                </div>","0","main_experiment_trial","7","package_causal","causal_sequence","chronological","","","","","","",""
"","","","","","html-keyboard-response","73","270619","0.0-73.0","CA4EAEC0FBE64074B392C4FC03A8A203","019d6b18-3cf8-7c33-9832-cf4e6b7c5afc","019d6ae6-5d89-74c6-b581-3918d1816346","","null","
                <div class=""stimulus-container"">
                    <img src=""images/causal_sequence/package_causal/package_causal_8.png"" class=""exp-image"">
                    <div class=""question-area""></div> 
                </div>","null","","","","","","","","","","","",""
"","","","","","html-button-response","74","270934","0.0-74.0","CA4EAEC0FBE64074B392C4FC03A8A203","019d6b18-3cf8-7c33-9832-cf4e6b7c5afc","019d6ae6-5d89-74c6-b581-3918d1816346","","314","
                <div class=""stimulus-container"">
                    <img src=""images/causal_sequence/package_causal/package_causal_8.png"" class=""exp-image"">
                    <div class=""question-area"">
                        <p style=""font-size: 20px; font-weight: bold; margin: 0;"">Is there a person in this image?</p>
                    </div>
                </div>","0","main_experiment_trial","8","package_causal","causal_sequence","chronological","","","","","","",""
"","","","","","html-keyboard-response","75","275938","0.0-75.0","CA4EAEC0FBE64074B392C4FC03A8A203","019d6b18-3cf8-7c33-9832-cf4e6b7c5afc","019d6ae6-5d89-74c6-b581-3918d1816346","","null","
                <div class=""stimulus-container"">
                    <img src=""images/causal_sequence/package_causal/package_causal_9.png"" class=""exp-image"">
                    <div class=""question-area""></div> 
                </div>","null","","","","","","","","","","","",""
"","","","","","html-button-response","76","276226","0.0-76.0","CA4EAEC0FBE64074B392C4FC03A8A203","019d6b18-3cf8-7c33-9832-cf4e6b7c5afc","019d6ae6-5d89-74c6-b581-3918d1816346","","287","
                <div class=""stimulus-container"">
                    <img src=""images/causal_sequence/package_causal/package_causal_9.png"" class=""exp-image"">
                    <div class=""question-area"">
                        <p style=""font-size: 20px; font-weight: bold; margin: 0;"">Is there a person in this image?</p>
                    </div>
                </div>","0","main_experiment_trial","9","package_causal","causal_sequence","chronological","","","","","","",""
"","","","","","html-keyboard-response","77","281232","0.0-77.0","CA4EAEC0FBE64074B392C4FC03A8A203","019d6b18-3cf8-7c33-9832-cf4e6b7c5afc","019d6ae6-5d89-74c6-b581-3918d1816346","","null","
                <div class=""stimulus-container"">
                    <img src=""images/causal_sequence/package_causal/package_causal_ten.png"" class=""exp-image"">
                    <div class=""question-area""></div> 
                </div>","null","","","","","","","","","","","",""
"","","","","","html-button-response","78","281455","0.0-78.0","CA4EAEC0FBE64074B392C4FC03A8A203","019d6b18-3cf8-7c33-9832-cf4e6b7c5afc","019d6ae6-5d89-74c6-b581-3918d1816346","","222","
                <div class=""stimulus-container"">
                    <img src=""images/causal_sequence/package_causal/package_causal_ten.png"" class=""exp-image"">
                    <div class=""question-area"">
                        <p style=""font-size: 20px; font-weight: bold; margin: 0;"">Is there a person in this image?</p>
                    </div>
                </div>","0","main_experiment_trial","ten","package_causal","causal_sequence","chronological","","","","","","",""
"","","","","","html-keyboard-response","79","286462","0.0-79.0","CA4EAEC0FBE64074B392C4FC03A8A203","019d6b18-3cf8-7c33-9832-cf4e6b7c5afc","019d6ae6-5d89-74c6-b581-3918d1816346","","null","<div style=""background-color: white; width: 100vw; height: 100vh;""></div>","null","","","","","","","","","","","",""
"","","","","","html-keyboard-response","80","291465","0.0-80.0","CA4EAEC0FBE64074B392C4FC03A8A203","019d6b18-3cf8-7c33-9832-cf4e6b7c5afc","019d6ae6-5d89-74c6-b581-3918d1816346","","null","
                <div class=""stimulus-container"">
                    <img src=""semantic_sequence_notimeline/clothing_semantic/clothing_semantic_1.png"" class=""exp-image"">
                    <div class=""question-area""></div> 
                </div>","null","","","","","","","","","","","",""
"","","","","","html-button-response","81","291922","0.0-81.0","CA4EAEC0FBE64074B392C4FC03A8A203","019d6b18-3cf8-7c33-9832-cf4e6b7c5afc","019d6ae6-5d89-74c6-b581-3918d1816346","","456","
                <div class=""stimulus-container"">
                    <img src=""semantic_sequence_notimeline/clothing_semantic/clothing_semantic_1.png"" class=""exp-image"">
                    <div class=""question-area"">
                        <p style=""font-size: 20px; font-weight: bold; margin: 0;"">Is there a person in this image?</p>
                    </div>
                </div>","1","main_experiment_trial","1","clothing_semantic","semantic_sequence_notimeline","chronological","","","","","","",""
"","","","","","html-keyboard-response","82","296938","0.0-82.0","CA4EAEC0FBE64074B392C4FC03A8A203","019d6b18-3cf8-7c33-9832-cf4e6b7c5afc","019d6ae6-5d89-74c6-b581-3918d1816346","","null","
                <div class=""stimulus-container"">
                    <img src=""semantic_sequence_notimeline/clothing_semantic/clothing_semantic_2.png"" class=""exp-image"">
                    <div class=""question-area""></div> 
                </div>","null","","","","","","","","","","","",""
"","","","","","html-button-response","83","297261","0.0-83.0","CA4EAEC0FBE64074B392C4FC03A8A203","019d6b18-3cf8-7c33-9832-cf4e6b7c5afc","019d6ae6-5d89-74c6-b581-3918d1816346","","322","
                <div class=""stimulus-container"">
                    <img src=""semantic_sequence_notimeline/clothing_semantic/clothing_semantic_2.png"" class=""exp-image"">
                    <div class=""question-area"">
                        <p style=""font-size: 20px; font-weight: bold; margin: 0;"">Is there a person in this image?</p>
                    </div>
                </div>","1","main_experiment_trial","2","clothing_semantic","semantic_sequence_notimeline","chronological","","","","","","",""
"","","","","","html-keyboard-response","84","302277","0.0-84.0","CA4EAEC0FBE64074B392C4FC03A8A203","019d6b18-3cf8-7c33-9832-cf4e6b7c5afc","019d6ae6-5d89-74c6-b581-3918d1816346","","null","
                <div class=""stimulus-container"">
                    <img src=""semantic_sequence_notimeline/clothing_semantic/clothing_semantic_3.png"" class=""exp-image"">
                    <div class=""question-area""></div> 
                </div>","null","","","","","","","","","","","",""
"","","","","","html-button-response","85","302667","0.0-85.0","CA4EAEC0FBE64074B392C4FC03A8A203","019d6b18-3cf8-7c33-9832-cf4e6b7c5afc","019d6ae6-5d89-74c6-b581-3918d1816346","","389","
                <div class=""stimulus-container"">
                    <img src=""semantic_sequence_notimeline/clothing_semantic/clothing_semantic_3.png"" class=""exp-image"">
                    <div class=""question-area"">
                        <p style=""font-size: 20px; font-weight: bold; margin: 0;"">Is there a person in this image?</p>
                    </div>
                </div>","1","main_experiment_trial","3","clothing_semantic","semantic_sequence_notimeline","chronological","","","","","","",""
"","","","","","html-keyboard-response","86","307673","0.0-86.0","CA4EAEC0FBE64074B392C4FC03A8A203","019d6b18-3cf8-7c33-9832-cf4e6b7c5afc","019d6ae6-5d89-74c6-b581-3918d1816346","","null","
                <div class=""stimulus-container"">
                    <img src=""semantic_sequence_notimeline/clothing_semantic/clothing_semantic_4.png"" class=""exp-image"">
                    <div class=""question-area""></div> 
                </div>","null","","","","","","","","","","","",""
"","","","","","html-button-response","87","308032","0.0-87.0","CA4EAEC0FBE64074B392C4FC03A8A203","019d6b18-3cf8-7c33-9832-cf4e6b7c5afc","019d6ae6-5d89-74c6-b581-3918d1816346","","358","
                <div class=""stimulus-container"">
                    <img src=""semantic_sequence_notimeline/clothing_semantic/clothing_semantic_4.png"" class=""exp-image"">
                    <div class=""question-area"">
                        <p style=""font-size: 20px; font-weight: bold; margin: 0;"">Is there a person in this image?</p>
                    </div>
                </div>","1","main_experiment_trial","4","clothing_semantic","semantic_sequence_notimeline","chronological","","","","","","",""
"","","","","","html-keyboard-response","88","313038","0.0-88.0","CA4EAEC0FBE64074B392C4FC03A8A203","019d6b18-3cf8-7c33-9832-cf4e6b7c5afc","019d6ae6-5d89-74c6-b581-3918d1816346","","null","
                <div class=""stimulus-container"">
                    <img src=""semantic_sequence_notimeline/clothing_semantic/clothing_semantic_5.png"" class=""exp-image"">
                    <div class=""question-area""></div> 
                </div>","null","","","","","","","","","","","",""
"","","","","","html-button-response","89","313353","0.0-89.0","CA4EAEC0FBE64074B392C4FC03A8A203","019d6b18-3cf8-7c33-9832-cf4e6b7c5afc","019d6ae6-5d89-74c6-b581-3918d1816346","","315","
                <div class=""stimulus-container"">
                    <img src=""semantic_sequence_notimeline/clothing_semantic/clothing_semantic_5.png"" class=""exp-image"">
                    <div class=""question-area"">
                        <p style=""font-size: 20px; font-weight: bold; margin: 0;"">Is there a person in this image?</p>
                    </div>
                </div>","1","main_experiment_trial","5","clothing_semantic","semantic_sequence_notimeline","chronological","","","","","","",""
"","","","","","html-keyboard-response","90","318366","0.0-90.0","CA4EAEC0FBE64074B392C4FC03A8A203","019d6b18-3cf8-7c33-9832-cf4e6b7c5afc","019d6ae6-5d89-74c6-b581-3918d1816346","","null","
                <div class=""stimulus-container"">
                    <img src=""semantic_sequence_notimeline/clothing_semantic/clothing_semantic_6.png"" class=""exp-image"">
                    <div class=""question-area""></div> 
                </div>","null","","","","","","","","","","","",""
"","","","","","html-button-response","91","318705","0.0-91.0","CA4EAEC0FBE64074B392C4FC03A8A203","019d6b18-3cf8-7c33-9832-cf4e6b7c5afc","019d6ae6-5d89-74c6-b581-3918d1816346","","337","
                <div class=""stimulus-container"">
                    <img src=""semantic_sequence_notimeline/clothing_semantic/clothing_semantic_6.png"" class=""exp-image"">
                    <div class=""question-area"">
                        <p style=""font-size: 20px; font-weight: bold; margin: 0;"">Is there a person in this image?</p>
                    </div>
                </div>","1","main_experiment_trial","6","clothing_semantic","semantic_sequence_notimeline","chronological","","","","","","",""
"","","","","","html-keyboard-response","92","323719","0.0-92.0","CA4EAEC0FBE64074B392C4FC03A8A203","019d6b18-3cf8-7c33-9832-cf4e6b7c5afc","019d6ae6-5d89-74c6-b581-3918d1816346","","null","
                <div class=""stimulus-container"">
                    <img src=""semantic_sequence_notimeline/clothing_semantic/clothing_semantic_7.png"" class=""exp-image"">
                    <div class=""question-area""></div> 
                </div>","null","","","","","","","","","","","",""
"","","","","","html-button-response","93","324032","0.0-93.0","CA4EAEC0FBE64074B392C4FC03A8A203","019d6b18-3cf8-7c33-9832-cf4e6b7c5afc","019d6ae6-5d89-74c6-b581-3918d1816346","","312","
                <div class=""stimulus-container"">
                    <img src=""semantic_sequence_notimeline/clothing_semantic/clothing_semantic_7.png"" class=""exp-image"">
                    <div class=""question-area"">
                        <p style=""font-size: 20px; font-weight: bold; margin: 0;"">Is there a person in this image?</p>
                    </div>
                </div>","1","main_experiment_trial","7","clothing_semantic","semantic_sequence_notimeline","chronological","","","","","","",""
"","","","","","html-keyboard-response","94","329040","0.0-94.0","CA4EAEC0FBE64074B392C4FC03A8A203","019d6b18-3cf8-7c33-9832-cf4e6b7c5afc","019d6ae6-5d89-74c6-b581-3918d1816346","","null","
                <div class=""stimulus-container"">
                    <img src=""semantic_sequence_notimeline/clothing_semantic/clothing_semantic_8.png"" class=""exp-image"">
                    <div class=""question-area""></div> 
                </div>","null","","","","","","","","","","","",""
"","","","","","html-button-response","95","329379","0.0-95.0","CA4EAEC0FBE64074B392C4FC03A8A203","019d6b18-3cf8-7c33-9832-cf4e6b7c5afc","019d6ae6-5d89-74c6-b581-3918d1816346","","338","
                <div class=""stimulus-container"">
                    <img src=""semantic_sequence_notimeline/clothing_semantic/clothing_semantic_8.png"" class=""exp-image"">
                    <div class=""question-area"">
                        <p style=""font-size: 20px; font-weight: bold; margin: 0;"">Is there a person in this image?</p>
                    </div>
                </div>","1","main_experiment_trial","8","clothing_semantic","semantic_sequence_notimeline","chronological","","","","","","",""
"","","","","","html-keyboard-response","96","334382","0.0-96.0","CA4EAEC0FBE64074B392C4FC03A8A203","019d6b18-3cf8-7c33-9832-cf4e6b7c5afc","019d6ae6-5d89-74c6-b581-3918d1816346","","null","
                <div class=""stimulus-container"">
                    <img src=""semantic_sequence_notimeline/clothing_semantic/clothing_semantic_9.png"" class=""exp-image"">
                    <div class=""question-area""></div> 
                </div>","null","","","","","","","","","","","",""
"","","","","","html-button-response","97","334753","0.0-97.0","CA4EAEC0FBE64074B392C4FC03A8A203","019d6b18-3cf8-7c33-9832-cf4e6b7c5afc","019d6ae6-5d89-74c6-b581-3918d1816346","","370","
                <div class=""stimulus-container"">
                    <img src=""semantic_sequence_notimeline/clothing_semantic/clothing_semantic_9.png"" class=""exp-image"">
                    <div class=""question-area"">
                        <p style=""font-size: 20px; font-weight: bold; margin: 0;"">Is there a person in this image?</p>
                    </div>
                </div>","1","main_experiment_trial","9","clothing_semantic","semantic_sequence_notimeline","chronological","","","","","","",""
"","","","","","html-keyboard-response","98","339758","0.0-98.0","CA4EAEC0FBE64074B392C4FC03A8A203","019d6b18-3cf8-7c33-9832-cf4e6b7c5afc","019d6ae6-5d89-74c6-b581-3918d1816346","","null","
                <div class=""stimulus-container"">
                    <img src=""semantic_sequence_notimeline/clothing_semantic/clothing_semantic_ten.png"" class=""exp-image"">
                    <div class=""question-area""></div> 
                </div>","null","","","","","","","","","","","",""
"","","","","","html-button-response","99","340394","0.0-99.0","CA4EAEC0FBE64074B392C4FC03A8A203","019d6b18-3cf8-7c33-9832-cf4e6b7c5afc","019d6ae6-5d89-74c6-b581-3918d1816346","","636","
                <div class=""stimulus-container"">
                    <img src=""semantic_sequence_notimeline/clothing_semantic/clothing_semantic_ten.png"" class=""exp-image"">
                    <div class=""question-area"">
                        <p style=""font-size: 20px; font-weight: bold; margin: 0;"">Is there a person in this image?</p>
                    </div>
                </div>","1","main_experiment_trial","ten","clothing_semantic","semantic_sequence_notimeline","chronological","","","","","","",""
"","","","","","html-keyboard-response","100","345400","0.0-100.0","CA4EAEC0FBE64074B392C4FC03A8A203","019d6b18-3cf8-7c33-9832-cf4e6b7c5afc","019d6ae6-5d89-74c6-b581-3918d1816346","","null","<div style=""background-color: white; width: 100vw; height: 100vh;""></div>","null","","","","","","","","","","","",""
"","","","","","html-keyboard-response","101","350410","0.0-101.0","CA4EAEC0FBE64074B392C4FC03A8A203","019d6b18-3cf8-7c33-9832-cf4e6b7c5afc","019d6ae6-5d89-74c6-b581-3918d1816346","","null","
                <div class=""stimulus-container"">
                    <img src=""images/causal_sequence/saving_a_cat_causal/saving_a_cat_causal_1.png"" class=""exp-image"">
                    <div class=""question-area""></div> 
                </div>","null","","","","","","","","","","","",""
"","","","","","html-button-response","102","350789","0.0-102.0","CA4EAEC0FBE64074B392C4FC03A8A203","019d6b18-3cf8-7c33-9832-cf4e6b7c5afc","019d6ae6-5d89-74c6-b581-3918d1816346","","379","
                <div class=""stimulus-container"">
                    <img src=""images/causal_sequence/saving_a_cat_causal/saving_a_cat_causal_1.png"" class=""exp-image"">
                    <div class=""question-area"">
                        <p style=""font-size: 20px; font-weight: bold; margin: 0;"">Is there a person in this image?</p>
                    </div>
                </div>","0","main_experiment_trial","1","saving_a_cat_causal","causal_sequence","chronological","","","","","","",""
"","","","","","html-keyboard-response","103","355795","0.0-103.0","CA4EAEC0FBE64074B392C4FC03A8A203","019d6b18-3cf8-7c33-9832-cf4e6b7c5afc","019d6ae6-5d89-74c6-b581-3918d1816346","","null","
                <div class=""stimulus-container"">
                    <img src=""images/causal_sequence/saving_a_cat_causal/saving_a_cat_causal_2.png"" class=""exp-image"">
                    <div class=""question-area""></div> 
                </div>","null","","","","","","","","","","","",""
"","","","","","html-button-response","104","356152","0.0-104.0","CA4EAEC0FBE64074B392C4FC03A8A203","019d6b18-3cf8-7c33-9832-cf4e6b7c5afc","019d6ae6-5d89-74c6-b581-3918d1816346","","356","
                <div class=""stimulus-container"">
                    <img src=""images/causal_sequence/saving_a_cat_causal/saving_a_cat_causal_2.png"" class=""exp-image"">
                    <div class=""question-area"">
                        <p style=""font-size: 20px; font-weight: bold; margin: 0;"">Is there a person in this image?</p>
                    </div>
                </div>","1","main_experiment_trial","2","saving_a_cat_causal","causal_sequence","chronological","","","","","","",""
"","","","","","html-keyboard-response","105","361156","0.0-105.0","CA4EAEC0FBE64074B392C4FC03A8A203","019d6b18-3cf8-7c33-9832-cf4e6b7c5afc","019d6ae6-5d89-74c6-b581-3918d1816346","","null","
                <div class=""stimulus-container"">
                    <img src=""images/causal_sequence/saving_a_cat_causal/saving_a_cat_causal_3.png"" class=""exp-image"">
                    <div class=""question-area""></div> 
                </div>","null","","","","","","","","","","","",""
"","","","","","html-button-response","106","361521","0.0-106.0","CA4EAEC0FBE64074B392C4FC03A8A203","019d6b18-3cf8-7c33-9832-cf4e6b7c5afc","019d6ae6-5d89-74c6-b581-3918d1816346","","365","
                <div class=""stimulus-container"">
                    <img src=""images/causal_sequence/saving_a_cat_causal/saving_a_cat_causal_3.png"" class=""exp-image"">
                    <div class=""question-area"">
                        <p style=""font-size: 20px; font-weight: bold; margin: 0;"">Is there a person in this image?</p>
                    </div>
                </div>","1","main_experiment_trial","3","saving_a_cat_causal","causal_sequence","chronological","","","","","","",""
"","","","","","html-keyboard-response","107","366526","0.0-107.0","CA4EAEC0FBE64074B392C4FC03A8A203","019d6b18-3cf8-7c33-9832-cf4e6b7c5afc","019d6ae6-5d89-74c6-b581-3918d1816346","","null","
                <div class=""stimulus-container"">
                    <img src=""images/causal_sequence/saving_a_cat_causal/saving_a_cat_causal_4.png"" class=""exp-image"">
                    <div class=""question-area""></div> 
                </div>","null","","","","","","","","","","","",""
"","","","","","html-button-response","108","366817","0.0-108.0","CA4EAEC0FBE64074B392C4FC03A8A203","019d6b18-3cf8-7c33-9832-cf4e6b7c5afc","019d6ae6-5d89-74c6-b581-3918d1816346","","290","
                <div class=""stimulus-container"">
                    <img src=""images/causal_sequence/saving_a_cat_causal/saving_a_cat_causal_4.png"" class=""exp-image"">
                    <div class=""question-area"">
                        <p style=""font-size: 20px; font-weight: bold; margin: 0;"">Is there a person in this image?</p>
                    </div>
                </div>","0","main_experiment_trial","4","saving_a_cat_causal","causal_sequence","chronological","","","","","","",""
"","","","","","html-keyboard-response","109","371828","0.0-109.0","CA4EAEC0FBE64074B392C4FC03A8A203","019d6b18-3cf8-7c33-9832-cf4e6b7c5afc","019d6ae6-5d89-74c6-b581-3918d1816346","","null","
                <div class=""stimulus-container"">
                    <img src=""images/causal_sequence/saving_a_cat_causal/saving_a_cat_causal_5.png"" class=""exp-image"">
                    <div class=""question-area""></div> 
                </div>","null","","","","","","","","","","","",""
"","","","","","html-button-response","110","372081","0.0-110.0","CA4EAEC0FBE64074B392C4FC03A8A203","019d6b18-3cf8-7c33-9832-cf4e6b7c5afc","019d6ae6-5d89-74c6-b581-3918d1816346","","253","
                <div class=""stimulus-container"">
                    <img src=""images/causal_sequence/saving_a_cat_causal/saving_a_cat_causal_5.png"" class=""exp-image"">
                    <div class=""question-area"">
                        <p style=""font-size: 20px; font-weight: bold; margin: 0;"">Is there a person in this image?</p>
                    </div>
                </div>","0","main_experiment_trial","5","saving_a_cat_causal","causal_sequence","chronological","","","","","","",""
"","","","","","html-keyboard-response","111","377094","0.0-111.0","CA4EAEC0FBE64074B392C4FC03A8A203","019d6b18-3cf8-7c33-9832-cf4e6b7c5afc","019d6ae6-5d89-74c6-b581-3918d1816346","","null","
                <div class=""stimulus-container"">
                    <img src=""images/causal_sequence/saving_a_cat_causal/saving_a_cat_causal_6.png"" class=""exp-image"">
                    <div class=""question-area""></div> 
                </div>","null","","","","","","","","","","","",""
"","","","","","html-button-response","112","377443","0.0-112.0","CA4EAEC0FBE64074B392C4FC03A8A203","019d6b18-3cf8-7c33-9832-cf4e6b7c5afc","019d6ae6-5d89-74c6-b581-3918d1816346","","349","
                <div class=""stimulus-container"">
                    <img src=""images/causal_sequence/saving_a_cat_causal/saving_a_cat_causal_6.png"" class=""exp-image"">
                    <div class=""question-area"">
                        <p style=""font-size: 20px; font-weight: bold; margin: 0;"">Is there a person in this image?</p>
                    </div>
                </div>","0","main_experiment_trial","6","saving_a_cat_causal","causal_sequence","chronological","","","","","","",""
"","","","","","html-keyboard-response","113","382449","0.0-113.0","CA4EAEC0FBE64074B392C4FC03A8A203","019d6b18-3cf8-7c33-9832-cf4e6b7c5afc","019d6ae6-5d89-74c6-b581-3918d1816346","","null","
                <div class=""stimulus-container"">
                    <img src=""images/causal_sequence/saving_a_cat_causal/saving_a_cat_causal_7.png"" class=""exp-image"">
                    <div class=""question-area""></div> 
                </div>","null","","","","","","","","","","","",""
"","","","","","html-button-response","114","382724","0.0-114.0","CA4EAEC0FBE64074B392C4FC03A8A203","019d6b18-3cf8-7c33-9832-cf4e6b7c5afc","019d6ae6-5d89-74c6-b581-3918d1816346","","275","
                <div class=""stimulus-container"">
                    <img src=""images/causal_sequence/saving_a_cat_causal/saving_a_cat_causal_7.png"" class=""exp-image"">
                    <div class=""question-area"">
                        <p style=""font-size: 20px; font-weight: bold; margin: 0;"">Is there a person in this image?</p>
                    </div>
                </div>","0","main_experiment_trial","7","saving_a_cat_causal","causal_sequence","chronological","","","","","","",""
"","","","","","html-keyboard-response","115","387729","0.0-115.0","CA4EAEC0FBE64074B392C4FC03A8A203","019d6b18-3cf8-7c33-9832-cf4e6b7c5afc","019d6ae6-5d89-74c6-b581-3918d1816346","","null","
                <div class=""stimulus-container"">
                    <img src=""images/causal_sequence/saving_a_cat_causal/saving_a_cat_causal_8.png"" class=""exp-image"">
                    <div class=""question-area""></div> 
                </div>","null","","","","","","","","","","","",""
"","","","","","html-button-response","116","388010","0.0-116.0","CA4EAEC0FBE64074B392C4FC03A8A203","019d6b18-3cf8-7c33-9832-cf4e6b7c5afc","019d6ae6-5d89-74c6-b581-3918d1816346","","281","
                <div class=""stimulus-container"">
                    <img src=""images/causal_sequence/saving_a_cat_causal/saving_a_cat_causal_8.png"" class=""exp-image"">
                    <div class=""question-area"">
                        <p style=""font-size: 20px; font-weight: bold; margin: 0;"">Is there a person in this image?</p>
                    </div>
                </div>","0","main_experiment_trial","8","saving_a_cat_causal","causal_sequence","chronological","","","","","","",""
"","","","","","html-keyboard-response","117","393017","0.0-117.0","CA4EAEC0FBE64074B392C4FC03A8A203","019d6b18-3cf8-7c33-9832-cf4e6b7c5afc","019d6ae6-5d89-74c6-b581-3918d1816346","","null","
                <div class=""stimulus-container"">
                    <img src=""images/causal_sequence/saving_a_cat_causal/saving_a_cat_causal_9.png"" class=""exp-image"">
                    <div class=""question-area""></div> 
                </div>","null","","","","","","","","","","","",""
"","","","","","html-button-response","118","393335","0.0-118.0","CA4EAEC0FBE64074B392C4FC03A8A203","019d6b18-3cf8-7c33-9832-cf4e6b7c5afc","019d6ae6-5d89-74c6-b581-3918d1816346","","317","
                <div class=""stimulus-container"">
                    <img src=""images/causal_sequence/saving_a_cat_causal/saving_a_cat_causal_9.png"" class=""exp-image"">
                    <div class=""question-area"">
                        <p style=""font-size: 20px; font-weight: bold; margin: 0;"">Is there a person in this image?</p>
                    </div>
                </div>","0","main_experiment_trial","9","saving_a_cat_causal","causal_sequence","chronological","","","","","","",""
"","","","","","html-keyboard-response","119","398337","0.0-119.0","CA4EAEC0FBE64074B392C4FC03A8A203","019d6b18-3cf8-7c33-9832-cf4e6b7c5afc","019d6ae6-5d89-74c6-b581-3918d1816346","","null","
                <div class=""stimulus-container"">
                    <img src=""images/causal_sequence/saving_a_cat_causal/saving_a_cat_causal_ten.png"" class=""exp-image"">
                    <div class=""question-area""></div> 
                </div>","null","","","","","","","","","","","",""
"","","","","","html-button-response","120","398616","0.0-120.0","CA4EAEC0FBE64074B392C4FC03A8A203","019d6b18-3cf8-7c33-9832-cf4e6b7c5afc","019d6ae6-5d89-74c6-b581-3918d1816346","","279","
                <div class=""stimulus-container"">
                    <img src=""images/causal_sequence/saving_a_cat_causal/saving_a_cat_causal_ten.png"" class=""exp-image"">
                    <div class=""question-area"">
                        <p style=""font-size: 20px; font-weight: bold; margin: 0;"">Is there a person in this image?</p>
                    </div>
                </div>","0","main_experiment_trial","ten","saving_a_cat_causal","causal_sequence","chronological","","","","","","",""
"","","","","","html-keyboard-response","121","403630","0.0-121.0","CA4EAEC0FBE64074B392C4FC03A8A203","019d6b18-3cf8-7c33-9832-cf4e6b7c5afc","019d6ae6-5d89-74c6-b581-3918d1816346","","null","<div style=""background-color: white; width: 100vw; height: 100vh;""></div>","null","","","","","","","","","","","",""
"","","","","","html-keyboard-response","122","408639","0.0-122.0","CA4EAEC0FBE64074B392C4FC03A8A203","019d6b18-3cf8-7c33-9832-cf4e6b7c5afc","019d6ae6-5d89-74c6-b581-3918d1816346","","null","
                <div class=""stimulus-container"">
                    <img src=""semantic_sequence_notimeline/professions_semantic/professions_semantic_1.png"" class=""exp-image"">
                    <div class=""question-area""></div> 
                </div>","null","","","","","","","","","","","",""
"","","","","","html-button-response","123","408941","0.0-123.0","CA4EAEC0FBE64074B392C4FC03A8A203","019d6b18-3cf8-7c33-9832-cf4e6b7c5afc","019d6ae6-5d89-74c6-b581-3918d1816346","","302","
                <div class=""stimulus-container"">
                    <img src=""semantic_sequence_notimeline/professions_semantic/professions_semantic_1.png"" class=""exp-image"">
                    <div class=""question-area"">
                        <p style=""font-size: 20px; font-weight: bold; margin: 0;"">Is there a person in this image?</p>
                    </div>
                </div>","0","main_experiment_trial","1","professions_semantic","semantic_sequence_notimeline","chronological","","","","","","",""
"","","","","","html-keyboard-response","124","413946","0.0-124.0","CA4EAEC0FBE64074B392C4FC03A8A203","019d6b18-3cf8-7c33-9832-cf4e6b7c5afc","019d6ae6-5d89-74c6-b581-3918d1816346","","null","
                <div class=""stimulus-container"">
                    <img src=""semantic_sequence_notimeline/professions_semantic/professions_semantic_2.png"" class=""exp-image"">
                    <div class=""question-area""></div> 
                </div>","null","","","","","","","","","","","",""
"","","","","","html-button-response","125","414241","0.0-125.0","CA4EAEC0FBE64074B392C4FC03A8A203","019d6b18-3cf8-7c33-9832-cf4e6b7c5afc","019d6ae6-5d89-74c6-b581-3918d1816346","","295","
                <div class=""stimulus-container"">
                    <img src=""semantic_sequence_notimeline/professions_semantic/professions_semantic_2.png"" class=""exp-image"">
                    <div class=""question-area"">
                        <p style=""font-size: 20px; font-weight: bold; margin: 0;"">Is there a person in this image?</p>
                    </div>
                </div>","0","main_experiment_trial","2","professions_semantic","semantic_sequence_notimeline","chronological","","","","","","",""
"","","","","","html-keyboard-response","126","419252","0.0-126.0","CA4EAEC0FBE64074B392C4FC03A8A203","019d6b18-3cf8-7c33-9832-cf4e6b7c5afc","019d6ae6-5d89-74c6-b581-3918d1816346","","null","
                <div class=""stimulus-container"">
                    <img src=""semantic_sequence_notimeline/professions_semantic/professions_semantic_3.png"" class=""exp-image"">
                    <div class=""question-area""></div> 
                </div>","null","","","","","","","","","","","",""
"","","","","","html-button-response","127","419403","0.0-127.0","CA4EAEC0FBE64074B392C4FC03A8A203","019d6b18-3cf8-7c33-9832-cf4e6b7c5afc","019d6ae6-5d89-74c6-b581-3918d1816346","","150","
                <div class=""stimulus-container"">
                    <img src=""semantic_sequence_notimeline/professions_semantic/professions_semantic_3.png"" class=""exp-image"">
                    <div class=""question-area"">
                        <p style=""font-size: 20px; font-weight: bold; margin: 0;"">Is there a person in this image?</p>
                    </div>
                </div>","0","main_experiment_trial","3","professions_semantic","semantic_sequence_notimeline","chronological","","","","","","",""
"","","","","","html-keyboard-response","128","424405","0.0-128.0","CA4EAEC0FBE64074B392C4FC03A8A203","019d6b18-3cf8-7c33-9832-cf4e6b7c5afc","019d6ae6-5d89-74c6-b581-3918d1816346","","null","
                <div class=""stimulus-container"">
                    <img src=""semantic_sequence_notimeline/professions_semantic/professions_semantic_4.png"" class=""exp-image"">
                    <div class=""question-area""></div> 
                </div>","null","","","","","","","","","","","",""
"","","","","","html-button-response","129","424540","0.0-129.0","CA4EAEC0FBE64074B392C4FC03A8A203","019d6b18-3cf8-7c33-9832-cf4e6b7c5afc","019d6ae6-5d89-74c6-b581-3918d1816346","","133","
                <div class=""stimulus-container"">
                    <img src=""semantic_sequence_notimeline/professions_semantic/professions_semantic_4.png"" class=""exp-image"">
                    <div class=""question-area"">
                        <p style=""font-size: 20px; font-weight: bold; margin: 0;"">Is there a person in this image?</p>
                    </div>
                </div>","0","main_experiment_trial","4","professions_semantic","semantic_sequence_notimeline","chronological","","","","","","",""
"","","","","","html-keyboard-response","130","429544","0.0-130.0","CA4EAEC0FBE64074B392C4FC03A8A203","019d6b18-3cf8-7c33-9832-cf4e6b7c5afc","019d6ae6-5d89-74c6-b581-3918d1816346","","null","
                <div class=""stimulus-container"">
                    <img src=""semantic_sequence_notimeline/professions_semantic/professions_semantic_5.png"" class=""exp-image"">
                    <div class=""question-area""></div> 
                </div>","null","","","","","","","","","","","",""
"","","","","","html-button-response","131","429856","0.0-131.0","CA4EAEC0FBE64074B392C4FC03A8A203","019d6b18-3cf8-7c33-9832-cf4e6b7c5afc","019d6ae6-5d89-74c6-b581-3918d1816346","","311","
                <div class=""stimulus-container"">
                    <img src=""semantic_sequence_notimeline/professions_semantic/professions_semantic_5.png"" class=""exp-image"">
                    <div class=""question-area"">
                        <p style=""font-size: 20px; font-weight: bold; margin: 0;"">Is there a person in this image?</p>
                    </div>
                </div>","0","main_experiment_trial","5","professions_semantic","semantic_sequence_notimeline","chronological","","","","","","",""
"","","","","","html-keyboard-response","132","434856","0.0-132.0","CA4EAEC0FBE64074B392C4FC03A8A203","019d6b18-3cf8-7c33-9832-cf4e6b7c5afc","019d6ae6-5d89-74c6-b581-3918d1816346","","null","
                <div class=""stimulus-container"">
                    <img src=""semantic_sequence_notimeline/professions_semantic/professions_semantic_6.png"" class=""exp-image"">
                    <div class=""question-area""></div> 
                </div>","null","","","","","","","","","","","",""
"","","","","","html-button-response","133","435121","0.0-133.0","CA4EAEC0FBE64074B392C4FC03A8A203","019d6b18-3cf8-7c33-9832-cf4e6b7c5afc","019d6ae6-5d89-74c6-b581-3918d1816346","","264","
                <div class=""stimulus-container"">
                    <img src=""semantic_sequence_notimeline/professions_semantic/professions_semantic_6.png"" class=""exp-image"">
                    <div class=""question-area"">
                        <p style=""font-size: 20px; font-weight: bold; margin: 0;"">Is there a person in this image?</p>
                    </div>
                </div>","0","main_experiment_trial","6","professions_semantic","semantic_sequence_notimeline","chronological","","","","","","",""
"","","","","","html-keyboard-response","134","440138","0.0-134.0","CA4EAEC0FBE64074B392C4FC03A8A203","019d6b18-3cf8-7c33-9832-cf4e6b7c5afc","019d6ae6-5d89-74c6-b581-3918d1816346","","null","
                <div class=""stimulus-container"">
                    <img src=""semantic_sequence_notimeline/professions_semantic/professions_semantic_7.png"" class=""exp-image"">
                    <div class=""question-area""></div> 
                </div>","null","","","","","","","","","","","",""
"","","","","","html-button-response","135","440393","0.0-135.0","CA4EAEC0FBE64074B392C4FC03A8A203","019d6b18-3cf8-7c33-9832-cf4e6b7c5afc","019d6ae6-5d89-74c6-b581-3918d1816346","","254","
                <div class=""stimulus-container"">
                    <img src=""semantic_sequence_notimeline/professions_semantic/professions_semantic_7.png"" class=""exp-image"">
                    <div class=""question-area"">
                        <p style=""font-size: 20px; font-weight: bold; margin: 0;"">Is there a person in this image?</p>
                    </div>
                </div>","0","main_experiment_trial","7","professions_semantic","semantic_sequence_notimeline","chronological","","","","","","",""
"","","","","","html-keyboard-response","136","445396","0.0-136.0","CA4EAEC0FBE64074B392C4FC03A8A203","019d6b18-3cf8-7c33-9832-cf4e6b7c5afc","019d6ae6-5d89-74c6-b581-3918d1816346","","null","
                <div class=""stimulus-container"">
                    <img src=""semantic_sequence_notimeline/professions_semantic/professions_semantic_8.png"" class=""exp-image"">
                    <div class=""question-area""></div> 
                </div>","null","","","","","","","","","","","",""
"","","","","","html-button-response","137","445677","0.0-137.0","CA4EAEC0FBE64074B392C4FC03A8A203","019d6b18-3cf8-7c33-9832-cf4e6b7c5afc","019d6ae6-5d89-74c6-b581-3918d1816346","","280","
                <div class=""stimulus-container"">
                    <img src=""semantic_sequence_notimeline/professions_semantic/professions_semantic_8.png"" class=""exp-image"">
                    <div class=""question-area"">
                        <p style=""font-size: 20px; font-weight: bold; margin: 0;"">Is there a person in this image?</p>
                    </div>
                </div>","0","main_experiment_trial","8","professions_semantic","semantic_sequence_notimeline","chronological","","","","","","",""
"","","","","","html-keyboard-response","138","450685","0.0-138.0","CA4EAEC0FBE64074B392C4FC03A8A203","019d6b18-3cf8-7c33-9832-cf4e6b7c5afc","019d6ae6-5d89-74c6-b581-3918d1816346","","null","
                <div class=""stimulus-container"">
                    <img src=""semantic_sequence_notimeline/professions_semantic/professions_semantic_9.png"" class=""exp-image"">
                    <div class=""question-area""></div> 
                </div>","null","","","","","","","","","","","",""
"","","","","","html-button-response","139","451299","0.0-139.0","CA4EAEC0FBE64074B392C4FC03A8A203","019d6b18-3cf8-7c33-9832-cf4e6b7c5afc","019d6ae6-5d89-74c6-b581-3918d1816346","","613","
                <div class=""stimulus-container"">
                    <img src=""semantic_sequence_notimeline/professions_semantic/professions_semantic_9.png"" class=""exp-image"">
                    <div class=""question-area"">
                        <p style=""font-size: 20px; font-weight: bold; margin: 0;"">Is there a person in this image?</p>
                    </div>
                </div>","0","main_experiment_trial","9","professions_semantic","semantic_sequence_notimeline","chronological","","","","","","",""
"","","","","","html-keyboard-response","140","456307","0.0-140.0","CA4EAEC0FBE64074B392C4FC03A8A203","019d6b18-3cf8-7c33-9832-cf4e6b7c5afc","019d6ae6-5d89-74c6-b581-3918d1816346","","null","
                <div class=""stimulus-container"">
                    <img src=""semantic_sequence_notimeline/professions_semantic/professions_semantic_ten.png"" class=""exp-image"">
                    <div class=""question-area""></div> 
                </div>","null","","","","","","","","","","","",""
"","","","","","html-button-response","141","456626","0.0-141.0","CA4EAEC0FBE64074B392C4FC03A8A203","019d6b18-3cf8-7c33-9832-cf4e6b7c5afc","019d6ae6-5d89-74c6-b581-3918d1816346","","318","
                <div class=""stimulus-container"">
                    <img src=""semantic_sequence_notimeline/professions_semantic/professions_semantic_ten.png"" class=""exp-image"">
                    <div class=""question-area"">
                        <p style=""font-size: 20px; font-weight: bold; margin: 0;"">Is there a person in this image?</p>
                    </div>
                </div>","0","main_experiment_trial","ten","professions_semantic","semantic_sequence_notimeline","chronological","","","","","","",""
"","","","","","html-keyboard-response","142","461629","0.0-142.0","CA4EAEC0FBE64074B392C4FC03A8A203","019d6b18-3cf8-7c33-9832-cf4e6b7c5afc","019d6ae6-5d89-74c6-b581-3918d1816346","","null","<div style=""background-color: white; width: 100vw; height: 100vh;""></div>","null","","","","","","","","","","","",""
"","","","","","html-keyboard-response","143","466634","0.0-143.0","CA4EAEC0FBE64074B392C4FC03A8A203","019d6b18-3cf8-7c33-9832-cf4e6b7c5afc","019d6ae6-5d89-74c6-b581-3918d1816346","","null","
                <div class=""stimulus-container"">
                    <img src=""semantic_sequence_notimeline/household_objects_semantic/household_objects_semantic_1.png"" class=""exp-image"">
                    <div class=""question-area""></div> 
                </div>","null","","","","","","","","","","","",""
"","","","","","html-button-response","144","467470","0.0-144.0","CA4EAEC0FBE64074B392C4FC03A8A203","019d6b18-3cf8-7c33-9832-cf4e6b7c5afc","019d6ae6-5d89-74c6-b581-3918d1816346","","835","
                <div class=""stimulus-container"">
                    <img src=""semantic_sequence_notimeline/household_objects_semantic/household_objects_semantic_1.png"" class=""exp-image"">
                    <div class=""question-area"">
                        <p style=""font-size: 20px; font-weight: bold; margin: 0;"">Is there a person in this image?</p>
                    </div>
                </div>","1","main_experiment_trial","1","household_objects_semantic","semantic_sequence_notimeline","chronological","","","","","","",""
"","","","","","html-keyboard-response","145","472473","0.0-145.0","CA4EAEC0FBE64074B392C4FC03A8A203","019d6b18-3cf8-7c33-9832-cf4e6b7c5afc","019d6ae6-5d89-74c6-b581-3918d1816346","","null","
                <div class=""stimulus-container"">
                    <img src=""semantic_sequence_notimeline/household_objects_semantic/household_objects_semantic_2.png"" class=""exp-image"">
                    <div class=""question-area""></div> 
                </div>","null","","","","","","","","","","","",""
"","","","","","html-button-response","146","473267","0.0-146.0","CA4EAEC0FBE64074B392C4FC03A8A203","019d6b18-3cf8-7c33-9832-cf4e6b7c5afc","019d6ae6-5d89-74c6-b581-3918d1816346","","793","
                <div class=""stimulus-container"">
                    <img src=""semantic_sequence_notimeline/household_objects_semantic/household_objects_semantic_2.png"" class=""exp-image"">
                    <div class=""question-area"">
                        <p style=""font-size: 20px; font-weight: bold; margin: 0;"">Is there a person in this image?</p>
                    </div>
                </div>","1","main_experiment_trial","2","household_objects_semantic","semantic_sequence_notimeline","chronological","","","","","","",""
"","","","","","html-keyboard-response","147","478279","0.0-147.0","CA4EAEC0FBE64074B392C4FC03A8A203","019d6b18-3cf8-7c33-9832-cf4e6b7c5afc","019d6ae6-5d89-74c6-b581-3918d1816346","","null","
                <div class=""stimulus-container"">
                    <img src=""semantic_sequence_notimeline/household_objects_semantic/household_objects_semantic_3.png"" class=""exp-image"">
                    <div class=""question-area""></div> 
                </div>","null","","","","","","","","","","","",""
"","","","","","html-button-response","148","478719","0.0-148.0","CA4EAEC0FBE64074B392C4FC03A8A203","019d6b18-3cf8-7c33-9832-cf4e6b7c5afc","019d6ae6-5d89-74c6-b581-3918d1816346","","440","
                <div class=""stimulus-container"">
                    <img src=""semantic_sequence_notimeline/household_objects_semantic/household_objects_semantic_3.png"" class=""exp-image"">
                    <div class=""question-area"">
                        <p style=""font-size: 20px; font-weight: bold; margin: 0;"">Is there a person in this image?</p>
                    </div>
                </div>","1","main_experiment_trial","3","household_objects_semantic","semantic_sequence_notimeline","chronological","","","","","","",""
"","","","","","html-keyboard-response","149","483732","0.0-149.0","CA4EAEC0FBE64074B392C4FC03A8A203","019d6b18-3cf8-7c33-9832-cf4e6b7c5afc","019d6ae6-5d89-74c6-b581-3918d1816346","","null","
                <div class=""stimulus-container"">
                    <img src=""semantic_sequence_notimeline/household_objects_semantic/household_objects_semantic_4.png"" class=""exp-image"">
                    <div class=""question-area""></div> 
                </div>","null","","","","","","","","","","","",""
"","","","","","html-button-response","150","484150","0.0-150.0","CA4EAEC0FBE64074B392C4FC03A8A203","019d6b18-3cf8-7c33-9832-cf4e6b7c5afc","019d6ae6-5d89-74c6-b581-3918d1816346","","417","
                <div class=""stimulus-container"">
                    <img src=""semantic_sequence_notimeline/household_objects_semantic/household_objects_semantic_4.png"" class=""exp-image"">
                    <div class=""question-area"">
                        <p style=""font-size: 20px; font-weight: bold; margin: 0;"">Is there a person in this image?</p>
                    </div>
                </div>","1","main_experiment_trial","4","household_objects_semantic","semantic_sequence_notimeline","chronological","","","","","","",""
"","","","","","html-keyboard-response","151","489156","0.0-151.0","CA4EAEC0FBE64074B392C4FC03A8A203","019d6b18-3cf8-7c33-9832-cf4e6b7c5afc","019d6ae6-5d89-74c6-b581-3918d1816346","","null","
                <div class=""stimulus-container"">
                    <img src=""semantic_sequence_notimeline/household_objects_semantic/household_objects_semantic_5.png"" class=""exp-image"">
                    <div class=""question-area""></div> 
                </div>","null","","","","","","","","","","","",""
"","","","","","html-button-response","152","489581","0.0-152.0","CA4EAEC0FBE64074B392C4FC03A8A203","019d6b18-3cf8-7c33-9832-cf4e6b7c5afc","019d6ae6-5d89-74c6-b581-3918d1816346","","423","
                <div class=""stimulus-container"">
                    <img src=""semantic_sequence_notimeline/household_objects_semantic/household_objects_semantic_5.png"" class=""exp-image"">
                    <div class=""question-area"">
                        <p style=""font-size: 20px; font-weight: bold; margin: 0;"">Is there a person in this image?</p>
                    </div>
                </div>","1","main_experiment_trial","5","household_objects_semantic","semantic_sequence_notimeline","chronological","","","","","","",""
"","","","","","html-keyboard-response","153","494582","0.0-153.0","CA4EAEC0FBE64074B392C4FC03A8A203","019d6b18-3cf8-7c33-9832-cf4e6b7c5afc","019d6ae6-5d89-74c6-b581-3918d1816346","","null","
                <div class=""stimulus-container"">
                    <img src=""semantic_sequence_notimeline/household_objects_semantic/household_objects_semantic_6.png"" class=""exp-image"">
                    <div class=""question-area""></div> 
                </div>","null","","","","","","","","","","","",""
"","","","","","html-button-response","154","495088","0.0-154.0","CA4EAEC0FBE64074B392C4FC03A8A203","019d6b18-3cf8-7c33-9832-cf4e6b7c5afc","019d6ae6-5d89-74c6-b581-3918d1816346","","505","
                <div class=""stimulus-container"">
                    <img src=""semantic_sequence_notimeline/household_objects_semantic/household_objects_semantic_6.png"" class=""exp-image"">
                    <div class=""question-area"">
                        <p style=""font-size: 20px; font-weight: bold; margin: 0;"">Is there a person in this image?</p>
                    </div>
                </div>","1","main_experiment_trial","6","household_objects_semantic","semantic_sequence_notimeline","chronological","","","","","","",""
"","","","","","html-keyboard-response","155","500101","0.0-155.0","CA4EAEC0FBE64074B392C4FC03A8A203","019d6b18-3cf8-7c33-9832-cf4e6b7c5afc","019d6ae6-5d89-74c6-b581-3918d1816346","","null","
                <div class=""stimulus-container"">
                    <img src=""semantic_sequence_notimeline/household_objects_semantic/household_objects_semantic_7.png"" class=""exp-image"">
                    <div class=""question-area""></div> 
                </div>","null","","","","","","","","","","","",""
"","","","","","html-button-response","156","500519","0.0-156.0","CA4EAEC0FBE64074B392C4FC03A8A203","019d6b18-3cf8-7c33-9832-cf4e6b7c5afc","019d6ae6-5d89-74c6-b581-3918d1816346","","417","
                <div class=""stimulus-container"">
                    <img src=""semantic_sequence_notimeline/household_objects_semantic/household_objects_semantic_7.png"" class=""exp-image"">
                    <div class=""question-area"">
                        <p style=""font-size: 20px; font-weight: bold; margin: 0;"">Is there a person in this image?</p>
                    </div>
                </div>","1","main_experiment_trial","7","household_objects_semantic","semantic_sequence_notimeline","chronological","","","","","","",""
"","","","","","html-keyboard-response","157","505524","0.0-157.0","CA4EAEC0FBE64074B392C4FC03A8A203","019d6b18-3cf8-7c33-9832-cf4e6b7c5afc","019d6ae6-5d89-74c6-b581-3918d1816346","","null","
                <div class=""stimulus-container"">
                    <img src=""semantic_sequence_notimeline/household_objects_semantic/household_objects_semantic_8.png"" class=""exp-image"">
                    <div class=""question-area""></div> 
                </div>","null","","","","","","","","","","","",""
"","","","","","html-button-response","158","506054","0.0-158.0","CA4EAEC0FBE64074B392C4FC03A8A203","019d6b18-3cf8-7c33-9832-cf4e6b7c5afc","019d6ae6-5d89-74c6-b581-3918d1816346","","528","
                <div class=""stimulus-container"">
                    <img src=""semantic_sequence_notimeline/household_objects_semantic/household_objects_semantic_8.png"" class=""exp-image"">
                    <div class=""question-area"">
                        <p style=""font-size: 20px; font-weight: bold; margin: 0;"">Is there a person in this image?</p>
                    </div>
                </div>","1","main_experiment_trial","8","household_objects_semantic","semantic_sequence_notimeline","chronological","","","","","","",""
"","","","","","html-keyboard-response","159","511060","0.0-159.0","CA4EAEC0FBE64074B392C4FC03A8A203","019d6b18-3cf8-7c33-9832-cf4e6b7c5afc","019d6ae6-5d89-74c6-b581-3918d1816346","","null","
                <div class=""stimulus-container"">
                    <img src=""semantic_sequence_notimeline/household_objects_semantic/household_objects_semantic_9.png"" class=""exp-image"">
                    <div class=""question-area""></div> 
                </div>","null","","","","","","","","","","","",""
"","","","","","html-button-response","160","511431","0.0-160.0","CA4EAEC0FBE64074B392C4FC03A8A203","019d6b18-3cf8-7c33-9832-cf4e6b7c5afc","019d6ae6-5d89-74c6-b581-3918d1816346","","370","
                <div class=""stimulus-container"">
                    <img src=""semantic_sequence_notimeline/household_objects_semantic/household_objects_semantic_9.png"" class=""exp-image"">
                    <div class=""question-area"">
                        <p style=""font-size: 20px; font-weight: bold; margin: 0;"">Is there a person in this image?</p>
                    </div>
                </div>","1","main_experiment_trial","9","household_objects_semantic","semantic_sequence_notimeline","chronological","","","","","","",""
"","","","","","html-keyboard-response","161","516434","0.0-161.0","CA4EAEC0FBE64074B392C4FC03A8A203","019d6b18-3cf8-7c33-9832-cf4e6b7c5afc","019d6ae6-5d89-74c6-b581-3918d1816346","","null","
                <div class=""stimulus-container"">
                    <img src=""semantic_sequence_notimeline/household_objects_semantic/household_objects_semantic_ten.png"" class=""exp-image"">
                    <div class=""question-area""></div> 
                </div>","null","","","","","","","","","","","",""
"","","","","","html-button-response","162","516808","0.0-162.0","CA4EAEC0FBE64074B392C4FC03A8A203","019d6b18-3cf8-7c33-9832-cf4e6b7c5afc","019d6ae6-5d89-74c6-b581-3918d1816346","","374","
                <div class=""stimulus-container"">
                    <img src=""semantic_sequence_notimeline/household_objects_semantic/household_objects_semantic_ten.png"" class=""exp-image"">
                    <div class=""question-area"">
                        <p style=""font-size: 20px; font-weight: bold; margin: 0;"">Is there a person in this image?</p>
                    </div>
                </div>","1","main_experiment_trial","ten","household_objects_semantic","semantic_sequence_notimeline","chronological","","","","","","",""
"","","","","","html-keyboard-response","163","521822","0.0-163.0","CA4EAEC0FBE64074B392C4FC03A8A203","019d6b18-3cf8-7c33-9832-cf4e6b7c5afc","019d6ae6-5d89-74c6-b581-3918d1816346","","null","<div style=""background-color: white; width: 100vw; height: 100vh;""></div>","null","","","","","","","","","","","",""
"","","","","","html-keyboard-response","164","526826","0.0-164.0","CA4EAEC0FBE64074B392C4FC03A8A203","019d6b18-3cf8-7c33-9832-cf4e6b7c5afc","019d6ae6-5d89-74c6-b581-3918d1816346","","null","
                <div class=""stimulus-container"">
                    <img src=""semantic_sequence_notimeline/animals_semantic/animals_semantic_1.png"" class=""exp-image"">
                    <div class=""question-area""></div> 
                </div>","null","","","","","","","","","","","",""
"","","","","","html-button-response","165","527970","0.0-165.0","CA4EAEC0FBE64074B392C4FC03A8A203","019d6b18-3cf8-7c33-9832-cf4e6b7c5afc","019d6ae6-5d89-74c6-b581-3918d1816346","","1143","
                <div class=""stimulus-container"">
                    <img src=""semantic_sequence_notimeline/animals_semantic/animals_semantic_1.png"" class=""exp-image"">
                    <div class=""question-area"">
                        <p style=""font-size: 20px; font-weight: bold; margin: 0;"">Is there a person in this image?</p>
                    </div>
                </div>","1","main_experiment_trial","1","animals_semantic","semantic_sequence_notimeline","chronological","","","","","","",""
"","","","","","html-keyboard-response","166","532978","0.0-166.0","CA4EAEC0FBE64074B392C4FC03A8A203","019d6b18-3cf8-7c33-9832-cf4e6b7c5afc","019d6ae6-5d89-74c6-b581-3918d1816346","","null","
                <div class=""stimulus-container"">
                    <img src=""semantic_sequence_notimeline/animals_semantic/animals_semantic_2.png"" class=""exp-image"">
                    <div class=""question-area""></div> 
                </div>","null","","","","","","","","","","","",""
"","","","","","html-button-response","167","533279","0.0-167.0","CA4EAEC0FBE64074B392C4FC03A8A203","019d6b18-3cf8-7c33-9832-cf4e6b7c5afc","019d6ae6-5d89-74c6-b581-3918d1816346","","300","
                <div class=""stimulus-container"">
                    <img src=""semantic_sequence_notimeline/animals_semantic/animals_semantic_2.png"" class=""exp-image"">
                    <div class=""question-area"">
                        <p style=""font-size: 20px; font-weight: bold; margin: 0;"">Is there a person in this image?</p>
                    </div>
                </div>","1","main_experiment_trial","2","animals_semantic","semantic_sequence_notimeline","chronological","","","","","","",""
"","","","","","html-keyboard-response","168","538289","0.0-168.0","CA4EAEC0FBE64074B392C4FC03A8A203","019d6b18-3cf8-7c33-9832-cf4e6b7c5afc","019d6ae6-5d89-74c6-b581-3918d1816346","","null","
                <div class=""stimulus-container"">
                    <img src=""semantic_sequence_notimeline/animals_semantic/animals_semantic_3.png"" class=""exp-image"">
                    <div class=""question-area""></div> 
                </div>","null","","","","","","","","","","","",""
"","","","","","html-button-response","169","538644","0.0-169.0","CA4EAEC0FBE64074B392C4FC03A8A203","019d6b18-3cf8-7c33-9832-cf4e6b7c5afc","019d6ae6-5d89-74c6-b581-3918d1816346","","354","
                <div class=""stimulus-container"">
                    <img src=""semantic_sequence_notimeline/animals_semantic/animals_semantic_3.png"" class=""exp-image"">
                    <div class=""question-area"">
                        <p style=""font-size: 20px; font-weight: bold; margin: 0;"">Is there a person in this image?</p>
                    </div>
                </div>","1","main_experiment_trial","3","animals_semantic","semantic_sequence_notimeline","chronological","","","","","","",""
"","","","","","html-keyboard-response","170","543659","0.0-170.0","CA4EAEC0FBE64074B392C4FC03A8A203","019d6b18-3cf8-7c33-9832-cf4e6b7c5afc","019d6ae6-5d89-74c6-b581-3918d1816346","","null","
                <div class=""stimulus-container"">
                    <img src=""semantic_sequence_notimeline/animals_semantic/animals_semantic_4.png"" class=""exp-image"">
                    <div class=""question-area""></div> 
                </div>","null","","","","","","","","","","","",""
"","","","","","html-button-response","171","543974","0.0-171.0","CA4EAEC0FBE64074B392C4FC03A8A203","019d6b18-3cf8-7c33-9832-cf4e6b7c5afc","019d6ae6-5d89-74c6-b581-3918d1816346","","315","
                <div class=""stimulus-container"">
                    <img src=""semantic_sequence_notimeline/animals_semantic/animals_semantic_4.png"" class=""exp-image"">
                    <div class=""question-area"">
                        <p style=""font-size: 20px; font-weight: bold; margin: 0;"">Is there a person in this image?</p>
                    </div>
                </div>","1","main_experiment_trial","4","animals_semantic","semantic_sequence_notimeline","chronological","","","","","","",""
"","","","","","html-keyboard-response","172","548982","0.0-172.0","CA4EAEC0FBE64074B392C4FC03A8A203","019d6b18-3cf8-7c33-9832-cf4e6b7c5afc","019d6ae6-5d89-74c6-b581-3918d1816346","","null","
                <div class=""stimulus-container"">
                    <img src=""semantic_sequence_notimeline/animals_semantic/animals_semantic_5.png"" class=""exp-image"">
                    <div class=""question-area""></div> 
                </div>","null","","","","","","","","","","","",""
"","","","","","html-button-response","173","549327","0.0-173.0","CA4EAEC0FBE64074B392C4FC03A8A203","019d6b18-3cf8-7c33-9832-cf4e6b7c5afc","019d6ae6-5d89-74c6-b581-3918d1816346","","343","
                <div class=""stimulus-container"">
                    <img src=""semantic_sequence_notimeline/animals_semantic/animals_semantic_5.png"" class=""exp-image"">
                    <div class=""question-area"">
                        <p style=""font-size: 20px; font-weight: bold; margin: 0;"">Is there a person in this image?</p>
                    </div>
                </div>","1","main_experiment_trial","5","animals_semantic","semantic_sequence_notimeline","chronological","","","","","","",""
"","","","","","html-keyboard-response","174","554339","0.0-174.0","CA4EAEC0FBE64074B392C4FC03A8A203","019d6b18-3cf8-7c33-9832-cf4e6b7c5afc","019d6ae6-5d89-74c6-b581-3918d1816346","","null","
                <div class=""stimulus-container"">
                    <img src=""semantic_sequence_notimeline/animals_semantic/animals_semantic_6.png"" class=""exp-image"">
                    <div class=""question-area""></div> 
                </div>","null","","","","","","","","","","","",""
"","","","","","html-button-response","175","554664","0.0-175.0","CA4EAEC0FBE64074B392C4FC03A8A203","019d6b18-3cf8-7c33-9832-cf4e6b7c5afc","019d6ae6-5d89-74c6-b581-3918d1816346","","325","
                <div class=""stimulus-container"">
                    <img src=""semantic_sequence_notimeline/animals_semantic/animals_semantic_6.png"" class=""exp-image"">
