"success","timeout","failed_images","failed_audio","failed_video","trial_type","trial_index","time_elapsed","internal_node_id","subject_id","study_id","session_id","view_history","rt","stimulus","response","task","image_index","folder","sequence_type","presentation_order","valuable_image_index","reward_type","distance_from_x","target_X","chosen_image_index","is_x_plus_dist","correct_choice"
"true","false","[]","[]","[]","preload","0","14231","0.0-0.0","54D618C214674C62938D84DA9D2607DE","019cfc8d-e844-7170-8bcc-6ce50a4147eb","019cfc7b-6c7b-7b1b-afe7-acad8efc6711","","","","","","","","","","","","","","","",""
"","","","","","instructions","1","26239","0.0-1.0","54D618C214674C62938D84DA9D2607DE","019cfc8d-e844-7170-8bcc-6ce50a4147eb","019cfc7b-6c7b-7b1b-afe7-acad8efc6711","[{""page_index"":0,""viewing_time"":12007}]","12007","","","","","","","","","","","","","",""
"","","","","","instructions","2","38750","0.0-2.0","54D618C214674C62938D84DA9D2607DE","019cfc8d-e844-7170-8bcc-6ce50a4147eb","019cfc7b-6c7b-7b1b-afe7-acad8efc6711","[{""page_index"":0,""viewing_time"":12511}]","12511","","","","","","","","","","","","","",""
"true","","","","","fullscreen","3","44899","0.0-3.0","54D618C214674C62938D84DA9D2607DE","019cfc8d-e844-7170-8bcc-6ce50a4147eb","019cfc7b-6c7b-7b1b-afe7-acad8efc6711","","5143","","","","","","","","","","","","","",""
"","","","","","instructions","4","55918","0.0-4.0","54D618C214674C62938D84DA9D2607DE","019cfc8d-e844-7170-8bcc-6ce50a4147eb","019cfc7b-6c7b-7b1b-afe7-acad8efc6711","[{""page_index"":0,""viewing_time"":11019}]","11020","","","","","","","","","","","","","",""
"","","","","","instructions","5","69631","0.0-5.0","54D618C214674C62938D84DA9D2607DE","019cfc8d-e844-7170-8bcc-6ce50a4147eb","019cfc7b-6c7b-7b1b-afe7-acad8efc6711","[{""page_index"":0,""viewing_time"":13712}]","13712","","","","","","","","","","","","","",""
"","","","","","html-keyboard-response","6","73634","0.0-6.0","54D618C214674C62938D84DA9D2607DE","019cfc8d-e844-7170-8bcc-6ce50a4147eb","019cfc7b-6c7b-7b1b-afe7-acad8efc6711","","null","
                <div class=""stimulus-container"">
                    <img src=""images/instructions/movie_1.png"" class=""exp-image"">
                    <div class=""question-area""></div> 
                </div>","null","","","","","","","","","","","",""
"","","","","","html-button-response","7","75775","0.0-7.0","54D618C214674C62938D84DA9D2607DE","019cfc8d-e844-7170-8bcc-6ce50a4147eb","019cfc7b-6c7b-7b1b-afe7-acad8efc6711","","2140","
                <div class=""stimulus-container"">
                    <img src=""images/instructions/movie_1.png"" class=""exp-image"">
                    <div class=""question-area"">
                        <p style=""font-size: 20px; font-weight: bold; margin: 0;"">Was there a person in this image?</p>
                    </div>
                </div>","0","example_question","1","","","","","","","","","",""
"","","","","","html-keyboard-response","8","79777","0.0-8.0","54D618C214674C62938D84DA9D2607DE","019cfc8d-e844-7170-8bcc-6ce50a4147eb","019cfc7b-6c7b-7b1b-afe7-acad8efc6711","","null","
                <div class=""stimulus-container"">
                    <img src=""images/instructions/movie_2.png"" class=""exp-image"">
                    <div class=""question-area""></div> 
                </div>","null","","","","","","","","","","","",""
"","","","","","html-button-response","9","81431","0.0-9.0","54D618C214674C62938D84DA9D2607DE","019cfc8d-e844-7170-8bcc-6ce50a4147eb","019cfc7b-6c7b-7b1b-afe7-acad8efc6711","","1653","
                <div class=""stimulus-container"">
                    <img src=""images/instructions/movie_2.png"" class=""exp-image"">
                    <div class=""question-area"">
                        <p style=""font-size: 20px; font-weight: bold; margin: 0;"">Was there a person in this image?</p>
                    </div>
                </div>","0","example_question","2","","","","","","","","","",""
"","","","","","html-keyboard-response","10","85432","0.0-10.0","54D618C214674C62938D84DA9D2607DE","019cfc8d-e844-7170-8bcc-6ce50a4147eb","019cfc7b-6c7b-7b1b-afe7-acad8efc6711","","null","
                <div class=""stimulus-container"">
                    <img src=""images/instructions/movie_3.png"" class=""exp-image"">
                    <div class=""question-area""></div> 
                </div>","null","","","","","","","","","","","",""
"","","","","","html-button-response","11","86374","0.0-11.0","54D618C214674C62938D84DA9D2607DE","019cfc8d-e844-7170-8bcc-6ce50a4147eb","019cfc7b-6c7b-7b1b-afe7-acad8efc6711","","942","
                <div class=""stimulus-container"">
                    <img src=""images/instructions/movie_3.png"" class=""exp-image"">
                    <div class=""question-area"">
                        <p style=""font-size: 20px; font-weight: bold; margin: 0;"">Was there a person in this image?</p>
                    </div>
                </div>","0","example_question","3","","","","","","","","","",""
"","","","","","html-keyboard-response","12","90390","0.0-12.0","54D618C214674C62938D84DA9D2607DE","019cfc8d-e844-7170-8bcc-6ce50a4147eb","019cfc7b-6c7b-7b1b-afe7-acad8efc6711","","null","
                <div class=""stimulus-container"">
                    <img src=""images/instructions/movie_4.png"" class=""exp-image"">
                    <div class=""question-area""></div> 
                </div>","null","","","","","","","","","","","",""
"","","","","","html-button-response","13","91191","0.0-13.0","54D618C214674C62938D84DA9D2607DE","019cfc8d-e844-7170-8bcc-6ce50a4147eb","019cfc7b-6c7b-7b1b-afe7-acad8efc6711","","800","
                <div class=""stimulus-container"">
                    <img src=""images/instructions/movie_4.png"" class=""exp-image"">
                    <div class=""question-area"">
                        <p style=""font-size: 20px; font-weight: bold; margin: 0;"">Was there a person in this image?</p>
                    </div>
                </div>","0","example_question","4","","","","","","","","","",""
"","","","","","instructions","14","93142","0.0-14.0","54D618C214674C62938D84DA9D2607DE","019cfc8d-e844-7170-8bcc-6ce50a4147eb","019cfc7b-6c7b-7b1b-afe7-acad8efc6711","[{""page_index"":0,""viewing_time"":1951}]","1952","","","","","","","","","","","","","",""
"","","","","","instructions","15","98054","0.0-15.0","54D618C214674C62938D84DA9D2607DE","019cfc8d-e844-7170-8bcc-6ce50a4147eb","019cfc7b-6c7b-7b1b-afe7-acad8efc6711","[{""page_index"":0,""viewing_time"":4912}]","4912","","","","","","","","","","","","","",""
"","","","","","html-keyboard-response","16","103069","0.0-16.0","54D618C214674C62938D84DA9D2607DE","019cfc8d-e844-7170-8bcc-6ce50a4147eb","019cfc7b-6c7b-7b1b-afe7-acad8efc6711","","null","<div style=""background-color: white; width: 100vw; height: 100vh;""></div>","null","","","","","","","","","","","",""
"","","","","","html-keyboard-response","17","108072","0.0-17.0","54D618C214674C62938D84DA9D2607DE","019cfc8d-e844-7170-8bcc-6ce50a4147eb","019cfc7b-6c7b-7b1b-afe7-acad8efc6711","","null","
                <div class=""stimulus-container"">
                    <img src=""images/schematic_sequence/interview_scheme/interview_scheme_1.png"" class=""exp-image"">
                    <div class=""question-area""></div> 
                </div>","null","","","","","","","","","","","",""
"","","","","","html-button-response","18","108847","0.0-18.0","54D618C214674C62938D84DA9D2607DE","019cfc8d-e844-7170-8bcc-6ce50a4147eb","019cfc7b-6c7b-7b1b-afe7-acad8efc6711","","774","
                <div class=""stimulus-container"">
                    <img src=""images/schematic_sequence/interview_scheme/interview_scheme_1.png"" class=""exp-image"">
                    <div class=""question-area"">
                        <p style=""font-size: 20px; font-weight: bold; margin: 0;"">Is there a person in this image?</p>
                    </div>
                </div>","1","main_experiment_trial","1","interview_scheme","schematic_sequence","chronological","","","","","","",""
"","","","","","html-keyboard-response","19","113862","0.0-19.0","54D618C214674C62938D84DA9D2607DE","019cfc8d-e844-7170-8bcc-6ce50a4147eb","019cfc7b-6c7b-7b1b-afe7-acad8efc6711","","null","
                <div class=""stimulus-container"">
                    <img src=""images/schematic_sequence/interview_scheme/interview_scheme_2.png"" class=""exp-image"">
                    <div class=""question-area""></div> 
                </div>","null","","","","","","","","","","","",""
"","","","","","html-button-response","20","114455","0.0-20.0","54D618C214674C62938D84DA9D2607DE","019cfc8d-e844-7170-8bcc-6ce50a4147eb","019cfc7b-6c7b-7b1b-afe7-acad8efc6711","","592","
                <div class=""stimulus-container"">
                    <img src=""images/schematic_sequence/interview_scheme/interview_scheme_2.png"" class=""exp-image"">
                    <div class=""question-area"">
                        <p style=""font-size: 20px; font-weight: bold; margin: 0;"">Is there a person in this image?</p>
                    </div>
                </div>","1","main_experiment_trial","2","interview_scheme","schematic_sequence","chronological","","","","","","",""
"","","","","","html-keyboard-response","21","119465","0.0-21.0","54D618C214674C62938D84DA9D2607DE","019cfc8d-e844-7170-8bcc-6ce50a4147eb","019cfc7b-6c7b-7b1b-afe7-acad8efc6711","","null","
                <div class=""stimulus-container"">
                    <img src=""images/schematic_sequence/interview_scheme/interview_scheme_3.png"" class=""exp-image"">
                    <div class=""question-area""></div> 
                </div>","null","","","","","","","","","","","",""
"","","","","","html-button-response","22","120415","0.0-22.0","54D618C214674C62938D84DA9D2607DE","019cfc8d-e844-7170-8bcc-6ce50a4147eb","019cfc7b-6c7b-7b1b-afe7-acad8efc6711","","949","
                <div class=""stimulus-container"">
                    <img src=""images/schematic_sequence/interview_scheme/interview_scheme_3.png"" class=""exp-image"">
                    <div class=""question-area"">
                        <p style=""font-size: 20px; font-weight: bold; margin: 0;"">Is there a person in this image?</p>
                    </div>
                </div>","1","main_experiment_trial","3","interview_scheme","schematic_sequence","chronological","","","","","","",""
"","","","","","html-keyboard-response","23","125428","0.0-23.0","54D618C214674C62938D84DA9D2607DE","019cfc8d-e844-7170-8bcc-6ce50a4147eb","019cfc7b-6c7b-7b1b-afe7-acad8efc6711","","null","
                <div class=""stimulus-container"">
                    <img src=""images/schematic_sequence/interview_scheme/interview_scheme_4.png"" class=""exp-image"">
                    <div class=""question-area""></div> 
                </div>","null","","","","","","","","","","","",""
"","","","","","html-button-response","24","126831","0.0-24.0","54D618C214674C62938D84DA9D2607DE","019cfc8d-e844-7170-8bcc-6ce50a4147eb","019cfc7b-6c7b-7b1b-afe7-acad8efc6711","","1402","
                <div class=""stimulus-container"">
                    <img src=""images/schematic_sequence/interview_scheme/interview_scheme_4.png"" class=""exp-image"">
                    <div class=""question-area"">
                        <p style=""font-size: 20px; font-weight: bold; margin: 0;"">Is there a person in this image?</p>
                    </div>
                </div>","1","main_experiment_trial","4","interview_scheme","schematic_sequence","chronological","","","","","","",""
"","","","","","html-keyboard-response","25","131847","0.0-25.0","54D618C214674C62938D84DA9D2607DE","019cfc8d-e844-7170-8bcc-6ce50a4147eb","019cfc7b-6c7b-7b1b-afe7-acad8efc6711","","null","
                <div class=""stimulus-container"">
                    <img src=""images/schematic_sequence/interview_scheme/interview_scheme_5.png"" class=""exp-image"">
                    <div class=""question-area""></div> 
                </div>","null","","","","","","","","","","","",""
"","","","","","html-button-response","26","132543","0.0-26.0","54D618C214674C62938D84DA9D2607DE","019cfc8d-e844-7170-8bcc-6ce50a4147eb","019cfc7b-6c7b-7b1b-afe7-acad8efc6711","","694","
                <div class=""stimulus-container"">
                    <img src=""images/schematic_sequence/interview_scheme/interview_scheme_5.png"" class=""exp-image"">
                    <div class=""question-area"">
                        <p style=""font-size: 20px; font-weight: bold; margin: 0;"">Is there a person in this image?</p>
                    </div>
                </div>","1","main_experiment_trial","5","interview_scheme","schematic_sequence","chronological","","","","","","",""
"","","","","","html-keyboard-response","27","137552","0.0-27.0","54D618C214674C62938D84DA9D2607DE","019cfc8d-e844-7170-8bcc-6ce50a4147eb","019cfc7b-6c7b-7b1b-afe7-acad8efc6711","","null","
                <div class=""stimulus-container"">
                    <img src=""images/schematic_sequence/interview_scheme/interview_scheme_6.png"" class=""exp-image"">
                    <div class=""question-area""></div> 
                </div>","null","","","","","","","","","","","",""
"","","","","","html-button-response","28","138087","0.0-28.0","54D618C214674C62938D84DA9D2607DE","019cfc8d-e844-7170-8bcc-6ce50a4147eb","019cfc7b-6c7b-7b1b-afe7-acad8efc6711","","534","
                <div class=""stimulus-container"">
                    <img src=""images/schematic_sequence/interview_scheme/interview_scheme_6.png"" class=""exp-image"">
                    <div class=""question-area"">
                        <p style=""font-size: 20px; font-weight: bold; margin: 0;"">Is there a person in this image?</p>
                    </div>
                </div>","0","main_experiment_trial","6","interview_scheme","schematic_sequence","chronological","","","","","","",""
"","","","","","html-keyboard-response","29","143094","0.0-29.0","54D618C214674C62938D84DA9D2607DE","019cfc8d-e844-7170-8bcc-6ce50a4147eb","019cfc7b-6c7b-7b1b-afe7-acad8efc6711","","null","
                <div class=""stimulus-container"">
                    <img src=""images/schematic_sequence/interview_scheme/interview_scheme_7.png"" class=""exp-image"">
                    <div class=""question-area""></div> 
                </div>","null","","","","","","","","","","","",""
"","","","","","html-button-response","30","144775","0.0-30.0","54D618C214674C62938D84DA9D2607DE","019cfc8d-e844-7170-8bcc-6ce50a4147eb","019cfc7b-6c7b-7b1b-afe7-acad8efc6711","","1680","
                <div class=""stimulus-container"">
                    <img src=""images/schematic_sequence/interview_scheme/interview_scheme_7.png"" class=""exp-image"">
                    <div class=""question-area"">
                        <p style=""font-size: 20px; font-weight: bold; margin: 0;"">Is there a person in this image?</p>
                    </div>
                </div>","0","main_experiment_trial","7","interview_scheme","schematic_sequence","chronological","","","","","","",""
"","","","","","html-keyboard-response","31","149777","0.0-31.0","54D618C214674C62938D84DA9D2607DE","019cfc8d-e844-7170-8bcc-6ce50a4147eb","019cfc7b-6c7b-7b1b-afe7-acad8efc6711","","null","
                <div class=""stimulus-container"">
                    <img src=""images/schematic_sequence/interview_scheme/interview_scheme_8.png"" class=""exp-image"">
                    <div class=""question-area""></div> 
                </div>","null","","","","","","","","","","","",""
"","","","","","html-button-response","32","152787","0.0-32.0","54D618C214674C62938D84DA9D2607DE","019cfc8d-e844-7170-8bcc-6ce50a4147eb","019cfc7b-6c7b-7b1b-afe7-acad8efc6711","","null","
                <div class=""stimulus-container"">
                    <img src=""images/schematic_sequence/interview_scheme/interview_scheme_8.png"" class=""exp-image"">
                    <div class=""question-area"">
                        <p style=""font-size: 20px; font-weight: bold; margin: 0;"">Is there a person in this image?</p>
                    </div>
                </div>","null","main_experiment_trial","8","interview_scheme","schematic_sequence","chronological","","","","","","",""
"","","","","","html-keyboard-response","33","157788","0.0-33.0","54D618C214674C62938D84DA9D2607DE","019cfc8d-e844-7170-8bcc-6ce50a4147eb","019cfc7b-6c7b-7b1b-afe7-acad8efc6711","","null","
                <div class=""stimulus-container"">
                    <img src=""images/schematic_sequence/interview_scheme/interview_scheme_9.png"" class=""exp-image"">
                    <div class=""question-area""></div> 
                </div>","null","","","","","","","","","","","",""
"","","","","","html-button-response","34","158239","0.0-34.0","54D618C214674C62938D84DA9D2607DE","019cfc8d-e844-7170-8bcc-6ce50a4147eb","019cfc7b-6c7b-7b1b-afe7-acad8efc6711","","450","
                <div class=""stimulus-container"">
                    <img src=""images/schematic_sequence/interview_scheme/interview_scheme_9.png"" class=""exp-image"">
                    <div class=""question-area"">
                        <p style=""font-size: 20px; font-weight: bold; margin: 0;"">Is there a person in this image?</p>
                    </div>
                </div>","0","main_experiment_trial","9","interview_scheme","schematic_sequence","chronological","","","","","","",""
"","","","","","html-keyboard-response","35","163249","0.0-35.0","54D618C214674C62938D84DA9D2607DE","019cfc8d-e844-7170-8bcc-6ce50a4147eb","019cfc7b-6c7b-7b1b-afe7-acad8efc6711","","null","
                <div class=""stimulus-container"">
                    <img src=""images/schematic_sequence/interview_scheme/interview_scheme_ten.png"" class=""exp-image"">
                    <div class=""question-area""></div> 
                </div>","null","","","","","","","","","","","",""
"","","","","","html-button-response","36","164927","0.0-36.0","54D618C214674C62938D84DA9D2607DE","019cfc8d-e844-7170-8bcc-6ce50a4147eb","019cfc7b-6c7b-7b1b-afe7-acad8efc6711","","1677","
                <div class=""stimulus-container"">
                    <img src=""images/schematic_sequence/interview_scheme/interview_scheme_ten.png"" class=""exp-image"">
                    <div class=""question-area"">
                        <p style=""font-size: 20px; font-weight: bold; margin: 0;"">Is there a person in this image?</p>
                    </div>
                </div>","0","main_experiment_trial","ten","interview_scheme","schematic_sequence","chronological","","","","","","",""
"","","","","","html-keyboard-response","37","169929","0.0-37.0","54D618C214674C62938D84DA9D2607DE","019cfc8d-e844-7170-8bcc-6ce50a4147eb","019cfc7b-6c7b-7b1b-afe7-acad8efc6711","","null","<div style=""background-color: white; width: 100vw; height: 100vh;""></div>","null","","","","","","","","","","","",""
"","","","","","html-keyboard-response","38","174942","0.0-38.0","54D618C214674C62938D84DA9D2607DE","019cfc8d-e844-7170-8bcc-6ce50a4147eb","019cfc7b-6c7b-7b1b-afe7-acad8efc6711","","null","
                <div class=""stimulus-container"">
                    <img src=""images/semantic_sequence/self_care_activities_semantic/self_care_activities_semantic_1.png"" class=""exp-image"">
                    <div class=""question-area""></div> 
                </div>","null","","","","","","","","","","","",""
"","","","","","html-button-response","39","177946","0.0-39.0","54D618C214674C62938D84DA9D2607DE","019cfc8d-e844-7170-8bcc-6ce50a4147eb","019cfc7b-6c7b-7b1b-afe7-acad8efc6711","","null","
                <div class=""stimulus-container"">
                    <img src=""images/semantic_sequence/self_care_activities_semantic/self_care_activities_semantic_1.png"" class=""exp-image"">
                    <div class=""question-area"">
                        <p style=""font-size: 20px; font-weight: bold; margin: 0;"">Is there a person in this image?</p>
                    </div>
                </div>","null","main_experiment_trial","1","self_care_activities_semantic","semantic_sequence","chronological","","","","","","",""
"","","","","","html-keyboard-response","40","182950","0.0-40.0","54D618C214674C62938D84DA9D2607DE","019cfc8d-e844-7170-8bcc-6ce50a4147eb","019cfc7b-6c7b-7b1b-afe7-acad8efc6711","","null","
                <div class=""stimulus-container"">
                    <img src=""images/semantic_sequence/self_care_activities_semantic/self_care_activities_semantic_2.png"" class=""exp-image"">
                    <div class=""question-area""></div> 
                </div>","null","","","","","","","","","","","",""
"","","","","","html-button-response","41","185127","0.0-41.0","54D618C214674C62938D84DA9D2607DE","019cfc8d-e844-7170-8bcc-6ce50a4147eb","019cfc7b-6c7b-7b1b-afe7-acad8efc6711","","2176","
                <div class=""stimulus-container"">
                    <img src=""images/semantic_sequence/self_care_activities_semantic/self_care_activities_semantic_2.png"" class=""exp-image"">
                    <div class=""question-area"">
                        <p style=""font-size: 20px; font-weight: bold; margin: 0;"">Is there a person in this image?</p>
                    </div>
                </div>","0","main_experiment_trial","2","self_care_activities_semantic","semantic_sequence","chronological","","","","","","",""
"","","","","","html-keyboard-response","42","190130","0.0-42.0","54D618C214674C62938D84DA9D2607DE","019cfc8d-e844-7170-8bcc-6ce50a4147eb","019cfc7b-6c7b-7b1b-afe7-acad8efc6711","","null","
                <div class=""stimulus-container"">
                    <img src=""images/semantic_sequence/self_care_activities_semantic/self_care_activities_semantic_3.png"" class=""exp-image"">
                    <div class=""question-area""></div> 
                </div>","null","","","","","","","","","","","",""
"","","","","","html-button-response","43","191063","0.0-43.0","54D618C214674C62938D84DA9D2607DE","019cfc8d-e844-7170-8bcc-6ce50a4147eb","019cfc7b-6c7b-7b1b-afe7-acad8efc6711","","932","
                <div class=""stimulus-container"">
                    <img src=""images/semantic_sequence/self_care_activities_semantic/self_care_activities_semantic_3.png"" class=""exp-image"">
                    <div class=""question-area"">
                        <p style=""font-size: 20px; font-weight: bold; margin: 0;"">Is there a person in this image?</p>
                    </div>
                </div>","0","main_experiment_trial","3","self_care_activities_semantic","semantic_sequence","chronological","","","","","","",""
"","","","","","html-keyboard-response","44","196068","0.0-44.0","54D618C214674C62938D84DA9D2607DE","019cfc8d-e844-7170-8bcc-6ce50a4147eb","019cfc7b-6c7b-7b1b-afe7-acad8efc6711","","null","
                <div class=""stimulus-container"">
                    <img src=""images/semantic_sequence/self_care_activities_semantic/self_care_activities_semantic_4.png"" class=""exp-image"">
                    <div class=""question-area""></div> 
                </div>","null","","","","","","","","","","","",""
"","","","","","html-button-response","45","197255","0.0-45.0","54D618C214674C62938D84DA9D2607DE","019cfc8d-e844-7170-8bcc-6ce50a4147eb","019cfc7b-6c7b-7b1b-afe7-acad8efc6711","","1185","
                <div class=""stimulus-container"">
                    <img src=""images/semantic_sequence/self_care_activities_semantic/self_care_activities_semantic_4.png"" class=""exp-image"">
                    <div class=""question-area"">
                        <p style=""font-size: 20px; font-weight: bold; margin: 0;"">Is there a person in this image?</p>
                    </div>
                </div>","0","main_experiment_trial","4","self_care_activities_semantic","semantic_sequence","chronological","","","","","","",""
"","","","","","html-keyboard-response","46","202256","0.0-46.0","54D618C214674C62938D84DA9D2607DE","019cfc8d-e844-7170-8bcc-6ce50a4147eb","019cfc7b-6c7b-7b1b-afe7-acad8efc6711","","null","
                <div class=""stimulus-container"">
                    <img src=""images/semantic_sequence/self_care_activities_semantic/self_care_activities_semantic_5.png"" class=""exp-image"">
                    <div class=""question-area""></div> 
                </div>","null","","","","","","","","","","","",""
"","","","","","html-button-response","47","203063","0.0-47.0","54D618C214674C62938D84DA9D2607DE","019cfc8d-e844-7170-8bcc-6ce50a4147eb","019cfc7b-6c7b-7b1b-afe7-acad8efc6711","","806","
                <div class=""stimulus-container"">
                    <img src=""images/semantic_sequence/self_care_activities_semantic/self_care_activities_semantic_5.png"" class=""exp-image"">
                    <div class=""question-area"">
                        <p style=""font-size: 20px; font-weight: bold; margin: 0;"">Is there a person in this image?</p>
                    </div>
                </div>","0","main_experiment_trial","5","self_care_activities_semantic","semantic_sequence","chronological","","","","","","",""
"","","","","","html-keyboard-response","48","208069","0.0-48.0","54D618C214674C62938D84DA9D2607DE","019cfc8d-e844-7170-8bcc-6ce50a4147eb","019cfc7b-6c7b-7b1b-afe7-acad8efc6711","","null","
                <div class=""stimulus-container"">
                    <img src=""images/semantic_sequence/self_care_activities_semantic/self_care_activities_semantic_6.png"" class=""exp-image"">
                    <div class=""question-area""></div> 
                </div>","null","","","","","","","","","","","",""
"","","","","","html-button-response","49","208696","0.0-49.0","54D618C214674C62938D84DA9D2607DE","019cfc8d-e844-7170-8bcc-6ce50a4147eb","019cfc7b-6c7b-7b1b-afe7-acad8efc6711","","626","
                <div class=""stimulus-container"">
                    <img src=""images/semantic_sequence/self_care_activities_semantic/self_care_activities_semantic_6.png"" class=""exp-image"">
                    <div class=""question-area"">
                        <p style=""font-size: 20px; font-weight: bold; margin: 0;"">Is there a person in this image?</p>
                    </div>
                </div>","1","main_experiment_trial","6","self_care_activities_semantic","semantic_sequence","chronological","","","","","","",""
"","","","","","html-keyboard-response","50","213708","0.0-50.0","54D618C214674C62938D84DA9D2607DE","019cfc8d-e844-7170-8bcc-6ce50a4147eb","019cfc7b-6c7b-7b1b-afe7-acad8efc6711","","null","
                <div class=""stimulus-container"">
                    <img src=""images/semantic_sequence/self_care_activities_semantic/self_care_activities_semantic_7.png"" class=""exp-image"">
                    <div class=""question-area""></div> 
                </div>","null","","","","","","","","","","","",""
"","","","","","html-button-response","51","215159","0.0-51.0","54D618C214674C62938D84DA9D2607DE","019cfc8d-e844-7170-8bcc-6ce50a4147eb","019cfc7b-6c7b-7b1b-afe7-acad8efc6711","","1450","
                <div class=""stimulus-container"">
                    <img src=""images/semantic_sequence/self_care_activities_semantic/self_care_activities_semantic_7.png"" class=""exp-image"">
                    <div class=""question-area"">
                        <p style=""font-size: 20px; font-weight: bold; margin: 0;"">Is there a person in this image?</p>
                    </div>
                </div>","0","main_experiment_trial","7","self_care_activities_semantic","semantic_sequence","chronological","","","","","","",""
"","","","","","html-keyboard-response","52","220174","0.0-52.0","54D618C214674C62938D84DA9D2607DE","019cfc8d-e844-7170-8bcc-6ce50a4147eb","019cfc7b-6c7b-7b1b-afe7-acad8efc6711","","null","
                <div class=""stimulus-container"">
                    <img src=""images/semantic_sequence/self_care_activities_semantic/self_care_activities_semantic_8.png"" class=""exp-image"">
                    <div class=""question-area""></div> 
                </div>","null","","","","","","","","","","","",""
"","","","","","html-button-response","53","221743","0.0-53.0","54D618C214674C62938D84DA9D2607DE","019cfc8d-e844-7170-8bcc-6ce50a4147eb","019cfc7b-6c7b-7b1b-afe7-acad8efc6711","","1568","
                <div class=""stimulus-container"">
                    <img src=""images/semantic_sequence/self_care_activities_semantic/self_care_activities_semantic_8.png"" class=""exp-image"">
                    <div class=""question-area"">
                        <p style=""font-size: 20px; font-weight: bold; margin: 0;"">Is there a person in this image?</p>
                    </div>
                </div>","0","main_experiment_trial","8","self_care_activities_semantic","semantic_sequence","chronological","","","","","","",""
"","","","","","html-keyboard-response","54","226749","0.0-54.0","54D618C214674C62938D84DA9D2607DE","019cfc8d-e844-7170-8bcc-6ce50a4147eb","019cfc7b-6c7b-7b1b-afe7-acad8efc6711","","null","
                <div class=""stimulus-container"">
                    <img src=""images/semantic_sequence/self_care_activities_semantic/self_care_activities_semantic_9.png"" class=""exp-image"">
                    <div class=""question-area""></div> 
                </div>","null","","","","","","","","","","","",""
"","","","","","html-button-response","55","228471","0.0-55.0","54D618C214674C62938D84DA9D2607DE","019cfc8d-e844-7170-8bcc-6ce50a4147eb","019cfc7b-6c7b-7b1b-afe7-acad8efc6711","","1722","
                <div class=""stimulus-container"">
                    <img src=""images/semantic_sequence/self_care_activities_semantic/self_care_activities_semantic_9.png"" class=""exp-image"">
                    <div class=""question-area"">
                        <p style=""font-size: 20px; font-weight: bold; margin: 0;"">Is there a person in this image?</p>
                    </div>
                </div>","0","main_experiment_trial","9","self_care_activities_semantic","semantic_sequence","chronological","","","","","","",""
"","","","","","html-keyboard-response","56","233475","0.0-56.0","54D618C214674C62938D84DA9D2607DE","019cfc8d-e844-7170-8bcc-6ce50a4147eb","019cfc7b-6c7b-7b1b-afe7-acad8efc6711","","null","
                <div class=""stimulus-container"">
                    <img src=""images/semantic_sequence/self_care_activities_semantic/self_care_activities_semantic_ten.png"" class=""exp-image"">
                    <div class=""question-area""></div> 
                </div>","null","","","","","","","","","","","",""
"","","","","","html-button-response","57","235207","0.0-57.0","54D618C214674C62938D84DA9D2607DE","019cfc8d-e844-7170-8bcc-6ce50a4147eb","019cfc7b-6c7b-7b1b-afe7-acad8efc6711","","1731","
                <div class=""stimulus-container"">
                    <img src=""images/semantic_sequence/self_care_activities_semantic/self_care_activities_semantic_ten.png"" class=""exp-image"">
                    <div class=""question-area"">
                        <p style=""font-size: 20px; font-weight: bold; margin: 0;"">Is there a person in this image?</p>
                    </div>
                </div>","0","main_experiment_trial","ten","self_care_activities_semantic","semantic_sequence","chronological","","","","","","",""
"","","","","","html-keyboard-response","58","240218","0.0-58.0","54D618C214674C62938D84DA9D2607DE","019cfc8d-e844-7170-8bcc-6ce50a4147eb","019cfc7b-6c7b-7b1b-afe7-acad8efc6711","","null","<div style=""background-color: white; width: 100vw; height: 100vh;""></div>","null","","","","","","","","","","","",""
"","","","","","html-keyboard-response","59","245232","0.0-59.0","54D618C214674C62938D84DA9D2607DE","019cfc8d-e844-7170-8bcc-6ce50a4147eb","019cfc7b-6c7b-7b1b-afe7-acad8efc6711","","null","
                <div class=""stimulus-container"">
                    <img src=""images/semantic_sequence/maintaining_a_car_semantic/maintaining_a_car_semantic_1.png"" class=""exp-image"">
                    <div class=""question-area""></div> 
                </div>","null","","","","","","","","","","","",""
"","","","","","html-button-response","60","246871","0.0-60.0","54D618C214674C62938D84DA9D2607DE","019cfc8d-e844-7170-8bcc-6ce50a4147eb","019cfc7b-6c7b-7b1b-afe7-acad8efc6711","","1638","
                <div class=""stimulus-container"">
                    <img src=""images/semantic_sequence/maintaining_a_car_semantic/maintaining_a_car_semantic_1.png"" class=""exp-image"">
                    <div class=""question-area"">
                        <p style=""font-size: 20px; font-weight: bold; margin: 0;"">Is there a person in this image?</p>
                    </div>
                </div>","0","main_experiment_trial","1","maintaining_a_car_semantic","semantic_sequence","chronological","","","","","","",""
"","","","","","html-keyboard-response","61","251880","0.0-61.0","54D618C214674C62938D84DA9D2607DE","019cfc8d-e844-7170-8bcc-6ce50a4147eb","019cfc7b-6c7b-7b1b-afe7-acad8efc6711","","null","
                <div class=""stimulus-container"">
                    <img src=""images/semantic_sequence/maintaining_a_car_semantic/maintaining_a_car_semantic_2.png"" class=""exp-image"">
                    <div class=""question-area""></div> 
                </div>","null","","","","","","","","","","","",""
"","","","","","html-button-response","62","252831","0.0-62.0","54D618C214674C62938D84DA9D2607DE","019cfc8d-e844-7170-8bcc-6ce50a4147eb","019cfc7b-6c7b-7b1b-afe7-acad8efc6711","","949","
                <div class=""stimulus-container"">
                    <img src=""images/semantic_sequence/maintaining_a_car_semantic/maintaining_a_car_semantic_2.png"" class=""exp-image"">
                    <div class=""question-area"">
                        <p style=""font-size: 20px; font-weight: bold; margin: 0;"">Is there a person in this image?</p>
                    </div>
                </div>","0","main_experiment_trial","2","maintaining_a_car_semantic","semantic_sequence","chronological","","","","","","",""
"","","","","","html-keyboard-response","63","257835","0.0-63.0","54D618C214674C62938D84DA9D2607DE","019cfc8d-e844-7170-8bcc-6ce50a4147eb","019cfc7b-6c7b-7b1b-afe7-acad8efc6711","","null","
                <div class=""stimulus-container"">
                    <img src=""images/semantic_sequence/maintaining_a_car_semantic/maintaining_a_car_semantic_3.png"" class=""exp-image"">
                    <div class=""question-area""></div> 
                </div>","null","","","","","","","","","","","",""
"","","","","","html-button-response","64","258647","0.0-64.0","54D618C214674C62938D84DA9D2607DE","019cfc8d-e844-7170-8bcc-6ce50a4147eb","019cfc7b-6c7b-7b1b-afe7-acad8efc6711","","811","
                <div class=""stimulus-container"">
                    <img src=""images/semantic_sequence/maintaining_a_car_semantic/maintaining_a_car_semantic_3.png"" class=""exp-image"">
                    <div class=""question-area"">
                        <p style=""font-size: 20px; font-weight: bold; margin: 0;"">Is there a person in this image?</p>
                    </div>
                </div>","0","main_experiment_trial","3","maintaining_a_car_semantic","semantic_sequence","chronological","","","","","","",""
"","","","","","html-keyboard-response","65","263648","0.0-65.0","54D618C214674C62938D84DA9D2607DE","019cfc8d-e844-7170-8bcc-6ce50a4147eb","019cfc7b-6c7b-7b1b-afe7-acad8efc6711","","null","
                <div class=""stimulus-container"">
                    <img src=""images/semantic_sequence/maintaining_a_car_semantic/maintaining_a_car_semantic_4.png"" class=""exp-image"">
                    <div class=""question-area""></div> 
                </div>","null","","","","","","","","","","","",""
"","","","","","html-button-response","66","264743","0.0-66.0","54D618C214674C62938D84DA9D2607DE","019cfc8d-e844-7170-8bcc-6ce50a4147eb","019cfc7b-6c7b-7b1b-afe7-acad8efc6711","","1094","
                <div class=""stimulus-container"">
                    <img src=""images/semantic_sequence/maintaining_a_car_semantic/maintaining_a_car_semantic_4.png"" class=""exp-image"">
                    <div class=""question-area"">
                        <p style=""font-size: 20px; font-weight: bold; margin: 0;"">Is there a person in this image?</p>
                    </div>
                </div>","0","main_experiment_trial","4","maintaining_a_car_semantic","semantic_sequence","chronological","","","","","","",""
"","","","","","html-keyboard-response","67","269749","0.0-67.0","54D618C214674C62938D84DA9D2607DE","019cfc8d-e844-7170-8bcc-6ce50a4147eb","019cfc7b-6c7b-7b1b-afe7-acad8efc6711","","null","
                <div class=""stimulus-container"">
                    <img src=""images/semantic_sequence/maintaining_a_car_semantic/maintaining_a_car_semantic_5.png"" class=""exp-image"">
                    <div class=""question-area""></div> 
                </div>","null","","","","","","","","","","","",""
"","","","","","html-button-response","68","270439","0.0-68.0","54D618C214674C62938D84DA9D2607DE","019cfc8d-e844-7170-8bcc-6ce50a4147eb","019cfc7b-6c7b-7b1b-afe7-acad8efc6711","","689","
                <div class=""stimulus-container"">
                    <img src=""images/semantic_sequence/maintaining_a_car_semantic/maintaining_a_car_semantic_5.png"" class=""exp-image"">
                    <div class=""question-area"">
                        <p style=""font-size: 20px; font-weight: bold; margin: 0;"">Is there a person in this image?</p>
                    </div>
                </div>","0","main_experiment_trial","5","maintaining_a_car_semantic","semantic_sequence","chronological","","","","","","",""
"","","","","","html-keyboard-response","69","275443","0.0-69.0","54D618C214674C62938D84DA9D2607DE","019cfc8d-e844-7170-8bcc-6ce50a4147eb","019cfc7b-6c7b-7b1b-afe7-acad8efc6711","","null","
                <div class=""stimulus-container"">
                    <img src=""images/semantic_sequence/maintaining_a_car_semantic/maintaining_a_car_semantic_6.png"" class=""exp-image"">
                    <div class=""question-area""></div> 
                </div>","null","","","","","","","","","","","",""
"","","","","","html-button-response","70","276015","0.0-70.0","54D618C214674C62938D84DA9D2607DE","019cfc8d-e844-7170-8bcc-6ce50a4147eb","019cfc7b-6c7b-7b1b-afe7-acad8efc6711","","571","
                <div class=""stimulus-container"">
                    <img src=""images/semantic_sequence/maintaining_a_car_semantic/maintaining_a_car_semantic_6.png"" class=""exp-image"">
                    <div class=""question-area"">
                        <p style=""font-size: 20px; font-weight: bold; margin: 0;"">Is there a person in this image?</p>
                    </div>
                </div>","0","main_experiment_trial","6","maintaining_a_car_semantic","semantic_sequence","chronological","","","","","","",""
"","","","","","html-keyboard-response","71","281031","0.0-71.0","54D618C214674C62938D84DA9D2607DE","019cfc8d-e844-7170-8bcc-6ce50a4147eb","019cfc7b-6c7b-7b1b-afe7-acad8efc6711","","null","
                <div class=""stimulus-container"">
                    <img src=""images/semantic_sequence/maintaining_a_car_semantic/maintaining_a_car_semantic_7.png"" class=""exp-image"">
                    <div class=""question-area""></div> 
                </div>","null","","","","","","","","","","","",""
"","","","","","html-button-response","72","282583","0.0-72.0","54D618C214674C62938D84DA9D2607DE","019cfc8d-e844-7170-8bcc-6ce50a4147eb","019cfc7b-6c7b-7b1b-afe7-acad8efc6711","","1551","
                <div class=""stimulus-container"">
                    <img src=""images/semantic_sequence/maintaining_a_car_semantic/maintaining_a_car_semantic_7.png"" class=""exp-image"">
                    <div class=""question-area"">
                        <p style=""font-size: 20px; font-weight: bold; margin: 0;"">Is there a person in this image?</p>
                    </div>
                </div>","0","main_experiment_trial","7","maintaining_a_car_semantic","semantic_sequence","chronological","","","","","","",""
"","","","","","html-keyboard-response","73","287595","0.0-73.0","54D618C214674C62938D84DA9D2607DE","019cfc8d-e844-7170-8bcc-6ce50a4147eb","019cfc7b-6c7b-7b1b-afe7-acad8efc6711","","null","
                <div class=""stimulus-container"">
                    <img src=""images/semantic_sequence/maintaining_a_car_semantic/maintaining_a_car_semantic_8.png"" class=""exp-image"">
                    <div class=""question-area""></div> 
                </div>","null","","","","","","","","","","","",""
"","","","","","html-button-response","74","288519","0.0-74.0","54D618C214674C62938D84DA9D2607DE","019cfc8d-e844-7170-8bcc-6ce50a4147eb","019cfc7b-6c7b-7b1b-afe7-acad8efc6711","","923","
                <div class=""stimulus-container"">
                    <img src=""images/semantic_sequence/maintaining_a_car_semantic/maintaining_a_car_semantic_8.png"" class=""exp-image"">
                    <div class=""question-area"">
                        <p style=""font-size: 20px; font-weight: bold; margin: 0;"">Is there a person in this image?</p>
                    </div>
                </div>","0","main_experiment_trial","8","maintaining_a_car_semantic","semantic_sequence","chronological","","","","","","",""
"","","","","","html-keyboard-response","75","293535","0.0-75.0","54D618C214674C62938D84DA9D2607DE","019cfc8d-e844-7170-8bcc-6ce50a4147eb","019cfc7b-6c7b-7b1b-afe7-acad8efc6711","","null","
                <div class=""stimulus-container"">
                    <img src=""images/semantic_sequence/maintaining_a_car_semantic/maintaining_a_car_semantic_9.png"" class=""exp-image"">
                    <div class=""question-area""></div> 
                </div>","null","","","","","","","","","","","",""
"","","","","","html-button-response","76","295047","0.0-76.0","54D618C214674C62938D84DA9D2607DE","019cfc8d-e844-7170-8bcc-6ce50a4147eb","019cfc7b-6c7b-7b1b-afe7-acad8efc6711","","1511","
                <div class=""stimulus-container"">
                    <img src=""images/semantic_sequence/maintaining_a_car_semantic/maintaining_a_car_semantic_9.png"" class=""exp-image"">
                    <div class=""question-area"">
                        <p style=""font-size: 20px; font-weight: bold; margin: 0;"">Is there a person in this image?</p>
                    </div>
                </div>","0","main_experiment_trial","9","maintaining_a_car_semantic","semantic_sequence","chronological","","","","","","",""
"","","","","","html-keyboard-response","77","300049","0.0-77.0","54D618C214674C62938D84DA9D2607DE","019cfc8d-e844-7170-8bcc-6ce50a4147eb","019cfc7b-6c7b-7b1b-afe7-acad8efc6711","","null","
                <div class=""stimulus-container"">
                    <img src=""images/semantic_sequence/maintaining_a_car_semantic/maintaining_a_car_semantic_ten.png"" class=""exp-image"">
                    <div class=""question-area""></div> 
                </div>","null","","","","","","","","","","","",""
"","","","","","html-button-response","78","300767","0.0-78.0","54D618C214674C62938D84DA9D2607DE","019cfc8d-e844-7170-8bcc-6ce50a4147eb","019cfc7b-6c7b-7b1b-afe7-acad8efc6711","","717","
                <div class=""stimulus-container"">
                    <img src=""images/semantic_sequence/maintaining_a_car_semantic/maintaining_a_car_semantic_ten.png"" class=""exp-image"">
                    <div class=""question-area"">
                        <p style=""font-size: 20px; font-weight: bold; margin: 0;"">Is there a person in this image?</p>
                    </div>
                </div>","0","main_experiment_trial","ten","maintaining_a_car_semantic","semantic_sequence","chronological","","","","","","",""
"","","","","","html-keyboard-response","79","305781","0.0-79.0","54D618C214674C62938D84DA9D2607DE","019cfc8d-e844-7170-8bcc-6ce50a4147eb","019cfc7b-6c7b-7b1b-afe7-acad8efc6711","","null","<div style=""background-color: white; width: 100vw; height: 100vh;""></div>","null","","","","","","","","","","","",""
"","","","","","html-keyboard-response","80","310782","0.0-80.0","54D618C214674C62938D84DA9D2607DE","019cfc8d-e844-7170-8bcc-6ce50a4147eb","019cfc7b-6c7b-7b1b-afe7-acad8efc6711","","null","
                <div class=""stimulus-container"">
                    <img src=""images/semantic_sequence/physical_activity_semantic/physical_activity_semantic_1.png"" class=""exp-image"">
                    <div class=""question-area""></div> 
                </div>","null","","","","","","","","","","","",""
"","","","","","html-button-response","81","311839","0.0-81.0","54D618C214674C62938D84DA9D2607DE","019cfc8d-e844-7170-8bcc-6ce50a4147eb","019cfc7b-6c7b-7b1b-afe7-acad8efc6711","","1056","
                <div class=""stimulus-container"">
                    <img src=""images/semantic_sequence/physical_activity_semantic/physical_activity_semantic_1.png"" class=""exp-image"">
                    <div class=""question-area"">
                        <p style=""font-size: 20px; font-weight: bold; margin: 0;"">Is there a person in this image?</p>
                    </div>
                </div>","0","main_experiment_trial","1","physical_activity_semantic","semantic_sequence","chronological","","","","","","",""
"","","","","","html-keyboard-response","82","316846","0.0-82.0","54D618C214674C62938D84DA9D2607DE","019cfc8d-e844-7170-8bcc-6ce50a4147eb","019cfc7b-6c7b-7b1b-afe7-acad8efc6711","","null","
                <div class=""stimulus-container"">
                    <img src=""images/semantic_sequence/physical_activity_semantic/physical_activity_semantic_2.png"" class=""exp-image"">
                    <div class=""question-area""></div> 
                </div>","null","","","","","","","","","","","",""
"","","","","","html-button-response","83","318471","0.0-83.0","54D618C214674C62938D84DA9D2607DE","019cfc8d-e844-7170-8bcc-6ce50a4147eb","019cfc7b-6c7b-7b1b-afe7-acad8efc6711","","1624","
                <div class=""stimulus-container"">
                    <img src=""images/semantic_sequence/physical_activity_semantic/physical_activity_semantic_2.png"" class=""exp-image"">
                    <div class=""question-area"">
                        <p style=""font-size: 20px; font-weight: bold; margin: 0;"">Is there a person in this image?</p>
                    </div>
                </div>","0","main_experiment_trial","2","physical_activity_semantic","semantic_sequence","chronological","","","","","","",""
"","","","","","html-keyboard-response","84","323473","0.0-84.0","54D618C214674C62938D84DA9D2607DE","019cfc8d-e844-7170-8bcc-6ce50a4147eb","019cfc7b-6c7b-7b1b-afe7-acad8efc6711","","null","
                <div class=""stimulus-container"">
                    <img src=""images/semantic_sequence/physical_activity_semantic/physical_activity_semantic_3.png"" class=""exp-image"">
                    <div class=""question-area""></div> 
                </div>","null","","","","","","","","","","","",""
"","","","","","html-button-response","85","325879","0.0-85.0","54D618C214674C62938D84DA9D2607DE","019cfc8d-e844-7170-8bcc-6ce50a4147eb","019cfc7b-6c7b-7b1b-afe7-acad8efc6711","","2406","
                <div class=""stimulus-container"">
                    <img src=""images/semantic_sequence/physical_activity_semantic/physical_activity_semantic_3.png"" class=""exp-image"">
                    <div class=""question-area"">
                        <p style=""font-size: 20px; font-weight: bold; margin: 0;"">Is there a person in this image?</p>
                    </div>
                </div>","0","main_experiment_trial","3","physical_activity_semantic","semantic_sequence","chronological","","","","","","",""
"","","","","","html-keyboard-response","86","330882","0.0-86.0","54D618C214674C62938D84DA9D2607DE","019cfc8d-e844-7170-8bcc-6ce50a4147eb","019cfc7b-6c7b-7b1b-afe7-acad8efc6711","","null","
                <div class=""stimulus-container"">
                    <img src=""images/semantic_sequence/physical_activity_semantic/physical_activity_semantic_4.png"" class=""exp-image"">
                    <div class=""question-area""></div> 
                </div>","null","","","","","","","","","","","",""
"","","","","","html-button-response","87","333883","0.0-87.0","54D618C214674C62938D84DA9D2607DE","019cfc8d-e844-7170-8bcc-6ce50a4147eb","019cfc7b-6c7b-7b1b-afe7-acad8efc6711","","null","
                <div class=""stimulus-container"">
                    <img src=""images/semantic_sequence/physical_activity_semantic/physical_activity_semantic_4.png"" class=""exp-image"">
                    <div class=""question-area"">
                        <p style=""font-size: 20px; font-weight: bold; margin: 0;"">Is there a person in this image?</p>
                    </div>
                </div>","null","main_experiment_trial","4","physical_activity_semantic","semantic_sequence","chronological","","","","","","",""
"","","","","","html-keyboard-response","88","338897","0.0-88.0","54D618C214674C62938D84DA9D2607DE","019cfc8d-e844-7170-8bcc-6ce50a4147eb","019cfc7b-6c7b-7b1b-afe7-acad8efc6711","","null","
                <div class=""stimulus-container"">
                    <img src=""images/semantic_sequence/physical_activity_semantic/physical_activity_semantic_5.png"" class=""exp-image"">
                    <div class=""question-area""></div> 
                </div>","null","","","","","","","","","","","",""
"","","","","","html-button-response","89","341913","0.0-89.0","54D618C214674C62938D84DA9D2607DE","019cfc8d-e844-7170-8bcc-6ce50a4147eb","019cfc7b-6c7b-7b1b-afe7-acad8efc6711","","null","
                <div class=""stimulus-container"">
                    <img src=""images/semantic_sequence/physical_activity_semantic/physical_activity_semantic_5.png"" class=""exp-image"">
                    <div class=""question-area"">
                        <p style=""font-size: 20px; font-weight: bold; margin: 0;"">Is there a person in this image?</p>
                    </div>
                </div>","null","main_experiment_trial","5","physical_activity_semantic","semantic_sequence","chronological","","","","","","",""
"","","","","","html-keyboard-response","90","346927","0.0-90.0","54D618C214674C62938D84DA9D2607DE","019cfc8d-e844-7170-8bcc-6ce50a4147eb","019cfc7b-6c7b-7b1b-afe7-acad8efc6711","","null","
                <div class=""stimulus-container"">
                    <img src=""images/semantic_sequence/physical_activity_semantic/physical_activity_semantic_6.png"" class=""exp-image"">
                    <div class=""question-area""></div> 
                </div>","null","","","","","","","","","","","",""
"","","","","","html-button-response","91","348439","0.0-91.0","54D618C214674C62938D84DA9D2607DE","019cfc8d-e844-7170-8bcc-6ce50a4147eb","019cfc7b-6c7b-7b1b-afe7-acad8efc6711","","1511","
                <div class=""stimulus-container"">
                    <img src=""images/semantic_sequence/physical_activity_semantic/physical_activity_semantic_6.png"" class=""exp-image"">
                    <div class=""question-area"">
                        <p style=""font-size: 20px; font-weight: bold; margin: 0;"">Is there a person in this image?</p>
                    </div>
                </div>","0","main_experiment_trial","6","physical_activity_semantic","semantic_sequence","chronological","","","","","","",""
"","","","","","html-keyboard-response","92","353449","0.0-92.0","54D618C214674C62938D84DA9D2607DE","019cfc8d-e844-7170-8bcc-6ce50a4147eb","019cfc7b-6c7b-7b1b-afe7-acad8efc6711","","null","
                <div class=""stimulus-container"">
                    <img src=""images/semantic_sequence/physical_activity_semantic/physical_activity_semantic_7.png"" class=""exp-image"">
                    <div class=""question-area""></div> 
                </div>","null","","","","","","","","","","","",""
"","","","","","html-button-response","93","356423","0.0-93.0","54D618C214674C62938D84DA9D2607DE","019cfc8d-e844-7170-8bcc-6ce50a4147eb","019cfc7b-6c7b-7b1b-afe7-acad8efc6711","","2973","
                <div class=""stimulus-container"">
                    <img src=""images/semantic_sequence/physical_activity_semantic/physical_activity_semantic_7.png"" class=""exp-image"">
                    <div class=""question-area"">
                        <p style=""font-size: 20px; font-weight: bold; margin: 0;"">Is there a person in this image?</p>
                    </div>
                </div>","0","main_experiment_trial","7","physical_activity_semantic","semantic_sequence","chronological","","","","","","",""
"","","","","","html-keyboard-response","94","361436","0.0-94.0","54D618C214674C62938D84DA9D2607DE","019cfc8d-e844-7170-8bcc-6ce50a4147eb","019cfc7b-6c7b-7b1b-afe7-acad8efc6711","","null","
                <div class=""stimulus-container"">
                    <img src=""images/semantic_sequence/physical_activity_semantic/physical_activity_semantic_8.png"" class=""exp-image"">
                    <div class=""question-area""></div> 
                </div>","null","","","","","","","","","","","",""
"","","","","","html-button-response","95","363607","0.0-95.0","54D618C214674C62938D84DA9D2607DE","019cfc8d-e844-7170-8bcc-6ce50a4147eb","019cfc7b-6c7b-7b1b-afe7-acad8efc6711","","2170","
                <div class=""stimulus-container"">
                    <img src=""images/semantic_sequence/physical_activity_semantic/physical_activity_semantic_8.png"" class=""exp-image"">
                    <div class=""question-area"">
                        <p style=""font-size: 20px; font-weight: bold; margin: 0;"">Is there a person in this image?</p>
                    </div>
                </div>","0","main_experiment_trial","8","physical_activity_semantic","semantic_sequence","chronological","","","","","","",""
"","","","","","html-keyboard-response","96","368613","0.0-96.0","54D618C214674C62938D84DA9D2607DE","019cfc8d-e844-7170-8bcc-6ce50a4147eb","019cfc7b-6c7b-7b1b-afe7-acad8efc6711","","null","
                <div class=""stimulus-container"">
                    <img src=""images/semantic_sequence/physical_activity_semantic/physical_activity_semantic_9.png"" class=""exp-image"">
                    <div class=""question-area""></div> 
                </div>","null","","","","","","","","","","","",""
"","","","","","html-button-response","97","371495","0.0-97.0","54D618C214674C62938D84DA9D2607DE","019cfc8d-e844-7170-8bcc-6ce50a4147eb","019cfc7b-6c7b-7b1b-afe7-acad8efc6711","","2881","
                <div class=""stimulus-container"">
                    <img src=""images/semantic_sequence/physical_activity_semantic/physical_activity_semantic_9.png"" class=""exp-image"">
                    <div class=""question-area"">
                        <p style=""font-size: 20px; font-weight: bold; margin: 0;"">Is there a person in this image?</p>
                    </div>
                </div>","0","main_experiment_trial","9","physical_activity_semantic","semantic_sequence","chronological","","","","","","",""
"","","","","","html-keyboard-response","98","376497","0.0-98.0","54D618C214674C62938D84DA9D2607DE","019cfc8d-e844-7170-8bcc-6ce50a4147eb","019cfc7b-6c7b-7b1b-afe7-acad8efc6711","","null","
                <div class=""stimulus-container"">
                    <img src=""images/semantic_sequence/physical_activity_semantic/physical_activity_semantic_ten.png"" class=""exp-image"">
                    <div class=""question-area""></div> 
                </div>","null","","","","","","","","","","","",""
"","","","","","html-button-response","99","379503","0.0-99.0","54D618C214674C62938D84DA9D2607DE","019cfc8d-e844-7170-8bcc-6ce50a4147eb","019cfc7b-6c7b-7b1b-afe7-acad8efc6711","","null","
                <div class=""stimulus-container"">
                    <img src=""images/semantic_sequence/physical_activity_semantic/physical_activity_semantic_ten.png"" class=""exp-image"">
                    <div class=""question-area"">
                        <p style=""font-size: 20px; font-weight: bold; margin: 0;"">Is there a person in this image?</p>
                    </div>
                </div>","null","main_experiment_trial","ten","physical_activity_semantic","semantic_sequence","chronological","","","","","","",""
"","","","","","html-keyboard-response","100","384507","0.0-100.0","54D618C214674C62938D84DA9D2607DE","019cfc8d-e844-7170-8bcc-6ce50a4147eb","019cfc7b-6c7b-7b1b-afe7-acad8efc6711","","null","<div style=""background-color: white; width: 100vw; height: 100vh;""></div>","null","","","","","","","","","","","",""
"","","","","","html-keyboard-response","101","389509","0.0-101.0","54D618C214674C62938D84DA9D2607DE","019cfc8d-e844-7170-8bcc-6ce50a4147eb","019cfc7b-6c7b-7b1b-afe7-acad8efc6711","","null","
                <div class=""stimulus-container"">
                    <img src=""images/schematic_sequence/flight_scheme/flight_scheme_1.png"" class=""exp-image"">
                    <div class=""question-area""></div> 
                </div>","null","","","","","","","","","","","",""
"","","","","","html-button-response","102","390511","0.0-102.0","54D618C214674C62938D84DA9D2607DE","019cfc8d-e844-7170-8bcc-6ce50a4147eb","019cfc7b-6c7b-7b1b-afe7-acad8efc6711","","1001","
                <div class=""stimulus-container"">
                    <img src=""images/schematic_sequence/flight_scheme/flight_scheme_1.png"" class=""exp-image"">
                    <div class=""question-area"">
                        <p style=""font-size: 20px; font-weight: bold; margin: 0;"">Is there a person in this image?</p>
                    </div>
                </div>","0","main_experiment_trial","1","flight_scheme","schematic_sequence","chronological","","","","","","",""
"","","","","","html-keyboard-response","103","395521","0.0-103.0","54D618C214674C62938D84DA9D2607DE","019cfc8d-e844-7170-8bcc-6ce50a4147eb","019cfc7b-6c7b-7b1b-afe7-acad8efc6711","","null","
                <div class=""stimulus-container"">
                    <img src=""images/schematic_sequence/flight_scheme/flight_scheme_2.png"" class=""exp-image"">
                    <div class=""question-area""></div> 
                </div>","null","","","","","","","","","","","",""
"","","","","","html-button-response","104","398530","0.0-104.0","54D618C214674C62938D84DA9D2607DE","019cfc8d-e844-7170-8bcc-6ce50a4147eb","019cfc7b-6c7b-7b1b-afe7-acad8efc6711","","null","
                <div class=""stimulus-container"">
                    <img src=""images/schematic_sequence/flight_scheme/flight_scheme_2.png"" class=""exp-image"">
                    <div class=""question-area"">
                        <p style=""font-size: 20px; font-weight: bold; margin: 0;"">Is there a person in this image?</p>
                    </div>
                </div>","null","main_experiment_trial","2","flight_scheme","schematic_sequence","chronological","","","","","","",""
"","","","","","html-keyboard-response","105","403543","0.0-105.0","54D618C214674C62938D84DA9D2607DE","019cfc8d-e844-7170-8bcc-6ce50a4147eb","019cfc7b-6c7b-7b1b-afe7-acad8efc6711","","null","
                <div class=""stimulus-container"">
                    <img src=""images/schematic_sequence/flight_scheme/flight_scheme_3.png"" class=""exp-image"">
                    <div class=""question-area""></div> 
                </div>","null","","","","","","","","","","","",""
"","","","","","html-button-response","106","404199","0.0-106.0","54D618C214674C62938D84DA9D2607DE","019cfc8d-e844-7170-8bcc-6ce50a4147eb","019cfc7b-6c7b-7b1b-afe7-acad8efc6711","","655","
                <div class=""stimulus-container"">
                    <img src=""images/schematic_sequence/flight_scheme/flight_scheme_3.png"" class=""exp-image"">
                    <div class=""question-area"">
                        <p style=""font-size: 20px; font-weight: bold; margin: 0;"">Is there a person in this image?</p>
                    </div>
                </div>","0","main_experiment_trial","3","flight_scheme","schematic_sequence","chronological","","","","","","",""
"","","","","","html-keyboard-response","107","409203","0.0-107.0","54D618C214674C62938D84DA9D2607DE","019cfc8d-e844-7170-8bcc-6ce50a4147eb","019cfc7b-6c7b-7b1b-afe7-acad8efc6711","","null","
                <div class=""stimulus-container"">
                    <img src=""images/schematic_sequence/flight_scheme/flight_scheme_4.png"" class=""exp-image"">
                    <div class=""question-area""></div> 
                </div>","null","","","","","","","","","","","",""
"","","","","","html-button-response","108","410039","0.0-108.0","54D618C214674C62938D84DA9D2607DE","019cfc8d-e844-7170-8bcc-6ce50a4147eb","019cfc7b-6c7b-7b1b-afe7-acad8efc6711","","835","
                <div class=""stimulus-container"">
                    <img src=""images/schematic_sequence/flight_scheme/flight_scheme_4.png"" class=""exp-image"">
                    <div class=""question-area"">
                        <p style=""font-size: 20px; font-weight: bold; margin: 0;"">Is there a person in this image?</p>
                    </div>
                </div>","0","main_experiment_trial","4","flight_scheme","schematic_sequence","chronological","","","","","","",""
"","","","","","html-keyboard-response","109","415055","0.0-109.0","54D618C214674C62938D84DA9D2607DE","019cfc8d-e844-7170-8bcc-6ce50a4147eb","019cfc7b-6c7b-7b1b-afe7-acad8efc6711","","null","
                <div class=""stimulus-container"">
                    <img src=""images/schematic_sequence/flight_scheme/flight_scheme_5.png"" class=""exp-image"">
                    <div class=""question-area""></div> 
                </div>","null","","","","","","","","","","","",""
"","","","","","html-button-response","110","417319","0.0-110.0","54D618C214674C62938D84DA9D2607DE","019cfc8d-e844-7170-8bcc-6ce50a4147eb","019cfc7b-6c7b-7b1b-afe7-acad8efc6711","","2263","
                <div class=""stimulus-container"">
                    <img src=""images/schematic_sequence/flight_scheme/flight_scheme_5.png"" class=""exp-image"">
                    <div class=""question-area"">
                        <p style=""font-size: 20px; font-weight: bold; margin: 0;"">Is there a person in this image?</p>
                    </div>
                </div>","0","main_experiment_trial","5","flight_scheme","schematic_sequence","chronological","","","","","","",""
"","","","","","html-keyboard-response","111","422328","0.0-111.0","54D618C214674C62938D84DA9D2607DE","019cfc8d-e844-7170-8bcc-6ce50a4147eb","019cfc7b-6c7b-7b1b-afe7-acad8efc6711","","null","
                <div class=""stimulus-container"">
                    <img src=""images/schematic_sequence/flight_scheme/flight_scheme_6.png"" class=""exp-image"">
                    <div class=""question-area""></div> 
                </div>","null","","","","","","","","","","","",""
"","","","","","html-button-response","112","422879","0.0-112.0","54D618C214674C62938D84DA9D2607DE","019cfc8d-e844-7170-8bcc-6ce50a4147eb","019cfc7b-6c7b-7b1b-afe7-acad8efc6711","","550","
                <div class=""stimulus-container"">
                    <img src=""images/schematic_sequence/flight_scheme/flight_scheme_6.png"" class=""exp-image"">
                    <div class=""question-area"">
                        <p style=""font-size: 20px; font-weight: bold; margin: 0;"">Is there a person in this image?</p>
                    </div>
                </div>","1","main_experiment_trial","6","flight_scheme","schematic_sequence","chronological","","","","","","",""
"","","","","","html-keyboard-response","113","427892","0.0-113.0","54D618C214674C62938D84DA9D2607DE","019cfc8d-e844-7170-8bcc-6ce50a4147eb","019cfc7b-6c7b-7b1b-afe7-acad8efc6711","","null","
                <div class=""stimulus-container"">
                    <img src=""images/schematic_sequence/flight_scheme/flight_scheme_7.png"" class=""exp-image"">
                    <div class=""question-area""></div> 
                </div>","null","","","","","","","","","","","",""
"","","","","","html-button-response","114","428479","0.0-114.0","54D618C214674C62938D84DA9D2607DE","019cfc8d-e844-7170-8bcc-6ce50a4147eb","019cfc7b-6c7b-7b1b-afe7-acad8efc6711","","586","
                <div class=""stimulus-container"">
                    <img src=""images/schematic_sequence/flight_scheme/flight_scheme_7.png"" class=""exp-image"">
                    <div class=""question-area"">
                        <p style=""font-size: 20px; font-weight: bold; margin: 0;"">Is there a person in this image?</p>
                    </div>
                </div>","1","main_experiment_trial","7","flight_scheme","schematic_sequence","chronological","","","","","","",""
"","","","","","html-keyboard-response","115","433484","0.0-115.0","54D618C214674C62938D84DA9D2607DE","019cfc8d-e844-7170-8bcc-6ce50a4147eb","019cfc7b-6c7b-7b1b-afe7-acad8efc6711","","null","
                <div class=""stimulus-container"">
                    <img src=""images/schematic_sequence/flight_scheme/flight_scheme_8.png"" class=""exp-image"">
                    <div class=""question-area""></div> 
                </div>","null","","","","","","","","","","","",""
"","","","","","html-button-response","116","434599","0.0-116.0","54D618C214674C62938D84DA9D2607DE","019cfc8d-e844-7170-8bcc-6ce50a4147eb","019cfc7b-6c7b-7b1b-afe7-acad8efc6711","","1115","
                <div class=""stimulus-container"">
                    <img src=""images/schematic_sequence/flight_scheme/flight_scheme_8.png"" class=""exp-image"">
                    <div class=""question-area"">
                        <p style=""font-size: 20px; font-weight: bold; margin: 0;"">Is there a person in this image?</p>
                    </div>
                </div>","1","main_experiment_trial","8","flight_scheme","schematic_sequence","chronological","","","","","","",""
"","","","","","html-keyboard-response","117","439603","0.0-117.0","54D618C214674C62938D84DA9D2607DE","019cfc8d-e844-7170-8bcc-6ce50a4147eb","019cfc7b-6c7b-7b1b-afe7-acad8efc6711","","null","
                <div class=""stimulus-container"">
                    <img src=""images/schematic_sequence/flight_scheme/flight_scheme_9.png"" class=""exp-image"">
                    <div class=""question-area""></div> 
                </div>","null","","","","","","","","","","","",""
"","","","","","html-button-response","118","440191","0.0-118.0","54D618C214674C62938D84DA9D2607DE","019cfc8d-e844-7170-8bcc-6ce50a4147eb","019cfc7b-6c7b-7b1b-afe7-acad8efc6711","","587","
                <div class=""stimulus-container"">
                    <img src=""images/schematic_sequence/flight_scheme/flight_scheme_9.png"" class=""exp-image"">
                    <div class=""question-area"">
                        <p style=""font-size: 20px; font-weight: bold; margin: 0;"">Is there a person in this image?</p>
                    </div>
                </div>","0","main_experiment_trial","9","flight_scheme","schematic_sequence","chronological","","","","","","",""
"","","","","","html-keyboard-response","119","445194","0.0-119.0","54D618C214674C62938D84DA9D2607DE","019cfc8d-e844-7170-8bcc-6ce50a4147eb","019cfc7b-6c7b-7b1b-afe7-acad8efc6711","","null","
                <div class=""stimulus-container"">
                    <img src=""images/schematic_sequence/flight_scheme/flight_scheme_ten.png"" class=""exp-image"">
                    <div class=""question-area""></div> 
                </div>","null","","","","","","","","","","","",""
"","","","","","html-button-response","120","446199","0.0-120.0","54D618C214674C62938D84DA9D2607DE","019cfc8d-e844-7170-8bcc-6ce50a4147eb","019cfc7b-6c7b-7b1b-afe7-acad8efc6711","","1004","
                <div class=""stimulus-container"">
                    <img src=""images/schematic_sequence/flight_scheme/flight_scheme_ten.png"" class=""exp-image"">
                    <div class=""question-area"">
                        <p style=""font-size: 20px; font-weight: bold; margin: 0;"">Is there a person in this image?</p>
                    </div>
                </div>","0","main_experiment_trial","ten","flight_scheme","schematic_sequence","chronological","","","","","","",""
"","","","","","html-keyboard-response","121","451201","0.0-121.0","54D618C214674C62938D84DA9D2607DE","019cfc8d-e844-7170-8bcc-6ce50a4147eb","019cfc7b-6c7b-7b1b-afe7-acad8efc6711","","null","<div style=""background-color: white; width: 100vw; height: 100vh;""></div>","null","","","","","","","","","","","",""
"","","","","","html-keyboard-response","122","456216","0.0-122.0","54D618C214674C62938D84DA9D2607DE","019cfc8d-e844-7170-8bcc-6ce50a4147eb","019cfc7b-6c7b-7b1b-afe7-acad8efc6711","","null","
                <div class=""stimulus-container"">
                    <img src=""images/semantic_sequence/kitchen_operations_semantic/kitchen_operations_semantic_1.png"" class=""exp-image"">
                    <div class=""question-area""></div> 
                </div>","null","","","","","","","","","","","",""
"","","","","","html-button-response","123","457199","0.0-123.0","54D618C214674C62938D84DA9D2607DE","019cfc8d-e844-7170-8bcc-6ce50a4147eb","019cfc7b-6c7b-7b1b-afe7-acad8efc6711","","982","
                <div class=""stimulus-container"">
                    <img src=""images/semantic_sequence/kitchen_operations_semantic/kitchen_operations_semantic_1.png"" class=""exp-image"">
                    <div class=""question-area"">
                        <p style=""font-size: 20px; font-weight: bold; margin: 0;"">Is there a person in this image?</p>
                    </div>
                </div>","0","main_experiment_trial","1","kitchen_operations_semantic","semantic_sequence","chronological","","","","","","",""
"","","","","","html-keyboard-response","124","462211","0.0-124.0","54D618C214674C62938D84DA9D2607DE","019cfc8d-e844-7170-8bcc-6ce50a4147eb","019cfc7b-6c7b-7b1b-afe7-acad8efc6711","","null","
                <div class=""stimulus-container"">
                    <img src=""images/semantic_sequence/kitchen_operations_semantic/kitchen_operations_semantic_2.png"" class=""exp-image"">
                    <div class=""question-area""></div> 
                </div>","null","","","","","","","","","","","",""
"","","","","","html-button-response","125","463063","0.0-125.0","54D618C214674C62938D84DA9D2607DE","019cfc8d-e844-7170-8bcc-6ce50a4147eb","019cfc7b-6c7b-7b1b-afe7-acad8efc6711","","851","
                <div class=""stimulus-container"">
                    <img src=""images/semantic_sequence/kitchen_operations_semantic/kitchen_operations_semantic_2.png"" class=""exp-image"">
                    <div class=""question-area"">
                        <p style=""font-size: 20px; font-weight: bold; margin: 0;"">Is there a person in this image?</p>
                    </div>
                </div>","0","main_experiment_trial","2","kitchen_operations_semantic","semantic_sequence","chronological","","","","","","",""
"","","","","","html-keyboard-response","126","468069","0.0-126.0","54D618C214674C62938D84DA9D2607DE","019cfc8d-e844-7170-8bcc-6ce50a4147eb","019cfc7b-6c7b-7b1b-afe7-acad8efc6711","","null","
                <div class=""stimulus-container"">
                    <img src=""images/semantic_sequence/kitchen_operations_semantic/kitchen_operations_semantic_3.png"" class=""exp-image"">
                    <div class=""question-area""></div> 
                </div>","null","","","","","","","","","","","",""
"","","","","","html-button-response","127","468623","0.0-127.0","54D618C214674C62938D84DA9D2607DE","019cfc8d-e844-7170-8bcc-6ce50a4147eb","019cfc7b-6c7b-7b1b-afe7-acad8efc6711","","554","
                <div class=""stimulus-container"">
                    <img src=""images/semantic_sequence/kitchen_operations_semantic/kitchen_operations_semantic_3.png"" class=""exp-image"">
                    <div class=""question-area"">
                        <p style=""font-size: 20px; font-weight: bold; margin: 0;"">Is there a person in this image?</p>
                    </div>
                </div>","0","main_experiment_trial","3","kitchen_operations_semantic","semantic_sequence","chronological","","","","","","",""
"","","","","","html-keyboard-response","128","473630","0.0-128.0","54D618C214674C62938D84DA9D2607DE","019cfc8d-e844-7170-8bcc-6ce50a4147eb","019cfc7b-6c7b-7b1b-afe7-acad8efc6711","","null","
                <div class=""stimulus-container"">
                    <img src=""images/semantic_sequence/kitchen_operations_semantic/kitchen_operations_semantic_4.png"" class=""exp-image"">
                    <div class=""question-area""></div> 
                </div>","null","","","","","","","","","","","",""
"","","","","","html-button-response","129","474431","0.0-129.0","54D618C214674C62938D84DA9D2607DE","019cfc8d-e844-7170-8bcc-6ce50a4147eb","019cfc7b-6c7b-7b1b-afe7-acad8efc6711","","800","
                <div class=""stimulus-container"">
                    <img src=""images/semantic_sequence/kitchen_operations_semantic/kitchen_operations_semantic_4.png"" class=""exp-image"">
                    <div class=""question-area"">
                        <p style=""font-size: 20px; font-weight: bold; margin: 0;"">Is there a person in this image?</p>
                    </div>
                </div>","0","main_experiment_trial","4","kitchen_operations_semantic","semantic_sequence","chronological","","","","","","",""
"","","","","","html-keyboard-response","130","479438","0.0-130.0","54D618C214674C62938D84DA9D2607DE","019cfc8d-e844-7170-8bcc-6ce50a4147eb","019cfc7b-6c7b-7b1b-afe7-acad8efc6711","","null","
                <div class=""stimulus-container"">
                    <img src=""images/semantic_sequence/kitchen_operations_semantic/kitchen_operations_semantic_5.png"" class=""exp-image"">
                    <div class=""question-area""></div> 
                </div>","null","","","","","","","","","","","",""
"","","","","","html-button-response","131","481799","0.0-131.0","54D618C214674C62938D84DA9D2607DE","019cfc8d-e844-7170-8bcc-6ce50a4147eb","019cfc7b-6c7b-7b1b-afe7-acad8efc6711","","2360","
                <div class=""stimulus-container"">
                    <img src=""images/semantic_sequence/kitchen_operations_semantic/kitchen_operations_semantic_5.png"" class=""exp-image"">
                    <div class=""question-area"">
                        <p style=""font-size: 20px; font-weight: bold; margin: 0;"">Is there a person in this image?</p>
                    </div>
                </div>","0","main_experiment_trial","5","kitchen_operations_semantic","semantic_sequence","chronological","","","","","","",""
"","","","","","html-keyboard-response","132","486814","0.0-132.0","54D618C214674C62938D84DA9D2607DE","019cfc8d-e844-7170-8bcc-6ce50a4147eb","019cfc7b-6c7b-7b1b-afe7-acad8efc6711","","null","
                <div class=""stimulus-container"">
                    <img src=""images/semantic_sequence/kitchen_operations_semantic/kitchen_operations_semantic_6.png"" class=""exp-image"">
                    <div class=""question-area""></div> 
                </div>","null","","","","","","","","","","","",""
"","","","","","html-button-response","133","488511","0.0-133.0","54D618C214674C62938D84DA9D2607DE","019cfc8d-e844-7170-8bcc-6ce50a4147eb","019cfc7b-6c7b-7b1b-afe7-acad8efc6711","","1696","
                <div class=""stimulus-container"">
                    <img src=""images/semantic_sequence/kitchen_operations_semantic/kitchen_operations_semantic_6.png"" class=""exp-image"">
                    <div class=""question-area"">
                        <p style=""font-size: 20px; font-weight: bold; margin: 0;"">Is there a person in this image?</p>
                    </div>
                </div>","0","main_experiment_trial","6","kitchen_operations_semantic","semantic_sequence","chronological","","","","","","",""
"","","","","","html-keyboard-response","134","493512","0.0-134.0","54D618C214674C62938D84DA9D2607DE","019cfc8d-e844-7170-8bcc-6ce50a4147eb","019cfc7b-6c7b-7b1b-afe7-acad8efc6711","","null","
                <div class=""stimulus-container"">
                    <img src=""images/semantic_sequence/kitchen_operations_semantic/kitchen_operations_semantic_7.png"" class=""exp-image"">
                    <div class=""question-area""></div> 
                </div>","null","","","","","","","","","","","",""
"","","","","","html-button-response","135","494935","0.0-135.0","54D618C214674C62938D84DA9D2607DE","019cfc8d-e844-7170-8bcc-6ce50a4147eb","019cfc7b-6c7b-7b1b-afe7-acad8efc6711","","1423","
                <div class=""stimulus-container"">
                    <img src=""images/semantic_sequence/kitchen_operations_semantic/kitchen_operations_semantic_7.png"" class=""exp-image"">
                    <div class=""question-area"">
                        <p style=""font-size: 20px; font-weight: bold; margin: 0;"">Is there a person in this image?</p>
                    </div>
                </div>","0","main_experiment_trial","7","kitchen_operations_semantic","semantic_sequence","chronological","","","","","","",""
"","","","","","html-keyboard-response","136","499942","0.0-136.0","54D618C214674C62938D84DA9D2607DE","019cfc8d-e844-7170-8bcc-6ce50a4147eb","019cfc7b-6c7b-7b1b-afe7-acad8efc6711","","null","
                <div class=""stimulus-container"">
                    <img src=""images/semantic_sequence/kitchen_operations_semantic/kitchen_operations_semantic_8.png"" class=""exp-image"">
                    <div class=""question-area""></div> 
                </div>","null","","","","","","","","","","","",""
"","","","","","html-button-response","137","500503","0.0-137.0","54D618C214674C62938D84DA9D2607DE","019cfc8d-e844-7170-8bcc-6ce50a4147eb","019cfc7b-6c7b-7b1b-afe7-acad8efc6711","","560","
                <div class=""stimulus-container"">
                    <img src=""images/semantic_sequence/kitchen_operations_semantic/kitchen_operations_semantic_8.png"" class=""exp-image"">
                    <div class=""question-area"">
                        <p style=""font-size: 20px; font-weight: bold; margin: 0;"">Is there a person in this image?</p>
                    </div>
                </div>","0","main_experiment_trial","8","kitchen_operations_semantic","semantic_sequence","chronological","","","","","","",""
"","","","","","html-keyboard-response","138","505517","0.0-138.0","54D618C214674C62938D84DA9D2607DE","019cfc8d-e844-7170-8bcc-6ce50a4147eb","019cfc7b-6c7b-7b1b-afe7-acad8efc6711","","null","
                <div class=""stimulus-container"">
                    <img src=""images/semantic_sequence/kitchen_operations_semantic/kitchen_operations_semantic_9.png"" class=""exp-image"">
                    <div class=""question-area""></div> 
                </div>","null","","","","","","","","","","","",""
"","","","","","html-button-response","139","506855","0.0-139.0","54D618C214674C62938D84DA9D2607DE","019cfc8d-e844-7170-8bcc-6ce50a4147eb","019cfc7b-6c7b-7b1b-afe7-acad8efc6711","","1337","
                <div class=""stimulus-container"">
                    <img src=""images/semantic_sequence/kitchen_operations_semantic/kitchen_operations_semantic_9.png"" class=""exp-image"">
                    <div class=""question-area"">
                        <p style=""font-size: 20px; font-weight: bold; margin: 0;"">Is there a person in this image?</p>
                    </div>
                </div>","0","main_experiment_trial","9","kitchen_operations_semantic","semantic_sequence","chronological","","","","","","",""
"","","","","","html-keyboard-response","140","511870","0.0-140.0","54D618C214674C62938D84DA9D2607DE","019cfc8d-e844-7170-8bcc-6ce50a4147eb","019cfc7b-6c7b-7b1b-afe7-acad8efc6711","","null","
                <div class=""stimulus-container"">
                    <img src=""images/semantic_sequence/kitchen_operations_semantic/kitchen_operations_semantic_ten.png"" class=""exp-image"">
                    <div class=""question-area""></div> 
                </div>","null","","","","","","","","","","","",""
"","","","","","html-button-response","141","512663","0.0-141.0","54D618C214674C62938D84DA9D2607DE","019cfc8d-e844-7170-8bcc-6ce50a4147eb","019cfc7b-6c7b-7b1b-afe7-acad8efc6711","","792","
                <div class=""stimulus-container"">
                    <img src=""images/semantic_sequence/kitchen_operations_semantic/kitchen_operations_semantic_ten.png"" class=""exp-image"">
                    <div class=""question-area"">
                        <p style=""font-size: 20px; font-weight: bold; margin: 0;"">Is there a person in this image?</p>
                    </div>
                </div>","0","main_experiment_trial","ten","kitchen_operations_semantic","semantic_sequence","chronological","","","","","","",""
"","","","","","html-keyboard-response","142","517669","0.0-142.0","54D618C214674C62938D84DA9D2607DE","019cfc8d-e844-7170-8bcc-6ce50a4147eb","019cfc7b-6c7b-7b1b-afe7-acad8efc6711","","null","<div style=""background-color: white; width: 100vw; height: 100vh;""></div>","null","","","","","","","","","","","",""
"","","","","","html-keyboard-response","143","522674","0.0-143.0","54D618C214674C62938D84DA9D2607DE","019cfc8d-e844-7170-8bcc-6ce50a4147eb","019cfc7b-6c7b-7b1b-afe7-acad8efc6711","","null","
                <div class=""stimulus-container"">
                    <img src=""images/schematic_sequence/supermarket_scheme/supermarket_scheme_1.png"" class=""exp-image"">
                    <div class=""question-area""></div> 
                </div>","null","","","","","","","","","","","",""
"","","","","","html-button-response","144","524239","0.0-144.0","54D618C214674C62938D84DA9D2607DE","019cfc8d-e844-7170-8bcc-6ce50a4147eb","019cfc7b-6c7b-7b1b-afe7-acad8efc6711","","1565","
                <div class=""stimulus-container"">
                    <img src=""images/schematic_sequence/supermarket_scheme/supermarket_scheme_1.png"" class=""exp-image"">
                    <div class=""question-area"">
                        <p style=""font-size: 20px; font-weight: bold; margin: 0;"">Is there a person in this image?</p>
                    </div>
                </div>","1","main_experiment_trial","1","supermarket_scheme","schematic_sequence","chronological","","","","","","",""
"","","","","","html-keyboard-response","145","529248","0.0-145.0","54D618C214674C62938D84DA9D2607DE","019cfc8d-e844-7170-8bcc-6ce50a4147eb","019cfc7b-6c7b-7b1b-afe7-acad8efc6711","","null","
                <div class=""stimulus-container"">
                    <img src=""images/schematic_sequence/supermarket_scheme/supermarket_scheme_2.png"" class=""exp-image"">
                    <div class=""question-area""></div> 
                </div>","null","","","","","","","","","","","",""
"","","","","","html-button-response","146","530279","0.0-146.0","54D618C214674C62938D84DA9D2607DE","019cfc8d-e844-7170-8bcc-6ce50a4147eb","019cfc7b-6c7b-7b1b-afe7-acad8efc6711","","1030","
                <div class=""stimulus-container"">
                    <img src=""images/schematic_sequence/supermarket_scheme/supermarket_scheme_2.png"" class=""exp-image"">
                    <div class=""question-area"">
                        <p style=""font-size: 20px; font-weight: bold; margin: 0;"">Is there a person in this image?</p>
                    </div>
                </div>","1","main_experiment_trial","2","supermarket_scheme","schematic_sequence","chronological","","","","","","",""
"","","","","","html-keyboard-response","147","535280","0.0-147.0","54D618C214674C62938D84DA9D2607DE","019cfc8d-e844-7170-8bcc-6ce50a4147eb","019cfc7b-6c7b-7b1b-afe7-acad8efc6711","","null","
                <div class=""stimulus-container"">
                    <img src=""images/schematic_sequence/supermarket_scheme/supermarket_scheme_3.png"" class=""exp-image"">
                    <div class=""question-area""></div> 
                </div>","null","","","","","","","","","","","",""
"","","","","","html-button-response","148","536103","0.0-148.0","54D618C214674C62938D84DA9D2607DE","019cfc8d-e844-7170-8bcc-6ce50a4147eb","019cfc7b-6c7b-7b1b-afe7-acad8efc6711","","823","
                <div class=""stimulus-container"">
                    <img src=""images/schematic_sequence/supermarket_scheme/supermarket_scheme_3.png"" class=""exp-image"">
                    <div class=""question-area"">
                        <p style=""font-size: 20px; font-weight: bold; margin: 0;"">Is there a person in this image?</p>
                    </div>
                </div>","1","main_experiment_trial","3","supermarket_scheme","schematic_sequence","chronological","","","","","","",""
"","","","","","html-keyboard-response","149","541118","0.0-149.0","54D618C214674C62938D84DA9D2607DE","019cfc8d-e844-7170-8bcc-6ce50a4147eb","019cfc7b-6c7b-7b1b-afe7-acad8efc6711","","null","
                <div class=""stimulus-container"">
                    <img src=""images/schematic_sequence/supermarket_scheme/supermarket_scheme_4.png"" class=""exp-image"">
                    <div class=""question-area""></div> 
                </div>","null","","","","","","","","","","","",""
"","","","","","html-button-response","150","543079","0.0-150.0","54D618C214674C62938D84DA9D2607DE","019cfc8d-e844-7170-8bcc-6ce50a4147eb","019cfc7b-6c7b-7b1b-afe7-acad8efc6711","","1960","
                <div class=""stimulus-container"">
                    <img src=""images/schematic_sequence/supermarket_scheme/supermarket_scheme_4.png"" class=""exp-image"">
                    <div class=""question-area"">
                        <p style=""font-size: 20px; font-weight: bold; margin: 0;"">Is there a person in this image?</p>
                    </div>
                </div>","0","main_experiment_trial","4","supermarket_scheme","schematic_sequence","chronological","","","","","","",""
"","","","","","html-keyboard-response","151","548082","0.0-151.0","54D618C214674C62938D84DA9D2607DE","019cfc8d-e844-7170-8bcc-6ce50a4147eb","019cfc7b-6c7b-7b1b-afe7-acad8efc6711","","null","
                <div class=""stimulus-container"">
                    <img src=""images/schematic_sequence/supermarket_scheme/supermarket_scheme_5.png"" class=""exp-image"">
                    <div class=""question-area""></div> 
                </div>","null","","","","","","","","","","","",""
"","","","","","html-button-response","152","548671","0.0-152.0","54D618C214674C62938D84DA9D2607DE","019cfc8d-e844-7170-8bcc-6ce50a4147eb","019cfc7b-6c7b-7b1b-afe7-acad8efc6711","","588","
                <div class=""stimulus-container"">
                    <img src=""images/schematic_sequence/supermarket_scheme/supermarket_scheme_5.png"" class=""exp-image"">
                    <div class=""question-area"">
                        <p style=""font-size: 20px; font-weight: bold; margin: 0;"">Is there a person in this image?</p>
                    </div>
                </div>","1","main_experiment_trial","5","supermarket_scheme","schematic_sequence","chronological","","","","","","",""
"","","","","","html-keyboard-response","153","553676","0.0-153.0","54D618C214674C62938D84DA9D2607DE","019cfc8d-e844-7170-8bcc-6ce50a4147eb","019cfc7b-6c7b-7b1b-afe7-acad8efc6711","","null","
                <div class=""stimulus-container"">
                    <img src=""images/schematic_sequence/supermarket_scheme/supermarket_scheme_6.png"" class=""exp-image"">
                    <div class=""question-area""></div> 
                </div>","null","","","","","","","","","","","",""
"","","","","","html-button-response","154","554247","0.0-154.0","54D618C214674C62938D84DA9D2607DE","019cfc8d-e844-7170-8bcc-6ce50a4147eb","019cfc7b-6c7b-7b1b-afe7-acad8efc6711","","570","
                <div class=""stimulus-container"">
                    <img src=""images/schematic_sequence/supermarket_scheme/supermarket_scheme_6.png"" class=""exp-image"">
                    <div class=""question-area"">
                        <p style=""font-size: 20px; font-weight: bold; margin: 0;"">Is there a person in this image?</p>
                    </div>
                </div>","0","main_experiment_trial","6","supermarket_scheme","schematic_sequence","chronological","","","","","","",""
"","","","","","html-keyboard-response","155","559252","0.0-155.0","54D618C214674C62938D84DA9D2607DE","019cfc8d-e844-7170-8bcc-6ce50a4147eb","019cfc7b-6c7b-7b1b-afe7-acad8efc6711","","null","
                <div class=""stimulus-container"">
                    <img src=""images/schematic_sequence/supermarket_scheme/supermarket_scheme_7.png"" class=""exp-image"">
                    <div class=""question-area""></div> 
                </div>","null","","","","","","","","","","","",""
"","","","","","html-button-response","156","562255","0.0-156.0","54D618C214674C62938D84DA9D2607DE","019cfc8d-e844-7170-8bcc-6ce50a4147eb","019cfc7b-6c7b-7b1b-afe7-acad8efc6711","","null","
                <div class=""stimulus-container"">
                    <img src=""images/schematic_sequence/supermarket_scheme/supermarket_scheme_7.png"" class=""exp-image"">
                    <div class=""question-area"">
                        <p style=""font-size: 20px; font-weight: bold; margin: 0;"">Is there a person in this image?</p>
                    </div>
                </div>","null","main_experiment_trial","7","supermarket_scheme","schematic_sequence","chronological","","","","","","",""
"","","","","","html-keyboard-response","157","567264","0.0-157.0","54D618C214674C62938D84DA9D2607DE","019cfc8d-e844-7170-8bcc-6ce50a4147eb","019cfc7b-6c7b-7b1b-afe7-acad8efc6711","","null","
                <div class=""stimulus-container"">
                    <img src=""images/schematic_sequence/supermarket_scheme/supermarket_scheme_8.png"" class=""exp-image"">
                    <div class=""question-area""></div> 
                </div>","null","","","","","","","","","","","",""
"","","","","","html-button-response","158","568079","0.0-158.0","54D618C214674C62938D84DA9D2607DE","019cfc8d-e844-7170-8bcc-6ce50a4147eb","019cfc7b-6c7b-7b1b-afe7-acad8efc6711","","815","
                <div class=""stimulus-container"">
                    <img src=""images/schematic_sequence/supermarket_scheme/supermarket_scheme_8.png"" class=""exp-image"">
                    <div class=""question-area"">
                        <p style=""font-size: 20px; font-weight: bold; margin: 0;"">Is there a person in this image?</p>
                    </div>
                </div>","0","main_experiment_trial","8","supermarket_scheme","schematic_sequence","chronological","","","","","","",""
"","","","","","html-keyboard-response","159","573084","0.0-159.0","54D618C214674C62938D84DA9D2607DE","019cfc8d-e844-7170-8bcc-6ce50a4147eb","019cfc7b-6c7b-7b1b-afe7-acad8efc6711","","null","
                <div class=""stimulus-container"">
                    <img src=""images/schematic_sequence/supermarket_scheme/supermarket_scheme_9.png"" class=""exp-image"">
                    <div class=""question-area""></div> 
                </div>","null","","","","","","","","","","","",""
"","","","","","html-button-response","160","573639","0.0-160.0","54D618C214674C62938D84DA9D2607DE","019cfc8d-e844-7170-8bcc-6ce50a4147eb","019cfc7b-6c7b-7b1b-afe7-acad8efc6711","","554","
                <div class=""stimulus-container"">
                    <img src=""images/schematic_sequence/supermarket_scheme/supermarket_scheme_9.png"" class=""exp-image"">
                    <div class=""question-area"">
                        <p style=""font-size: 20px; font-weight: bold; margin: 0;"">Is there a person in this image?</p>
                    </div>
                </div>","0","main_experiment_trial","9","supermarket_scheme","schematic_sequence","chronological","","","","","","",""
"","","","","","html-keyboard-response","161","578651","0.0-161.0","54D618C214674C62938D84DA9D2607DE","019cfc8d-e844-7170-8bcc-6ce50a4147eb","019cfc7b-6c7b-7b1b-afe7-acad8efc6711","","null","
                <div class=""stimulus-container"">
                    <img src=""images/schematic_sequence/supermarket_scheme/supermarket_scheme_ten.png"" class=""exp-image"">
                    <div class=""question-area""></div> 
                </div>","null","","","","","","","","","","","",""
"","","","","","html-button-response","162","579359","0.0-162.0","54D618C214674C62938D84DA9D2607DE","019cfc8d-e844-7170-8bcc-6ce50a4147eb","019cfc7b-6c7b-7b1b-afe7-acad8efc6711","","707","
                <div class=""stimulus-container"">
                    <img src=""images/schematic_sequence/supermarket_scheme/supermarket_scheme_ten.png"" class=""exp-image"">
                    <div class=""question-area"">
                        <p style=""font-size: 20px; font-weight: bold; margin: 0;"">Is there a person in this image?</p>
                    </div>
                </div>","1","main_experiment_trial","ten","supermarket_scheme","schematic_sequence","chronological","","","","","","",""
"","","","","","html-keyboard-response","163","584367","0.0-163.0","54D618C214674C62938D84DA9D2607DE","019cfc8d-e844-7170-8bcc-6ce50a4147eb","019cfc7b-6c7b-7b1b-afe7-acad8efc6711","","null","<div style=""background-color: white; width: 100vw; height: 100vh;""></div>","null","","","","","","","","","","","",""
"","","","","","html-keyboard-response","164","589374","0.0-164.0","54D618C214674C62938D84DA9D2607DE","019cfc8d-e844-7170-8bcc-6ce50a4147eb","019cfc7b-6c7b-7b1b-afe7-acad8efc6711","","null","
                <div class=""stimulus-container"">
                    <img src=""images/causal_sequence/museum_causal/museum_causal_1.png"" class=""exp-image"">
                    <div class=""question-area""></div> 
                </div>","null","","","","","","","","","","","",""
"","","","","","html-button-response","165","590599","0.0-165.0","54D618C214674C62938D84DA9D2607DE","019cfc8d-e844-7170-8bcc-6ce50a4147eb","019cfc7b-6c7b-7b1b-afe7-acad8efc6711","","1225","
                <div class=""stimulus-container"">
                    <img src=""images/causal_sequence/museum_causal/museum_causal_1.png"" class=""exp-image"">
                    <div class=""question-area"">
                        <p style=""font-size: 20px; font-weight: bold; margin: 0;"">Is there a person in this image?</p>
                    </div>
                </div>","0","main_experiment_trial","1","museum_causal","causal_sequence","chronological","","","","","","",""
"","","","","","html-keyboard-response","166","595609","0.0-166.0","54D618C214674C62938D84DA9D2607DE","019cfc8d-e844-7170-8bcc-6ce50a4147eb","019cfc7b-6c7b-7b1b-afe7-acad8efc6711","","null","
                <div class=""stimulus-container"">
                    <img src=""images/causal_sequence/museum_causal/museum_causal_2.png"" class=""exp-image"">
                    <div class=""question-area""></div> 
                </div>","null","","","","","","","","","","","",""
"","","","","","html-button-response","167","596487","0.0-167.0","54D618C214674C62938D84DA9D2607DE","019cfc8d-e844-7170-8bcc-6ce50a4147eb","019cfc7b-6c7b-7b1b-afe7-acad8efc6711","","877","
                <div class=""stimulus-container"">
                    <img src=""images/causal_sequence/museum_causal/museum_causal_2.png"" class=""exp-image"">
                    <div class=""question-area"">
                        <p style=""font-size: 20px; font-weight: bold; margin: 0;"">Is there a person in this image?</p>
                    </div>
                </div>","0","main_experiment_trial","2","museum_causal","causal_sequence","chronological","","","","","","",""
"","","","","","html-keyboard-response","168","601494","0.0-168.0","54D618C214674C62938D84DA9D2607DE","019cfc8d-e844-7170-8bcc-6ce50a4147eb","019cfc7b-6c7b-7b1b-afe7-acad8efc6711","","null","
                <div class=""stimulus-container"">
                    <img src=""images/causal_sequence/museum_causal/museum_causal_3.png"" class=""exp-image"">
                    <div class=""question-area""></div> 
                </div>","null","","","","","","","","","","","",""
"","","","","","html-button-response","169","602399","0.0-169.0","54D618C214674C62938D84DA9D2607DE","019cfc8d-e844-7170-8bcc-6ce50a4147eb","019cfc7b-6c7b-7b1b-afe7-acad8efc6711","","905","
                <div class=""stimulus-container"">
                    <img src=""images/causal_sequence/museum_causal/museum_causal_3.png"" class=""exp-image"">
                    <div class=""question-area"">
                        <p style=""font-size: 20px; font-weight: bold; margin: 0;"">Is there a person in this image?</p>
                    </div>
                </div>","0","main_experiment_trial","3","museum_causal","causal_sequence","chronological","","","","","","",""
"","","","","","html-keyboard-response","170","607400","0.0-170.0","54D618C214674C62938D84DA9D2607DE","019cfc8d-e844-7170-8bcc-6ce50a4147eb","019cfc7b-6c7b-7b1b-afe7-acad8efc6711","","null","
                <div class=""stimulus-container"">
                    <img src=""images/causal_sequence/museum_causal/museum_causal_4.png"" class=""exp-image"">
                    <div class=""question-area""></div> 
                </div>","null","","","","","","","","","","","",""
"","","","","","html-button-response","171","608215","0.0-171.0","54D618C214674C62938D84DA9D2607DE","019cfc8d-e844-7170-8bcc-6ce50a4147eb","019cfc7b-6c7b-7b1b-afe7-acad8efc6711","","814","
                <div class=""stimulus-container"">
                    <img src=""images/causal_sequence/museum_causal/museum_causal_4.png"" class=""exp-image"">
                    <div class=""question-area"">
                        <p style=""font-size: 20px; font-weight: bold; margin: 0;"">Is there a person in this image?</p>
                    </div>
                </div>","1","main_experiment_trial","4","museum_causal","causal_sequence","chronological","","","","","","",""
"","","","","","html-keyboard-response","172","613216","0.0-172.0","54D618C214674C62938D84DA9D2607DE","019cfc8d-e844-7170-8bcc-6ce50a4147eb","019cfc7b-6c7b-7b1b-afe7-acad8efc6711","","null","
                <div class=""stimulus-container"">
                    <img src=""images/causal_sequence/museum_causal/museum_causal_5.png"" class=""exp-image"">
                    <div class=""question-area""></div> 
                </div>","null","","","","","","","","","","","",""
"","","","","","html-button-response","173","614375","0.0-173.0","54D618C214674C62938D84DA9D2607DE","019cfc8d-e844-7170-8bcc-6ce50a4147eb","019cfc7b-6c7b-7b1b-afe7-acad8efc6711","","1158","
                <div class=""stimulus-container"">
                    <img src=""images/causal_sequence/museum_causal/museum_causal_5.png"" class=""exp-image"">
                    <div class=""question-area"">
                        <p style=""font-size: 20px; font-weight: bold; margin: 0;"">Is there a person in this image?</p>
                    </div>
                </div>","0","main_experiment_trial","5","museum_causal","causal_sequence","chronological","","","","","","",""
"","","","","","html-keyboard-response","174","619377","0.0-174.0","54D618C214674C62938D84DA9D2607DE","019cfc8d-e844-7170-8bcc-6ce50a4147eb","019cfc7b-6c7b-7b1b-afe7-acad8efc6711","","null","
                <div class=""stimulus-container"">
                    <img src=""images/causal_sequence/museum_causal/museum_causal_6.png"" class=""exp-image"">
                    <div class=""question-area""></div> 
                </div>","null","","","","","","","","","","","",""
