"success","timeout","failed_images","failed_audio","failed_video","trial_type","trial_index","time_elapsed","internal_node_id","subject_id","study_id","session_id","view_history","rt","stimulus","response","task","image_index","folder","sequence_type","valuable_image_index","reward_type","chosen_image_index","target_X","correct_choice"
"true","false","[]","[]","[]","preload","0","19790","0.0-0.0","0E7E5B21DF7544188397958003572AC3","019cf4fc-6c80-7866-b45f-fdcfa548a9eb","019cf4c8-1de8-79ec-b3bd-d98520647593","","","","","","","","","","","","",""
"","","","","","instructions","1","32454","0.0-1.0","0E7E5B21DF7544188397958003572AC3","019cf4fc-6c80-7866-b45f-fdcfa548a9eb","019cf4c8-1de8-79ec-b3bd-d98520647593","[{""page_index"":0,""viewing_time"":12663}]","12663","","","","","","","","","","",""
"","","","","","instructions","2","64494","0.0-2.0","0E7E5B21DF7544188397958003572AC3","019cf4fc-6c80-7866-b45f-fdcfa548a9eb","019cf4c8-1de8-79ec-b3bd-d98520647593","[{""page_index"":0,""viewing_time"":32040}]","32040","","","","","","","","","","",""
"true","","","","","fullscreen","3","67756","0.0-3.0","0E7E5B21DF7544188397958003572AC3","019cf4fc-6c80-7866-b45f-fdcfa548a9eb","019cf4c8-1de8-79ec-b3bd-d98520647593","","2259","","","","","","","","","","",""
"","","","","","instructions","4","78374","0.0-4.0","0E7E5B21DF7544188397958003572AC3","019cf4fc-6c80-7866-b45f-fdcfa548a9eb","019cf4c8-1de8-79ec-b3bd-d98520647593","[{""page_index"":0,""viewing_time"":10617}]","10617","","","","","","","","","","",""
"","","","","","instructions","5","85562","0.0-5.0","0E7E5B21DF7544188397958003572AC3","019cf4fc-6c80-7866-b45f-fdcfa548a9eb","019cf4c8-1de8-79ec-b3bd-d98520647593","[{""page_index"":0,""viewing_time"":7188}]","7188","","","","","","","","","","",""
"","","","","","html-keyboard-response","6","89574","0.0-6.0","0E7E5B21DF7544188397958003572AC3","019cf4fc-6c80-7866-b45f-fdcfa548a9eb","019cf4c8-1de8-79ec-b3bd-d98520647593","","null","
                <div class=""stimulus-container"">
                    <img src=""images/instructions/movie_1.png"" class=""exp-image"">
                    <div class=""question-area""></div> 
                </div>","null","","","","","","","","",""
"","","","","","html-button-response","7","90835","0.0-7.0","0E7E5B21DF7544188397958003572AC3","019cf4fc-6c80-7866-b45f-fdcfa548a9eb","019cf4c8-1de8-79ec-b3bd-d98520647593","","1258","
                <div class=""stimulus-container"">
                    <img src=""images/instructions/movie_1.png"" class=""exp-image"">
                    <div class=""question-area"">
                        <p style=""font-size: 20px; font-weight: bold; margin: 0;"">Was there a person in this image?</p>
                    </div>
                </div>","0","example_question","1","","","","","","",""
"","","","","","html-keyboard-response","8","94848","0.0-8.0","0E7E5B21DF7544188397958003572AC3","019cf4fc-6c80-7866-b45f-fdcfa548a9eb","019cf4c8-1de8-79ec-b3bd-d98520647593","","null","
                <div class=""stimulus-container"">
                    <img src=""images/instructions/movie_2.png"" class=""exp-image"">
                    <div class=""question-area""></div> 
                </div>","null","","","","","","","","",""
"","","","","","html-button-response","9","95940","0.0-9.0","0E7E5B21DF7544188397958003572AC3","019cf4fc-6c80-7866-b45f-fdcfa548a9eb","019cf4c8-1de8-79ec-b3bd-d98520647593","","1090","
                <div class=""stimulus-container"">
                    <img src=""images/instructions/movie_2.png"" class=""exp-image"">
                    <div class=""question-area"">
                        <p style=""font-size: 20px; font-weight: bold; margin: 0;"">Was there a person in this image?</p>
                    </div>
                </div>","0","example_question","2","","","","","","",""
"","","","","","html-keyboard-response","10","99951","0.0-10.0","0E7E5B21DF7544188397958003572AC3","019cf4fc-6c80-7866-b45f-fdcfa548a9eb","019cf4c8-1de8-79ec-b3bd-d98520647593","","null","
                <div class=""stimulus-container"">
                    <img src=""images/instructions/movie_3.png"" class=""exp-image"">
                    <div class=""question-area""></div> 
                </div>","null","","","","","","","","",""
"","","","","","html-button-response","11","100620","0.0-11.0","0E7E5B21DF7544188397958003572AC3","019cf4fc-6c80-7866-b45f-fdcfa548a9eb","019cf4c8-1de8-79ec-b3bd-d98520647593","","667","
                <div class=""stimulus-container"">
                    <img src=""images/instructions/movie_3.png"" class=""exp-image"">
                    <div class=""question-area"">
                        <p style=""font-size: 20px; font-weight: bold; margin: 0;"">Was there a person in this image?</p>
                    </div>
                </div>","0","example_question","3","","","","","","",""
"","","","","","html-keyboard-response","12","104632","0.0-12.0","0E7E5B21DF7544188397958003572AC3","019cf4fc-6c80-7866-b45f-fdcfa548a9eb","019cf4c8-1de8-79ec-b3bd-d98520647593","","null","
                <div class=""stimulus-container"">
                    <img src=""images/instructions/movie_4.png"" class=""exp-image"">
                    <div class=""question-area""></div> 
                </div>","null","","","","","","","","",""
"","","","","","html-button-response","13","105731","0.0-13.0","0E7E5B21DF7544188397958003572AC3","019cf4fc-6c80-7866-b45f-fdcfa548a9eb","019cf4c8-1de8-79ec-b3bd-d98520647593","","1097","
                <div class=""stimulus-container"">
                    <img src=""images/instructions/movie_4.png"" class=""exp-image"">
                    <div class=""question-area"">
                        <p style=""font-size: 20px; font-weight: bold; margin: 0;"">Was there a person in this image?</p>
                    </div>
                </div>","0","example_question","4","","","","","","",""
"","","","","","instructions","14","108060","0.0-14.0","0E7E5B21DF7544188397958003572AC3","019cf4fc-6c80-7866-b45f-fdcfa548a9eb","019cf4c8-1de8-79ec-b3bd-d98520647593","[{""page_index"":0,""viewing_time"":2329}]","2329","","","","","","","","","","",""
"","","","","","instructions","15","116617","0.0-15.0","0E7E5B21DF7544188397958003572AC3","019cf4fc-6c80-7866-b45f-fdcfa548a9eb","019cf4c8-1de8-79ec-b3bd-d98520647593","[{""page_index"":0,""viewing_time"":8557}]","8557","","","","","","","","","","",""
"","","","","","html-keyboard-response","16","117618","0.0-16.0","0E7E5B21DF7544188397958003572AC3","019cf4fc-6c80-7866-b45f-fdcfa548a9eb","019cf4c8-1de8-79ec-b3bd-d98520647593","","null","<div style=""background-color: white; width: 100vw; height: 100vh;""></div>","null","","","","","","","","",""
"","","","","","html-keyboard-response","17","122624","0.0-17.0","0E7E5B21DF7544188397958003572AC3","019cf4fc-6c80-7866-b45f-fdcfa548a9eb","019cf4c8-1de8-79ec-b3bd-d98520647593","","null","
                <div class=""stimulus-container"">
                    <img src=""images/schematic_sequence/interview_scheme/interview_scheme_1.png"" class=""exp-image"">
                    <div class=""question-area""></div> 
                </div>","null","","","","","","","","",""
"","","","","","html-button-response","18","123652","0.0-18.0","0E7E5B21DF7544188397958003572AC3","019cf4fc-6c80-7866-b45f-fdcfa548a9eb","019cf4c8-1de8-79ec-b3bd-d98520647593","","1027","
                <div class=""stimulus-container"">
                    <img src=""images/schematic_sequence/interview_scheme/interview_scheme_1.png"" class=""exp-image"">
                    <div class=""question-area"">
                        <p style=""font-size: 20px; font-weight: bold; margin: 0;"">Is there a person in this image?</p>
                    </div>
                </div>","1","main_experiment_trial","1","interview_scheme","schematic_sequence","","","","",""
"","","","","","html-keyboard-response","19","128653","0.0-19.0","0E7E5B21DF7544188397958003572AC3","019cf4fc-6c80-7866-b45f-fdcfa548a9eb","019cf4c8-1de8-79ec-b3bd-d98520647593","","null","
                <div class=""stimulus-container"">
                    <img src=""images/schematic_sequence/interview_scheme/interview_scheme_2.png"" class=""exp-image"">
                    <div class=""question-area""></div> 
                </div>","null","","","","","","","","",""
"","","","","","html-button-response","20","130660","0.0-20.0","0E7E5B21DF7544188397958003572AC3","019cf4fc-6c80-7866-b45f-fdcfa548a9eb","019cf4c8-1de8-79ec-b3bd-d98520647593","","2006","
                <div class=""stimulus-container"">
                    <img src=""images/schematic_sequence/interview_scheme/interview_scheme_2.png"" class=""exp-image"">
                    <div class=""question-area"">
                        <p style=""font-size: 20px; font-weight: bold; margin: 0;"">Is there a person in this image?</p>
                    </div>
                </div>","0","main_experiment_trial","2","interview_scheme","schematic_sequence","","","","",""
"","","","","","html-keyboard-response","21","135669","0.0-21.0","0E7E5B21DF7544188397958003572AC3","019cf4fc-6c80-7866-b45f-fdcfa548a9eb","019cf4c8-1de8-79ec-b3bd-d98520647593","","null","
                <div class=""stimulus-container"">
                    <img src=""images/schematic_sequence/interview_scheme/interview_scheme_3.png"" class=""exp-image"">
                    <div class=""question-area""></div> 
                </div>","null","","","","","","","","",""
"","","","","","html-button-response","22","136516","0.0-22.0","0E7E5B21DF7544188397958003572AC3","019cf4fc-6c80-7866-b45f-fdcfa548a9eb","019cf4c8-1de8-79ec-b3bd-d98520647593","","846","
                <div class=""stimulus-container"">
                    <img src=""images/schematic_sequence/interview_scheme/interview_scheme_3.png"" class=""exp-image"">
                    <div class=""question-area"">
                        <p style=""font-size: 20px; font-weight: bold; margin: 0;"">Is there a person in this image?</p>
                    </div>
                </div>","1","main_experiment_trial","3","interview_scheme","schematic_sequence","","","","",""
"","","","","","html-keyboard-response","23","141520","0.0-23.0","0E7E5B21DF7544188397958003572AC3","019cf4fc-6c80-7866-b45f-fdcfa548a9eb","019cf4c8-1de8-79ec-b3bd-d98520647593","","null","
                <div class=""stimulus-container"">
                    <img src=""images/schematic_sequence/interview_scheme/interview_scheme_4.png"" class=""exp-image"">
                    <div class=""question-area""></div> 
                </div>","null","","","","","","","","",""
"","","","","","html-button-response","24","142237","0.0-24.0","0E7E5B21DF7544188397958003572AC3","019cf4fc-6c80-7866-b45f-fdcfa548a9eb","019cf4c8-1de8-79ec-b3bd-d98520647593","","717","
                <div class=""stimulus-container"">
                    <img src=""images/schematic_sequence/interview_scheme/interview_scheme_4.png"" class=""exp-image"">
                    <div class=""question-area"">
                        <p style=""font-size: 20px; font-weight: bold; margin: 0;"">Is there a person in this image?</p>
                    </div>
                </div>","1","main_experiment_trial","4","interview_scheme","schematic_sequence","","","","",""
"","","","","","html-keyboard-response","25","147244","0.0-25.0","0E7E5B21DF7544188397958003572AC3","019cf4fc-6c80-7866-b45f-fdcfa548a9eb","019cf4c8-1de8-79ec-b3bd-d98520647593","","null","
                <div class=""stimulus-container"">
                    <img src=""images/schematic_sequence/interview_scheme/interview_scheme_5.png"" class=""exp-image"">
                    <div class=""question-area""></div> 
                </div>","null","","","","","","","","",""
"","","","","","html-button-response","26","148280","0.0-26.0","0E7E5B21DF7544188397958003572AC3","019cf4fc-6c80-7866-b45f-fdcfa548a9eb","019cf4c8-1de8-79ec-b3bd-d98520647593","","1034","
                <div class=""stimulus-container"">
                    <img src=""images/schematic_sequence/interview_scheme/interview_scheme_5.png"" class=""exp-image"">
                    <div class=""question-area"">
                        <p style=""font-size: 20px; font-weight: bold; margin: 0;"">Is there a person in this image?</p>
                    </div>
                </div>","0","main_experiment_trial","5","interview_scheme","schematic_sequence","","","","",""
"","","","","","html-keyboard-response","27","153293","0.0-27.0","0E7E5B21DF7544188397958003572AC3","019cf4fc-6c80-7866-b45f-fdcfa548a9eb","019cf4c8-1de8-79ec-b3bd-d98520647593","","null","
                <div class=""stimulus-container"">
                    <img src=""images/schematic_sequence/interview_scheme/interview_scheme_6.png"" class=""exp-image"">
                    <div class=""question-area""></div> 
                </div>","null","","","","","","","","",""
"","","","","","html-button-response","28","153840","0.0-28.0","0E7E5B21DF7544188397958003572AC3","019cf4fc-6c80-7866-b45f-fdcfa548a9eb","019cf4c8-1de8-79ec-b3bd-d98520647593","","545","
                <div class=""stimulus-container"">
                    <img src=""images/schematic_sequence/interview_scheme/interview_scheme_6.png"" class=""exp-image"">
                    <div class=""question-area"">
                        <p style=""font-size: 20px; font-weight: bold; margin: 0;"">Is there a person in this image?</p>
                    </div>
                </div>","0","main_experiment_trial","6","interview_scheme","schematic_sequence","","","","",""
"","","","","","html-keyboard-response","29","158848","0.0-29.0","0E7E5B21DF7544188397958003572AC3","019cf4fc-6c80-7866-b45f-fdcfa548a9eb","019cf4c8-1de8-79ec-b3bd-d98520647593","","null","
                <div class=""stimulus-container"">
                    <img src=""images/schematic_sequence/interview_scheme/interview_scheme_7.png"" class=""exp-image"">
                    <div class=""question-area""></div> 
                </div>","null","","","","","","","","",""
"","","","","","html-button-response","30","159376","0.0-30.0","0E7E5B21DF7544188397958003572AC3","019cf4fc-6c80-7866-b45f-fdcfa548a9eb","019cf4c8-1de8-79ec-b3bd-d98520647593","","526","
                <div class=""stimulus-container"">
                    <img src=""images/schematic_sequence/interview_scheme/interview_scheme_7.png"" class=""exp-image"">
                    <div class=""question-area"">
                        <p style=""font-size: 20px; font-weight: bold; margin: 0;"">Is there a person in this image?</p>
                    </div>
                </div>","0","main_experiment_trial","7","interview_scheme","schematic_sequence","","","","",""
"","","","","","html-keyboard-response","31","164379","0.0-31.0","0E7E5B21DF7544188397958003572AC3","019cf4fc-6c80-7866-b45f-fdcfa548a9eb","019cf4c8-1de8-79ec-b3bd-d98520647593","","null","
                <div class=""stimulus-container"">
                    <img src=""images/schematic_sequence/interview_scheme/interview_scheme_8.png"" class=""exp-image"">
                    <div class=""question-area""></div> 
                </div>","null","","","","","","","","",""
"","","","","","html-button-response","32","164796","0.0-32.0","0E7E5B21DF7544188397958003572AC3","019cf4fc-6c80-7866-b45f-fdcfa548a9eb","019cf4c8-1de8-79ec-b3bd-d98520647593","","415","
                <div class=""stimulus-container"">
                    <img src=""images/schematic_sequence/interview_scheme/interview_scheme_8.png"" class=""exp-image"">
                    <div class=""question-area"">
                        <p style=""font-size: 20px; font-weight: bold; margin: 0;"">Is there a person in this image?</p>
                    </div>
                </div>","0","main_experiment_trial","8","interview_scheme","schematic_sequence","","","","",""
"","","","","","html-keyboard-response","33","169811","0.0-33.0","0E7E5B21DF7544188397958003572AC3","019cf4fc-6c80-7866-b45f-fdcfa548a9eb","019cf4c8-1de8-79ec-b3bd-d98520647593","","null","
                <div class=""stimulus-container"">
                    <img src=""images/schematic_sequence/interview_scheme/interview_scheme_9.png"" class=""exp-image"">
                    <div class=""question-area""></div> 
                </div>","null","","","","","","","","",""
"","","","","","html-button-response","34","170217","0.0-34.0","0E7E5B21DF7544188397958003572AC3","019cf4fc-6c80-7866-b45f-fdcfa548a9eb","019cf4c8-1de8-79ec-b3bd-d98520647593","","404","
                <div class=""stimulus-container"">
                    <img src=""images/schematic_sequence/interview_scheme/interview_scheme_9.png"" class=""exp-image"">
                    <div class=""question-area"">
                        <p style=""font-size: 20px; font-weight: bold; margin: 0;"">Is there a person in this image?</p>
                    </div>
                </div>","0","main_experiment_trial","9","interview_scheme","schematic_sequence","","","","",""
"","","","","","html-keyboard-response","35","175232","0.0-35.0","0E7E5B21DF7544188397958003572AC3","019cf4fc-6c80-7866-b45f-fdcfa548a9eb","019cf4c8-1de8-79ec-b3bd-d98520647593","","null","
                <div class=""stimulus-container"">
                    <img src=""images/schematic_sequence/interview_scheme/interview_scheme_ten.png"" class=""exp-image"">
                    <div class=""question-area""></div> 
                </div>","null","","","","","","","","",""
"","","","","","html-button-response","36","175788","0.0-36.0","0E7E5B21DF7544188397958003572AC3","019cf4fc-6c80-7866-b45f-fdcfa548a9eb","019cf4c8-1de8-79ec-b3bd-d98520647593","","555","
                <div class=""stimulus-container"">
                    <img src=""images/schematic_sequence/interview_scheme/interview_scheme_ten.png"" class=""exp-image"">
                    <div class=""question-area"">
                        <p style=""font-size: 20px; font-weight: bold; margin: 0;"">Is there a person in this image?</p>
                    </div>
                </div>","0","main_experiment_trial","ten","interview_scheme","schematic_sequence","","","","",""
"","","","","","html-keyboard-response","37","176795","0.0-37.0","0E7E5B21DF7544188397958003572AC3","019cf4fc-6c80-7866-b45f-fdcfa548a9eb","019cf4c8-1de8-79ec-b3bd-d98520647593","","null","<div style=""background-color: white; width: 100vw; height: 100vh;""></div>","null","","","","","","","","",""
"","","","","","html-keyboard-response","38","181808","0.0-38.0","0E7E5B21DF7544188397958003572AC3","019cf4fc-6c80-7866-b45f-fdcfa548a9eb","019cf4c8-1de8-79ec-b3bd-d98520647593","","null","
                <div class=""stimulus-container"">
                    <img src=""images/schematic_sequence/flight_scheme/flight_scheme_1.png"" class=""exp-image"">
                    <div class=""question-area""></div> 
                </div>","null","","","","","","","","",""
"","","","","","html-button-response","39","182278","0.0-39.0","0E7E5B21DF7544188397958003572AC3","019cf4fc-6c80-7866-b45f-fdcfa548a9eb","019cf4c8-1de8-79ec-b3bd-d98520647593","","469","
                <div class=""stimulus-container"">
                    <img src=""images/schematic_sequence/flight_scheme/flight_scheme_1.png"" class=""exp-image"">
                    <div class=""question-area"">
                        <p style=""font-size: 20px; font-weight: bold; margin: 0;"">Is there a person in this image?</p>
                    </div>
                </div>","0","main_experiment_trial","1","flight_scheme","schematic_sequence","","","","",""
"","","","","","html-keyboard-response","40","187293","0.0-40.0","0E7E5B21DF7544188397958003572AC3","019cf4fc-6c80-7866-b45f-fdcfa548a9eb","019cf4c8-1de8-79ec-b3bd-d98520647593","","null","
                <div class=""stimulus-container"">
                    <img src=""images/schematic_sequence/flight_scheme/flight_scheme_2.png"" class=""exp-image"">
                    <div class=""question-area""></div> 
                </div>","null","","","","","","","","",""
"","","","","","html-button-response","41","188025","0.0-41.0","0E7E5B21DF7544188397958003572AC3","019cf4fc-6c80-7866-b45f-fdcfa548a9eb","019cf4c8-1de8-79ec-b3bd-d98520647593","","730","
                <div class=""stimulus-container"">
                    <img src=""images/schematic_sequence/flight_scheme/flight_scheme_2.png"" class=""exp-image"">
                    <div class=""question-area"">
                        <p style=""font-size: 20px; font-weight: bold; margin: 0;"">Is there a person in this image?</p>
                    </div>
                </div>","1","main_experiment_trial","2","flight_scheme","schematic_sequence","","","","",""
"","","","","","html-keyboard-response","42","193041","0.0-42.0","0E7E5B21DF7544188397958003572AC3","019cf4fc-6c80-7866-b45f-fdcfa548a9eb","019cf4c8-1de8-79ec-b3bd-d98520647593","","null","
                <div class=""stimulus-container"">
                    <img src=""images/schematic_sequence/flight_scheme/flight_scheme_3.png"" class=""exp-image"">
                    <div class=""question-area""></div> 
                </div>","null","","","","","","","","",""
"","","","","","html-button-response","43","194074","0.0-43.0","0E7E5B21DF7544188397958003572AC3","019cf4fc-6c80-7866-b45f-fdcfa548a9eb","019cf4c8-1de8-79ec-b3bd-d98520647593","","1031","
                <div class=""stimulus-container"">
                    <img src=""images/schematic_sequence/flight_scheme/flight_scheme_3.png"" class=""exp-image"">
                    <div class=""question-area"">
                        <p style=""font-size: 20px; font-weight: bold; margin: 0;"">Is there a person in this image?</p>
                    </div>
                </div>","0","main_experiment_trial","3","flight_scheme","schematic_sequence","","","","",""
"","","","","","html-keyboard-response","44","199075","0.0-44.0","0E7E5B21DF7544188397958003572AC3","019cf4fc-6c80-7866-b45f-fdcfa548a9eb","019cf4c8-1de8-79ec-b3bd-d98520647593","","null","
                <div class=""stimulus-container"">
                    <img src=""images/schematic_sequence/flight_scheme/flight_scheme_4.png"" class=""exp-image"">
                    <div class=""question-area""></div> 
                </div>","null","","","","","","","","",""
"","","","","","html-button-response","45","199938","0.0-45.0","0E7E5B21DF7544188397958003572AC3","019cf4fc-6c80-7866-b45f-fdcfa548a9eb","019cf4c8-1de8-79ec-b3bd-d98520647593","","862","
                <div class=""stimulus-container"">
                    <img src=""images/schematic_sequence/flight_scheme/flight_scheme_4.png"" class=""exp-image"">
                    <div class=""question-area"">
                        <p style=""font-size: 20px; font-weight: bold; margin: 0;"">Is there a person in this image?</p>
                    </div>
                </div>","0","main_experiment_trial","4","flight_scheme","schematic_sequence","","","","",""
"","","","","","html-keyboard-response","46","204951","0.0-46.0","0E7E5B21DF7544188397958003572AC3","019cf4fc-6c80-7866-b45f-fdcfa548a9eb","019cf4c8-1de8-79ec-b3bd-d98520647593","","null","
                <div class=""stimulus-container"">
                    <img src=""images/schematic_sequence/flight_scheme/flight_scheme_5.png"" class=""exp-image"">
                    <div class=""question-area""></div> 
                </div>","null","","","","","","","","",""
"","","","","","html-button-response","47","205754","0.0-47.0","0E7E5B21DF7544188397958003572AC3","019cf4fc-6c80-7866-b45f-fdcfa548a9eb","019cf4c8-1de8-79ec-b3bd-d98520647593","","802","
                <div class=""stimulus-container"">
                    <img src=""images/schematic_sequence/flight_scheme/flight_scheme_5.png"" class=""exp-image"">
                    <div class=""question-area"">
                        <p style=""font-size: 20px; font-weight: bold; margin: 0;"">Is there a person in this image?</p>
                    </div>
                </div>","0","main_experiment_trial","5","flight_scheme","schematic_sequence","","","","",""
"","","","","","html-keyboard-response","48","210761","0.0-48.0","0E7E5B21DF7544188397958003572AC3","019cf4fc-6c80-7866-b45f-fdcfa548a9eb","019cf4c8-1de8-79ec-b3bd-d98520647593","","null","
                <div class=""stimulus-container"">
                    <img src=""images/schematic_sequence/flight_scheme/flight_scheme_6.png"" class=""exp-image"">
                    <div class=""question-area""></div> 
                </div>","null","","","","","","","","",""
"","","","","","html-button-response","49","212482","0.0-49.0","0E7E5B21DF7544188397958003572AC3","019cf4fc-6c80-7866-b45f-fdcfa548a9eb","019cf4c8-1de8-79ec-b3bd-d98520647593","","1720","
                <div class=""stimulus-container"">
                    <img src=""images/schematic_sequence/flight_scheme/flight_scheme_6.png"" class=""exp-image"">
                    <div class=""question-area"">
                        <p style=""font-size: 20px; font-weight: bold; margin: 0;"">Is there a person in this image?</p>
                    </div>
                </div>","1","main_experiment_trial","6","flight_scheme","schematic_sequence","","","","",""
"","","","","","html-keyboard-response","50","217484","0.0-50.0","0E7E5B21DF7544188397958003572AC3","019cf4fc-6c80-7866-b45f-fdcfa548a9eb","019cf4c8-1de8-79ec-b3bd-d98520647593","","null","
                <div class=""stimulus-container"">
                    <img src=""images/schematic_sequence/flight_scheme/flight_scheme_7.png"" class=""exp-image"">
                    <div class=""question-area""></div> 
                </div>","null","","","","","","","","",""
"","","","","","html-button-response","51","218284","0.0-51.0","0E7E5B21DF7544188397958003572AC3","019cf4fc-6c80-7866-b45f-fdcfa548a9eb","019cf4c8-1de8-79ec-b3bd-d98520647593","","799","
                <div class=""stimulus-container"">
                    <img src=""images/schematic_sequence/flight_scheme/flight_scheme_7.png"" class=""exp-image"">
                    <div class=""question-area"">
                        <p style=""font-size: 20px; font-weight: bold; margin: 0;"">Is there a person in this image?</p>
                    </div>
                </div>","0","main_experiment_trial","7","flight_scheme","schematic_sequence","","","","",""
"","","","","","html-keyboard-response","52","223288","0.0-52.0","0E7E5B21DF7544188397958003572AC3","019cf4fc-6c80-7866-b45f-fdcfa548a9eb","019cf4c8-1de8-79ec-b3bd-d98520647593","","null","
                <div class=""stimulus-container"">
                    <img src=""images/schematic_sequence/flight_scheme/flight_scheme_8.png"" class=""exp-image"">
                    <div class=""question-area""></div> 
                </div>","null","","","","","","","","",""
"","","","","","html-button-response","53","223974","0.0-53.0","0E7E5B21DF7544188397958003572AC3","019cf4fc-6c80-7866-b45f-fdcfa548a9eb","019cf4c8-1de8-79ec-b3bd-d98520647593","","685","
                <div class=""stimulus-container"">
                    <img src=""images/schematic_sequence/flight_scheme/flight_scheme_8.png"" class=""exp-image"">
                    <div class=""question-area"">
                        <p style=""font-size: 20px; font-weight: bold; margin: 0;"">Is there a person in this image?</p>
                    </div>
                </div>","1","main_experiment_trial","8","flight_scheme","schematic_sequence","","","","",""
"","","","","","html-keyboard-response","54","228976","0.0-54.0","0E7E5B21DF7544188397958003572AC3","019cf4fc-6c80-7866-b45f-fdcfa548a9eb","019cf4c8-1de8-79ec-b3bd-d98520647593","","null","
                <div class=""stimulus-container"">
                    <img src=""images/schematic_sequence/flight_scheme/flight_scheme_9.png"" class=""exp-image"">
                    <div class=""question-area""></div> 
                </div>","null","","","","","","","","",""
"","","","","","html-button-response","55","229814","0.0-55.0","0E7E5B21DF7544188397958003572AC3","019cf4fc-6c80-7866-b45f-fdcfa548a9eb","019cf4c8-1de8-79ec-b3bd-d98520647593","","837","
                <div class=""stimulus-container"">
                    <img src=""images/schematic_sequence/flight_scheme/flight_scheme_9.png"" class=""exp-image"">
                    <div class=""question-area"">
                        <p style=""font-size: 20px; font-weight: bold; margin: 0;"">Is there a person in this image?</p>
                    </div>
                </div>","0","main_experiment_trial","9","flight_scheme","schematic_sequence","","","","",""
"","","","","","html-keyboard-response","56","234820","0.0-56.0","0E7E5B21DF7544188397958003572AC3","019cf4fc-6c80-7866-b45f-fdcfa548a9eb","019cf4c8-1de8-79ec-b3bd-d98520647593","","null","
                <div class=""stimulus-container"">
                    <img src=""images/schematic_sequence/flight_scheme/flight_scheme_ten.png"" class=""exp-image"">
                    <div class=""question-area""></div> 
                </div>","null","","","","","","","","",""
"","","","","","html-button-response","57","236542","0.0-57.0","0E7E5B21DF7544188397958003572AC3","019cf4fc-6c80-7866-b45f-fdcfa548a9eb","019cf4c8-1de8-79ec-b3bd-d98520647593","","1720","
                <div class=""stimulus-container"">
                    <img src=""images/schematic_sequence/flight_scheme/flight_scheme_ten.png"" class=""exp-image"">
                    <div class=""question-area"">
                        <p style=""font-size: 20px; font-weight: bold; margin: 0;"">Is there a person in this image?</p>
                    </div>
                </div>","0","main_experiment_trial","ten","flight_scheme","schematic_sequence","","","","",""
"","","","","","html-keyboard-response","58","237544","0.0-58.0","0E7E5B21DF7544188397958003572AC3","019cf4fc-6c80-7866-b45f-fdcfa548a9eb","019cf4c8-1de8-79ec-b3bd-d98520647593","","null","<div style=""background-color: white; width: 100vw; height: 100vh;""></div>","null","","","","","","","","",""
"","","","","","html-keyboard-response","59","242546","0.0-59.0","0E7E5B21DF7544188397958003572AC3","019cf4fc-6c80-7866-b45f-fdcfa548a9eb","019cf4c8-1de8-79ec-b3bd-d98520647593","","null","
                <div class=""stimulus-container"">
                    <img src=""images/schematic_sequence/dinner_party_scheme/dinner_party_scheme_1.png"" class=""exp-image"">
                    <div class=""question-area""></div> 
                </div>","null","","","","","","","","",""
"","","","","","html-button-response","60","243238","0.0-60.0","0E7E5B21DF7544188397958003572AC3","019cf4fc-6c80-7866-b45f-fdcfa548a9eb","019cf4c8-1de8-79ec-b3bd-d98520647593","","692","
                <div class=""stimulus-container"">
                    <img src=""images/schematic_sequence/dinner_party_scheme/dinner_party_scheme_1.png"" class=""exp-image"">
                    <div class=""question-area"">
                        <p style=""font-size: 20px; font-weight: bold; margin: 0;"">Is there a person in this image?</p>
                    </div>
                </div>","0","main_experiment_trial","1","dinner_party_scheme","schematic_sequence","","","","",""
"","","","","","html-keyboard-response","61","248252","0.0-61.0","0E7E5B21DF7544188397958003572AC3","019cf4fc-6c80-7866-b45f-fdcfa548a9eb","019cf4c8-1de8-79ec-b3bd-d98520647593","","null","
                <div class=""stimulus-container"">
                    <img src=""images/schematic_sequence/dinner_party_scheme/dinner_party_scheme_2.png"" class=""exp-image"">
                    <div class=""question-area""></div> 
                </div>","null","","","","","","","","",""
"","","","","","html-button-response","62","248790","0.0-62.0","0E7E5B21DF7544188397958003572AC3","019cf4fc-6c80-7866-b45f-fdcfa548a9eb","019cf4c8-1de8-79ec-b3bd-d98520647593","","537","
                <div class=""stimulus-container"">
                    <img src=""images/schematic_sequence/dinner_party_scheme/dinner_party_scheme_2.png"" class=""exp-image"">
                    <div class=""question-area"">
                        <p style=""font-size: 20px; font-weight: bold; margin: 0;"">Is there a person in this image?</p>
                    </div>
                </div>","0","main_experiment_trial","2","dinner_party_scheme","schematic_sequence","","","","",""
"","","","","","html-keyboard-response","63","253798","0.0-63.0","0E7E5B21DF7544188397958003572AC3","019cf4fc-6c80-7866-b45f-fdcfa548a9eb","019cf4c8-1de8-79ec-b3bd-d98520647593","","null","
                <div class=""stimulus-container"">
                    <img src=""images/schematic_sequence/dinner_party_scheme/dinner_party_scheme_3.png"" class=""exp-image"">
                    <div class=""question-area""></div> 
                </div>","null","","","","","","","","",""
"","","","","","html-button-response","64","254254","0.0-64.0","0E7E5B21DF7544188397958003572AC3","019cf4fc-6c80-7866-b45f-fdcfa548a9eb","019cf4c8-1de8-79ec-b3bd-d98520647593","","455","
                <div class=""stimulus-container"">
                    <img src=""images/schematic_sequence/dinner_party_scheme/dinner_party_scheme_3.png"" class=""exp-image"">
                    <div class=""question-area"">
                        <p style=""font-size: 20px; font-weight: bold; margin: 0;"">Is there a person in this image?</p>
                    </div>
                </div>","0","main_experiment_trial","3","dinner_party_scheme","schematic_sequence","","","","",""
"","","","","","html-keyboard-response","65","259259","0.0-65.0","0E7E5B21DF7544188397958003572AC3","019cf4fc-6c80-7866-b45f-fdcfa548a9eb","019cf4c8-1de8-79ec-b3bd-d98520647593","","null","
                <div class=""stimulus-container"">
                    <img src=""images/schematic_sequence/dinner_party_scheme/dinner_party_scheme_4.png"" class=""exp-image"">
                    <div class=""question-area""></div> 
                </div>","null","","","","","","","","",""
"","","","","","html-button-response","66","259729","0.0-66.0","0E7E5B21DF7544188397958003572AC3","019cf4fc-6c80-7866-b45f-fdcfa548a9eb","019cf4c8-1de8-79ec-b3bd-d98520647593","","469","
                <div class=""stimulus-container"">
                    <img src=""images/schematic_sequence/dinner_party_scheme/dinner_party_scheme_4.png"" class=""exp-image"">
                    <div class=""question-area"">
                        <p style=""font-size: 20px; font-weight: bold; margin: 0;"">Is there a person in this image?</p>
                    </div>
                </div>","0","main_experiment_trial","4","dinner_party_scheme","schematic_sequence","","","","",""
"","","","","","html-keyboard-response","67","264731","0.0-67.0","0E7E5B21DF7544188397958003572AC3","019cf4fc-6c80-7866-b45f-fdcfa548a9eb","019cf4c8-1de8-79ec-b3bd-d98520647593","","null","
                <div class=""stimulus-container"">
                    <img src=""images/schematic_sequence/dinner_party_scheme/dinner_party_scheme_5.png"" class=""exp-image"">
                    <div class=""question-area""></div> 
                </div>","null","","","","","","","","",""
"","","","","","html-button-response","68","265232","0.0-68.0","0E7E5B21DF7544188397958003572AC3","019cf4fc-6c80-7866-b45f-fdcfa548a9eb","019cf4c8-1de8-79ec-b3bd-d98520647593","","500","
                <div class=""stimulus-container"">
                    <img src=""images/schematic_sequence/dinner_party_scheme/dinner_party_scheme_5.png"" class=""exp-image"">
                    <div class=""question-area"">
                        <p style=""font-size: 20px; font-weight: bold; margin: 0;"">Is there a person in this image?</p>
                    </div>
                </div>","0","main_experiment_trial","5","dinner_party_scheme","schematic_sequence","","","","",""
"","","","","","html-keyboard-response","69","270244","0.0-69.0","0E7E5B21DF7544188397958003572AC3","019cf4fc-6c80-7866-b45f-fdcfa548a9eb","019cf4c8-1de8-79ec-b3bd-d98520647593","","null","
                <div class=""stimulus-container"">
                    <img src=""images/schematic_sequence/dinner_party_scheme/dinner_party_scheme_6.png"" class=""exp-image"">
                    <div class=""question-area""></div> 
                </div>","null","","","","","","","","",""
"","","","","","html-button-response","70","270921","0.0-70.0","0E7E5B21DF7544188397958003572AC3","019cf4fc-6c80-7866-b45f-fdcfa548a9eb","019cf4c8-1de8-79ec-b3bd-d98520647593","","675","
                <div class=""stimulus-container"">
                    <img src=""images/schematic_sequence/dinner_party_scheme/dinner_party_scheme_6.png"" class=""exp-image"">
                    <div class=""question-area"">
                        <p style=""font-size: 20px; font-weight: bold; margin: 0;"">Is there a person in this image?</p>
                    </div>
                </div>","0","main_experiment_trial","6","dinner_party_scheme","schematic_sequence","","","","",""
"","","","","","html-keyboard-response","71","275934","0.0-71.0","0E7E5B21DF7544188397958003572AC3","019cf4fc-6c80-7866-b45f-fdcfa548a9eb","019cf4c8-1de8-79ec-b3bd-d98520647593","","null","
                <div class=""stimulus-container"">
                    <img src=""images/schematic_sequence/dinner_party_scheme/dinner_party_scheme_7.png"" class=""exp-image"">
                    <div class=""question-area""></div> 
                </div>","null","","","","","","","","",""
"","","","","","html-button-response","72","276846","0.0-72.0","0E7E5B21DF7544188397958003572AC3","019cf4fc-6c80-7866-b45f-fdcfa548a9eb","019cf4c8-1de8-79ec-b3bd-d98520647593","","911","
                <div class=""stimulus-container"">
                    <img src=""images/schematic_sequence/dinner_party_scheme/dinner_party_scheme_7.png"" class=""exp-image"">
                    <div class=""question-area"">
                        <p style=""font-size: 20px; font-weight: bold; margin: 0;"">Is there a person in this image?</p>
                    </div>
                </div>","0","main_experiment_trial","7","dinner_party_scheme","schematic_sequence","","","","",""
"","","","","","html-keyboard-response","73","281849","0.0-73.0","0E7E5B21DF7544188397958003572AC3","019cf4fc-6c80-7866-b45f-fdcfa548a9eb","019cf4c8-1de8-79ec-b3bd-d98520647593","","null","
                <div class=""stimulus-container"">
                    <img src=""images/schematic_sequence/dinner_party_scheme/dinner_party_scheme_8.png"" class=""exp-image"">
                    <div class=""question-area""></div> 
                </div>","null","","","","","","","","",""
"","","","","","html-button-response","74","282289","0.0-74.0","0E7E5B21DF7544188397958003572AC3","019cf4fc-6c80-7866-b45f-fdcfa548a9eb","019cf4c8-1de8-79ec-b3bd-d98520647593","","438","
                <div class=""stimulus-container"">
                    <img src=""images/schematic_sequence/dinner_party_scheme/dinner_party_scheme_8.png"" class=""exp-image"">
                    <div class=""question-area"">
                        <p style=""font-size: 20px; font-weight: bold; margin: 0;"">Is there a person in this image?</p>
                    </div>
                </div>","0","main_experiment_trial","8","dinner_party_scheme","schematic_sequence","","","","",""
"","","","","","html-keyboard-response","75","287295","0.0-75.0","0E7E5B21DF7544188397958003572AC3","019cf4fc-6c80-7866-b45f-fdcfa548a9eb","019cf4c8-1de8-79ec-b3bd-d98520647593","","null","
                <div class=""stimulus-container"">
                    <img src=""images/schematic_sequence/dinner_party_scheme/dinner_party_scheme_9.png"" class=""exp-image"">
                    <div class=""question-area""></div> 
                </div>","null","","","","","","","","",""
"","","","","","html-button-response","76","287737","0.0-76.0","0E7E5B21DF7544188397958003572AC3","019cf4fc-6c80-7866-b45f-fdcfa548a9eb","019cf4c8-1de8-79ec-b3bd-d98520647593","","441","
                <div class=""stimulus-container"">
                    <img src=""images/schematic_sequence/dinner_party_scheme/dinner_party_scheme_9.png"" class=""exp-image"">
                    <div class=""question-area"">
                        <p style=""font-size: 20px; font-weight: bold; margin: 0;"">Is there a person in this image?</p>
                    </div>
                </div>","0","main_experiment_trial","9","dinner_party_scheme","schematic_sequence","","","","",""
"","","","","","html-keyboard-response","77","292748","0.0-77.0","0E7E5B21DF7544188397958003572AC3","019cf4fc-6c80-7866-b45f-fdcfa548a9eb","019cf4c8-1de8-79ec-b3bd-d98520647593","","null","
                <div class=""stimulus-container"">
                    <img src=""images/schematic_sequence/dinner_party_scheme/dinner_party_scheme_ten.png"" class=""exp-image"">
                    <div class=""question-area""></div> 
                </div>","null","","","","","","","","",""
"","","","","","html-button-response","78","293194","0.0-78.0","0E7E5B21DF7544188397958003572AC3","019cf4fc-6c80-7866-b45f-fdcfa548a9eb","019cf4c8-1de8-79ec-b3bd-d98520647593","","445","
                <div class=""stimulus-container"">
                    <img src=""images/schematic_sequence/dinner_party_scheme/dinner_party_scheme_ten.png"" class=""exp-image"">
                    <div class=""question-area"">
                        <p style=""font-size: 20px; font-weight: bold; margin: 0;"">Is there a person in this image?</p>
                    </div>
                </div>","0","main_experiment_trial","ten","dinner_party_scheme","schematic_sequence","","","","",""
"","","","","","html-keyboard-response","79","294211","0.0-79.0","0E7E5B21DF7544188397958003572AC3","019cf4fc-6c80-7866-b45f-fdcfa548a9eb","019cf4c8-1de8-79ec-b3bd-d98520647593","","null","<div style=""background-color: white; width: 100vw; height: 100vh;""></div>","null","","","","","","","","",""
"","","","","","html-keyboard-response","80","299218","0.0-80.0","0E7E5B21DF7544188397958003572AC3","019cf4fc-6c80-7866-b45f-fdcfa548a9eb","019cf4c8-1de8-79ec-b3bd-d98520647593","","null","
                <div class=""stimulus-container"">
                    <img src=""images/schematic_sequence/hotel_scheme/hotel_scheme_1.png"" class=""exp-image"">
                    <div class=""question-area""></div> 
                </div>","null","","","","","","","","",""
"","","","","","html-button-response","81","300156","0.0-81.0","0E7E5B21DF7544188397958003572AC3","019cf4fc-6c80-7866-b45f-fdcfa548a9eb","019cf4c8-1de8-79ec-b3bd-d98520647593","","937","
                <div class=""stimulus-container"">
                    <img src=""images/schematic_sequence/hotel_scheme/hotel_scheme_1.png"" class=""exp-image"">
                    <div class=""question-area"">
                        <p style=""font-size: 20px; font-weight: bold; margin: 0;"">Is there a person in this image?</p>
                    </div>
                </div>","1","main_experiment_trial","1","hotel_scheme","schematic_sequence","","","","",""
"","","","","","html-keyboard-response","82","305170","0.0-82.0","0E7E5B21DF7544188397958003572AC3","019cf4fc-6c80-7866-b45f-fdcfa548a9eb","019cf4c8-1de8-79ec-b3bd-d98520647593","","null","
                <div class=""stimulus-container"">
                    <img src=""images/schematic_sequence/hotel_scheme/hotel_scheme_2.png"" class=""exp-image"">
                    <div class=""question-area""></div> 
                </div>","null","","","","","","","","",""
"","","","","","html-button-response","83","308178","0.0-83.0","0E7E5B21DF7544188397958003572AC3","019cf4fc-6c80-7866-b45f-fdcfa548a9eb","019cf4c8-1de8-79ec-b3bd-d98520647593","","null","
                <div class=""stimulus-container"">
                    <img src=""images/schematic_sequence/hotel_scheme/hotel_scheme_2.png"" class=""exp-image"">
                    <div class=""question-area"">
                        <p style=""font-size: 20px; font-weight: bold; margin: 0;"">Is there a person in this image?</p>
                    </div>
                </div>","null","main_experiment_trial","2","hotel_scheme","schematic_sequence","","","","",""
"","","","","","html-keyboard-response","84","313187","0.0-84.0","0E7E5B21DF7544188397958003572AC3","019cf4fc-6c80-7866-b45f-fdcfa548a9eb","019cf4c8-1de8-79ec-b3bd-d98520647593","","null","
                <div class=""stimulus-container"">
                    <img src=""images/schematic_sequence/hotel_scheme/hotel_scheme_3.png"" class=""exp-image"">
                    <div class=""question-area""></div> 
                </div>","null","","","","","","","","",""
"","","","","","html-button-response","85","313822","0.0-85.0","0E7E5B21DF7544188397958003572AC3","019cf4fc-6c80-7866-b45f-fdcfa548a9eb","019cf4c8-1de8-79ec-b3bd-d98520647593","","634","
                <div class=""stimulus-container"">
                    <img src=""images/schematic_sequence/hotel_scheme/hotel_scheme_3.png"" class=""exp-image"">
                    <div class=""question-area"">
                        <p style=""font-size: 20px; font-weight: bold; margin: 0;"">Is there a person in this image?</p>
                    </div>
                </div>","0","main_experiment_trial","3","hotel_scheme","schematic_sequence","","","","",""
"","","","","","html-keyboard-response","86","318823","0.0-86.0","0E7E5B21DF7544188397958003572AC3","019cf4fc-6c80-7866-b45f-fdcfa548a9eb","019cf4c8-1de8-79ec-b3bd-d98520647593","","null","
                <div class=""stimulus-container"">
                    <img src=""images/schematic_sequence/hotel_scheme/hotel_scheme_4.png"" class=""exp-image"">
                    <div class=""question-area""></div> 
                </div>","null","","","","","","","","",""
"","","","","","html-button-response","87","319340","0.0-87.0","0E7E5B21DF7544188397958003572AC3","019cf4fc-6c80-7866-b45f-fdcfa548a9eb","019cf4c8-1de8-79ec-b3bd-d98520647593","","516","
                <div class=""stimulus-container"">
                    <img src=""images/schematic_sequence/hotel_scheme/hotel_scheme_4.png"" class=""exp-image"">
                    <div class=""question-area"">
                        <p style=""font-size: 20px; font-weight: bold; margin: 0;"">Is there a person in this image?</p>
                    </div>
                </div>","1","main_experiment_trial","4","hotel_scheme","schematic_sequence","","","","",""
"","","","","","html-keyboard-response","88","324355","0.0-88.0","0E7E5B21DF7544188397958003572AC3","019cf4fc-6c80-7866-b45f-fdcfa548a9eb","019cf4c8-1de8-79ec-b3bd-d98520647593","","null","
                <div class=""stimulus-container"">
                    <img src=""images/schematic_sequence/hotel_scheme/hotel_scheme_5.png"" class=""exp-image"">
                    <div class=""question-area""></div> 
                </div>","null","","","","","","","","",""
"","","","","","html-button-response","89","325047","0.0-89.0","0E7E5B21DF7544188397958003572AC3","019cf4fc-6c80-7866-b45f-fdcfa548a9eb","019cf4c8-1de8-79ec-b3bd-d98520647593","","692","
                <div class=""stimulus-container"">
                    <img src=""images/schematic_sequence/hotel_scheme/hotel_scheme_5.png"" class=""exp-image"">
                    <div class=""question-area"">
                        <p style=""font-size: 20px; font-weight: bold; margin: 0;"">Is there a person in this image?</p>
                    </div>
                </div>","0","main_experiment_trial","5","hotel_scheme","schematic_sequence","","","","",""
"","","","","","html-keyboard-response","90","330049","0.0-90.0","0E7E5B21DF7544188397958003572AC3","019cf4fc-6c80-7866-b45f-fdcfa548a9eb","019cf4c8-1de8-79ec-b3bd-d98520647593","","null","
                <div class=""stimulus-container"">
                    <img src=""images/schematic_sequence/hotel_scheme/hotel_scheme_6.png"" class=""exp-image"">
                    <div class=""question-area""></div> 
                </div>","null","","","","","","","","",""
"","","","","","html-button-response","91","331206","0.0-91.0","0E7E5B21DF7544188397958003572AC3","019cf4fc-6c80-7866-b45f-fdcfa548a9eb","019cf4c8-1de8-79ec-b3bd-d98520647593","","1156","
                <div class=""stimulus-container"">
                    <img src=""images/schematic_sequence/hotel_scheme/hotel_scheme_6.png"" class=""exp-image"">
                    <div class=""question-area"">
                        <p style=""font-size: 20px; font-weight: bold; margin: 0;"">Is there a person in this image?</p>
                    </div>
                </div>","0","main_experiment_trial","6","hotel_scheme","schematic_sequence","","","","",""
"","","","","","html-keyboard-response","92","336213","0.0-92.0","0E7E5B21DF7544188397958003572AC3","019cf4fc-6c80-7866-b45f-fdcfa548a9eb","019cf4c8-1de8-79ec-b3bd-d98520647593","","null","
                <div class=""stimulus-container"">
                    <img src=""images/schematic_sequence/hotel_scheme/hotel_scheme_7.png"" class=""exp-image"">
                    <div class=""question-area""></div> 
                </div>","null","","","","","","","","",""
"","","","","","html-button-response","93","336624","0.0-93.0","0E7E5B21DF7544188397958003572AC3","019cf4fc-6c80-7866-b45f-fdcfa548a9eb","019cf4c8-1de8-79ec-b3bd-d98520647593","","410","
                <div class=""stimulus-container"">
                    <img src=""images/schematic_sequence/hotel_scheme/hotel_scheme_7.png"" class=""exp-image"">
                    <div class=""question-area"">
                        <p style=""font-size: 20px; font-weight: bold; margin: 0;"">Is there a person in this image?</p>
                    </div>
                </div>","0","main_experiment_trial","7","hotel_scheme","schematic_sequence","","","","",""
"","","","","","html-keyboard-response","94","341636","0.0-94.0","0E7E5B21DF7544188397958003572AC3","019cf4fc-6c80-7866-b45f-fdcfa548a9eb","019cf4c8-1de8-79ec-b3bd-d98520647593","","null","
                <div class=""stimulus-container"">
                    <img src=""images/schematic_sequence/hotel_scheme/hotel_scheme_8.png"" class=""exp-image"">
                    <div class=""question-area""></div> 
                </div>","null","","","","","","","","",""
"","","","","","html-button-response","95","342096","0.0-95.0","0E7E5B21DF7544188397958003572AC3","019cf4fc-6c80-7866-b45f-fdcfa548a9eb","019cf4c8-1de8-79ec-b3bd-d98520647593","","459","
                <div class=""stimulus-container"">
                    <img src=""images/schematic_sequence/hotel_scheme/hotel_scheme_8.png"" class=""exp-image"">
                    <div class=""question-area"">
                        <p style=""font-size: 20px; font-weight: bold; margin: 0;"">Is there a person in this image?</p>
                    </div>
                </div>","0","main_experiment_trial","8","hotel_scheme","schematic_sequence","","","","",""
"","","","","","html-keyboard-response","96","347107","0.0-96.0","0E7E5B21DF7544188397958003572AC3","019cf4fc-6c80-7866-b45f-fdcfa548a9eb","019cf4c8-1de8-79ec-b3bd-d98520647593","","null","
                <div class=""stimulus-container"">
                    <img src=""images/schematic_sequence/hotel_scheme/hotel_scheme_9.png"" class=""exp-image"">
                    <div class=""question-area""></div> 
                </div>","null","","","","","","","","",""
"","","","","","html-button-response","97","347938","0.0-97.0","0E7E5B21DF7544188397958003572AC3","019cf4fc-6c80-7866-b45f-fdcfa548a9eb","019cf4c8-1de8-79ec-b3bd-d98520647593","","830","
                <div class=""stimulus-container"">
                    <img src=""images/schematic_sequence/hotel_scheme/hotel_scheme_9.png"" class=""exp-image"">
                    <div class=""question-area"">
                        <p style=""font-size: 20px; font-weight: bold; margin: 0;"">Is there a person in this image?</p>
                    </div>
                </div>","0","main_experiment_trial","9","hotel_scheme","schematic_sequence","","","","",""
"","","","","","html-keyboard-response","98","352952","0.0-98.0","0E7E5B21DF7544188397958003572AC3","019cf4fc-6c80-7866-b45f-fdcfa548a9eb","019cf4c8-1de8-79ec-b3bd-d98520647593","","null","
                <div class=""stimulus-container"">
                    <img src=""images/schematic_sequence/hotel_scheme/hotel_scheme_ten.png"" class=""exp-image"">
                    <div class=""question-area""></div> 
                </div>","null","","","","","","","","",""
"","","","","","html-button-response","99","353954","0.0-99.0","0E7E5B21DF7544188397958003572AC3","019cf4fc-6c80-7866-b45f-fdcfa548a9eb","019cf4c8-1de8-79ec-b3bd-d98520647593","","1000","
                <div class=""stimulus-container"">
                    <img src=""images/schematic_sequence/hotel_scheme/hotel_scheme_ten.png"" class=""exp-image"">
                    <div class=""question-area"">
                        <p style=""font-size: 20px; font-weight: bold; margin: 0;"">Is there a person in this image?</p>
                    </div>
                </div>","0","main_experiment_trial","ten","hotel_scheme","schematic_sequence","","","","",""
"","","","","","html-keyboard-response","100","354967","0.0-100.0","0E7E5B21DF7544188397958003572AC3","019cf4fc-6c80-7866-b45f-fdcfa548a9eb","019cf4c8-1de8-79ec-b3bd-d98520647593","","null","<div style=""background-color: white; width: 100vw; height: 100vh;""></div>","null","","","","","","","","",""
"","","","","","html-keyboard-response","101","359973","0.0-101.0","0E7E5B21DF7544188397958003572AC3","019cf4fc-6c80-7866-b45f-fdcfa548a9eb","019cf4c8-1de8-79ec-b3bd-d98520647593","","null","
                <div class=""stimulus-container"">
                    <img src=""images/causal_sequence/museum_causal/museum_causal_1.png"" class=""exp-image"">
                    <div class=""question-area""></div> 
                </div>","null","","","","","","","","",""
"","","","","","html-button-response","102","360786","0.0-102.0","0E7E5B21DF7544188397958003572AC3","019cf4fc-6c80-7866-b45f-fdcfa548a9eb","019cf4c8-1de8-79ec-b3bd-d98520647593","","811","
                <div class=""stimulus-container"">
                    <img src=""images/causal_sequence/museum_causal/museum_causal_1.png"" class=""exp-image"">
                    <div class=""question-area"">
                        <p style=""font-size: 20px; font-weight: bold; margin: 0;"">Is there a person in this image?</p>
                    </div>
                </div>","0","main_experiment_trial","1","museum_causal","causal_sequence","","","","",""
"","","","","","html-keyboard-response","103","365798","0.0-103.0","0E7E5B21DF7544188397958003572AC3","019cf4fc-6c80-7866-b45f-fdcfa548a9eb","019cf4c8-1de8-79ec-b3bd-d98520647593","","null","
                <div class=""stimulus-container"">
                    <img src=""images/causal_sequence/museum_causal/museum_causal_2.png"" class=""exp-image"">
                    <div class=""question-area""></div> 
                </div>","null","","","","","","","","",""
"","","","","","html-button-response","104","366282","0.0-104.0","0E7E5B21DF7544188397958003572AC3","019cf4fc-6c80-7866-b45f-fdcfa548a9eb","019cf4c8-1de8-79ec-b3bd-d98520647593","","482","
                <div class=""stimulus-container"">
                    <img src=""images/causal_sequence/museum_causal/museum_causal_2.png"" class=""exp-image"">
                    <div class=""question-area"">
                        <p style=""font-size: 20px; font-weight: bold; margin: 0;"">Is there a person in this image?</p>
                    </div>
                </div>","0","main_experiment_trial","2","museum_causal","causal_sequence","","","","",""
"","","","","","html-keyboard-response","105","371289","0.0-105.0","0E7E5B21DF7544188397958003572AC3","019cf4fc-6c80-7866-b45f-fdcfa548a9eb","019cf4c8-1de8-79ec-b3bd-d98520647593","","null","
                <div class=""stimulus-container"">
                    <img src=""images/causal_sequence/museum_causal/museum_causal_3.png"" class=""exp-image"">
                    <div class=""question-area""></div> 
                </div>","null","","","","","","","","",""
"","","","","","html-button-response","106","371780","0.0-106.0","0E7E5B21DF7544188397958003572AC3","019cf4fc-6c80-7866-b45f-fdcfa548a9eb","019cf4c8-1de8-79ec-b3bd-d98520647593","","490","
                <div class=""stimulus-container"">
                    <img src=""images/causal_sequence/museum_causal/museum_causal_3.png"" class=""exp-image"">
                    <div class=""question-area"">
                        <p style=""font-size: 20px; font-weight: bold; margin: 0;"">Is there a person in this image?</p>
                    </div>
                </div>","0","main_experiment_trial","3","museum_causal","causal_sequence","","","","",""
"","","","","","html-keyboard-response","107","376786","0.0-107.0","0E7E5B21DF7544188397958003572AC3","019cf4fc-6c80-7866-b45f-fdcfa548a9eb","019cf4c8-1de8-79ec-b3bd-d98520647593","","null","
                <div class=""stimulus-container"">
                    <img src=""images/causal_sequence/museum_causal/museum_causal_4.png"" class=""exp-image"">
                    <div class=""question-area""></div> 
                </div>","null","","","","","","","","",""
"","","","","","html-button-response","108","377699","0.0-108.0","0E7E5B21DF7544188397958003572AC3","019cf4fc-6c80-7866-b45f-fdcfa548a9eb","019cf4c8-1de8-79ec-b3bd-d98520647593","","911","
                <div class=""stimulus-container"">
                    <img src=""images/causal_sequence/museum_causal/museum_causal_4.png"" class=""exp-image"">
                    <div class=""question-area"">
                        <p style=""font-size: 20px; font-weight: bold; margin: 0;"">Is there a person in this image?</p>
                    </div>
                </div>","1","main_experiment_trial","4","museum_causal","causal_sequence","","","","",""
"","","","","","html-keyboard-response","109","382700","0.0-109.0","0E7E5B21DF7544188397958003572AC3","019cf4fc-6c80-7866-b45f-fdcfa548a9eb","019cf4c8-1de8-79ec-b3bd-d98520647593","","null","
                <div class=""stimulus-container"">
                    <img src=""images/causal_sequence/museum_causal/museum_causal_5.png"" class=""exp-image"">
                    <div class=""question-area""></div> 
                </div>","null","","","","","","","","",""
"","","","","","html-button-response","110","383732","0.0-110.0","0E7E5B21DF7544188397958003572AC3","019cf4fc-6c80-7866-b45f-fdcfa548a9eb","019cf4c8-1de8-79ec-b3bd-d98520647593","","1032","
                <div class=""stimulus-container"">
                    <img src=""images/causal_sequence/museum_causal/museum_causal_5.png"" class=""exp-image"">
                    <div class=""question-area"">
                        <p style=""font-size: 20px; font-weight: bold; margin: 0;"">Is there a person in this image?</p>
                    </div>
                </div>","0","main_experiment_trial","5","museum_causal","causal_sequence","","","","",""
"","","","","","html-keyboard-response","111","388733","0.0-111.0","0E7E5B21DF7544188397958003572AC3","019cf4fc-6c80-7866-b45f-fdcfa548a9eb","019cf4c8-1de8-79ec-b3bd-d98520647593","","null","
                <div class=""stimulus-container"">
                    <img src=""images/causal_sequence/museum_causal/museum_causal_6.png"" class=""exp-image"">
                    <div class=""question-area""></div> 
                </div>","null","","","","","","","","",""
"","","","","","html-button-response","112","389720","0.0-112.0","0E7E5B21DF7544188397958003572AC3","019cf4fc-6c80-7866-b45f-fdcfa548a9eb","019cf4c8-1de8-79ec-b3bd-d98520647593","","986","
                <div class=""stimulus-container"">
                    <img src=""images/causal_sequence/museum_causal/museum_causal_6.png"" class=""exp-image"">
                    <div class=""question-area"">
                        <p style=""font-size: 20px; font-weight: bold; margin: 0;"">Is there a person in this image?</p>
                    </div>
                </div>","0","main_experiment_trial","6","museum_causal","causal_sequence","","","","",""
"","","","","","html-keyboard-response","113","394725","0.0-113.0","0E7E5B21DF7544188397958003572AC3","019cf4fc-6c80-7866-b45f-fdcfa548a9eb","019cf4c8-1de8-79ec-b3bd-d98520647593","","null","
                <div class=""stimulus-container"">
                    <img src=""images/causal_sequence/museum_causal/museum_causal_7.png"" class=""exp-image"">
                    <div class=""question-area""></div> 
                </div>","null","","","","","","","","",""
"","","","","","html-button-response","114","395434","0.0-114.0","0E7E5B21DF7544188397958003572AC3","019cf4fc-6c80-7866-b45f-fdcfa548a9eb","019cf4c8-1de8-79ec-b3bd-d98520647593","","708","
                <div class=""stimulus-container"">
                    <img src=""images/causal_sequence/museum_causal/museum_causal_7.png"" class=""exp-image"">
                    <div class=""question-area"">
                        <p style=""font-size: 20px; font-weight: bold; margin: 0;"">Is there a person in this image?</p>
                    </div>
                </div>","1","main_experiment_trial","7","museum_causal","causal_sequence","","","","",""
"","","","","","html-keyboard-response","115","400435","0.0-115.0","0E7E5B21DF7544188397958003572AC3","019cf4fc-6c80-7866-b45f-fdcfa548a9eb","019cf4c8-1de8-79ec-b3bd-d98520647593","","null","
                <div class=""stimulus-container"">
                    <img src=""images/causal_sequence/museum_causal/museum_causal_8.png"" class=""exp-image"">
                    <div class=""question-area""></div> 
                </div>","null","","","","","","","","",""
"","","","","","html-button-response","116","401188","0.0-116.0","0E7E5B21DF7544188397958003572AC3","019cf4fc-6c80-7866-b45f-fdcfa548a9eb","019cf4c8-1de8-79ec-b3bd-d98520647593","","751","
                <div class=""stimulus-container"">
                    <img src=""images/causal_sequence/museum_causal/museum_causal_8.png"" class=""exp-image"">
                    <div class=""question-area"">
                        <p style=""font-size: 20px; font-weight: bold; margin: 0;"">Is there a person in this image?</p>
                    </div>
                </div>","0","main_experiment_trial","8","museum_causal","causal_sequence","","","","",""
"","","","","","html-keyboard-response","117","406194","0.0-117.0","0E7E5B21DF7544188397958003572AC3","019cf4fc-6c80-7866-b45f-fdcfa548a9eb","019cf4c8-1de8-79ec-b3bd-d98520647593","","null","
                <div class=""stimulus-container"">
                    <img src=""images/causal_sequence/museum_causal/museum_causal_9.png"" class=""exp-image"">
                    <div class=""question-area""></div> 
                </div>","null","","","","","","","","",""
"","","","","","html-button-response","118","407112","0.0-118.0","0E7E5B21DF7544188397958003572AC3","019cf4fc-6c80-7866-b45f-fdcfa548a9eb","019cf4c8-1de8-79ec-b3bd-d98520647593","","918","
                <div class=""stimulus-container"">
                    <img src=""images/causal_sequence/museum_causal/museum_causal_9.png"" class=""exp-image"">
                    <div class=""question-area"">
                        <p style=""font-size: 20px; font-weight: bold; margin: 0;"">Is there a person in this image?</p>
                    </div>
                </div>","1","main_experiment_trial","9","museum_causal","causal_sequence","","","","",""
"","","","","","html-keyboard-response","119","412120","0.0-119.0","0E7E5B21DF7544188397958003572AC3","019cf4fc-6c80-7866-b45f-fdcfa548a9eb","019cf4c8-1de8-79ec-b3bd-d98520647593","","null","
                <div class=""stimulus-container"">
                    <img src=""images/causal_sequence/museum_causal/museum_causal_ten.png"" class=""exp-image"">
                    <div class=""question-area""></div> 
                </div>","null","","","","","","","","",""
"","","","","","html-button-response","120","412804","0.0-120.0","0E7E5B21DF7544188397958003572AC3","019cf4fc-6c80-7866-b45f-fdcfa548a9eb","019cf4c8-1de8-79ec-b3bd-d98520647593","","683","
                <div class=""stimulus-container"">
                    <img src=""images/causal_sequence/museum_causal/museum_causal_ten.png"" class=""exp-image"">
                    <div class=""question-area"">
                        <p style=""font-size: 20px; font-weight: bold; margin: 0;"">Is there a person in this image?</p>
                    </div>
                </div>","0","main_experiment_trial","ten","museum_causal","causal_sequence","","","","",""
"","","","","","html-keyboard-response","121","413811","0.0-121.0","0E7E5B21DF7544188397958003572AC3","019cf4fc-6c80-7866-b45f-fdcfa548a9eb","019cf4c8-1de8-79ec-b3bd-d98520647593","","null","<div style=""background-color: white; width: 100vw; height: 100vh;""></div>","null","","","","","","","","",""
"","","","","","html-keyboard-response","122","418826","0.0-122.0","0E7E5B21DF7544188397958003572AC3","019cf4fc-6c80-7866-b45f-fdcfa548a9eb","019cf4c8-1de8-79ec-b3bd-d98520647593","","null","
                <div class=""stimulus-container"">
                    <img src=""images/schematic_sequence/restaurant_scheme/restaurant_scheme_1.png"" class=""exp-image"">
                    <div class=""question-area""></div> 
                </div>","null","","","","","","","","",""
"","","","","","html-button-response","123","419634","0.0-123.0","0E7E5B21DF7544188397958003572AC3","019cf4fc-6c80-7866-b45f-fdcfa548a9eb","019cf4c8-1de8-79ec-b3bd-d98520647593","","807","
                <div class=""stimulus-container"">
                    <img src=""images/schematic_sequence/restaurant_scheme/restaurant_scheme_1.png"" class=""exp-image"">
                    <div class=""question-area"">
                        <p style=""font-size: 20px; font-weight: bold; margin: 0;"">Is there a person in this image?</p>
                    </div>
                </div>","0","main_experiment_trial","1","restaurant_scheme","schematic_sequence","","","","",""
"","","","","","html-keyboard-response","124","424635","0.0-124.0","0E7E5B21DF7544188397958003572AC3","019cf4fc-6c80-7866-b45f-fdcfa548a9eb","019cf4c8-1de8-79ec-b3bd-d98520647593","","null","
                <div class=""stimulus-container"">
                    <img src=""images/schematic_sequence/restaurant_scheme/restaurant_scheme_2.png"" class=""exp-image"">
                    <div class=""question-area""></div> 
                </div>","null","","","","","","","","",""
"","","","","","html-button-response","125","425801","0.0-125.0","0E7E5B21DF7544188397958003572AC3","019cf4fc-6c80-7866-b45f-fdcfa548a9eb","019cf4c8-1de8-79ec-b3bd-d98520647593","","1165","
                <div class=""stimulus-container"">
                    <img src=""images/schematic_sequence/restaurant_scheme/restaurant_scheme_2.png"" class=""exp-image"">
                    <div class=""question-area"">
                        <p style=""font-size: 20px; font-weight: bold; margin: 0;"">Is there a person in this image?</p>
                    </div>
                </div>","1","main_experiment_trial","2","restaurant_scheme","schematic_sequence","","","","",""
"","","","","","html-keyboard-response","126","430812","0.0-126.0","0E7E5B21DF7544188397958003572AC3","019cf4fc-6c80-7866-b45f-fdcfa548a9eb","019cf4c8-1de8-79ec-b3bd-d98520647593","","null","
                <div class=""stimulus-container"">
                    <img src=""images/schematic_sequence/restaurant_scheme/restaurant_scheme_3.png"" class=""exp-image"">
                    <div class=""question-area""></div> 
                </div>","null","","","","","","","","",""
"","","","","","html-button-response","127","431812","0.0-127.0","0E7E5B21DF7544188397958003572AC3","019cf4fc-6c80-7866-b45f-fdcfa548a9eb","019cf4c8-1de8-79ec-b3bd-d98520647593","","999","
                <div class=""stimulus-container"">
                    <img src=""images/schematic_sequence/restaurant_scheme/restaurant_scheme_3.png"" class=""exp-image"">
                    <div class=""question-area"">
                        <p style=""font-size: 20px; font-weight: bold; margin: 0;"">Is there a person in this image?</p>
                    </div>
                </div>","1","main_experiment_trial","3","restaurant_scheme","schematic_sequence","","","","",""
"","","","","","html-keyboard-response","128","436816","0.0-128.0","0E7E5B21DF7544188397958003572AC3","019cf4fc-6c80-7866-b45f-fdcfa548a9eb","019cf4c8-1de8-79ec-b3bd-d98520647593","","null","
                <div class=""stimulus-container"">
                    <img src=""images/schematic_sequence/restaurant_scheme/restaurant_scheme_4.png"" class=""exp-image"">
                    <div class=""question-area""></div> 
                </div>","null","","","","","","","","",""
"","","","","","html-button-response","129","438057","0.0-129.0","0E7E5B21DF7544188397958003572AC3","019cf4fc-6c80-7866-b45f-fdcfa548a9eb","019cf4c8-1de8-79ec-b3bd-d98520647593","","1240","
                <div class=""stimulus-container"">
                    <img src=""images/schematic_sequence/restaurant_scheme/restaurant_scheme_4.png"" class=""exp-image"">
                    <div class=""question-area"">
                        <p style=""font-size: 20px; font-weight: bold; margin: 0;"">Is there a person in this image?</p>
                    </div>
                </div>","0","main_experiment_trial","4","restaurant_scheme","schematic_sequence","","","","",""
"","","","","","html-keyboard-response","130","443072","0.0-130.0","0E7E5B21DF7544188397958003572AC3","019cf4fc-6c80-7866-b45f-fdcfa548a9eb","019cf4c8-1de8-79ec-b3bd-d98520647593","","null","
                <div class=""stimulus-container"">
                    <img src=""images/schematic_sequence/restaurant_scheme/restaurant_scheme_5.png"" class=""exp-image"">
                    <div class=""question-area""></div> 
                </div>","null","","","","","","","","",""
"","","","","","html-button-response","131","444178","0.0-131.0","0E7E5B21DF7544188397958003572AC3","019cf4fc-6c80-7866-b45f-fdcfa548a9eb","019cf4c8-1de8-79ec-b3bd-d98520647593","","1105","
                <div class=""stimulus-container"">
                    <img src=""images/schematic_sequence/restaurant_scheme/restaurant_scheme_5.png"" class=""exp-image"">
                    <div class=""question-area"">
                        <p style=""font-size: 20px; font-weight: bold; margin: 0;"">Is there a person in this image?</p>
                    </div>
                </div>","0","main_experiment_trial","5","restaurant_scheme","schematic_sequence","","","","",""
"","","","","","html-keyboard-response","132","449184","0.0-132.0","0E7E5B21DF7544188397958003572AC3","019cf4fc-6c80-7866-b45f-fdcfa548a9eb","019cf4c8-1de8-79ec-b3bd-d98520647593","","null","
                <div class=""stimulus-container"">
                    <img src=""images/schematic_sequence/restaurant_scheme/restaurant_scheme_6.png"" class=""exp-image"">
                    <div class=""question-area""></div> 
                </div>","null","","","","","","","","",""
"","","","","","html-button-response","133","450127","0.0-133.0","0E7E5B21DF7544188397958003572AC3","019cf4fc-6c80-7866-b45f-fdcfa548a9eb","019cf4c8-1de8-79ec-b3bd-d98520647593","","942","
                <div class=""stimulus-container"">
                    <img src=""images/schematic_sequence/restaurant_scheme/restaurant_scheme_6.png"" class=""exp-image"">
                    <div class=""question-area"">
                        <p style=""font-size: 20px; font-weight: bold; margin: 0;"">Is there a person in this image?</p>
                    </div>
                </div>","1","main_experiment_trial","6","restaurant_scheme","schematic_sequence","","","","",""
"","","","","","html-keyboard-response","134","455134","0.0-134.0","0E7E5B21DF7544188397958003572AC3","019cf4fc-6c80-7866-b45f-fdcfa548a9eb","019cf4c8-1de8-79ec-b3bd-d98520647593","","null","
                <div class=""stimulus-container"">
                    <img src=""images/schematic_sequence/restaurant_scheme/restaurant_scheme_7.png"" class=""exp-image"">
                    <div class=""question-area""></div> 
                </div>","null","","","","","","","","",""
"","","","","","html-button-response","135","456198","0.0-135.0","0E7E5B21DF7544188397958003572AC3","019cf4fc-6c80-7866-b45f-fdcfa548a9eb","019cf4c8-1de8-79ec-b3bd-d98520647593","","1064","
                <div class=""stimulus-container"">
                    <img src=""images/schematic_sequence/restaurant_scheme/restaurant_scheme_7.png"" class=""exp-image"">
                    <div class=""question-area"">
                        <p style=""font-size: 20px; font-weight: bold; margin: 0;"">Is there a person in this image?</p>
                    </div>
                </div>","1","main_experiment_trial","7","restaurant_scheme","schematic_sequence","","","","",""
"","","","","","html-keyboard-response","136","461208","0.0-136.0","0E7E5B21DF7544188397958003572AC3","019cf4fc-6c80-7866-b45f-fdcfa548a9eb","019cf4c8-1de8-79ec-b3bd-d98520647593","","null","
                <div class=""stimulus-container"">
                    <img src=""images/schematic_sequence/restaurant_scheme/restaurant_scheme_8.png"" class=""exp-image"">
                    <div class=""question-area""></div> 
                </div>","null","","","","","","","","",""
"","","","","","html-button-response","137","461890","0.0-137.0","0E7E5B21DF7544188397958003572AC3","019cf4fc-6c80-7866-b45f-fdcfa548a9eb","019cf4c8-1de8-79ec-b3bd-d98520647593","","681","
                <div class=""stimulus-container"">
                    <img src=""images/schematic_sequence/restaurant_scheme/restaurant_scheme_8.png"" class=""exp-image"">
                    <div class=""question-area"">
                        <p style=""font-size: 20px; font-weight: bold; margin: 0;"">Is there a person in this image?</p>
                    </div>
                </div>","0","main_experiment_trial","8","restaurant_scheme","schematic_sequence","","","","",""
"","","","","","html-keyboard-response","138","466894","0.0-138.0","0E7E5B21DF7544188397958003572AC3","019cf4fc-6c80-7866-b45f-fdcfa548a9eb","019cf4c8-1de8-79ec-b3bd-d98520647593","","null","
                <div class=""stimulus-container"">
                    <img src=""images/schematic_sequence/restaurant_scheme/restaurant_scheme_9.png"" class=""exp-image"">
                    <div class=""question-area""></div> 
                </div>","null","","","","","","","","",""
"","","","","","html-button-response","139","468144","0.0-139.0","0E7E5B21DF7544188397958003572AC3","019cf4fc-6c80-7866-b45f-fdcfa548a9eb","019cf4c8-1de8-79ec-b3bd-d98520647593","","1249","
                <div class=""stimulus-container"">
                    <img src=""images/schematic_sequence/restaurant_scheme/restaurant_scheme_9.png"" class=""exp-image"">
                    <div class=""question-area"">
                        <p style=""font-size: 20px; font-weight: bold; margin: 0;"">Is there a person in this image?</p>
                    </div>
                </div>","0","main_experiment_trial","9","restaurant_scheme","schematic_sequence","","","","",""
"","","","","","html-keyboard-response","140","473156","0.0-140.0","0E7E5B21DF7544188397958003572AC3","019cf4fc-6c80-7866-b45f-fdcfa548a9eb","019cf4c8-1de8-79ec-b3bd-d98520647593","","null","
                <div class=""stimulus-container"">
                    <img src=""images/schematic_sequence/restaurant_scheme/restaurant_scheme_ten.png"" class=""exp-image"">
                    <div class=""question-area""></div> 
                </div>","null","","","","","","","","",""
"","","","","","html-button-response","141","474654","0.0-141.0","0E7E5B21DF7544188397958003572AC3","019cf4fc-6c80-7866-b45f-fdcfa548a9eb","019cf4c8-1de8-79ec-b3bd-d98520647593","","1497","
                <div class=""stimulus-container"">
                    <img src=""images/schematic_sequence/restaurant_scheme/restaurant_scheme_ten.png"" class=""exp-image"">
                    <div class=""question-area"">
                        <p style=""font-size: 20px; font-weight: bold; margin: 0;"">Is there a person in this image?</p>
                    </div>
                </div>","0","main_experiment_trial","ten","restaurant_scheme","schematic_sequence","","","","",""
"","","","","","html-keyboard-response","142","475665","0.0-142.0","0E7E5B21DF7544188397958003572AC3","019cf4fc-6c80-7866-b45f-fdcfa548a9eb","019cf4c8-1de8-79ec-b3bd-d98520647593","","null","<div style=""background-color: white; width: 100vw; height: 100vh;""></div>","null","","","","","","","","",""
"","","","","","html-keyboard-response","143","480671","0.0-143.0","0E7E5B21DF7544188397958003572AC3","019cf4fc-6c80-7866-b45f-fdcfa548a9eb","019cf4c8-1de8-79ec-b3bd-d98520647593","","null","
                <div class=""stimulus-container"">
                    <img src=""images/causal_sequence/coin_causal/coin_causal_1.png"" class=""exp-image"">
                    <div class=""question-area""></div> 
                </div>","null","","","","","","","","",""
"","","","","","html-button-response","144","481670","0.0-144.0","0E7E5B21DF7544188397958003572AC3","019cf4fc-6c80-7866-b45f-fdcfa548a9eb","019cf4c8-1de8-79ec-b3bd-d98520647593","","998","
                <div class=""stimulus-container"">
                    <img src=""images/causal_sequence/coin_causal/coin_causal_1.png"" class=""exp-image"">
                    <div class=""question-area"">
                        <p style=""font-size: 20px; font-weight: bold; margin: 0;"">Is there a person in this image?</p>
                    </div>
                </div>","0","main_experiment_trial","1","coin_causal","causal_sequence","","","","",""
"","","","","","html-keyboard-response","145","486677","0.0-145.0","0E7E5B21DF7544188397958003572AC3","019cf4fc-6c80-7866-b45f-fdcfa548a9eb","019cf4c8-1de8-79ec-b3bd-d98520647593","","null","
                <div class=""stimulus-container"">
                    <img src=""images/causal_sequence/coin_causal/coin_causal_2.png"" class=""exp-image"">
                    <div class=""question-area""></div> 
                </div>","null","","","","","","","","",""
"","","","","","html-button-response","146","487558","0.0-146.0","0E7E5B21DF7544188397958003572AC3","019cf4fc-6c80-7866-b45f-fdcfa548a9eb","019cf4c8-1de8-79ec-b3bd-d98520647593","","880","
                <div class=""stimulus-container"">
                    <img src=""images/causal_sequence/coin_causal/coin_causal_2.png"" class=""exp-image"">
                    <div class=""question-area"">
                        <p style=""font-size: 20px; font-weight: bold; margin: 0;"">Is there a person in this image?</p>
                    </div>
                </div>","0","main_experiment_trial","2","coin_causal","causal_sequence","","","","",""
"","","","","","html-keyboard-response","147","492562","0.0-147.0","0E7E5B21DF7544188397958003572AC3","019cf4fc-6c80-7866-b45f-fdcfa548a9eb","019cf4c8-1de8-79ec-b3bd-d98520647593","","null","
                <div class=""stimulus-container"">
                    <img src=""images/causal_sequence/coin_causal/coin_causal_3.png"" class=""exp-image"">
                    <div class=""question-area""></div> 
                </div>","null","","","","","","","","",""
"","","","","","html-button-response","148","493515","0.0-148.0","0E7E5B21DF7544188397958003572AC3","019cf4fc-6c80-7866-b45f-fdcfa548a9eb","019cf4c8-1de8-79ec-b3bd-d98520647593","","951","
                <div class=""stimulus-container"">
                    <img src=""images/causal_sequence/coin_causal/coin_causal_3.png"" class=""exp-image"">
                    <div class=""question-area"">
                        <p style=""font-size: 20px; font-weight: bold; margin: 0;"">Is there a person in this image?</p>
                    </div>
                </div>","0","main_experiment_trial","3","coin_causal","causal_sequence","","","","",""
"","","","","","html-keyboard-response","149","498523","0.0-149.0","0E7E5B21DF7544188397958003572AC3","019cf4fc-6c80-7866-b45f-fdcfa548a9eb","019cf4c8-1de8-79ec-b3bd-d98520647593","","null","
                <div class=""stimulus-container"">
                    <img src=""images/causal_sequence/coin_causal/coin_causal_4.png"" class=""exp-image"">
                    <div class=""question-area""></div> 
                </div>","null","","","","","","","","",""
"","","","","","html-button-response","150","499606","0.0-150.0","0E7E5B21DF7544188397958003572AC3","019cf4fc-6c80-7866-b45f-fdcfa548a9eb","019cf4c8-1de8-79ec-b3bd-d98520647593","","1082","
                <div class=""stimulus-container"">
                    <img src=""images/causal_sequence/coin_causal/coin_causal_4.png"" class=""exp-image"">
                    <div class=""question-area"">
                        <p style=""font-size: 20px; font-weight: bold; margin: 0;"">Is there a person in this image?</p>
                    </div>
                </div>","0","main_experiment_trial","4","coin_causal","causal_sequence","","","","",""
"","","","","","html-keyboard-response","151","504612","0.0-151.0","0E7E5B21DF7544188397958003572AC3","019cf4fc-6c80-7866-b45f-fdcfa548a9eb","019cf4c8-1de8-79ec-b3bd-d98520647593","","null","
                <div class=""stimulus-container"">
                    <img src=""images/causal_sequence/coin_causal/coin_causal_5.png"" class=""exp-image"">
                    <div class=""question-area""></div> 
                </div>","null","","","","","","","","",""
"","","","","","html-button-response","152","505131","0.0-152.0","0E7E5B21DF7544188397958003572AC3","019cf4fc-6c80-7866-b45f-fdcfa548a9eb","019cf4c8-1de8-79ec-b3bd-d98520647593","","517","
                <div class=""stimulus-container"">
                    <img src=""images/causal_sequence/coin_causal/coin_causal_5.png"" class=""exp-image"">
                    <div class=""question-area"">
                        <p style=""font-size: 20px; font-weight: bold; margin: 0;"">Is there a person in this image?</p>
                    </div>
                </div>","0","main_experiment_trial","5","coin_causal","causal_sequence","","","","",""
"","","","","","html-keyboard-response","153","510139","0.0-153.0","0E7E5B21DF7544188397958003572AC3","019cf4fc-6c80-7866-b45f-fdcfa548a9eb","019cf4c8-1de8-79ec-b3bd-d98520647593","","null","
                <div class=""stimulus-container"">
                    <img src=""images/causal_sequence/coin_causal/coin_causal_6.png"" class=""exp-image"">
                    <div class=""question-area""></div> 
                </div>","null","","","","","","","","",""
"","","","","","html-button-response","154","510638","0.0-154.0","0E7E5B21DF7544188397958003572AC3","019cf4fc-6c80-7866-b45f-fdcfa548a9eb","019cf4c8-1de8-79ec-b3bd-d98520647593","","498","
                <div class=""stimulus-container"">
                    <img src=""images/causal_sequence/coin_causal/coin_causal_6.png"" class=""exp-image"">
                    <div class=""question-area"">
                        <p style=""font-size: 20px; font-weight: bold; margin: 0;"">Is there a person in this image?</p>
                    </div>
                </div>","0","main_experiment_trial","6","coin_causal","causal_sequence","","","","",""
"","","","","","html-keyboard-response","155","515651","0.0-155.0","0E7E5B21DF7544188397958003572AC3","019cf4fc-6c80-7866-b45f-fdcfa548a9eb","019cf4c8-1de8-79ec-b3bd-d98520647593","","null","
                <div class=""stimulus-container"">
                    <img src=""images/causal_sequence/coin_causal/coin_causal_7.png"" class=""exp-image"">
                    <div class=""question-area""></div> 
                </div>","null","","","","","","","","",""
"","","","","","html-button-response","156","516571","0.0-156.0","0E7E5B21DF7544188397958003572AC3","019cf4fc-6c80-7866-b45f-fdcfa548a9eb","019cf4c8-1de8-79ec-b3bd-d98520647593","","918","
                <div class=""stimulus-container"">
                    <img src=""images/causal_sequence/coin_causal/coin_causal_7.png"" class=""exp-image"">
                    <div class=""question-area"">
                        <p style=""font-size: 20px; font-weight: bold; margin: 0;"">Is there a person in this image?</p>
                    </div>
                </div>","1","main_experiment_trial","7","coin_causal","causal_sequence","","","","",""
"","","","","","html-keyboard-response","157","521573","0.0-157.0","0E7E5B21DF7544188397958003572AC3","019cf4fc-6c80-7866-b45f-fdcfa548a9eb","019cf4c8-1de8-79ec-b3bd-d98520647593","","null","
                <div class=""stimulus-container"">
                    <img src=""images/causal_sequence/coin_causal/coin_causal_8.png"" class=""exp-image"">
                    <div class=""question-area""></div> 
                </div>","null","","","","","","","","",""
"","","","","","html-button-response","158","522376","0.0-158.0","0E7E5B21DF7544188397958003572AC3","019cf4fc-6c80-7866-b45f-fdcfa548a9eb","019cf4c8-1de8-79ec-b3bd-d98520647593","","802","
                <div class=""stimulus-container"">
                    <img src=""images/causal_sequence/coin_causal/coin_causal_8.png"" class=""exp-image"">
                    <div class=""question-area"">
                        <p style=""font-size: 20px; font-weight: bold; margin: 0;"">Is there a person in this image?</p>
                    </div>
                </div>","0","main_experiment_trial","8","coin_causal","causal_sequence","","","","",""
"","","","","","html-keyboard-response","159","527377","0.0-159.0","0E7E5B21DF7544188397958003572AC3","019cf4fc-6c80-7866-b45f-fdcfa548a9eb","019cf4c8-1de8-79ec-b3bd-d98520647593","","null","
                <div class=""stimulus-container"">
                    <img src=""images/causal_sequence/coin_causal/coin_causal_9.png"" class=""exp-image"">
                    <div class=""question-area""></div> 
                </div>","null","","","","","","","","",""
"","","","","","html-button-response","160","528036","0.0-160.0","0E7E5B21DF7544188397958003572AC3","019cf4fc-6c80-7866-b45f-fdcfa548a9eb","019cf4c8-1de8-79ec-b3bd-d98520647593","","658","
                <div class=""stimulus-container"">
                    <img src=""images/causal_sequence/coin_causal/coin_causal_9.png"" class=""exp-image"">
                    <div class=""question-area"">
                        <p style=""font-size: 20px; font-weight: bold; margin: 0;"">Is there a person in this image?</p>
                    </div>
                </div>","0","main_experiment_trial","9","coin_causal","causal_sequence","","","","",""
"","","","","","html-keyboard-response","161","533039","0.0-161.0","0E7E5B21DF7544188397958003572AC3","019cf4fc-6c80-7866-b45f-fdcfa548a9eb","019cf4c8-1de8-79ec-b3bd-d98520647593","","null","
                <div class=""stimulus-container"">
                    <img src=""images/causal_sequence/coin_causal/coin_causal_ten.png"" class=""exp-image"">
                    <div class=""question-area""></div> 
                </div>","null","","","","","","","","",""
"","","","","","html-button-response","162","533688","0.0-162.0","0E7E5B21DF7544188397958003572AC3","019cf4fc-6c80-7866-b45f-fdcfa548a9eb","019cf4c8-1de8-79ec-b3bd-d98520647593","","649","
                <div class=""stimulus-container"">
                    <img src=""images/causal_sequence/coin_causal/coin_causal_ten.png"" class=""exp-image"">
                    <div class=""question-area"">
                        <p style=""font-size: 20px; font-weight: bold; margin: 0;"">Is there a person in this image?</p>
                    </div>
                </div>","0","main_experiment_trial","ten","coin_causal","causal_sequence","","","","",""
"","","","","","html-keyboard-response","163","534689","0.0-163.0","0E7E5B21DF7544188397958003572AC3","019cf4fc-6c80-7866-b45f-fdcfa548a9eb","019cf4c8-1de8-79ec-b3bd-d98520647593","","null","<div style=""background-color: white; width: 100vw; height: 100vh;""></div>","null","","","","","","","","",""
"","","","","","html-keyboard-response","164","539699","0.0-164.0","0E7E5B21DF7544188397958003572AC3","019cf4fc-6c80-7866-b45f-fdcfa548a9eb","019cf4c8-1de8-79ec-b3bd-d98520647593","","null","
                <div class=""stimulus-container"">
                    <img src=""images/causal_sequence/dog_causal/dog_causal_1.png"" class=""exp-image"">
                    <div class=""question-area""></div> 
                </div>","null","","","","","","","","",""
"","","","","","html-button-response","165","540394","0.0-165.0","0E7E5B21DF7544188397958003572AC3","019cf4fc-6c80-7866-b45f-fdcfa548a9eb","019cf4c8-1de8-79ec-b3bd-d98520647593","","694","
                <div class=""stimulus-container"">
                    <img src=""images/causal_sequence/dog_causal/dog_causal_1.png"" class=""exp-image"">
                    <div class=""question-area"">
                        <p style=""font-size: 20px; font-weight: bold; margin: 0;"">Is there a person in this image?</p>
                    </div>
                </div>","0","main_experiment_trial","1","dog_causal","causal_sequence","","","","",""
"","","","","","html-keyboard-response","166","545399","0.0-166.0","0E7E5B21DF7544188397958003572AC3","019cf4fc-6c80-7866-b45f-fdcfa548a9eb","019cf4c8-1de8-79ec-b3bd-d98520647593","","null","
                <div class=""stimulus-container"">
                    <img src=""images/causal_sequence/dog_causal/dog_causal_2.png"" class=""exp-image"">
                    <div class=""question-area""></div> 
                </div>","null","","","","","","","","",""
"","","","","","html-button-response","167","546288","0.0-167.0","0E7E5B21DF7544188397958003572AC3","019cf4fc-6c80-7866-b45f-fdcfa548a9eb","019cf4c8-1de8-79ec-b3bd-d98520647593","","888","
                <div class=""stimulus-container"">
                    <img src=""images/causal_sequence/dog_causal/dog_causal_2.png"" class=""exp-image"">
                    <div class=""question-area"">
                        <p style=""font-size: 20px; font-weight: bold; margin: 0;"">Is there a person in this image?</p>
                    </div>
                </div>","0","main_experiment_trial","2","dog_causal","causal_sequence","","","","",""
"","","","","","html-keyboard-response","168","551289","0.0-168.0","0E7E5B21DF7544188397958003572AC3","019cf4fc-6c80-7866-b45f-fdcfa548a9eb","019cf4c8-1de8-79ec-b3bd-d98520647593","","null","
                <div class=""stimulus-container"">
                    <img src=""images/causal_sequence/dog_causal/dog_causal_3.png"" class=""exp-image"">
                    <div class=""question-area""></div> 
                </div>","null","","","","","","","","",""
"","","","","","html-button-response","169","551948","0.0-169.0","0E7E5B21DF7544188397958003572AC3","019cf4fc-6c80-7866-b45f-fdcfa548a9eb","019cf4c8-1de8-79ec-b3bd-d98520647593","","658","
                <div class=""stimulus-container"">
                    <img src=""images/causal_sequence/dog_causal/dog_causal_3.png"" class=""exp-image"">
                    <div class=""question-area"">
                        <p style=""font-size: 20px; font-weight: bold; margin: 0;"">Is there a person in this image?</p>
                    </div>
                </div>","0","main_experiment_trial","3","dog_causal","causal_sequence","","","","",""
"","","","","","html-keyboard-response","170","556957","0.0-170.0","0E7E5B21DF7544188397958003572AC3","019cf4fc-6c80-7866-b45f-fdcfa548a9eb","019cf4c8-1de8-79ec-b3bd-d98520647593","","null","
                <div class=""stimulus-container"">
                    <img src=""images/causal_sequence/dog_causal/dog_causal_4.png"" class=""exp-image"">
                    <div class=""question-area""></div> 
                </div>","null","","","","","","","","",""
"","","","","","html-button-response","171","557577","0.0-171.0","0E7E5B21DF7544188397958003572AC3","019cf4fc-6c80-7866-b45f-fdcfa548a9eb","019cf4c8-1de8-79ec-b3bd-d98520647593","","618","
                <div class=""stimulus-container"">
                    <img src=""images/causal_sequence/dog_causal/dog_causal_4.png"" class=""exp-image"">
                    <div class=""question-area"">
                        <p style=""font-size: 20px; font-weight: bold; margin: 0;"">Is there a person in this image?</p>
                    </div>
                </div>","0","main_experiment_trial","4","dog_causal","causal_sequence","","","","",""
"","","","","","html-keyboard-response","172","562590","0.0-172.0","0E7E5B21DF7544188397958003572AC3","019cf4fc-6c80-7866-b45f-fdcfa548a9eb","019cf4c8-1de8-79ec-b3bd-d98520647593","","null","
                <div class=""stimulus-container"">
                    <img src=""images/causal_sequence/dog_causal/dog_causal_5.png"" class=""exp-image"">
                    <div class=""question-area""></div> 
                </div>","null","","","","","","","","",""
"","","","","","html-button-response","173","563212","0.0-173.0","0E7E5B21DF7544188397958003572AC3","019cf4fc-6c80-7866-b45f-fdcfa548a9eb","019cf4c8-1de8-79ec-b3bd-d98520647593","","621","
                <div class=""stimulus-container"">
                    <img src=""images/causal_sequence/dog_causal/dog_causal_5.png"" class=""exp-image"">
                    <div class=""question-area"">
                        <p style=""font-size: 20px; font-weight: bold; margin: 0;"">Is there a person in this image?</p>
                    </div>
                </div>","0","main_experiment_trial","5","dog_causal","causal_sequence","","","","",""
"","","","","","html-keyboard-response","174","568217","0.0-174.0","0E7E5B21DF7544188397958003572AC3","019cf4fc-6c80-7866-b45f-fdcfa548a9eb","019cf4c8-1de8-79ec-b3bd-d98520647593","","null","
                <div class=""stimulus-container"">
                    <img src=""images/causal_sequence/dog_causal/dog_causal_6.png"" class=""exp-image"">
                    <div class=""question-area""></div> 
                </div>","null","","","","","","","","",""
"","","","","","html-button-response","175","568834","0.0-175.0","0E7E5B21DF7544188397958003572AC3","019cf4fc-6c80-7866-b45f-fdcfa548a9eb","019cf4c8-1de8-79ec-b3bd-d98520647593","","616","
                <div class=""stimulus-container"">
                    <img src=""images/causal_sequence/dog_causal/dog_causal_6.png"" class=""exp-image"">
                    <div class=""question-area"">
                        <p style=""font-size: 20px; font-weight: bold; margin: 0;"">Is there a person in this image?</p>
                    </div>
                </div>","0","main_experiment_trial","6","dog_causal","causal_sequence","","","","",""
"","","","","","html-keyboard-response","176","573838","0.0-176.0","0E7E5B21DF7544188397958003572AC3","019cf4fc-6c80-7866-b45f-fdcfa548a9eb","019cf4c8-1de8-79ec-b3bd-d98520647593","","null","
                <div class=""stimulus-container"">
                    <img src=""images/causal_sequence/dog_causal/dog_causal_7.png"" class=""exp-image"">
                    <div class=""question-area""></div> 
                </div>","null","","","","","","","","",""
"","","","","","html-button-response","177","574604","0.0-177.0","0E7E5B21DF7544188397958003572AC3","019cf4fc-6c80-7866-b45f-fdcfa548a9eb","019cf4c8-1de8-79ec-b3bd-d98520647593","","766","
                <div class=""stimulus-container"">
                    <img src=""images/causal_sequence/dog_causal/dog_causal_7.png"" class=""exp-image"">
                    <div class=""question-area"">
                        <p style=""font-size: 20px; font-weight: bold; margin: 0;"">Is there a person in this image?</p>
                    </div>
                </div>","0","main_experiment_trial","7","dog_causal","causal_sequence","","","","",""
"","","","","","html-keyboard-response","178","579611","0.0-178.0","0E7E5B21DF7544188397958003572AC3","019cf4fc-6c80-7866-b45f-fdcfa548a9eb","019cf4c8-1de8-79ec-b3bd-d98520647593","","null","
                <div class=""stimulus-container"">
                    <img src=""images/causal_sequence/dog_causal/dog_causal_8.png"" class=""exp-image"">
                    <div class=""question-area""></div> 
                </div>","null","","","","","","","","",""
"","","","","","html-button-response","179","580258","0.0-179.0","0E7E5B21DF7544188397958003572AC3","019cf4fc-6c80-7866-b45f-fdcfa548a9eb","019cf4c8-1de8-79ec-b3bd-d98520647593","","646","
                <div class=""stimulus-container"">
                    <img src=""images/causal_sequence/dog_causal/dog_causal_8.png"" class=""exp-image"">
                    <div class=""question-area"">
                        <p style=""font-size: 20px; font-weight: bold; margin: 0;"">Is there a person in this image?</p>
                    </div>
                </div>","0","main_experiment_trial","8","dog_causal","causal_sequence","","","","",""
"","","","","","html-keyboard-response","180","585267","0.0-180.0","0E7E5B21DF7544188397958003572AC3","019cf4fc-6c80-7866-b45f-fdcfa548a9eb","019cf4c8-1de8-79ec-b3bd-d98520647593","","null","
                <div class=""stimulus-container"">
                    <img src=""images/causal_sequence/dog_causal/dog_causal_9.png"" class=""exp-image"">
                    <div class=""question-area""></div> 
                </div>","null","","","","","","","","",""
"","","","","","html-button-response","181","585894","0.0-181.0","0E7E5B21DF7544188397958003572AC3","019cf4fc-6c80-7866-b45f-fdcfa548a9eb","019cf4c8-1de8-79ec-b3bd-d98520647593","","626","
                <div class=""stimulus-container"">
                    <img src=""images/causal_sequence/dog_causal/dog_causal_9.png"" class=""exp-image"">
                    <div class=""question-area"">
                        <p style=""font-size: 20px; font-weight: bold; margin: 0;"">Is there a person in this image?</p>
                    </div>
                </div>","0","main_experiment_trial","9","dog_causal","causal_sequence","","","","",""
"","","","","","html-keyboard-response","182","590899","0.0-182.0","0E7E5B21DF7544188397958003572AC3","019cf4fc-6c80-7866-b45f-fdcfa548a9eb","019cf4c8-1de8-79ec-b3bd-d98520647593","","null","
                <div class=""stimulus-container"">
                    <img src=""images/causal_sequence/dog_causal/dog_causal_ten.png"" class=""exp-image"">
                    <div class=""question-area""></div> 
                </div>","null","","","","","","","","",""
"","","","","","html-button-response","183","591514","0.0-183.0","0E7E5B21DF7544188397958003572AC3","019cf4fc-6c80-7866-b45f-fdcfa548a9eb","019cf4c8-1de8-79ec-b3bd-d98520647593","","614","
                <div class=""stimulus-container"">
                    <img src=""images/causal_sequence/dog_causal/dog_causal_ten.png"" class=""exp-image"">
                    <div class=""question-area"">
                        <p style=""font-size: 20px; font-weight: bold; margin: 0;"">Is there a person in this image?</p>
                    </div>
                </div>","0","main_experiment_trial","ten","dog_causal","causal_sequence","","","","",""
"","","","","","html-keyboard-response","184","592523","0.0-184.0","0E7E5B21DF7544188397958003572AC3","019cf4fc-6c80-7866-b45f-fdcfa548a9eb","019cf4c8-1de8-79ec-b3bd-d98520647593","","null","<div style=""background-color: white; width: 100vw; height: 100vh;""></div>","null","","","","","","","","",""
