"success","timeout","failed_images","failed_audio","failed_video","trial_type","trial_index","time_elapsed","internal_node_id","subject_id","study_id","session_id","view_history","rt","stimulus","response","task","image_index","folder","sequence_type","presentation_order","valuable_image_index","reward_type","correct_choice","distance_from_x","target_X","chosen_image_index","is_x_plus_dist"
"true","false","[]","[]","[]","preload","0","5013","0.0-0.0","B644A6FF813A46E9B50C3B4D14E78458","019cfa3c-45fc-76ca-9d1d-0e9b3557efa8","019cfa3a-388e-72ab-ad58-bdeb258f96cd","","","","","","","","","","","","","","","",""
"","","","","","instructions","1","26943","0.0-1.0","B644A6FF813A46E9B50C3B4D14E78458","019cfa3c-45fc-76ca-9d1d-0e9b3557efa8","019cfa3a-388e-72ab-ad58-bdeb258f96cd","[{""page_index"":0,""viewing_time"":21930}]","21930","","","","","","","","","","","","","",""
"","","","","","instructions","2","29643","0.0-2.0","B644A6FF813A46E9B50C3B4D14E78458","019cfa3c-45fc-76ca-9d1d-0e9b3557efa8","019cfa3a-388e-72ab-ad58-bdeb258f96cd","[{""page_index"":0,""viewing_time"":2699}]","2699","","","","","","","","","","","","","",""
"true","","","","","fullscreen","3","32569","0.0-3.0","B644A6FF813A46E9B50C3B4D14E78458","019cfa3c-45fc-76ca-9d1d-0e9b3557efa8","019cfa3a-388e-72ab-ad58-bdeb258f96cd","","1915","","","","","","","","","","","","","",""
"","","","","","instructions","4","35871","0.0-4.0","B644A6FF813A46E9B50C3B4D14E78458","019cfa3c-45fc-76ca-9d1d-0e9b3557efa8","019cfa3a-388e-72ab-ad58-bdeb258f96cd","[{""page_index"":0,""viewing_time"":3302}]","3302","","","","","","","","","","","","","",""
"","","","","","instructions","5","38621","0.0-5.0","B644A6FF813A46E9B50C3B4D14E78458","019cfa3c-45fc-76ca-9d1d-0e9b3557efa8","019cfa3a-388e-72ab-ad58-bdeb258f96cd","[{""page_index"":0,""viewing_time"":2750}]","2750","","","","","","","","","","","","","",""
"","","","","","html-keyboard-response","6","42623","0.0-6.0","B644A6FF813A46E9B50C3B4D14E78458","019cfa3c-45fc-76ca-9d1d-0e9b3557efa8","019cfa3a-388e-72ab-ad58-bdeb258f96cd","","null","
                <div class=""stimulus-container"">
                    <img src=""images/instructions/movie_1.png"" class=""exp-image"">
                    <div class=""question-area""></div> 
                </div>","null","","","","","","","","","","","",""
"","","","","","html-button-response","7","43914","0.0-7.0","B644A6FF813A46E9B50C3B4D14E78458","019cfa3c-45fc-76ca-9d1d-0e9b3557efa8","019cfa3a-388e-72ab-ad58-bdeb258f96cd","","1289","
                <div class=""stimulus-container"">
                    <img src=""images/instructions/movie_1.png"" class=""exp-image"">
                    <div class=""question-area"">
                        <p style=""font-size: 20px; font-weight: bold; margin: 0;"">Was there a person in this image?</p>
                    </div>
                </div>","0","example_question","1","","","","","","","","","",""
"","","","","","html-keyboard-response","8","47917","0.0-8.0","B644A6FF813A46E9B50C3B4D14E78458","019cfa3c-45fc-76ca-9d1d-0e9b3557efa8","019cfa3a-388e-72ab-ad58-bdeb258f96cd","","null","
                <div class=""stimulus-container"">
                    <img src=""images/instructions/movie_2.png"" class=""exp-image"">
                    <div class=""question-area""></div> 
                </div>","null","","","","","","","","","","","",""
"","","","","","html-button-response","9","48891","0.0-9.0","B644A6FF813A46E9B50C3B4D14E78458","019cfa3c-45fc-76ca-9d1d-0e9b3557efa8","019cfa3a-388e-72ab-ad58-bdeb258f96cd","","973","
                <div class=""stimulus-container"">
                    <img src=""images/instructions/movie_2.png"" class=""exp-image"">
                    <div class=""question-area"">
                        <p style=""font-size: 20px; font-weight: bold; margin: 0;"">Was there a person in this image?</p>
                    </div>
                </div>","0","example_question","2","","","","","","","","","",""
"","","","","","html-keyboard-response","10","52901","0.0-10.0","B644A6FF813A46E9B50C3B4D14E78458","019cfa3c-45fc-76ca-9d1d-0e9b3557efa8","019cfa3a-388e-72ab-ad58-bdeb258f96cd","","null","
                <div class=""stimulus-container"">
                    <img src=""images/instructions/movie_3.png"" class=""exp-image"">
                    <div class=""question-area""></div> 
                </div>","null","","","","","","","","","","","",""
"","","","","","html-button-response","11","54278","0.0-11.0","B644A6FF813A46E9B50C3B4D14E78458","019cfa3c-45fc-76ca-9d1d-0e9b3557efa8","019cfa3a-388e-72ab-ad58-bdeb258f96cd","","1376","
                <div class=""stimulus-container"">
                    <img src=""images/instructions/movie_3.png"" class=""exp-image"">
                    <div class=""question-area"">
                        <p style=""font-size: 20px; font-weight: bold; margin: 0;"">Was there a person in this image?</p>
                    </div>
                </div>","0","example_question","3","","","","","","","","","",""
"","","","","","html-keyboard-response","12","58289","0.0-12.0","B644A6FF813A46E9B50C3B4D14E78458","019cfa3c-45fc-76ca-9d1d-0e9b3557efa8","019cfa3a-388e-72ab-ad58-bdeb258f96cd","","null","
                <div class=""stimulus-container"">
                    <img src=""images/instructions/movie_4.png"" class=""exp-image"">
                    <div class=""question-area""></div> 
                </div>","null","","","","","","","","","","","",""
"","","","","","html-button-response","13","59573","0.0-13.0","B644A6FF813A46E9B50C3B4D14E78458","019cfa3c-45fc-76ca-9d1d-0e9b3557efa8","019cfa3a-388e-72ab-ad58-bdeb258f96cd","","1283","
                <div class=""stimulus-container"">
                    <img src=""images/instructions/movie_4.png"" class=""exp-image"">
                    <div class=""question-area"">
                        <p style=""font-size: 20px; font-weight: bold; margin: 0;"">Was there a person in this image?</p>
                    </div>
                </div>","0","example_question","4","","","","","","","","","",""
"","","","","","instructions","14","61247","0.0-14.0","B644A6FF813A46E9B50C3B4D14E78458","019cfa3c-45fc-76ca-9d1d-0e9b3557efa8","019cfa3a-388e-72ab-ad58-bdeb258f96cd","[{""page_index"":0,""viewing_time"":1673}]","1673","","","","","","","","","","","","","",""
"","","","","","instructions","15","80596","0.0-15.0","B644A6FF813A46E9B50C3B4D14E78458","019cfa3c-45fc-76ca-9d1d-0e9b3557efa8","019cfa3a-388e-72ab-ad58-bdeb258f96cd","[{""page_index"":0,""viewing_time"":19349}]","19349","","","","","","","","","","","","","",""
"","","","","","html-keyboard-response","16","85607","0.0-16.0","B644A6FF813A46E9B50C3B4D14E78458","019cfa3c-45fc-76ca-9d1d-0e9b3557efa8","019cfa3a-388e-72ab-ad58-bdeb258f96cd","","null","<div style=""background-color: white; width: 100vw; height: 100vh;""></div>","null","","","","","","","","","","","",""
"","","","","","html-keyboard-response","17","86620","0.0-17.0","B644A6FF813A46E9B50C3B4D14E78458","019cfa3c-45fc-76ca-9d1d-0e9b3557efa8","019cfa3a-388e-72ab-ad58-bdeb258f96cd","","null","
                <div class=""stimulus-container"">
                    <img src=""images/causal_sequence/package_causal/package_causal_1.png"" class=""exp-image"">
                    <div class=""question-area""></div> 
                </div>","null","","","","","","","","","","","",""
"","","","","","html-button-response","18","89635","0.0-18.0","B644A6FF813A46E9B50C3B4D14E78458","019cfa3c-45fc-76ca-9d1d-0e9b3557efa8","019cfa3a-388e-72ab-ad58-bdeb258f96cd","","null","
                <div class=""stimulus-container"">
                    <img src=""images/causal_sequence/package_causal/package_causal_1.png"" class=""exp-image"">
                    <div class=""question-area"">
                        <p style=""font-size: 20px; font-weight: bold; margin: 0;"">Is there a person in this image?</p>
                    </div>
                </div>","null","main_experiment_trial","1","package_causal","causal_sequence","chronological","","","","","","",""
"","","","","","html-keyboard-response","19","90637","0.0-19.0","B644A6FF813A46E9B50C3B4D14E78458","019cfa3c-45fc-76ca-9d1d-0e9b3557efa8","019cfa3a-388e-72ab-ad58-bdeb258f96cd","","null","
                <div class=""stimulus-container"">
                    <img src=""images/causal_sequence/package_causal/package_causal_2.png"" class=""exp-image"">
                    <div class=""question-area""></div> 
                </div>","null","","","","","","","","","","","",""
"","","","","","html-button-response","20","91849","0.0-20.0","B644A6FF813A46E9B50C3B4D14E78458","019cfa3c-45fc-76ca-9d1d-0e9b3557efa8","019cfa3a-388e-72ab-ad58-bdeb258f96cd","","1212","
                <div class=""stimulus-container"">
                    <img src=""images/causal_sequence/package_causal/package_causal_2.png"" class=""exp-image"">
                    <div class=""question-area"">
                        <p style=""font-size: 20px; font-weight: bold; margin: 0;"">Is there a person in this image?</p>
                    </div>
                </div>","0","main_experiment_trial","2","package_causal","causal_sequence","chronological","","","","","","",""
"","","","","","html-keyboard-response","21","92853","0.0-21.0","B644A6FF813A46E9B50C3B4D14E78458","019cfa3c-45fc-76ca-9d1d-0e9b3557efa8","019cfa3a-388e-72ab-ad58-bdeb258f96cd","","null","
                <div class=""stimulus-container"">
                    <img src=""images/causal_sequence/package_causal/package_causal_3.png"" class=""exp-image"">
                    <div class=""question-area""></div> 
                </div>","null","","","","","","","","","","","",""
"","","","","","html-button-response","22","94997","0.0-22.0","B644A6FF813A46E9B50C3B4D14E78458","019cfa3c-45fc-76ca-9d1d-0e9b3557efa8","019cfa3a-388e-72ab-ad58-bdeb258f96cd","","2142","
                <div class=""stimulus-container"">
                    <img src=""images/causal_sequence/package_causal/package_causal_3.png"" class=""exp-image"">
                    <div class=""question-area"">
                        <p style=""font-size: 20px; font-weight: bold; margin: 0;"">Is there a person in this image?</p>
                    </div>
                </div>","0","main_experiment_trial","3","package_causal","causal_sequence","chronological","","","","","","",""
"","","","","","html-keyboard-response","23","96003","0.0-23.0","B644A6FF813A46E9B50C3B4D14E78458","019cfa3c-45fc-76ca-9d1d-0e9b3557efa8","019cfa3a-388e-72ab-ad58-bdeb258f96cd","","null","
                <div class=""stimulus-container"">
                    <img src=""images/causal_sequence/package_causal/package_causal_4.png"" class=""exp-image"">
                    <div class=""question-area""></div> 
                </div>","null","","","","","","","","","","","",""
"","","","","","html-button-response","24","97630","0.0-24.0","B644A6FF813A46E9B50C3B4D14E78458","019cfa3c-45fc-76ca-9d1d-0e9b3557efa8","019cfa3a-388e-72ab-ad58-bdeb258f96cd","","1626","
                <div class=""stimulus-container"">
                    <img src=""images/causal_sequence/package_causal/package_causal_4.png"" class=""exp-image"">
                    <div class=""question-area"">
                        <p style=""font-size: 20px; font-weight: bold; margin: 0;"">Is there a person in this image?</p>
                    </div>
                </div>","1","main_experiment_trial","4","package_causal","causal_sequence","chronological","","","","","","",""
"","","","","","html-keyboard-response","25","98632","0.0-25.0","B644A6FF813A46E9B50C3B4D14E78458","019cfa3c-45fc-76ca-9d1d-0e9b3557efa8","019cfa3a-388e-72ab-ad58-bdeb258f96cd","","null","
                <div class=""stimulus-container"">
                    <img src=""images/causal_sequence/package_causal/package_causal_5.png"" class=""exp-image"">
                    <div class=""question-area""></div> 
                </div>","null","","","","","","","","","","","",""
"","","","","","html-button-response","26","99389","0.0-26.0","B644A6FF813A46E9B50C3B4D14E78458","019cfa3c-45fc-76ca-9d1d-0e9b3557efa8","019cfa3a-388e-72ab-ad58-bdeb258f96cd","","757","
                <div class=""stimulus-container"">
                    <img src=""images/causal_sequence/package_causal/package_causal_5.png"" class=""exp-image"">
                    <div class=""question-area"">
                        <p style=""font-size: 20px; font-weight: bold; margin: 0;"">Is there a person in this image?</p>
                    </div>
                </div>","0","main_experiment_trial","5","package_causal","causal_sequence","chronological","","","","","","",""
"","","","","","html-keyboard-response","27","100399","0.0-27.0","B644A6FF813A46E9B50C3B4D14E78458","019cfa3c-45fc-76ca-9d1d-0e9b3557efa8","019cfa3a-388e-72ab-ad58-bdeb258f96cd","","null","
                <div class=""stimulus-container"">
                    <img src=""images/causal_sequence/package_causal/package_causal_6.png"" class=""exp-image"">
                    <div class=""question-area""></div> 
                </div>","null","","","","","","","","","","","",""
"","","","","","html-button-response","28","100848","0.0-28.0","B644A6FF813A46E9B50C3B4D14E78458","019cfa3c-45fc-76ca-9d1d-0e9b3557efa8","019cfa3a-388e-72ab-ad58-bdeb258f96cd","","449","
                <div class=""stimulus-container"">
                    <img src=""images/causal_sequence/package_causal/package_causal_6.png"" class=""exp-image"">
                    <div class=""question-area"">
                        <p style=""font-size: 20px; font-weight: bold; margin: 0;"">Is there a person in this image?</p>
                    </div>
                </div>","0","main_experiment_trial","6","package_causal","causal_sequence","chronological","","","","","","",""
"","","","","","html-keyboard-response","29","101850","0.0-29.0","B644A6FF813A46E9B50C3B4D14E78458","019cfa3c-45fc-76ca-9d1d-0e9b3557efa8","019cfa3a-388e-72ab-ad58-bdeb258f96cd","","null","
                <div class=""stimulus-container"">
                    <img src=""images/causal_sequence/package_causal/package_causal_7.png"" class=""exp-image"">
                    <div class=""question-area""></div> 
                </div>","null","","","","","","","","","","","",""
"","","","","","html-button-response","30","102321","0.0-30.0","B644A6FF813A46E9B50C3B4D14E78458","019cfa3c-45fc-76ca-9d1d-0e9b3557efa8","019cfa3a-388e-72ab-ad58-bdeb258f96cd","","470","
                <div class=""stimulus-container"">
                    <img src=""images/causal_sequence/package_causal/package_causal_7.png"" class=""exp-image"">
                    <div class=""question-area"">
                        <p style=""font-size: 20px; font-weight: bold; margin: 0;"">Is there a person in this image?</p>
                    </div>
                </div>","0","main_experiment_trial","7","package_causal","causal_sequence","chronological","","","","","","",""
"","","","","","html-keyboard-response","31","103333","0.0-31.0","B644A6FF813A46E9B50C3B4D14E78458","019cfa3c-45fc-76ca-9d1d-0e9b3557efa8","019cfa3a-388e-72ab-ad58-bdeb258f96cd","","null","
                <div class=""stimulus-container"">
                    <img src=""images/causal_sequence/package_causal/package_causal_8.png"" class=""exp-image"">
                    <div class=""question-area""></div> 
                </div>","null","","","","","","","","","","","",""
"","","","","","html-button-response","32","103741","0.0-32.0","B644A6FF813A46E9B50C3B4D14E78458","019cfa3c-45fc-76ca-9d1d-0e9b3557efa8","019cfa3a-388e-72ab-ad58-bdeb258f96cd","","408","
                <div class=""stimulus-container"">
                    <img src=""images/causal_sequence/package_causal/package_causal_8.png"" class=""exp-image"">
                    <div class=""question-area"">
                        <p style=""font-size: 20px; font-weight: bold; margin: 0;"">Is there a person in this image?</p>
                    </div>
                </div>","0","main_experiment_trial","8","package_causal","causal_sequence","chronological","","","","","","",""
"","","","","","html-keyboard-response","33","104757","0.0-33.0","B644A6FF813A46E9B50C3B4D14E78458","019cfa3c-45fc-76ca-9d1d-0e9b3557efa8","019cfa3a-388e-72ab-ad58-bdeb258f96cd","","null","
                <div class=""stimulus-container"">
                    <img src=""images/causal_sequence/package_causal/package_causal_9.png"" class=""exp-image"">
                    <div class=""question-area""></div> 
                </div>","null","","","","","","","","","","","",""
"","","","","","html-button-response","34","105113","0.0-34.0","B644A6FF813A46E9B50C3B4D14E78458","019cfa3c-45fc-76ca-9d1d-0e9b3557efa8","019cfa3a-388e-72ab-ad58-bdeb258f96cd","","355","
                <div class=""stimulus-container"">
                    <img src=""images/causal_sequence/package_causal/package_causal_9.png"" class=""exp-image"">
                    <div class=""question-area"">
                        <p style=""font-size: 20px; font-weight: bold; margin: 0;"">Is there a person in this image?</p>
                    </div>
                </div>","0","main_experiment_trial","9","package_causal","causal_sequence","chronological","","","","","","",""
"","","","","","html-keyboard-response","35","106122","0.0-35.0","B644A6FF813A46E9B50C3B4D14E78458","019cfa3c-45fc-76ca-9d1d-0e9b3557efa8","019cfa3a-388e-72ab-ad58-bdeb258f96cd","","null","
                <div class=""stimulus-container"">
                    <img src=""images/causal_sequence/package_causal/package_causal_ten.png"" class=""exp-image"">
                    <div class=""question-area""></div> 
                </div>","null","","","","","","","","","","","",""
"","","","","","html-button-response","36","106345","0.0-36.0","B644A6FF813A46E9B50C3B4D14E78458","019cfa3c-45fc-76ca-9d1d-0e9b3557efa8","019cfa3a-388e-72ab-ad58-bdeb258f96cd","","222","
                <div class=""stimulus-container"">
                    <img src=""images/causal_sequence/package_causal/package_causal_ten.png"" class=""exp-image"">
                    <div class=""question-area"">
                        <p style=""font-size: 20px; font-weight: bold; margin: 0;"">Is there a person in this image?</p>
                    </div>
                </div>","0","main_experiment_trial","ten","package_causal","causal_sequence","chronological","","","","","","",""
"","","","","","html-keyboard-response","37","111353","0.0-37.0","B644A6FF813A46E9B50C3B4D14E78458","019cfa3c-45fc-76ca-9d1d-0e9b3557efa8","019cfa3a-388e-72ab-ad58-bdeb258f96cd","","null","<div style=""background-color: white; width: 100vw; height: 100vh;""></div>","null","","","","","","","","","","","",""
"","","","","","html-keyboard-response","38","112356","0.0-38.0","B644A6FF813A46E9B50C3B4D14E78458","019cfa3c-45fc-76ca-9d1d-0e9b3557efa8","019cfa3a-388e-72ab-ad58-bdeb258f96cd","","null","
                <div class=""stimulus-container"">
                    <img src=""images/semantic_sequence/visiting_cities_semantic/visiting_cities_semantic_1.png"" class=""exp-image"">
                    <div class=""question-area""></div> 
                </div>","null","","","","","","","","","","","",""
"","","","","","html-button-response","39","113518","0.0-39.0","B644A6FF813A46E9B50C3B4D14E78458","019cfa3c-45fc-76ca-9d1d-0e9b3557efa8","019cfa3a-388e-72ab-ad58-bdeb258f96cd","","1162","
                <div class=""stimulus-container"">
                    <img src=""images/semantic_sequence/visiting_cities_semantic/visiting_cities_semantic_1.png"" class=""exp-image"">
                    <div class=""question-area"">
                        <p style=""font-size: 20px; font-weight: bold; margin: 0;"">Is there a person in this image?</p>
                    </div>
                </div>","1","main_experiment_trial","1","visiting_cities_semantic","semantic_sequence","chronological","","","","","","",""
"","","","","","html-keyboard-response","40","114527","0.0-40.0","B644A6FF813A46E9B50C3B4D14E78458","019cfa3c-45fc-76ca-9d1d-0e9b3557efa8","019cfa3a-388e-72ab-ad58-bdeb258f96cd","","null","
                <div class=""stimulus-container"">
                    <img src=""images/semantic_sequence/visiting_cities_semantic/visiting_cities_semantic_2.png"" class=""exp-image"">
                    <div class=""question-area""></div> 
                </div>","null","","","","","","","","","","","",""
"","","","","","html-button-response","41","115624","0.0-41.0","B644A6FF813A46E9B50C3B4D14E78458","019cfa3c-45fc-76ca-9d1d-0e9b3557efa8","019cfa3a-388e-72ab-ad58-bdeb258f96cd","","1096","
                <div class=""stimulus-container"">
                    <img src=""images/semantic_sequence/visiting_cities_semantic/visiting_cities_semantic_2.png"" class=""exp-image"">
                    <div class=""question-area"">
                        <p style=""font-size: 20px; font-weight: bold; margin: 0;"">Is there a person in this image?</p>
                    </div>
                </div>","1","main_experiment_trial","2","visiting_cities_semantic","semantic_sequence","chronological","","","","","","",""
"","","","","","html-keyboard-response","42","116638","0.0-42.0","B644A6FF813A46E9B50C3B4D14E78458","019cfa3c-45fc-76ca-9d1d-0e9b3557efa8","019cfa3a-388e-72ab-ad58-bdeb258f96cd","","null","
                <div class=""stimulus-container"">
                    <img src=""images/semantic_sequence/visiting_cities_semantic/visiting_cities_semantic_3.png"" class=""exp-image"">
                    <div class=""question-area""></div> 
                </div>","null","","","","","","","","","","","",""
"","","","","","html-button-response","43","117012","0.0-43.0","B644A6FF813A46E9B50C3B4D14E78458","019cfa3c-45fc-76ca-9d1d-0e9b3557efa8","019cfa3a-388e-72ab-ad58-bdeb258f96cd","","373","
                <div class=""stimulus-container"">
                    <img src=""images/semantic_sequence/visiting_cities_semantic/visiting_cities_semantic_3.png"" class=""exp-image"">
                    <div class=""question-area"">
                        <p style=""font-size: 20px; font-weight: bold; margin: 0;"">Is there a person in this image?</p>
                    </div>
                </div>","1","main_experiment_trial","3","visiting_cities_semantic","semantic_sequence","chronological","","","","","","",""
"","","","","","html-keyboard-response","44","118014","0.0-44.0","B644A6FF813A46E9B50C3B4D14E78458","019cfa3c-45fc-76ca-9d1d-0e9b3557efa8","019cfa3a-388e-72ab-ad58-bdeb258f96cd","","null","
                <div class=""stimulus-container"">
                    <img src=""images/semantic_sequence/visiting_cities_semantic/visiting_cities_semantic_4.png"" class=""exp-image"">
                    <div class=""question-area""></div> 
                </div>","null","","","","","","","","","","","",""
"","","","","","html-button-response","45","119204","0.0-45.0","B644A6FF813A46E9B50C3B4D14E78458","019cfa3c-45fc-76ca-9d1d-0e9b3557efa8","019cfa3a-388e-72ab-ad58-bdeb258f96cd","","1189","
                <div class=""stimulus-container"">
                    <img src=""images/semantic_sequence/visiting_cities_semantic/visiting_cities_semantic_4.png"" class=""exp-image"">
                    <div class=""question-area"">
                        <p style=""font-size: 20px; font-weight: bold; margin: 0;"">Is there a person in this image?</p>
                    </div>
                </div>","1","main_experiment_trial","4","visiting_cities_semantic","semantic_sequence","chronological","","","","","","",""
"","","","","","html-keyboard-response","46","120208","0.0-46.0","B644A6FF813A46E9B50C3B4D14E78458","019cfa3c-45fc-76ca-9d1d-0e9b3557efa8","019cfa3a-388e-72ab-ad58-bdeb258f96cd","","null","
                <div class=""stimulus-container"">
                    <img src=""images/semantic_sequence/visiting_cities_semantic/visiting_cities_semantic_5.png"" class=""exp-image"">
                    <div class=""question-area""></div> 
                </div>","null","","","","","","","","","","","",""
"","","","","","html-button-response","47","120797","0.0-47.0","B644A6FF813A46E9B50C3B4D14E78458","019cfa3c-45fc-76ca-9d1d-0e9b3557efa8","019cfa3a-388e-72ab-ad58-bdeb258f96cd","","589","
                <div class=""stimulus-container"">
                    <img src=""images/semantic_sequence/visiting_cities_semantic/visiting_cities_semantic_5.png"" class=""exp-image"">
                    <div class=""question-area"">
                        <p style=""font-size: 20px; font-weight: bold; margin: 0;"">Is there a person in this image?</p>
                    </div>
                </div>","1","main_experiment_trial","5","visiting_cities_semantic","semantic_sequence","chronological","","","","","","",""
"","","","","","html-keyboard-response","48","121812","0.0-48.0","B644A6FF813A46E9B50C3B4D14E78458","019cfa3c-45fc-76ca-9d1d-0e9b3557efa8","019cfa3a-388e-72ab-ad58-bdeb258f96cd","","null","
                <div class=""stimulus-container"">
                    <img src=""images/semantic_sequence/visiting_cities_semantic/visiting_cities_semantic_6.png"" class=""exp-image"">
                    <div class=""question-area""></div> 
                </div>","null","","","","","","","","","","","",""
"","","","","","html-button-response","49","122243","0.0-49.0","B644A6FF813A46E9B50C3B4D14E78458","019cfa3c-45fc-76ca-9d1d-0e9b3557efa8","019cfa3a-388e-72ab-ad58-bdeb258f96cd","","430","
                <div class=""stimulus-container"">
                    <img src=""images/semantic_sequence/visiting_cities_semantic/visiting_cities_semantic_6.png"" class=""exp-image"">
                    <div class=""question-area"">
                        <p style=""font-size: 20px; font-weight: bold; margin: 0;"">Is there a person in this image?</p>
                    </div>
                </div>","1","main_experiment_trial","6","visiting_cities_semantic","semantic_sequence","chronological","","","","","","",""
"","","","","","html-keyboard-response","50","123251","0.0-50.0","B644A6FF813A46E9B50C3B4D14E78458","019cfa3c-45fc-76ca-9d1d-0e9b3557efa8","019cfa3a-388e-72ab-ad58-bdeb258f96cd","","null","
                <div class=""stimulus-container"">
                    <img src=""images/semantic_sequence/visiting_cities_semantic/visiting_cities_semantic_7.png"" class=""exp-image"">
                    <div class=""question-area""></div> 
                </div>","null","","","","","","","","","","","",""
"","","","","","html-button-response","51","124358","0.0-51.0","B644A6FF813A46E9B50C3B4D14E78458","019cfa3c-45fc-76ca-9d1d-0e9b3557efa8","019cfa3a-388e-72ab-ad58-bdeb258f96cd","","1106","
                <div class=""stimulus-container"">
                    <img src=""images/semantic_sequence/visiting_cities_semantic/visiting_cities_semantic_7.png"" class=""exp-image"">
                    <div class=""question-area"">
                        <p style=""font-size: 20px; font-weight: bold; margin: 0;"">Is there a person in this image?</p>
                    </div>
                </div>","0","main_experiment_trial","7","visiting_cities_semantic","semantic_sequence","chronological","","","","","","",""
"","","","","","html-keyboard-response","52","125365","0.0-52.0","B644A6FF813A46E9B50C3B4D14E78458","019cfa3c-45fc-76ca-9d1d-0e9b3557efa8","019cfa3a-388e-72ab-ad58-bdeb258f96cd","","null","
                <div class=""stimulus-container"">
                    <img src=""images/semantic_sequence/visiting_cities_semantic/visiting_cities_semantic_8.png"" class=""exp-image"">
                    <div class=""question-area""></div> 
                </div>","null","","","","","","","","","","","",""
"","","","","","html-button-response","53","127608","0.0-53.0","B644A6FF813A46E9B50C3B4D14E78458","019cfa3c-45fc-76ca-9d1d-0e9b3557efa8","019cfa3a-388e-72ab-ad58-bdeb258f96cd","","2242","
                <div class=""stimulus-container"">
                    <img src=""images/semantic_sequence/visiting_cities_semantic/visiting_cities_semantic_8.png"" class=""exp-image"">
                    <div class=""question-area"">
                        <p style=""font-size: 20px; font-weight: bold; margin: 0;"">Is there a person in this image?</p>
                    </div>
                </div>","1","main_experiment_trial","8","visiting_cities_semantic","semantic_sequence","chronological","","","","","","",""
"","","","","","html-keyboard-response","54","128622","0.0-54.0","B644A6FF813A46E9B50C3B4D14E78458","019cfa3c-45fc-76ca-9d1d-0e9b3557efa8","019cfa3a-388e-72ab-ad58-bdeb258f96cd","","null","
                <div class=""stimulus-container"">
                    <img src=""images/semantic_sequence/visiting_cities_semantic/visiting_cities_semantic_9.png"" class=""exp-image"">
                    <div class=""question-area""></div> 
                </div>","null","","","","","","","","","","","",""
"","","","","","html-button-response","55","130815","0.0-55.0","B644A6FF813A46E9B50C3B4D14E78458","019cfa3c-45fc-76ca-9d1d-0e9b3557efa8","019cfa3a-388e-72ab-ad58-bdeb258f96cd","","2192","
                <div class=""stimulus-container"">
                    <img src=""images/semantic_sequence/visiting_cities_semantic/visiting_cities_semantic_9.png"" class=""exp-image"">
                    <div class=""question-area"">
                        <p style=""font-size: 20px; font-weight: bold; margin: 0;"">Is there a person in this image?</p>
                    </div>
                </div>","1","main_experiment_trial","9","visiting_cities_semantic","semantic_sequence","chronological","","","","","","",""
"","","","","","html-keyboard-response","56","131822","0.0-56.0","B644A6FF813A46E9B50C3B4D14E78458","019cfa3c-45fc-76ca-9d1d-0e9b3557efa8","019cfa3a-388e-72ab-ad58-bdeb258f96cd","","null","
                <div class=""stimulus-container"">
                    <img src=""images/semantic_sequence/visiting_cities_semantic/visiting_cities_semantic_ten.png"" class=""exp-image"">
                    <div class=""question-area""></div> 
                </div>","null","","","","","","","","","","","",""
"","","","","","html-button-response","57","133816","0.0-57.0","B644A6FF813A46E9B50C3B4D14E78458","019cfa3c-45fc-76ca-9d1d-0e9b3557efa8","019cfa3a-388e-72ab-ad58-bdeb258f96cd","","1993","
                <div class=""stimulus-container"">
                    <img src=""images/semantic_sequence/visiting_cities_semantic/visiting_cities_semantic_ten.png"" class=""exp-image"">
                    <div class=""question-area"">
                        <p style=""font-size: 20px; font-weight: bold; margin: 0;"">Is there a person in this image?</p>
                    </div>
                </div>","1","main_experiment_trial","ten","visiting_cities_semantic","semantic_sequence","chronological","","","","","","",""
"","","","","","html-keyboard-response","58","138824","0.0-58.0","B644A6FF813A46E9B50C3B4D14E78458","019cfa3c-45fc-76ca-9d1d-0e9b3557efa8","019cfa3a-388e-72ab-ad58-bdeb258f96cd","","null","<div style=""background-color: white; width: 100vw; height: 100vh;""></div>","null","","","","","","","","","","","",""
"","","","","","html-keyboard-response","59","139839","0.0-59.0","B644A6FF813A46E9B50C3B4D14E78458","019cfa3c-45fc-76ca-9d1d-0e9b3557efa8","019cfa3a-388e-72ab-ad58-bdeb258f96cd","","null","
                <div class=""stimulus-container"">
                    <img src=""images/semantic_sequence/using_technology_semantic/using_technology_semantic_1.png"" class=""exp-image"">
                    <div class=""question-area""></div> 
                </div>","null","","","","","","","","","","","",""
"","","","","","html-button-response","60","141211","0.0-60.0","B644A6FF813A46E9B50C3B4D14E78458","019cfa3c-45fc-76ca-9d1d-0e9b3557efa8","019cfa3a-388e-72ab-ad58-bdeb258f96cd","","1371","
                <div class=""stimulus-container"">
                    <img src=""images/semantic_sequence/using_technology_semantic/using_technology_semantic_1.png"" class=""exp-image"">
                    <div class=""question-area"">
                        <p style=""font-size: 20px; font-weight: bold; margin: 0;"">Is there a person in this image?</p>
                    </div>
                </div>","0","main_experiment_trial","1","using_technology_semantic","semantic_sequence","chronological","","","","","","",""
"","","","","","html-keyboard-response","61","142213","0.0-61.0","B644A6FF813A46E9B50C3B4D14E78458","019cfa3c-45fc-76ca-9d1d-0e9b3557efa8","019cfa3a-388e-72ab-ad58-bdeb258f96cd","","null","
                <div class=""stimulus-container"">
                    <img src=""images/semantic_sequence/using_technology_semantic/using_technology_semantic_2.png"" class=""exp-image"">
                    <div class=""question-area""></div> 
                </div>","null","","","","","","","","","","","",""
"","","","","","html-button-response","62","143973","0.0-62.0","B644A6FF813A46E9B50C3B4D14E78458","019cfa3c-45fc-76ca-9d1d-0e9b3557efa8","019cfa3a-388e-72ab-ad58-bdeb258f96cd","","1759","
                <div class=""stimulus-container"">
                    <img src=""images/semantic_sequence/using_technology_semantic/using_technology_semantic_2.png"" class=""exp-image"">
                    <div class=""question-area"">
                        <p style=""font-size: 20px; font-weight: bold; margin: 0;"">Is there a person in this image?</p>
                    </div>
                </div>","0","main_experiment_trial","2","using_technology_semantic","semantic_sequence","chronological","","","","","","",""
"","","","","","html-keyboard-response","63","144985","0.0-63.0","B644A6FF813A46E9B50C3B4D14E78458","019cfa3c-45fc-76ca-9d1d-0e9b3557efa8","019cfa3a-388e-72ab-ad58-bdeb258f96cd","","null","
                <div class=""stimulus-container"">
                    <img src=""images/semantic_sequence/using_technology_semantic/using_technology_semantic_3.png"" class=""exp-image"">
                    <div class=""question-area""></div> 
                </div>","null","","","","","","","","","","","",""
"","","","","","html-button-response","64","145971","0.0-64.0","B644A6FF813A46E9B50C3B4D14E78458","019cfa3c-45fc-76ca-9d1d-0e9b3557efa8","019cfa3a-388e-72ab-ad58-bdeb258f96cd","","985","
                <div class=""stimulus-container"">
                    <img src=""images/semantic_sequence/using_technology_semantic/using_technology_semantic_3.png"" class=""exp-image"">
                    <div class=""question-area"">
                        <p style=""font-size: 20px; font-weight: bold; margin: 0;"">Is there a person in this image?</p>
                    </div>
                </div>","0","main_experiment_trial","3","using_technology_semantic","semantic_sequence","chronological","","","","","","",""
"","","","","","html-keyboard-response","65","146976","0.0-65.0","B644A6FF813A46E9B50C3B4D14E78458","019cfa3c-45fc-76ca-9d1d-0e9b3557efa8","019cfa3a-388e-72ab-ad58-bdeb258f96cd","","null","
                <div class=""stimulus-container"">
                    <img src=""images/semantic_sequence/using_technology_semantic/using_technology_semantic_4.png"" class=""exp-image"">
                    <div class=""question-area""></div> 
                </div>","null","","","","","","","","","","","",""
"","","","","","html-button-response","66","147522","0.0-66.0","B644A6FF813A46E9B50C3B4D14E78458","019cfa3c-45fc-76ca-9d1d-0e9b3557efa8","019cfa3a-388e-72ab-ad58-bdeb258f96cd","","546","
                <div class=""stimulus-container"">
                    <img src=""images/semantic_sequence/using_technology_semantic/using_technology_semantic_4.png"" class=""exp-image"">
                    <div class=""question-area"">
                        <p style=""font-size: 20px; font-weight: bold; margin: 0;"">Is there a person in this image?</p>
                    </div>
                </div>","0","main_experiment_trial","4","using_technology_semantic","semantic_sequence","chronological","","","","","","",""
"","","","","","html-keyboard-response","67","148525","0.0-67.0","B644A6FF813A46E9B50C3B4D14E78458","019cfa3c-45fc-76ca-9d1d-0e9b3557efa8","019cfa3a-388e-72ab-ad58-bdeb258f96cd","","null","
                <div class=""stimulus-container"">
                    <img src=""images/semantic_sequence/using_technology_semantic/using_technology_semantic_5.png"" class=""exp-image"">
                    <div class=""question-area""></div> 
                </div>","null","","","","","","","","","","","",""
"","","","","","html-button-response","68","150022","0.0-68.0","B644A6FF813A46E9B50C3B4D14E78458","019cfa3c-45fc-76ca-9d1d-0e9b3557efa8","019cfa3a-388e-72ab-ad58-bdeb258f96cd","","1496","
                <div class=""stimulus-container"">
                    <img src=""images/semantic_sequence/using_technology_semantic/using_technology_semantic_5.png"" class=""exp-image"">
                    <div class=""question-area"">
                        <p style=""font-size: 20px; font-weight: bold; margin: 0;"">Is there a person in this image?</p>
                    </div>
                </div>","0","main_experiment_trial","5","using_technology_semantic","semantic_sequence","chronological","","","","","","",""
"","","","","","html-keyboard-response","69","151034","0.0-69.0","B644A6FF813A46E9B50C3B4D14E78458","019cfa3c-45fc-76ca-9d1d-0e9b3557efa8","019cfa3a-388e-72ab-ad58-bdeb258f96cd","","null","
                <div class=""stimulus-container"">
                    <img src=""images/semantic_sequence/using_technology_semantic/using_technology_semantic_6.png"" class=""exp-image"">
                    <div class=""question-area""></div> 
                </div>","null","","","","","","","","","","","",""
"","","","","","html-button-response","70","152021","0.0-70.0","B644A6FF813A46E9B50C3B4D14E78458","019cfa3c-45fc-76ca-9d1d-0e9b3557efa8","019cfa3a-388e-72ab-ad58-bdeb258f96cd","","987","
                <div class=""stimulus-container"">
                    <img src=""images/semantic_sequence/using_technology_semantic/using_technology_semantic_6.png"" class=""exp-image"">
                    <div class=""question-area"">
                        <p style=""font-size: 20px; font-weight: bold; margin: 0;"">Is there a person in this image?</p>
                    </div>
                </div>","0","main_experiment_trial","6","using_technology_semantic","semantic_sequence","chronological","","","","","","",""
"","","","","","html-keyboard-response","71","153025","0.0-71.0","B644A6FF813A46E9B50C3B4D14E78458","019cfa3c-45fc-76ca-9d1d-0e9b3557efa8","019cfa3a-388e-72ab-ad58-bdeb258f96cd","","null","
                <div class=""stimulus-container"">
                    <img src=""images/semantic_sequence/using_technology_semantic/using_technology_semantic_7.png"" class=""exp-image"">
                    <div class=""question-area""></div> 
                </div>","null","","","","","","","","","","","",""
"","","","","","html-button-response","72","153528","0.0-72.0","B644A6FF813A46E9B50C3B4D14E78458","019cfa3c-45fc-76ca-9d1d-0e9b3557efa8","019cfa3a-388e-72ab-ad58-bdeb258f96cd","","502","
                <div class=""stimulus-container"">
                    <img src=""images/semantic_sequence/using_technology_semantic/using_technology_semantic_7.png"" class=""exp-image"">
                    <div class=""question-area"">
                        <p style=""font-size: 20px; font-weight: bold; margin: 0;"">Is there a person in this image?</p>
                    </div>
                </div>","0","main_experiment_trial","7","using_technology_semantic","semantic_sequence","chronological","","","","","","",""
"","","","","","html-keyboard-response","73","154539","0.0-73.0","B644A6FF813A46E9B50C3B4D14E78458","019cfa3c-45fc-76ca-9d1d-0e9b3557efa8","019cfa3a-388e-72ab-ad58-bdeb258f96cd","","null","
                <div class=""stimulus-container"">
                    <img src=""images/semantic_sequence/using_technology_semantic/using_technology_semantic_8.png"" class=""exp-image"">
                    <div class=""question-area""></div> 
                </div>","null","","","","","","","","","","","",""
"","","","","","html-button-response","74","154982","0.0-74.0","B644A6FF813A46E9B50C3B4D14E78458","019cfa3c-45fc-76ca-9d1d-0e9b3557efa8","019cfa3a-388e-72ab-ad58-bdeb258f96cd","","442","
                <div class=""stimulus-container"">
                    <img src=""images/semantic_sequence/using_technology_semantic/using_technology_semantic_8.png"" class=""exp-image"">
                    <div class=""question-area"">
                        <p style=""font-size: 20px; font-weight: bold; margin: 0;"">Is there a person in this image?</p>
                    </div>
                </div>","0","main_experiment_trial","8","using_technology_semantic","semantic_sequence","chronological","","","","","","",""
"","","","","","html-keyboard-response","75","155994","0.0-75.0","B644A6FF813A46E9B50C3B4D14E78458","019cfa3c-45fc-76ca-9d1d-0e9b3557efa8","019cfa3a-388e-72ab-ad58-bdeb258f96cd","","null","
                <div class=""stimulus-container"">
                    <img src=""images/semantic_sequence/using_technology_semantic/using_technology_semantic_9.png"" class=""exp-image"">
                    <div class=""question-area""></div> 
                </div>","null","","","","","","","","","","","",""
"","","","","","html-button-response","76","156607","0.0-76.0","B644A6FF813A46E9B50C3B4D14E78458","019cfa3c-45fc-76ca-9d1d-0e9b3557efa8","019cfa3a-388e-72ab-ad58-bdeb258f96cd","","612","
                <div class=""stimulus-container"">
                    <img src=""images/semantic_sequence/using_technology_semantic/using_technology_semantic_9.png"" class=""exp-image"">
                    <div class=""question-area"">
                        <p style=""font-size: 20px; font-weight: bold; margin: 0;"">Is there a person in this image?</p>
                    </div>
                </div>","0","main_experiment_trial","9","using_technology_semantic","semantic_sequence","chronological","","","","","","",""
"","","","","","html-keyboard-response","77","157621","0.0-77.0","B644A6FF813A46E9B50C3B4D14E78458","019cfa3c-45fc-76ca-9d1d-0e9b3557efa8","019cfa3a-388e-72ab-ad58-bdeb258f96cd","","null","
                <div class=""stimulus-container"">
                    <img src=""images/semantic_sequence/using_technology_semantic/using_technology_semantic_ten.png"" class=""exp-image"">
                    <div class=""question-area""></div> 
                </div>","null","","","","","","","","","","","",""
"","","","","","html-button-response","78","158495","0.0-78.0","B644A6FF813A46E9B50C3B4D14E78458","019cfa3c-45fc-76ca-9d1d-0e9b3557efa8","019cfa3a-388e-72ab-ad58-bdeb258f96cd","","874","
                <div class=""stimulus-container"">
                    <img src=""images/semantic_sequence/using_technology_semantic/using_technology_semantic_ten.png"" class=""exp-image"">
                    <div class=""question-area"">
                        <p style=""font-size: 20px; font-weight: bold; margin: 0;"">Is there a person in this image?</p>
                    </div>
                </div>","0","main_experiment_trial","ten","using_technology_semantic","semantic_sequence","chronological","","","","","","",""
"","","","","","html-keyboard-response","79","163508","0.0-79.0","B644A6FF813A46E9B50C3B4D14E78458","019cfa3c-45fc-76ca-9d1d-0e9b3557efa8","019cfa3a-388e-72ab-ad58-bdeb258f96cd","","null","<div style=""background-color: white; width: 100vw; height: 100vh;""></div>","null","","","","","","","","","","","",""
"","","","","","html-keyboard-response","80","164515","0.0-80.0","B644A6FF813A46E9B50C3B4D14E78458","019cfa3c-45fc-76ca-9d1d-0e9b3557efa8","019cfa3a-388e-72ab-ad58-bdeb258f96cd","","null","
                <div class=""stimulus-container"">
                    <img src=""images/causal_sequence/saving_a_cat_causal/saving_a_cat_causal_1.png"" class=""exp-image"">
                    <div class=""question-area""></div> 
                </div>","null","","","","","","","","","","","",""
"","","","","","html-button-response","81","165931","0.0-81.0","B644A6FF813A46E9B50C3B4D14E78458","019cfa3c-45fc-76ca-9d1d-0e9b3557efa8","019cfa3a-388e-72ab-ad58-bdeb258f96cd","","1415","
                <div class=""stimulus-container"">
                    <img src=""images/causal_sequence/saving_a_cat_causal/saving_a_cat_causal_1.png"" class=""exp-image"">
                    <div class=""question-area"">
                        <p style=""font-size: 20px; font-weight: bold; margin: 0;"">Is there a person in this image?</p>
                    </div>
                </div>","0","main_experiment_trial","1","saving_a_cat_causal","causal_sequence","chronological","","","","","","",""
"","","","","","html-keyboard-response","82","166943","0.0-82.0","B644A6FF813A46E9B50C3B4D14E78458","019cfa3c-45fc-76ca-9d1d-0e9b3557efa8","019cfa3a-388e-72ab-ad58-bdeb258f96cd","","null","
                <div class=""stimulus-container"">
                    <img src=""images/causal_sequence/saving_a_cat_causal/saving_a_cat_causal_2.png"" class=""exp-image"">
                    <div class=""question-area""></div> 
                </div>","null","","","","","","","","","","","",""
"","","","","","html-button-response","83","167516","0.0-83.0","B644A6FF813A46E9B50C3B4D14E78458","019cfa3c-45fc-76ca-9d1d-0e9b3557efa8","019cfa3a-388e-72ab-ad58-bdeb258f96cd","","572","
                <div class=""stimulus-container"">
                    <img src=""images/causal_sequence/saving_a_cat_causal/saving_a_cat_causal_2.png"" class=""exp-image"">
                    <div class=""question-area"">
                        <p style=""font-size: 20px; font-weight: bold; margin: 0;"">Is there a person in this image?</p>
                    </div>
                </div>","1","main_experiment_trial","2","saving_a_cat_causal","causal_sequence","chronological","","","","","","",""
"","","","","","html-keyboard-response","84","168524","0.0-84.0","B644A6FF813A46E9B50C3B4D14E78458","019cfa3c-45fc-76ca-9d1d-0e9b3557efa8","019cfa3a-388e-72ab-ad58-bdeb258f96cd","","null","
                <div class=""stimulus-container"">
                    <img src=""images/causal_sequence/saving_a_cat_causal/saving_a_cat_causal_3.png"" class=""exp-image"">
                    <div class=""question-area""></div> 
                </div>","null","","","","","","","","","","","",""
"","","","","","html-button-response","85","169361","0.0-85.0","B644A6FF813A46E9B50C3B4D14E78458","019cfa3c-45fc-76ca-9d1d-0e9b3557efa8","019cfa3a-388e-72ab-ad58-bdeb258f96cd","","836","
                <div class=""stimulus-container"">
                    <img src=""images/causal_sequence/saving_a_cat_causal/saving_a_cat_causal_3.png"" class=""exp-image"">
                    <div class=""question-area"">
                        <p style=""font-size: 20px; font-weight: bold; margin: 0;"">Is there a person in this image?</p>
                    </div>
                </div>","1","main_experiment_trial","3","saving_a_cat_causal","causal_sequence","chronological","","","","","","",""
"","","","","","html-keyboard-response","86","170371","0.0-86.0","B644A6FF813A46E9B50C3B4D14E78458","019cfa3c-45fc-76ca-9d1d-0e9b3557efa8","019cfa3a-388e-72ab-ad58-bdeb258f96cd","","null","
                <div class=""stimulus-container"">
                    <img src=""images/causal_sequence/saving_a_cat_causal/saving_a_cat_causal_4.png"" class=""exp-image"">
                    <div class=""question-area""></div> 
                </div>","null","","","","","","","","","","","",""
"","","","","","html-button-response","87","171118","0.0-87.0","B644A6FF813A46E9B50C3B4D14E78458","019cfa3c-45fc-76ca-9d1d-0e9b3557efa8","019cfa3a-388e-72ab-ad58-bdeb258f96cd","","747","
                <div class=""stimulus-container"">
                    <img src=""images/causal_sequence/saving_a_cat_causal/saving_a_cat_causal_4.png"" class=""exp-image"">
                    <div class=""question-area"">
                        <p style=""font-size: 20px; font-weight: bold; margin: 0;"">Is there a person in this image?</p>
                    </div>
                </div>","0","main_experiment_trial","4","saving_a_cat_causal","causal_sequence","chronological","","","","","","",""
"","","","","","html-keyboard-response","88","172127","0.0-88.0","B644A6FF813A46E9B50C3B4D14E78458","019cfa3c-45fc-76ca-9d1d-0e9b3557efa8","019cfa3a-388e-72ab-ad58-bdeb258f96cd","","null","
                <div class=""stimulus-container"">
                    <img src=""images/causal_sequence/saving_a_cat_causal/saving_a_cat_causal_5.png"" class=""exp-image"">
                    <div class=""question-area""></div> 
                </div>","null","","","","","","","","","","","",""
"","","","","","html-button-response","89","173452","0.0-89.0","B644A6FF813A46E9B50C3B4D14E78458","019cfa3c-45fc-76ca-9d1d-0e9b3557efa8","019cfa3a-388e-72ab-ad58-bdeb258f96cd","","1325","
                <div class=""stimulus-container"">
                    <img src=""images/causal_sequence/saving_a_cat_causal/saving_a_cat_causal_5.png"" class=""exp-image"">
                    <div class=""question-area"">
                        <p style=""font-size: 20px; font-weight: bold; margin: 0;"">Is there a person in this image?</p>
                    </div>
                </div>","0","main_experiment_trial","5","saving_a_cat_causal","causal_sequence","chronological","","","","","","",""
"","","","","","html-keyboard-response","90","174462","0.0-90.0","B644A6FF813A46E9B50C3B4D14E78458","019cfa3c-45fc-76ca-9d1d-0e9b3557efa8","019cfa3a-388e-72ab-ad58-bdeb258f96cd","","null","
                <div class=""stimulus-container"">
                    <img src=""images/causal_sequence/saving_a_cat_causal/saving_a_cat_causal_6.png"" class=""exp-image"">
                    <div class=""question-area""></div> 
                </div>","null","","","","","","","","","","","",""
"","","","","","html-button-response","91","177478","0.0-91.0","B644A6FF813A46E9B50C3B4D14E78458","019cfa3c-45fc-76ca-9d1d-0e9b3557efa8","019cfa3a-388e-72ab-ad58-bdeb258f96cd","","null","
                <div class=""stimulus-container"">
                    <img src=""images/causal_sequence/saving_a_cat_causal/saving_a_cat_causal_6.png"" class=""exp-image"">
                    <div class=""question-area"">
                        <p style=""font-size: 20px; font-weight: bold; margin: 0;"">Is there a person in this image?</p>
                    </div>
                </div>","null","main_experiment_trial","6","saving_a_cat_causal","causal_sequence","chronological","","","","","","",""
"","","","","","html-keyboard-response","92","178491","0.0-92.0","B644A6FF813A46E9B50C3B4D14E78458","019cfa3c-45fc-76ca-9d1d-0e9b3557efa8","019cfa3a-388e-72ab-ad58-bdeb258f96cd","","null","
                <div class=""stimulus-container"">
                    <img src=""images/causal_sequence/saving_a_cat_causal/saving_a_cat_causal_7.png"" class=""exp-image"">
                    <div class=""question-area""></div> 
                </div>","null","","","","","","","","","","","",""
"","","","","","html-button-response","93","179286","0.0-93.0","B644A6FF813A46E9B50C3B4D14E78458","019cfa3c-45fc-76ca-9d1d-0e9b3557efa8","019cfa3a-388e-72ab-ad58-bdeb258f96cd","","794","
                <div class=""stimulus-container"">
                    <img src=""images/causal_sequence/saving_a_cat_causal/saving_a_cat_causal_7.png"" class=""exp-image"">
                    <div class=""question-area"">
                        <p style=""font-size: 20px; font-weight: bold; margin: 0;"">Is there a person in this image?</p>
                    </div>
                </div>","0","main_experiment_trial","7","saving_a_cat_causal","causal_sequence","chronological","","","","","","",""
"","","","","","html-keyboard-response","94","180301","0.0-94.0","B644A6FF813A46E9B50C3B4D14E78458","019cfa3c-45fc-76ca-9d1d-0e9b3557efa8","019cfa3a-388e-72ab-ad58-bdeb258f96cd","","null","
                <div class=""stimulus-container"">
                    <img src=""images/causal_sequence/saving_a_cat_causal/saving_a_cat_causal_8.png"" class=""exp-image"">
                    <div class=""question-area""></div> 
                </div>","null","","","","","","","","","","","",""
"","","","","","html-button-response","95","182787","0.0-95.0","B644A6FF813A46E9B50C3B4D14E78458","019cfa3c-45fc-76ca-9d1d-0e9b3557efa8","019cfa3a-388e-72ab-ad58-bdeb258f96cd","","2485","
                <div class=""stimulus-container"">
                    <img src=""images/causal_sequence/saving_a_cat_causal/saving_a_cat_causal_8.png"" class=""exp-image"">
                    <div class=""question-area"">
                        <p style=""font-size: 20px; font-weight: bold; margin: 0;"">Is there a person in this image?</p>
                    </div>
                </div>","0","main_experiment_trial","8","saving_a_cat_causal","causal_sequence","chronological","","","","","","",""
"","","","","","html-keyboard-response","96","183796","0.0-96.0","B644A6FF813A46E9B50C3B4D14E78458","019cfa3c-45fc-76ca-9d1d-0e9b3557efa8","019cfa3a-388e-72ab-ad58-bdeb258f96cd","","null","
                <div class=""stimulus-container"">
                    <img src=""images/causal_sequence/saving_a_cat_causal/saving_a_cat_causal_9.png"" class=""exp-image"">
                    <div class=""question-area""></div> 
                </div>","null","","","","","","","","","","","",""
"","","","","","html-button-response","97","186799","0.0-97.0","B644A6FF813A46E9B50C3B4D14E78458","019cfa3c-45fc-76ca-9d1d-0e9b3557efa8","019cfa3a-388e-72ab-ad58-bdeb258f96cd","","null","
                <div class=""stimulus-container"">
                    <img src=""images/causal_sequence/saving_a_cat_causal/saving_a_cat_causal_9.png"" class=""exp-image"">
                    <div class=""question-area"">
                        <p style=""font-size: 20px; font-weight: bold; margin: 0;"">Is there a person in this image?</p>
                    </div>
                </div>","null","main_experiment_trial","9","saving_a_cat_causal","causal_sequence","chronological","","","","","","",""
"","","","","","html-keyboard-response","98","187805","0.0-98.0","B644A6FF813A46E9B50C3B4D14E78458","019cfa3c-45fc-76ca-9d1d-0e9b3557efa8","019cfa3a-388e-72ab-ad58-bdeb258f96cd","","null","
                <div class=""stimulus-container"">
                    <img src=""images/causal_sequence/saving_a_cat_causal/saving_a_cat_causal_ten.png"" class=""exp-image"">
                    <div class=""question-area""></div> 
                </div>","null","","","","","","","","","","","",""
"","","","","","html-button-response","99","189358","0.0-99.0","B644A6FF813A46E9B50C3B4D14E78458","019cfa3c-45fc-76ca-9d1d-0e9b3557efa8","019cfa3a-388e-72ab-ad58-bdeb258f96cd","","1552","
                <div class=""stimulus-container"">
                    <img src=""images/causal_sequence/saving_a_cat_causal/saving_a_cat_causal_ten.png"" class=""exp-image"">
                    <div class=""question-area"">
                        <p style=""font-size: 20px; font-weight: bold; margin: 0;"">Is there a person in this image?</p>
                    </div>
                </div>","0","main_experiment_trial","ten","saving_a_cat_causal","causal_sequence","chronological","","","","","","",""
"","","","","","html-keyboard-response","100","194371","0.0-100.0","B644A6FF813A46E9B50C3B4D14E78458","019cfa3c-45fc-76ca-9d1d-0e9b3557efa8","019cfa3a-388e-72ab-ad58-bdeb258f96cd","","null","<div style=""background-color: white; width: 100vw; height: 100vh;""></div>","null","","","","","","","","","","","",""
"","","","","","html-keyboard-response","101","195373","0.0-101.0","B644A6FF813A46E9B50C3B4D14E78458","019cfa3c-45fc-76ca-9d1d-0e9b3557efa8","019cfa3a-388e-72ab-ad58-bdeb258f96cd","","null","
                <div class=""stimulus-container"">
                    <img src=""images/causal_sequence/museum_causal/museum_causal_1.png"" class=""exp-image"">
                    <div class=""question-area""></div> 
                </div>","null","","","","","","","","","","","",""
"","","","","","html-button-response","102","196027","0.0-102.0","B644A6FF813A46E9B50C3B4D14E78458","019cfa3c-45fc-76ca-9d1d-0e9b3557efa8","019cfa3a-388e-72ab-ad58-bdeb258f96cd","","654","
                <div class=""stimulus-container"">
                    <img src=""images/causal_sequence/museum_causal/museum_causal_1.png"" class=""exp-image"">
                    <div class=""question-area"">
                        <p style=""font-size: 20px; font-weight: bold; margin: 0;"">Is there a person in this image?</p>
                    </div>
                </div>","0","main_experiment_trial","1","museum_causal","causal_sequence","chronological","","","","","","",""
"","","","","","html-keyboard-response","103","197044","0.0-103.0","B644A6FF813A46E9B50C3B4D14E78458","019cfa3c-45fc-76ca-9d1d-0e9b3557efa8","019cfa3a-388e-72ab-ad58-bdeb258f96cd","","null","
                <div class=""stimulus-container"">
                    <img src=""images/causal_sequence/museum_causal/museum_causal_2.png"" class=""exp-image"">
                    <div class=""question-area""></div> 
                </div>","null","","","","","","","","","","","",""
"","","","","","html-button-response","104","197698","0.0-104.0","B644A6FF813A46E9B50C3B4D14E78458","019cfa3c-45fc-76ca-9d1d-0e9b3557efa8","019cfa3a-388e-72ab-ad58-bdeb258f96cd","","653","
                <div class=""stimulus-container"">
                    <img src=""images/causal_sequence/museum_causal/museum_causal_2.png"" class=""exp-image"">
                    <div class=""question-area"">
                        <p style=""font-size: 20px; font-weight: bold; margin: 0;"">Is there a person in this image?</p>
                    </div>
                </div>","0","main_experiment_trial","2","museum_causal","causal_sequence","chronological","","","","","","",""
"","","","","","html-keyboard-response","105","198708","0.0-105.0","B644A6FF813A46E9B50C3B4D14E78458","019cfa3c-45fc-76ca-9d1d-0e9b3557efa8","019cfa3a-388e-72ab-ad58-bdeb258f96cd","","null","
                <div class=""stimulus-container"">
                    <img src=""images/causal_sequence/museum_causal/museum_causal_3.png"" class=""exp-image"">
                    <div class=""question-area""></div> 
                </div>","null","","","","","","","","","","","",""
"","","","","","html-button-response","106","199751","0.0-106.0","B644A6FF813A46E9B50C3B4D14E78458","019cfa3c-45fc-76ca-9d1d-0e9b3557efa8","019cfa3a-388e-72ab-ad58-bdeb258f96cd","","1042","
                <div class=""stimulus-container"">
                    <img src=""images/causal_sequence/museum_causal/museum_causal_3.png"" class=""exp-image"">
                    <div class=""question-area"">
                        <p style=""font-size: 20px; font-weight: bold; margin: 0;"">Is there a person in this image?</p>
                    </div>
                </div>","0","main_experiment_trial","3","museum_causal","causal_sequence","chronological","","","","","","",""
"","","","","","html-keyboard-response","107","200752","0.0-107.0","B644A6FF813A46E9B50C3B4D14E78458","019cfa3c-45fc-76ca-9d1d-0e9b3557efa8","019cfa3a-388e-72ab-ad58-bdeb258f96cd","","null","
                <div class=""stimulus-container"">
                    <img src=""images/causal_sequence/museum_causal/museum_causal_4.png"" class=""exp-image"">
                    <div class=""question-area""></div> 
                </div>","null","","","","","","","","","","","",""
"","","","","","html-button-response","108","202200","0.0-108.0","B644A6FF813A46E9B50C3B4D14E78458","019cfa3c-45fc-76ca-9d1d-0e9b3557efa8","019cfa3a-388e-72ab-ad58-bdeb258f96cd","","1448","
                <div class=""stimulus-container"">
                    <img src=""images/causal_sequence/museum_causal/museum_causal_4.png"" class=""exp-image"">
                    <div class=""question-area"">
                        <p style=""font-size: 20px; font-weight: bold; margin: 0;"">Is there a person in this image?</p>
                    </div>
                </div>","1","main_experiment_trial","4","museum_causal","causal_sequence","chronological","","","","","","",""
"","","","","","html-keyboard-response","109","203207","0.0-109.0","B644A6FF813A46E9B50C3B4D14E78458","019cfa3c-45fc-76ca-9d1d-0e9b3557efa8","019cfa3a-388e-72ab-ad58-bdeb258f96cd","","null","
                <div class=""stimulus-container"">
                    <img src=""images/causal_sequence/museum_causal/museum_causal_5.png"" class=""exp-image"">
                    <div class=""question-area""></div> 
                </div>","null","","","","","","","","","","","",""
"","","","","","html-button-response","110","204346","0.0-110.0","B644A6FF813A46E9B50C3B4D14E78458","019cfa3c-45fc-76ca-9d1d-0e9b3557efa8","019cfa3a-388e-72ab-ad58-bdeb258f96cd","","1137","
                <div class=""stimulus-container"">
                    <img src=""images/causal_sequence/museum_causal/museum_causal_5.png"" class=""exp-image"">
                    <div class=""question-area"">
                        <p style=""font-size: 20px; font-weight: bold; margin: 0;"">Is there a person in this image?</p>
                    </div>
                </div>","0","main_experiment_trial","5","museum_causal","causal_sequence","chronological","","","","","","",""
"","","","","","html-keyboard-response","111","205354","0.0-111.0","B644A6FF813A46E9B50C3B4D14E78458","019cfa3c-45fc-76ca-9d1d-0e9b3557efa8","019cfa3a-388e-72ab-ad58-bdeb258f96cd","","null","
                <div class=""stimulus-container"">
                    <img src=""images/causal_sequence/museum_causal/museum_causal_6.png"" class=""exp-image"">
                    <div class=""question-area""></div> 
                </div>","null","","","","","","","","","","","",""
"","","","","","html-button-response","112","207139","0.0-112.0","B644A6FF813A46E9B50C3B4D14E78458","019cfa3c-45fc-76ca-9d1d-0e9b3557efa8","019cfa3a-388e-72ab-ad58-bdeb258f96cd","","1785","
                <div class=""stimulus-container"">
                    <img src=""images/causal_sequence/museum_causal/museum_causal_6.png"" class=""exp-image"">
                    <div class=""question-area"">
                        <p style=""font-size: 20px; font-weight: bold; margin: 0;"">Is there a person in this image?</p>
                    </div>
                </div>","0","main_experiment_trial","6","museum_causal","causal_sequence","chronological","","","","","","",""
"","","","","","html-keyboard-response","113","208149","0.0-113.0","B644A6FF813A46E9B50C3B4D14E78458","019cfa3c-45fc-76ca-9d1d-0e9b3557efa8","019cfa3a-388e-72ab-ad58-bdeb258f96cd","","null","
                <div class=""stimulus-container"">
                    <img src=""images/causal_sequence/museum_causal/museum_causal_7.png"" class=""exp-image"">
                    <div class=""question-area""></div> 
                </div>","null","","","","","","","","","","","",""
"","","","","","html-button-response","114","209496","0.0-114.0","B644A6FF813A46E9B50C3B4D14E78458","019cfa3c-45fc-76ca-9d1d-0e9b3557efa8","019cfa3a-388e-72ab-ad58-bdeb258f96cd","","1346","
                <div class=""stimulus-container"">
                    <img src=""images/causal_sequence/museum_causal/museum_causal_7.png"" class=""exp-image"">
                    <div class=""question-area"">
                        <p style=""font-size: 20px; font-weight: bold; margin: 0;"">Is there a person in this image?</p>
                    </div>
                </div>","1","main_experiment_trial","7","museum_causal","causal_sequence","chronological","","","","","","",""
"","","","","","html-keyboard-response","115","210504","0.0-115.0","B644A6FF813A46E9B50C3B4D14E78458","019cfa3c-45fc-76ca-9d1d-0e9b3557efa8","019cfa3a-388e-72ab-ad58-bdeb258f96cd","","null","
                <div class=""stimulus-container"">
                    <img src=""images/causal_sequence/museum_causal/museum_causal_8.png"" class=""exp-image"">
                    <div class=""question-area""></div> 
                </div>","null","","","","","","","","","","","",""
"","","","","","html-button-response","116","211283","0.0-116.0","B644A6FF813A46E9B50C3B4D14E78458","019cfa3c-45fc-76ca-9d1d-0e9b3557efa8","019cfa3a-388e-72ab-ad58-bdeb258f96cd","","778","
                <div class=""stimulus-container"">
                    <img src=""images/causal_sequence/museum_causal/museum_causal_8.png"" class=""exp-image"">
                    <div class=""question-area"">
                        <p style=""font-size: 20px; font-weight: bold; margin: 0;"">Is there a person in this image?</p>
                    </div>
                </div>","0","main_experiment_trial","8","museum_causal","causal_sequence","chronological","","","","","","",""
"","","","","","html-keyboard-response","117","212289","0.0-117.0","B644A6FF813A46E9B50C3B4D14E78458","019cfa3c-45fc-76ca-9d1d-0e9b3557efa8","019cfa3a-388e-72ab-ad58-bdeb258f96cd","","null","
                <div class=""stimulus-container"">
                    <img src=""images/causal_sequence/museum_causal/museum_causal_9.png"" class=""exp-image"">
                    <div class=""question-area""></div> 
                </div>","null","","","","","","","","","","","",""
"","","","","","html-button-response","118","213110","0.0-118.0","B644A6FF813A46E9B50C3B4D14E78458","019cfa3c-45fc-76ca-9d1d-0e9b3557efa8","019cfa3a-388e-72ab-ad58-bdeb258f96cd","","820","
                <div class=""stimulus-container"">
                    <img src=""images/causal_sequence/museum_causal/museum_causal_9.png"" class=""exp-image"">
                    <div class=""question-area"">
                        <p style=""font-size: 20px; font-weight: bold; margin: 0;"">Is there a person in this image?</p>
                    </div>
                </div>","1","main_experiment_trial","9","museum_causal","causal_sequence","chronological","","","","","","",""
"","","","","","html-keyboard-response","119","214121","0.0-119.0","B644A6FF813A46E9B50C3B4D14E78458","019cfa3c-45fc-76ca-9d1d-0e9b3557efa8","019cfa3a-388e-72ab-ad58-bdeb258f96cd","","null","
                <div class=""stimulus-container"">
                    <img src=""images/causal_sequence/museum_causal/museum_causal_ten.png"" class=""exp-image"">
                    <div class=""question-area""></div> 
                </div>","null","","","","","","","","","","","",""
"","","","","","html-button-response","120","214974","0.0-120.0","B644A6FF813A46E9B50C3B4D14E78458","019cfa3c-45fc-76ca-9d1d-0e9b3557efa8","019cfa3a-388e-72ab-ad58-bdeb258f96cd","","852","
                <div class=""stimulus-container"">
                    <img src=""images/causal_sequence/museum_causal/museum_causal_ten.png"" class=""exp-image"">
                    <div class=""question-area"">
                        <p style=""font-size: 20px; font-weight: bold; margin: 0;"">Is there a person in this image?</p>
                    </div>
                </div>","0","main_experiment_trial","ten","museum_causal","causal_sequence","chronological","","","","","","",""
"","","","","","html-keyboard-response","121","219975","0.0-121.0","B644A6FF813A46E9B50C3B4D14E78458","019cfa3c-45fc-76ca-9d1d-0e9b3557efa8","019cfa3a-388e-72ab-ad58-bdeb258f96cd","","null","<div style=""background-color: white; width: 100vw; height: 100vh;""></div>","null","","","","","","","","","","","",""
"","","","","","html-keyboard-response","122","220981","0.0-122.0","B644A6FF813A46E9B50C3B4D14E78458","019cfa3c-45fc-76ca-9d1d-0e9b3557efa8","019cfa3a-388e-72ab-ad58-bdeb258f96cd","","null","
                <div class=""stimulus-container"">
                    <img src=""images/causal_sequence/dog_causal/dog_causal_1.png"" class=""exp-image"">
                    <div class=""question-area""></div> 
                </div>","null","","","","","","","","","","","",""
"","","","","","html-button-response","123","222111","0.0-123.0","B644A6FF813A46E9B50C3B4D14E78458","019cfa3c-45fc-76ca-9d1d-0e9b3557efa8","019cfa3a-388e-72ab-ad58-bdeb258f96cd","","1130","
                <div class=""stimulus-container"">
                    <img src=""images/causal_sequence/dog_causal/dog_causal_1.png"" class=""exp-image"">
                    <div class=""question-area"">
                        <p style=""font-size: 20px; font-weight: bold; margin: 0;"">Is there a person in this image?</p>
                    </div>
                </div>","0","main_experiment_trial","1","dog_causal","causal_sequence","chronological","","","","","","",""
"","","","","","html-keyboard-response","124","223112","0.0-124.0","B644A6FF813A46E9B50C3B4D14E78458","019cfa3c-45fc-76ca-9d1d-0e9b3557efa8","019cfa3a-388e-72ab-ad58-bdeb258f96cd","","null","
                <div class=""stimulus-container"">
                    <img src=""images/causal_sequence/dog_causal/dog_causal_2.png"" class=""exp-image"">
                    <div class=""question-area""></div> 
                </div>","null","","","","","","","","","","","",""
"","","","","","html-button-response","125","225410","0.0-125.0","B644A6FF813A46E9B50C3B4D14E78458","019cfa3c-45fc-76ca-9d1d-0e9b3557efa8","019cfa3a-388e-72ab-ad58-bdeb258f96cd","","2297","
                <div class=""stimulus-container"">
                    <img src=""images/causal_sequence/dog_causal/dog_causal_2.png"" class=""exp-image"">
                    <div class=""question-area"">
                        <p style=""font-size: 20px; font-weight: bold; margin: 0;"">Is there a person in this image?</p>
                    </div>
                </div>","0","main_experiment_trial","2","dog_causal","causal_sequence","chronological","","","","","","",""
"","","","","","html-keyboard-response","126","226426","0.0-126.0","B644A6FF813A46E9B50C3B4D14E78458","019cfa3c-45fc-76ca-9d1d-0e9b3557efa8","019cfa3a-388e-72ab-ad58-bdeb258f96cd","","null","
                <div class=""stimulus-container"">
                    <img src=""images/causal_sequence/dog_causal/dog_causal_3.png"" class=""exp-image"">
                    <div class=""question-area""></div> 
                </div>","null","","","","","","","","","","","",""
"","","","","","html-button-response","127","227476","0.0-127.0","B644A6FF813A46E9B50C3B4D14E78458","019cfa3c-45fc-76ca-9d1d-0e9b3557efa8","019cfa3a-388e-72ab-ad58-bdeb258f96cd","","1049","
                <div class=""stimulus-container"">
                    <img src=""images/causal_sequence/dog_causal/dog_causal_3.png"" class=""exp-image"">
                    <div class=""question-area"">
                        <p style=""font-size: 20px; font-weight: bold; margin: 0;"">Is there a person in this image?</p>
                    </div>
                </div>","0","main_experiment_trial","3","dog_causal","causal_sequence","chronological","","","","","","",""
"","","","","","html-keyboard-response","128","228479","0.0-128.0","B644A6FF813A46E9B50C3B4D14E78458","019cfa3c-45fc-76ca-9d1d-0e9b3557efa8","019cfa3a-388e-72ab-ad58-bdeb258f96cd","","null","
                <div class=""stimulus-container"">
                    <img src=""images/causal_sequence/dog_causal/dog_causal_4.png"" class=""exp-image"">
                    <div class=""question-area""></div> 
                </div>","null","","","","","","","","","","","",""
"","","","","","html-button-response","129","229133","0.0-129.0","B644A6FF813A46E9B50C3B4D14E78458","019cfa3c-45fc-76ca-9d1d-0e9b3557efa8","019cfa3a-388e-72ab-ad58-bdeb258f96cd","","653","
                <div class=""stimulus-container"">
                    <img src=""images/causal_sequence/dog_causal/dog_causal_4.png"" class=""exp-image"">
                    <div class=""question-area"">
                        <p style=""font-size: 20px; font-weight: bold; margin: 0;"">Is there a person in this image?</p>
                    </div>
                </div>","0","main_experiment_trial","4","dog_causal","causal_sequence","chronological","","","","","","",""
"","","","","","html-keyboard-response","130","230146","0.0-130.0","B644A6FF813A46E9B50C3B4D14E78458","019cfa3c-45fc-76ca-9d1d-0e9b3557efa8","019cfa3a-388e-72ab-ad58-bdeb258f96cd","","null","
                <div class=""stimulus-container"">
                    <img src=""images/causal_sequence/dog_causal/dog_causal_5.png"" class=""exp-image"">
                    <div class=""question-area""></div> 
                </div>","null","","","","","","","","","","","",""
"","","","","","html-button-response","131","231468","0.0-131.0","B644A6FF813A46E9B50C3B4D14E78458","019cfa3c-45fc-76ca-9d1d-0e9b3557efa8","019cfa3a-388e-72ab-ad58-bdeb258f96cd","","1322","
                <div class=""stimulus-container"">
                    <img src=""images/causal_sequence/dog_causal/dog_causal_5.png"" class=""exp-image"">
                    <div class=""question-area"">
                        <p style=""font-size: 20px; font-weight: bold; margin: 0;"">Is there a person in this image?</p>
                    </div>
                </div>","0","main_experiment_trial","5","dog_causal","causal_sequence","chronological","","","","","","",""
"","","","","","html-keyboard-response","132","232478","0.0-132.0","B644A6FF813A46E9B50C3B4D14E78458","019cfa3c-45fc-76ca-9d1d-0e9b3557efa8","019cfa3a-388e-72ab-ad58-bdeb258f96cd","","null","
                <div class=""stimulus-container"">
                    <img src=""images/causal_sequence/dog_causal/dog_causal_6.png"" class=""exp-image"">
                    <div class=""question-area""></div> 
                </div>","null","","","","","","","","","","","",""
"","","","","","html-button-response","133","233984","0.0-133.0","B644A6FF813A46E9B50C3B4D14E78458","019cfa3c-45fc-76ca-9d1d-0e9b3557efa8","019cfa3a-388e-72ab-ad58-bdeb258f96cd","","1505","
                <div class=""stimulus-container"">
                    <img src=""images/causal_sequence/dog_causal/dog_causal_6.png"" class=""exp-image"">
                    <div class=""question-area"">
                        <p style=""font-size: 20px; font-weight: bold; margin: 0;"">Is there a person in this image?</p>
                    </div>
                </div>","0","main_experiment_trial","6","dog_causal","causal_sequence","chronological","","","","","","",""
"","","","","","html-keyboard-response","134","234987","0.0-134.0","B644A6FF813A46E9B50C3B4D14E78458","019cfa3c-45fc-76ca-9d1d-0e9b3557efa8","019cfa3a-388e-72ab-ad58-bdeb258f96cd","","null","
                <div class=""stimulus-container"">
                    <img src=""images/causal_sequence/dog_causal/dog_causal_7.png"" class=""exp-image"">
                    <div class=""question-area""></div> 
                </div>","null","","","","","","","","","","","",""
"","","","","","html-button-response","135","236005","0.0-135.0","B644A6FF813A46E9B50C3B4D14E78458","019cfa3c-45fc-76ca-9d1d-0e9b3557efa8","019cfa3a-388e-72ab-ad58-bdeb258f96cd","","1018","
                <div class=""stimulus-container"">
                    <img src=""images/causal_sequence/dog_causal/dog_causal_7.png"" class=""exp-image"">
                    <div class=""question-area"">
                        <p style=""font-size: 20px; font-weight: bold; margin: 0;"">Is there a person in this image?</p>
                    </div>
                </div>","0","main_experiment_trial","7","dog_causal","causal_sequence","chronological","","","","","","",""
"","","","","","html-keyboard-response","136","237013","0.0-136.0","B644A6FF813A46E9B50C3B4D14E78458","019cfa3c-45fc-76ca-9d1d-0e9b3557efa8","019cfa3a-388e-72ab-ad58-bdeb258f96cd","","null","
                <div class=""stimulus-container"">
                    <img src=""images/causal_sequence/dog_causal/dog_causal_8.png"" class=""exp-image"">
                    <div class=""question-area""></div> 
                </div>","null","","","","","","","","","","","",""
"","","","","","html-button-response","137","239126","0.0-137.0","B644A6FF813A46E9B50C3B4D14E78458","019cfa3c-45fc-76ca-9d1d-0e9b3557efa8","019cfa3a-388e-72ab-ad58-bdeb258f96cd","","2113","
                <div class=""stimulus-container"">
                    <img src=""images/causal_sequence/dog_causal/dog_causal_8.png"" class=""exp-image"">
                    <div class=""question-area"">
                        <p style=""font-size: 20px; font-weight: bold; margin: 0;"">Is there a person in this image?</p>
                    </div>
                </div>","0","main_experiment_trial","8","dog_causal","causal_sequence","chronological","","","","","","",""
"","","","","","html-keyboard-response","138","240130","0.0-138.0","B644A6FF813A46E9B50C3B4D14E78458","019cfa3c-45fc-76ca-9d1d-0e9b3557efa8","019cfa3a-388e-72ab-ad58-bdeb258f96cd","","null","
                <div class=""stimulus-container"">
                    <img src=""images/causal_sequence/dog_causal/dog_causal_9.png"" class=""exp-image"">
                    <div class=""question-area""></div> 
                </div>","null","","","","","","","","","","","",""
"","","","","","html-button-response","139","241879","0.0-139.0","B644A6FF813A46E9B50C3B4D14E78458","019cfa3c-45fc-76ca-9d1d-0e9b3557efa8","019cfa3a-388e-72ab-ad58-bdeb258f96cd","","1749","
                <div class=""stimulus-container"">
                    <img src=""images/causal_sequence/dog_causal/dog_causal_9.png"" class=""exp-image"">
                    <div class=""question-area"">
                        <p style=""font-size: 20px; font-weight: bold; margin: 0;"">Is there a person in this image?</p>
                    </div>
                </div>","0","main_experiment_trial","9","dog_causal","causal_sequence","chronological","","","","","","",""
"","","","","","html-keyboard-response","140","242881","0.0-140.0","B644A6FF813A46E9B50C3B4D14E78458","019cfa3c-45fc-76ca-9d1d-0e9b3557efa8","019cfa3a-388e-72ab-ad58-bdeb258f96cd","","null","
                <div class=""stimulus-container"">
                    <img src=""images/causal_sequence/dog_causal/dog_causal_ten.png"" class=""exp-image"">
                    <div class=""question-area""></div> 
                </div>","null","","","","","","","","","","","",""
"","","","","","html-button-response","141","244574","0.0-141.0","B644A6FF813A46E9B50C3B4D14E78458","019cfa3c-45fc-76ca-9d1d-0e9b3557efa8","019cfa3a-388e-72ab-ad58-bdeb258f96cd","","1693","
                <div class=""stimulus-container"">
                    <img src=""images/causal_sequence/dog_causal/dog_causal_ten.png"" class=""exp-image"">
                    <div class=""question-area"">
                        <p style=""font-size: 20px; font-weight: bold; margin: 0;"">Is there a person in this image?</p>
                    </div>
                </div>","0","main_experiment_trial","ten","dog_causal","causal_sequence","chronological","","","","","","",""
"","","","","","html-keyboard-response","142","249582","0.0-142.0","B644A6FF813A46E9B50C3B4D14E78458","019cfa3c-45fc-76ca-9d1d-0e9b3557efa8","019cfa3a-388e-72ab-ad58-bdeb258f96cd","","null","<div style=""background-color: white; width: 100vw; height: 100vh;""></div>","null","","","","","","","","","","","",""
"","","","","","html-keyboard-response","143","250584","0.0-143.0","B644A6FF813A46E9B50C3B4D14E78458","019cfa3c-45fc-76ca-9d1d-0e9b3557efa8","019cfa3a-388e-72ab-ad58-bdeb258f96cd","","null","
                <div class=""stimulus-container"">
                    <img src=""images/semantic_sequence/redecorating_a_house_semantic/redecorating_a_house_semantic_1.png"" class=""exp-image"">
                    <div class=""question-area""></div> 
                </div>","null","","","","","","","","","","","",""
"","","","","","html-button-response","144","251241","0.0-144.0","B644A6FF813A46E9B50C3B4D14E78458","019cfa3c-45fc-76ca-9d1d-0e9b3557efa8","019cfa3a-388e-72ab-ad58-bdeb258f96cd","","656","
                <div class=""stimulus-container"">
                    <img src=""images/semantic_sequence/redecorating_a_house_semantic/redecorating_a_house_semantic_1.png"" class=""exp-image"">
                    <div class=""question-area"">
                        <p style=""font-size: 20px; font-weight: bold; margin: 0;"">Is there a person in this image?</p>
                    </div>
                </div>","0","main_experiment_trial","1","redecorating_a_house_semantic","semantic_sequence","chronological","","","","","","",""
"","","","","","html-keyboard-response","145","252245","0.0-145.0","B644A6FF813A46E9B50C3B4D14E78458","019cfa3c-45fc-76ca-9d1d-0e9b3557efa8","019cfa3a-388e-72ab-ad58-bdeb258f96cd","","null","
                <div class=""stimulus-container"">
                    <img src=""images/semantic_sequence/redecorating_a_house_semantic/redecorating_a_house_semantic_2.png"" class=""exp-image"">
                    <div class=""question-area""></div> 
                </div>","null","","","","","","","","","","","",""
"","","","","","html-button-response","146","252818","0.0-146.0","B644A6FF813A46E9B50C3B4D14E78458","019cfa3c-45fc-76ca-9d1d-0e9b3557efa8","019cfa3a-388e-72ab-ad58-bdeb258f96cd","","572","
                <div class=""stimulus-container"">
                    <img src=""images/semantic_sequence/redecorating_a_house_semantic/redecorating_a_house_semantic_2.png"" class=""exp-image"">
                    <div class=""question-area"">
                        <p style=""font-size: 20px; font-weight: bold; margin: 0;"">Is there a person in this image?</p>
                    </div>
                </div>","0","main_experiment_trial","2","redecorating_a_house_semantic","semantic_sequence","chronological","","","","","","",""
"","","","","","html-keyboard-response","147","253832","0.0-147.0","B644A6FF813A46E9B50C3B4D14E78458","019cfa3c-45fc-76ca-9d1d-0e9b3557efa8","019cfa3a-388e-72ab-ad58-bdeb258f96cd","","null","
                <div class=""stimulus-container"">
                    <img src=""images/semantic_sequence/redecorating_a_house_semantic/redecorating_a_house_semantic_3.png"" class=""exp-image"">
                    <div class=""question-area""></div> 
                </div>","null","","","","","","","","","","","",""
"","","","","","html-button-response","148","254585","0.0-148.0","B644A6FF813A46E9B50C3B4D14E78458","019cfa3c-45fc-76ca-9d1d-0e9b3557efa8","019cfa3a-388e-72ab-ad58-bdeb258f96cd","","753","
                <div class=""stimulus-container"">
                    <img src=""images/semantic_sequence/redecorating_a_house_semantic/redecorating_a_house_semantic_3.png"" class=""exp-image"">
                    <div class=""question-area"">
                        <p style=""font-size: 20px; font-weight: bold; margin: 0;"">Is there a person in this image?</p>
                    </div>
                </div>","0","main_experiment_trial","3","redecorating_a_house_semantic","semantic_sequence","chronological","","","","","","",""
"","","","","","html-keyboard-response","149","255599","0.0-149.0","B644A6FF813A46E9B50C3B4D14E78458","019cfa3c-45fc-76ca-9d1d-0e9b3557efa8","019cfa3a-388e-72ab-ad58-bdeb258f96cd","","null","
                <div class=""stimulus-container"">
                    <img src=""images/semantic_sequence/redecorating_a_house_semantic/redecorating_a_house_semantic_4.png"" class=""exp-image"">
                    <div class=""question-area""></div> 
                </div>","null","","","","","","","","","","","",""
"","","","","","html-button-response","150","258601","0.0-150.0","B644A6FF813A46E9B50C3B4D14E78458","019cfa3c-45fc-76ca-9d1d-0e9b3557efa8","019cfa3a-388e-72ab-ad58-bdeb258f96cd","","null","
                <div class=""stimulus-container"">
                    <img src=""images/semantic_sequence/redecorating_a_house_semantic/redecorating_a_house_semantic_4.png"" class=""exp-image"">
                    <div class=""question-area"">
                        <p style=""font-size: 20px; font-weight: bold; margin: 0;"">Is there a person in this image?</p>
                    </div>
                </div>","null","main_experiment_trial","4","redecorating_a_house_semantic","semantic_sequence","chronological","","","","","","",""
"","","","","","html-keyboard-response","151","259605","0.0-151.0","B644A6FF813A46E9B50C3B4D14E78458","019cfa3c-45fc-76ca-9d1d-0e9b3557efa8","019cfa3a-388e-72ab-ad58-bdeb258f96cd","","null","
                <div class=""stimulus-container"">
                    <img src=""images/semantic_sequence/redecorating_a_house_semantic/redecorating_a_house_semantic_5.png"" class=""exp-image"">
                    <div class=""question-area""></div> 
                </div>","null","","","","","","","","","","","",""
"","","","","","html-button-response","152","260321","0.0-152.0","B644A6FF813A46E9B50C3B4D14E78458","019cfa3c-45fc-76ca-9d1d-0e9b3557efa8","019cfa3a-388e-72ab-ad58-bdeb258f96cd","","716","
                <div class=""stimulus-container"">
                    <img src=""images/semantic_sequence/redecorating_a_house_semantic/redecorating_a_house_semantic_5.png"" class=""exp-image"">
                    <div class=""question-area"">
                        <p style=""font-size: 20px; font-weight: bold; margin: 0;"">Is there a person in this image?</p>
                    </div>
                </div>","0","main_experiment_trial","5","redecorating_a_house_semantic","semantic_sequence","chronological","","","","","","",""
"","","","","","html-keyboard-response","153","261326","0.0-153.0","B644A6FF813A46E9B50C3B4D14E78458","019cfa3c-45fc-76ca-9d1d-0e9b3557efa8","019cfa3a-388e-72ab-ad58-bdeb258f96cd","","null","
                <div class=""stimulus-container"">
                    <img src=""images/semantic_sequence/redecorating_a_house_semantic/redecorating_a_house_semantic_6.png"" class=""exp-image"">
                    <div class=""question-area""></div> 
                </div>","null","","","","","","","","","","","",""
"","","","","","html-button-response","154","261880","0.0-154.0","B644A6FF813A46E9B50C3B4D14E78458","019cfa3c-45fc-76ca-9d1d-0e9b3557efa8","019cfa3a-388e-72ab-ad58-bdeb258f96cd","","553","
                <div class=""stimulus-container"">
                    <img src=""images/semantic_sequence/redecorating_a_house_semantic/redecorating_a_house_semantic_6.png"" class=""exp-image"">
                    <div class=""question-area"">
                        <p style=""font-size: 20px; font-weight: bold; margin: 0;"">Is there a person in this image?</p>
                    </div>
                </div>","0","main_experiment_trial","6","redecorating_a_house_semantic","semantic_sequence","chronological","","","","","","",""
"","","","","","html-keyboard-response","155","262891","0.0-155.0","B644A6FF813A46E9B50C3B4D14E78458","019cfa3c-45fc-76ca-9d1d-0e9b3557efa8","019cfa3a-388e-72ab-ad58-bdeb258f96cd","","null","
                <div class=""stimulus-container"">
                    <img src=""images/semantic_sequence/redecorating_a_house_semantic/redecorating_a_house_semantic_7.png"" class=""exp-image"">
                    <div class=""question-area""></div> 
                </div>","null","","","","","","","","","","","",""
"","","","","","html-button-response","156","263845","0.0-156.0","B644A6FF813A46E9B50C3B4D14E78458","019cfa3c-45fc-76ca-9d1d-0e9b3557efa8","019cfa3a-388e-72ab-ad58-bdeb258f96cd","","953","
                <div class=""stimulus-container"">
                    <img src=""images/semantic_sequence/redecorating_a_house_semantic/redecorating_a_house_semantic_7.png"" class=""exp-image"">
                    <div class=""question-area"">
                        <p style=""font-size: 20px; font-weight: bold; margin: 0;"">Is there a person in this image?</p>
                    </div>
                </div>","0","main_experiment_trial","7","redecorating_a_house_semantic","semantic_sequence","chronological","","","","","","",""
"","","","","","html-keyboard-response","157","264848","0.0-157.0","B644A6FF813A46E9B50C3B4D14E78458","019cfa3c-45fc-76ca-9d1d-0e9b3557efa8","019cfa3a-388e-72ab-ad58-bdeb258f96cd","","null","
                <div class=""stimulus-container"">
                    <img src=""images/semantic_sequence/redecorating_a_house_semantic/redecorating_a_house_semantic_8.png"" class=""exp-image"">
                    <div class=""question-area""></div> 
                </div>","null","","","","","","","","","","","",""
"","","","","","html-button-response","158","265569","0.0-158.0","B644A6FF813A46E9B50C3B4D14E78458","019cfa3c-45fc-76ca-9d1d-0e9b3557efa8","019cfa3a-388e-72ab-ad58-bdeb258f96cd","","720","
                <div class=""stimulus-container"">
                    <img src=""images/semantic_sequence/redecorating_a_house_semantic/redecorating_a_house_semantic_8.png"" class=""exp-image"">
                    <div class=""question-area"">
                        <p style=""font-size: 20px; font-weight: bold; margin: 0;"">Is there a person in this image?</p>
                    </div>
                </div>","0","main_experiment_trial","8","redecorating_a_house_semantic","semantic_sequence","chronological","","","","","","",""
"","","","","","html-keyboard-response","159","266571","0.0-159.0","B644A6FF813A46E9B50C3B4D14E78458","019cfa3c-45fc-76ca-9d1d-0e9b3557efa8","019cfa3a-388e-72ab-ad58-bdeb258f96cd","","null","
                <div class=""stimulus-container"">
                    <img src=""images/semantic_sequence/redecorating_a_house_semantic/redecorating_a_house_semantic_9.png"" class=""exp-image"">
                    <div class=""question-area""></div> 
                </div>","null","","","","","","","","","","","",""
"","","","","","html-button-response","160","267350","0.0-160.0","B644A6FF813A46E9B50C3B4D14E78458","019cfa3c-45fc-76ca-9d1d-0e9b3557efa8","019cfa3a-388e-72ab-ad58-bdeb258f96cd","","778","
                <div class=""stimulus-container"">
                    <img src=""images/semantic_sequence/redecorating_a_house_semantic/redecorating_a_house_semantic_9.png"" class=""exp-image"">
                    <div class=""question-area"">
                        <p style=""font-size: 20px; font-weight: bold; margin: 0;"">Is there a person in this image?</p>
                    </div>
                </div>","0","main_experiment_trial","9","redecorating_a_house_semantic","semantic_sequence","chronological","","","","","","",""
"","","","","","html-keyboard-response","161","268354","0.0-161.0","B644A6FF813A46E9B50C3B4D14E78458","019cfa3c-45fc-76ca-9d1d-0e9b3557efa8","019cfa3a-388e-72ab-ad58-bdeb258f96cd","","null","
                <div class=""stimulus-container"">
                    <img src=""images/semantic_sequence/redecorating_a_house_semantic/redecorating_a_house_semantic_ten.png"" class=""exp-image"">
                    <div class=""question-area""></div> 
                </div>","null","","","","","","","","","","","",""
"","","","","","html-button-response","162","268859","0.0-162.0","B644A6FF813A46E9B50C3B4D14E78458","019cfa3c-45fc-76ca-9d1d-0e9b3557efa8","019cfa3a-388e-72ab-ad58-bdeb258f96cd","","504","
                <div class=""stimulus-container"">
                    <img src=""images/semantic_sequence/redecorating_a_house_semantic/redecorating_a_house_semantic_ten.png"" class=""exp-image"">
                    <div class=""question-area"">
                        <p style=""font-size: 20px; font-weight: bold; margin: 0;"">Is there a person in this image?</p>
                    </div>
                </div>","0","main_experiment_trial","ten","redecorating_a_house_semantic","semantic_sequence","chronological","","","","","","",""
"","","","","","html-keyboard-response","163","273871","0.0-163.0","B644A6FF813A46E9B50C3B4D14E78458","019cfa3c-45fc-76ca-9d1d-0e9b3557efa8","019cfa3a-388e-72ab-ad58-bdeb258f96cd","","null","<div style=""background-color: white; width: 100vw; height: 100vh;""></div>","null","","","","","","","","","","","",""
"","","","","","html-keyboard-response","164","274880","0.0-164.0","B644A6FF813A46E9B50C3B4D14E78458","019cfa3c-45fc-76ca-9d1d-0e9b3557efa8","019cfa3a-388e-72ab-ad58-bdeb258f96cd","","null","
                <div class=""stimulus-container"">
                    <img src=""images/causal_sequence/coin_causal/coin_causal_1.png"" class=""exp-image"">
                    <div class=""question-area""></div> 
                </div>","null","","","","","","","","","","","",""
"","","","","","html-button-response","165","275454","0.0-165.0","B644A6FF813A46E9B50C3B4D14E78458","019cfa3c-45fc-76ca-9d1d-0e9b3557efa8","019cfa3a-388e-72ab-ad58-bdeb258f96cd","","573","
                <div class=""stimulus-container"">
                    <img src=""images/causal_sequence/coin_causal/coin_causal_1.png"" class=""exp-image"">
                    <div class=""question-area"">
                        <p style=""font-size: 20px; font-weight: bold; margin: 0;"">Is there a person in this image?</p>
                    </div>
                </div>","0","main_experiment_trial","1","coin_causal","causal_sequence","chronological","","","","","","",""
"","","","","","html-keyboard-response","166","276462","0.0-166.0","B644A6FF813A46E9B50C3B4D14E78458","019cfa3c-45fc-76ca-9d1d-0e9b3557efa8","019cfa3a-388e-72ab-ad58-bdeb258f96cd","","null","
                <div class=""stimulus-container"">
                    <img src=""images/causal_sequence/coin_causal/coin_causal_2.png"" class=""exp-image"">
                    <div class=""question-area""></div> 
                </div>","null","","","","","","","","","","","",""
"","","","","","html-button-response","167","277445","0.0-167.0","B644A6FF813A46E9B50C3B4D14E78458","019cfa3c-45fc-76ca-9d1d-0e9b3557efa8","019cfa3a-388e-72ab-ad58-bdeb258f96cd","","983","
                <div class=""stimulus-container"">
                    <img src=""images/causal_sequence/coin_causal/coin_causal_2.png"" class=""exp-image"">
                    <div class=""question-area"">
                        <p style=""font-size: 20px; font-weight: bold; margin: 0;"">Is there a person in this image?</p>
                    </div>
                </div>","0","main_experiment_trial","2","coin_causal","causal_sequence","chronological","","","","","","",""
"","","","","","html-keyboard-response","168","278453","0.0-168.0","B644A6FF813A46E9B50C3B4D14E78458","019cfa3c-45fc-76ca-9d1d-0e9b3557efa8","019cfa3a-388e-72ab-ad58-bdeb258f96cd","","null","
                <div class=""stimulus-container"">
                    <img src=""images/causal_sequence/coin_causal/coin_causal_3.png"" class=""exp-image"">
                    <div class=""question-area""></div> 
                </div>","null","","","","","","","","","","","",""
"","","","","","html-button-response","169","279292","0.0-169.0","B644A6FF813A46E9B50C3B4D14E78458","019cfa3c-45fc-76ca-9d1d-0e9b3557efa8","019cfa3a-388e-72ab-ad58-bdeb258f96cd","","839","
                <div class=""stimulus-container"">
                    <img src=""images/causal_sequence/coin_causal/coin_causal_3.png"" class=""exp-image"">
                    <div class=""question-area"">
                        <p style=""font-size: 20px; font-weight: bold; margin: 0;"">Is there a person in this image?</p>
                    </div>
                </div>","0","main_experiment_trial","3","coin_causal","causal_sequence","chronological","","","","","","",""
"","","","","","html-keyboard-response","170","280297","0.0-170.0","B644A6FF813A46E9B50C3B4D14E78458","019cfa3c-45fc-76ca-9d1d-0e9b3557efa8","019cfa3a-388e-72ab-ad58-bdeb258f96cd","","null","
                <div class=""stimulus-container"">
                    <img src=""images/causal_sequence/coin_causal/coin_causal_4.png"" class=""exp-image"">
                    <div class=""question-area""></div> 
                </div>","null","","","","","","","","","","","",""
"","","","","","html-button-response","171","281309","0.0-171.0","B644A6FF813A46E9B50C3B4D14E78458","019cfa3c-45fc-76ca-9d1d-0e9b3557efa8","019cfa3a-388e-72ab-ad58-bdeb258f96cd","","1012","
                <div class=""stimulus-container"">
                    <img src=""images/causal_sequence/coin_causal/coin_causal_4.png"" class=""exp-image"">
                    <div class=""question-area"">
                        <p style=""font-size: 20px; font-weight: bold; margin: 0;"">Is there a person in this image?</p>
                    </div>
                </div>","0","main_experiment_trial","4","coin_causal","causal_sequence","chronological","","","","","","",""
"","","","","","html-keyboard-response","172","282324","0.0-172.0","B644A6FF813A46E9B50C3B4D14E78458","019cfa3c-45fc-76ca-9d1d-0e9b3557efa8","019cfa3a-388e-72ab-ad58-bdeb258f96cd","","null","
                <div class=""stimulus-container"">
                    <img src=""images/causal_sequence/coin_causal/coin_causal_5.png"" class=""exp-image"">
                    <div class=""question-area""></div> 
                </div>","null","","","","","","","","","","","",""
"","","","","","html-button-response","173","283487","0.0-173.0","B644A6FF813A46E9B50C3B4D14E78458","019cfa3c-45fc-76ca-9d1d-0e9b3557efa8","019cfa3a-388e-72ab-ad58-bdeb258f96cd","","1163","
                <div class=""stimulus-container"">
                    <img src=""images/causal_sequence/coin_causal/coin_causal_5.png"" class=""exp-image"">
                    <div class=""question-area"">
                        <p style=""font-size: 20px; font-weight: bold; margin: 0;"">Is there a person in this image?</p>
                    </div>
                </div>","0","main_experiment_trial","5","coin_causal","causal_sequence","chronological","","","","","","",""
"","","","","","html-keyboard-response","174","284494","0.0-174.0","B644A6FF813A46E9B50C3B4D14E78458","019cfa3c-45fc-76ca-9d1d-0e9b3557efa8","019cfa3a-388e-72ab-ad58-bdeb258f96cd","","null","
                <div class=""stimulus-container"">
                    <img src=""images/causal_sequence/coin_causal/coin_causal_6.png"" class=""exp-image"">
                    <div class=""question-area""></div> 
                </div>","null","","","","","","","","","","","",""
"","","","","","html-button-response","175","285501","0.0-175.0","B644A6FF813A46E9B50C3B4D14E78458","019cfa3c-45fc-76ca-9d1d-0e9b3557efa8","019cfa3a-388e-72ab-ad58-bdeb258f96cd","","1007","
                <div class=""stimulus-container"">
                    <img src=""images/causal_sequence/coin_causal/coin_causal_6.png"" class=""exp-image"">
                    <div class=""question-area"">
                        <p style=""font-size: 20px; font-weight: bold; margin: 0;"">Is there a person in this image?</p>
                    </div>
                </div>","0","main_experiment_trial","6","coin_causal","causal_sequence","chronological","","","","","","",""
"","","","","","html-keyboard-response","176","286502","0.0-176.0","B644A6FF813A46E9B50C3B4D14E78458","019cfa3c-45fc-76ca-9d1d-0e9b3557efa8","019cfa3a-388e-72ab-ad58-bdeb258f96cd","","null","
                <div class=""stimulus-container"">
                    <img src=""images/causal_sequence/coin_causal/coin_causal_7.png"" class=""exp-image"">
                    <div class=""question-area""></div> 
                </div>","null","","","","","","","","","","","",""
"","","","","","html-button-response","177","287096","0.0-177.0","B644A6FF813A46E9B50C3B4D14E78458","019cfa3c-45fc-76ca-9d1d-0e9b3557efa8","019cfa3a-388e-72ab-ad58-bdeb258f96cd","","593","
                <div class=""stimulus-container"">
                    <img src=""images/causal_sequence/coin_causal/coin_causal_7.png"" class=""exp-image"">
