"success","timeout","failed_images","failed_audio","failed_video","trial_type","trial_index","time_elapsed","internal_node_id","subject_id","study_id","session_id","view_history","rt","stimulus","response","task","image_index","folder","sequence_type","presentation_order","valuable_image_index","reward_type","distance_from_x","target_X","chosen_image_index","is_x_plus_dist","correct_choice"
"true","false","[]","[]","[]","preload","0","4985","0.0-0.0","971E31D8E7684EAE83C82A35E590421C","019cfc41-f6e1-74d7-a646-73966a6006fb","019cfc28-2143-7934-89cc-ce6402563331","","","","","","","","","","","","","","","",""
"","","","","","instructions","1","6476","0.0-1.0","971E31D8E7684EAE83C82A35E590421C","019cfc41-f6e1-74d7-a646-73966a6006fb","019cfc28-2143-7934-89cc-ce6402563331","[{""page_index"":0,""viewing_time"":1488}]","1488","","","","","","","","","","","","","",""
"","","","","","instructions","2","8541","0.0-2.0","971E31D8E7684EAE83C82A35E590421C","019cfc41-f6e1-74d7-a646-73966a6006fb","019cfc28-2143-7934-89cc-ce6402563331","[{""page_index"":0,""viewing_time"":2060}]","2061","","","","","","","","","","","","","",""
"true","","","","","fullscreen","3","10465","0.0-3.0","971E31D8E7684EAE83C82A35E590421C","019cfc41-f6e1-74d7-a646-73966a6006fb","019cfc28-2143-7934-89cc-ce6402563331","","916","","","","","","","","","","","","","",""
"","","","","","instructions","4","12126","0.0-4.0","971E31D8E7684EAE83C82A35E590421C","019cfc41-f6e1-74d7-a646-73966a6006fb","019cfc28-2143-7934-89cc-ce6402563331","[{""page_index"":0,""viewing_time"":1658}]","1658","","","","","","","","","","","","","",""
"","","","","","instructions","5","13040","0.0-5.0","971E31D8E7684EAE83C82A35E590421C","019cfc41-f6e1-74d7-a646-73966a6006fb","019cfc28-2143-7934-89cc-ce6402563331","[{""page_index"":0,""viewing_time"":912}]","912","","","","","","","","","","","","","",""
"","","","","","html-keyboard-response","6","17045","0.0-6.0","971E31D8E7684EAE83C82A35E590421C","019cfc41-f6e1-74d7-a646-73966a6006fb","019cfc28-2143-7934-89cc-ce6402563331","","null","
                <div class=""stimulus-container"">
                    <img src=""images/instructions/movie_1.png"" class=""exp-image"">
                    <div class=""question-area""></div> 
                </div>","null","","","","","","","","","","","",""
"","","","","","html-button-response","7","18158","0.0-7.0","971E31D8E7684EAE83C82A35E590421C","019cfc41-f6e1-74d7-a646-73966a6006fb","019cfc28-2143-7934-89cc-ce6402563331","","1110","
                <div class=""stimulus-container"">
                    <img src=""images/instructions/movie_1.png"" class=""exp-image"">
                    <div class=""question-area"">
                        <p style=""font-size: 20px; font-weight: bold; margin: 0;"">Was there a person in this image?</p>
                    </div>
                </div>","0","example_question","1","","","","","","","","","",""
"","","","","","html-keyboard-response","8","22162","0.0-8.0","971E31D8E7684EAE83C82A35E590421C","019cfc41-f6e1-74d7-a646-73966a6006fb","019cfc28-2143-7934-89cc-ce6402563331","","null","
                <div class=""stimulus-container"">
                    <img src=""images/instructions/movie_2.png"" class=""exp-image"">
                    <div class=""question-area""></div> 
                </div>","null","","","","","","","","","","","",""
"","","","","","html-button-response","9","22827","0.0-9.0","971E31D8E7684EAE83C82A35E590421C","019cfc41-f6e1-74d7-a646-73966a6006fb","019cfc28-2143-7934-89cc-ce6402563331","","663","
                <div class=""stimulus-container"">
                    <img src=""images/instructions/movie_2.png"" class=""exp-image"">
                    <div class=""question-area"">
                        <p style=""font-size: 20px; font-weight: bold; margin: 0;"">Was there a person in this image?</p>
                    </div>
                </div>","0","example_question","2","","","","","","","","","",""
"","","","","","html-keyboard-response","10","26831","0.0-10.0","971E31D8E7684EAE83C82A35E590421C","019cfc41-f6e1-74d7-a646-73966a6006fb","019cfc28-2143-7934-89cc-ce6402563331","","null","
                <div class=""stimulus-container"">
                    <img src=""images/instructions/movie_3.png"" class=""exp-image"">
                    <div class=""question-area""></div> 
                </div>","null","","","","","","","","","","","",""
"","","","","","html-button-response","11","27483","0.0-11.0","971E31D8E7684EAE83C82A35E590421C","019cfc41-f6e1-74d7-a646-73966a6006fb","019cfc28-2143-7934-89cc-ce6402563331","","648","
                <div class=""stimulus-container"">
                    <img src=""images/instructions/movie_3.png"" class=""exp-image"">
                    <div class=""question-area"">
                        <p style=""font-size: 20px; font-weight: bold; margin: 0;"">Was there a person in this image?</p>
                    </div>
                </div>","0","example_question","3","","","","","","","","","",""
"","","","","","html-keyboard-response","12","31491","0.0-12.0","971E31D8E7684EAE83C82A35E590421C","019cfc41-f6e1-74d7-a646-73966a6006fb","019cfc28-2143-7934-89cc-ce6402563331","","null","
                <div class=""stimulus-container"">
                    <img src=""images/instructions/movie_4.png"" class=""exp-image"">
                    <div class=""question-area""></div> 
                </div>","null","","","","","","","","","","","",""
"","","","","","html-button-response","13","32375","0.0-13.0","971E31D8E7684EAE83C82A35E590421C","019cfc41-f6e1-74d7-a646-73966a6006fb","019cfc28-2143-7934-89cc-ce6402563331","","881","
                <div class=""stimulus-container"">
                    <img src=""images/instructions/movie_4.png"" class=""exp-image"">
                    <div class=""question-area"">
                        <p style=""font-size: 20px; font-weight: bold; margin: 0;"">Was there a person in this image?</p>
                    </div>
                </div>","0","example_question","4","","","","","","","","","",""
"","","","","","instructions","14","33836","0.0-14.0","971E31D8E7684EAE83C82A35E590421C","019cfc41-f6e1-74d7-a646-73966a6006fb","019cfc28-2143-7934-89cc-ce6402563331","[{""page_index"":0,""viewing_time"":1460}]","1460","","","","","","","","","","","","","",""
"","","","","","instructions","15","37130","0.0-15.0","971E31D8E7684EAE83C82A35E590421C","019cfc41-f6e1-74d7-a646-73966a6006fb","019cfc28-2143-7934-89cc-ce6402563331","[{""page_index"":0,""viewing_time"":3291}]","3291","","","","","","","","","","","","","",""
"","","","","","html-keyboard-response","16","42141","0.0-16.0","971E31D8E7684EAE83C82A35E590421C","019cfc41-f6e1-74d7-a646-73966a6006fb","019cfc28-2143-7934-89cc-ce6402563331","","null","<div style=""background-color: white; width: 100vw; height: 100vh;""></div>","null","","","","","","","","","","","",""
"","","","","","html-keyboard-response","17","47151","0.0-17.0","971E31D8E7684EAE83C82A35E590421C","019cfc41-f6e1-74d7-a646-73966a6006fb","019cfc28-2143-7934-89cc-ce6402563331","","null","
                <div class=""stimulus-container"">
                    <img src=""images/semantic_sequence/redecorating_a_house_semantic/redecorating_a_house_semantic_1.png"" class=""exp-image"">
                    <div class=""question-area""></div> 
                </div>","null","","","","","","","","","","","",""
"","","","","","html-button-response","18","50162","0.0-18.0","971E31D8E7684EAE83C82A35E590421C","019cfc41-f6e1-74d7-a646-73966a6006fb","019cfc28-2143-7934-89cc-ce6402563331","","null","
                <div class=""stimulus-container"">
                    <img src=""images/semantic_sequence/redecorating_a_house_semantic/redecorating_a_house_semantic_1.png"" class=""exp-image"">
                    <div class=""question-area"">
                        <p style=""font-size: 20px; font-weight: bold; margin: 0;"">Is there a person in this image?</p>
                    </div>
                </div>","null","main_experiment_trial","1","redecorating_a_house_semantic","semantic_sequence","chronological","","","","","","",""
"","","","","","html-keyboard-response","19","55171","0.0-19.0","971E31D8E7684EAE83C82A35E590421C","019cfc41-f6e1-74d7-a646-73966a6006fb","019cfc28-2143-7934-89cc-ce6402563331","","null","
                <div class=""stimulus-container"">
                    <img src=""images/semantic_sequence/redecorating_a_house_semantic/redecorating_a_house_semantic_2.png"" class=""exp-image"">
                    <div class=""question-area""></div> 
                </div>","null","","","","","","","","","","","",""
"","","","","","html-button-response","20","56102","0.0-20.0","971E31D8E7684EAE83C82A35E590421C","019cfc41-f6e1-74d7-a646-73966a6006fb","019cfc28-2143-7934-89cc-ce6402563331","","929","
                <div class=""stimulus-container"">
                    <img src=""images/semantic_sequence/redecorating_a_house_semantic/redecorating_a_house_semantic_2.png"" class=""exp-image"">
                    <div class=""question-area"">
                        <p style=""font-size: 20px; font-weight: bold; margin: 0;"">Is there a person in this image?</p>
                    </div>
                </div>","0","main_experiment_trial","2","redecorating_a_house_semantic","semantic_sequence","chronological","","","","","","",""
"","","","","","html-keyboard-response","21","61111","0.0-21.0","971E31D8E7684EAE83C82A35E590421C","019cfc41-f6e1-74d7-a646-73966a6006fb","019cfc28-2143-7934-89cc-ce6402563331","","null","
                <div class=""stimulus-container"">
                    <img src=""images/semantic_sequence/redecorating_a_house_semantic/redecorating_a_house_semantic_3.png"" class=""exp-image"">
                    <div class=""question-area""></div> 
                </div>","null","","","","","","","","","","","",""
"","","","","","html-button-response","22","61918","0.0-22.0","971E31D8E7684EAE83C82A35E590421C","019cfc41-f6e1-74d7-a646-73966a6006fb","019cfc28-2143-7934-89cc-ce6402563331","","806","
                <div class=""stimulus-container"">
                    <img src=""images/semantic_sequence/redecorating_a_house_semantic/redecorating_a_house_semantic_3.png"" class=""exp-image"">
                    <div class=""question-area"">
                        <p style=""font-size: 20px; font-weight: bold; margin: 0;"">Is there a person in this image?</p>
                    </div>
                </div>","0","main_experiment_trial","3","redecorating_a_house_semantic","semantic_sequence","chronological","","","","","","",""
"","","","","","html-keyboard-response","23","66920","0.0-23.0","971E31D8E7684EAE83C82A35E590421C","019cfc41-f6e1-74d7-a646-73966a6006fb","019cfc28-2143-7934-89cc-ce6402563331","","null","
                <div class=""stimulus-container"">
                    <img src=""images/semantic_sequence/redecorating_a_house_semantic/redecorating_a_house_semantic_4.png"" class=""exp-image"">
                    <div class=""question-area""></div> 
                </div>","null","","","","","","","","","","","",""
"","","","","","html-button-response","24","68022","0.0-24.0","971E31D8E7684EAE83C82A35E590421C","019cfc41-f6e1-74d7-a646-73966a6006fb","019cfc28-2143-7934-89cc-ce6402563331","","1100","
                <div class=""stimulus-container"">
                    <img src=""images/semantic_sequence/redecorating_a_house_semantic/redecorating_a_house_semantic_4.png"" class=""exp-image"">
                    <div class=""question-area"">
                        <p style=""font-size: 20px; font-weight: bold; margin: 0;"">Is there a person in this image?</p>
                    </div>
                </div>","0","main_experiment_trial","4","redecorating_a_house_semantic","semantic_sequence","chronological","","","","","","",""
"","","","","","html-keyboard-response","25","73033","0.0-25.0","971E31D8E7684EAE83C82A35E590421C","019cfc41-f6e1-74d7-a646-73966a6006fb","019cfc28-2143-7934-89cc-ce6402563331","","null","
                <div class=""stimulus-container"">
                    <img src=""images/semantic_sequence/redecorating_a_house_semantic/redecorating_a_house_semantic_5.png"" class=""exp-image"">
                    <div class=""question-area""></div> 
                </div>","null","","","","","","","","","","","",""
"","","","","","html-button-response","26","74579","0.0-26.0","971E31D8E7684EAE83C82A35E590421C","019cfc41-f6e1-74d7-a646-73966a6006fb","019cfc28-2143-7934-89cc-ce6402563331","","1540","
                <div class=""stimulus-container"">
                    <img src=""images/semantic_sequence/redecorating_a_house_semantic/redecorating_a_house_semantic_5.png"" class=""exp-image"">
                    <div class=""question-area"">
                        <p style=""font-size: 20px; font-weight: bold; margin: 0;"">Is there a person in this image?</p>
                    </div>
                </div>","0","main_experiment_trial","5","redecorating_a_house_semantic","semantic_sequence","chronological","","","","","","",""
"","","","","","html-keyboard-response","27","79591","0.0-27.0","971E31D8E7684EAE83C82A35E590421C","019cfc41-f6e1-74d7-a646-73966a6006fb","019cfc28-2143-7934-89cc-ce6402563331","","null","
                <div class=""stimulus-container"">
                    <img src=""images/semantic_sequence/redecorating_a_house_semantic/redecorating_a_house_semantic_6.png"" class=""exp-image"">
                    <div class=""question-area""></div> 
                </div>","null","","","","","","","","","","","",""
"","","","","","html-button-response","28","80651","0.0-28.0","971E31D8E7684EAE83C82A35E590421C","019cfc41-f6e1-74d7-a646-73966a6006fb","019cfc28-2143-7934-89cc-ce6402563331","","1058","
                <div class=""stimulus-container"">
                    <img src=""images/semantic_sequence/redecorating_a_house_semantic/redecorating_a_house_semantic_6.png"" class=""exp-image"">
                    <div class=""question-area"">
                        <p style=""font-size: 20px; font-weight: bold; margin: 0;"">Is there a person in this image?</p>
                    </div>
                </div>","0","main_experiment_trial","6","redecorating_a_house_semantic","semantic_sequence","chronological","","","","","","",""
"","","","","","html-keyboard-response","29","85657","0.0-29.0","971E31D8E7684EAE83C82A35E590421C","019cfc41-f6e1-74d7-a646-73966a6006fb","019cfc28-2143-7934-89cc-ce6402563331","","null","
                <div class=""stimulus-container"">
                    <img src=""images/semantic_sequence/redecorating_a_house_semantic/redecorating_a_house_semantic_7.png"" class=""exp-image"">
                    <div class=""question-area""></div> 
                </div>","null","","","","","","","","","","","",""
"","","","","","html-button-response","30","86659","0.0-30.0","971E31D8E7684EAE83C82A35E590421C","019cfc41-f6e1-74d7-a646-73966a6006fb","019cfc28-2143-7934-89cc-ce6402563331","","1000","
                <div class=""stimulus-container"">
                    <img src=""images/semantic_sequence/redecorating_a_house_semantic/redecorating_a_house_semantic_7.png"" class=""exp-image"">
                    <div class=""question-area"">
                        <p style=""font-size: 20px; font-weight: bold; margin: 0;"">Is there a person in this image?</p>
                    </div>
                </div>","0","main_experiment_trial","7","redecorating_a_house_semantic","semantic_sequence","chronological","","","","","","",""
"","","","","","html-keyboard-response","31","91667","0.0-31.0","971E31D8E7684EAE83C82A35E590421C","019cfc41-f6e1-74d7-a646-73966a6006fb","019cfc28-2143-7934-89cc-ce6402563331","","null","
                <div class=""stimulus-container"">
                    <img src=""images/semantic_sequence/redecorating_a_house_semantic/redecorating_a_house_semantic_8.png"" class=""exp-image"">
                    <div class=""question-area""></div> 
                </div>","null","","","","","","","","","","","",""
"","","","","","html-button-response","32","93655","0.0-32.0","971E31D8E7684EAE83C82A35E590421C","019cfc41-f6e1-74d7-a646-73966a6006fb","019cfc28-2143-7934-89cc-ce6402563331","","1987","
                <div class=""stimulus-container"">
                    <img src=""images/semantic_sequence/redecorating_a_house_semantic/redecorating_a_house_semantic_8.png"" class=""exp-image"">
                    <div class=""question-area"">
                        <p style=""font-size: 20px; font-weight: bold; margin: 0;"">Is there a person in this image?</p>
                    </div>
                </div>","0","main_experiment_trial","8","redecorating_a_house_semantic","semantic_sequence","chronological","","","","","","",""
"","","","","","html-keyboard-response","33","98658","0.0-33.0","971E31D8E7684EAE83C82A35E590421C","019cfc41-f6e1-74d7-a646-73966a6006fb","019cfc28-2143-7934-89cc-ce6402563331","","null","
                <div class=""stimulus-container"">
                    <img src=""images/semantic_sequence/redecorating_a_house_semantic/redecorating_a_house_semantic_9.png"" class=""exp-image"">
                    <div class=""question-area""></div> 
                </div>","null","","","","","","","","","","","",""
"","","","","","html-button-response","34","101660","0.0-34.0","971E31D8E7684EAE83C82A35E590421C","019cfc41-f6e1-74d7-a646-73966a6006fb","019cfc28-2143-7934-89cc-ce6402563331","","null","
                <div class=""stimulus-container"">
                    <img src=""images/semantic_sequence/redecorating_a_house_semantic/redecorating_a_house_semantic_9.png"" class=""exp-image"">
                    <div class=""question-area"">
                        <p style=""font-size: 20px; font-weight: bold; margin: 0;"">Is there a person in this image?</p>
                    </div>
                </div>","null","main_experiment_trial","9","redecorating_a_house_semantic","semantic_sequence","chronological","","","","","","",""
"","","","","","html-keyboard-response","35","106663","0.0-35.0","971E31D8E7684EAE83C82A35E590421C","019cfc41-f6e1-74d7-a646-73966a6006fb","019cfc28-2143-7934-89cc-ce6402563331","","null","
                <div class=""stimulus-container"">
                    <img src=""images/semantic_sequence/redecorating_a_house_semantic/redecorating_a_house_semantic_ten.png"" class=""exp-image"">
                    <div class=""question-area""></div> 
                </div>","null","","","","","","","","","","","",""
"","","","","","html-button-response","36","108797","0.0-36.0","971E31D8E7684EAE83C82A35E590421C","019cfc41-f6e1-74d7-a646-73966a6006fb","019cfc28-2143-7934-89cc-ce6402563331","","2130","
                <div class=""stimulus-container"">
                    <img src=""images/semantic_sequence/redecorating_a_house_semantic/redecorating_a_house_semantic_ten.png"" class=""exp-image"">
                    <div class=""question-area"">
                        <p style=""font-size: 20px; font-weight: bold; margin: 0;"">Is there a person in this image?</p>
                    </div>
                </div>","0","main_experiment_trial","ten","redecorating_a_house_semantic","semantic_sequence","chronological","","","","","","",""
"","","","","","html-keyboard-response","37","113806","0.0-37.0","971E31D8E7684EAE83C82A35E590421C","019cfc41-f6e1-74d7-a646-73966a6006fb","019cfc28-2143-7934-89cc-ce6402563331","","null","<div style=""background-color: white; width: 100vw; height: 100vh;""></div>","null","","","","","","","","","","","",""
"","","","","","html-keyboard-response","38","118816","0.0-38.0","971E31D8E7684EAE83C82A35E590421C","019cfc41-f6e1-74d7-a646-73966a6006fb","019cfc28-2143-7934-89cc-ce6402563331","","null","
                <div class=""stimulus-container"">
                    <img src=""images/schematic_sequence/dinner_party_scheme/dinner_party_scheme_1.png"" class=""exp-image"">
                    <div class=""question-area""></div> 
                </div>","null","","","","","","","","","","","",""
"","","","","","html-button-response","39","119917","0.0-39.0","971E31D8E7684EAE83C82A35E590421C","019cfc41-f6e1-74d7-a646-73966a6006fb","019cfc28-2143-7934-89cc-ce6402563331","","1101","
                <div class=""stimulus-container"">
                    <img src=""images/schematic_sequence/dinner_party_scheme/dinner_party_scheme_1.png"" class=""exp-image"">
                    <div class=""question-area"">
                        <p style=""font-size: 20px; font-weight: bold; margin: 0;"">Is there a person in this image?</p>
                    </div>
                </div>","0","main_experiment_trial","1","dinner_party_scheme","schematic_sequence","chronological","","","","","","",""
"","","","","","html-keyboard-response","40","124926","0.0-40.0","971E31D8E7684EAE83C82A35E590421C","019cfc41-f6e1-74d7-a646-73966a6006fb","019cfc28-2143-7934-89cc-ce6402563331","","null","
                <div class=""stimulus-container"">
                    <img src=""images/schematic_sequence/dinner_party_scheme/dinner_party_scheme_2.png"" class=""exp-image"">
                    <div class=""question-area""></div> 
                </div>","null","","","","","","","","","","","",""
"","","","","","html-button-response","41","126944","0.0-41.0","971E31D8E7684EAE83C82A35E590421C","019cfc41-f6e1-74d7-a646-73966a6006fb","019cfc28-2143-7934-89cc-ce6402563331","","2018","
                <div class=""stimulus-container"">
                    <img src=""images/schematic_sequence/dinner_party_scheme/dinner_party_scheme_2.png"" class=""exp-image"">
                    <div class=""question-area"">
                        <p style=""font-size: 20px; font-weight: bold; margin: 0;"">Is there a person in this image?</p>
                    </div>
                </div>","0","main_experiment_trial","2","dinner_party_scheme","schematic_sequence","chronological","","","","","","",""
"","","","","","html-keyboard-response","42","131955","0.0-42.0","971E31D8E7684EAE83C82A35E590421C","019cfc41-f6e1-74d7-a646-73966a6006fb","019cfc28-2143-7934-89cc-ce6402563331","","null","
                <div class=""stimulus-container"">
                    <img src=""images/schematic_sequence/dinner_party_scheme/dinner_party_scheme_3.png"" class=""exp-image"">
                    <div class=""question-area""></div> 
                </div>","null","","","","","","","","","","","",""
"","","","","","html-button-response","43","132768","0.0-43.0","971E31D8E7684EAE83C82A35E590421C","019cfc41-f6e1-74d7-a646-73966a6006fb","019cfc28-2143-7934-89cc-ce6402563331","","812","
                <div class=""stimulus-container"">
                    <img src=""images/schematic_sequence/dinner_party_scheme/dinner_party_scheme_3.png"" class=""exp-image"">
                    <div class=""question-area"">
                        <p style=""font-size: 20px; font-weight: bold; margin: 0;"">Is there a person in this image?</p>
                    </div>
                </div>","0","main_experiment_trial","3","dinner_party_scheme","schematic_sequence","chronological","","","","","","",""
"","","","","","html-keyboard-response","44","137770","0.0-44.0","971E31D8E7684EAE83C82A35E590421C","019cfc41-f6e1-74d7-a646-73966a6006fb","019cfc28-2143-7934-89cc-ce6402563331","","null","
                <div class=""stimulus-container"">
                    <img src=""images/schematic_sequence/dinner_party_scheme/dinner_party_scheme_4.png"" class=""exp-image"">
                    <div class=""question-area""></div> 
                </div>","null","","","","","","","","","","","",""
"","","","","","html-button-response","45","138941","0.0-45.0","971E31D8E7684EAE83C82A35E590421C","019cfc41-f6e1-74d7-a646-73966a6006fb","019cfc28-2143-7934-89cc-ce6402563331","","1169","
                <div class=""stimulus-container"">
                    <img src=""images/schematic_sequence/dinner_party_scheme/dinner_party_scheme_4.png"" class=""exp-image"">
                    <div class=""question-area"">
                        <p style=""font-size: 20px; font-weight: bold; margin: 0;"">Is there a person in this image?</p>
                    </div>
                </div>","0","main_experiment_trial","4","dinner_party_scheme","schematic_sequence","chronological","","","","","","",""
"","","","","","html-keyboard-response","46","143944","0.0-46.0","971E31D8E7684EAE83C82A35E590421C","019cfc41-f6e1-74d7-a646-73966a6006fb","019cfc28-2143-7934-89cc-ce6402563331","","null","
                <div class=""stimulus-container"">
                    <img src=""images/schematic_sequence/dinner_party_scheme/dinner_party_scheme_5.png"" class=""exp-image"">
                    <div class=""question-area""></div> 
                </div>","null","","","","","","","","","","","",""
"","","","","","html-button-response","47","146946","0.0-47.0","971E31D8E7684EAE83C82A35E590421C","019cfc41-f6e1-74d7-a646-73966a6006fb","019cfc28-2143-7934-89cc-ce6402563331","","null","
                <div class=""stimulus-container"">
                    <img src=""images/schematic_sequence/dinner_party_scheme/dinner_party_scheme_5.png"" class=""exp-image"">
                    <div class=""question-area"">
                        <p style=""font-size: 20px; font-weight: bold; margin: 0;"">Is there a person in this image?</p>
                    </div>
                </div>","null","main_experiment_trial","5","dinner_party_scheme","schematic_sequence","chronological","","","","","","",""
"","","","","","html-keyboard-response","48","151948","0.0-48.0","971E31D8E7684EAE83C82A35E590421C","019cfc41-f6e1-74d7-a646-73966a6006fb","019cfc28-2143-7934-89cc-ce6402563331","","null","
                <div class=""stimulus-container"">
                    <img src=""images/schematic_sequence/dinner_party_scheme/dinner_party_scheme_6.png"" class=""exp-image"">
                    <div class=""question-area""></div> 
                </div>","null","","","","","","","","","","","",""
"","","","","","html-button-response","49","152859","0.0-49.0","971E31D8E7684EAE83C82A35E590421C","019cfc41-f6e1-74d7-a646-73966a6006fb","019cfc28-2143-7934-89cc-ce6402563331","","911","
                <div class=""stimulus-container"">
                    <img src=""images/schematic_sequence/dinner_party_scheme/dinner_party_scheme_6.png"" class=""exp-image"">
                    <div class=""question-area"">
                        <p style=""font-size: 20px; font-weight: bold; margin: 0;"">Is there a person in this image?</p>
                    </div>
                </div>","0","main_experiment_trial","6","dinner_party_scheme","schematic_sequence","chronological","","","","","","",""
"","","","","","html-keyboard-response","50","157864","0.0-50.0","971E31D8E7684EAE83C82A35E590421C","019cfc41-f6e1-74d7-a646-73966a6006fb","019cfc28-2143-7934-89cc-ce6402563331","","null","
                <div class=""stimulus-container"">
                    <img src=""images/schematic_sequence/dinner_party_scheme/dinner_party_scheme_7.png"" class=""exp-image"">
                    <div class=""question-area""></div> 
                </div>","null","","","","","","","","","","","",""
"","","","","","html-button-response","51","158627","0.0-51.0","971E31D8E7684EAE83C82A35E590421C","019cfc41-f6e1-74d7-a646-73966a6006fb","019cfc28-2143-7934-89cc-ce6402563331","","763","
                <div class=""stimulus-container"">
                    <img src=""images/schematic_sequence/dinner_party_scheme/dinner_party_scheme_7.png"" class=""exp-image"">
                    <div class=""question-area"">
                        <p style=""font-size: 20px; font-weight: bold; margin: 0;"">Is there a person in this image?</p>
                    </div>
                </div>","0","main_experiment_trial","7","dinner_party_scheme","schematic_sequence","chronological","","","","","","",""
"","","","","","html-keyboard-response","52","163629","0.0-52.0","971E31D8E7684EAE83C82A35E590421C","019cfc41-f6e1-74d7-a646-73966a6006fb","019cfc28-2143-7934-89cc-ce6402563331","","null","
                <div class=""stimulus-container"">
                    <img src=""images/schematic_sequence/dinner_party_scheme/dinner_party_scheme_8.png"" class=""exp-image"">
                    <div class=""question-area""></div> 
                </div>","null","","","","","","","","","","","",""
"","","","","","html-button-response","53","164687","0.0-53.0","971E31D8E7684EAE83C82A35E590421C","019cfc41-f6e1-74d7-a646-73966a6006fb","019cfc28-2143-7934-89cc-ce6402563331","","1056","
                <div class=""stimulus-container"">
                    <img src=""images/schematic_sequence/dinner_party_scheme/dinner_party_scheme_8.png"" class=""exp-image"">
                    <div class=""question-area"">
                        <p style=""font-size: 20px; font-weight: bold; margin: 0;"">Is there a person in this image?</p>
                    </div>
                </div>","0","main_experiment_trial","8","dinner_party_scheme","schematic_sequence","chronological","","","","","","",""
"","","","","","html-keyboard-response","54","169691","0.0-54.0","971E31D8E7684EAE83C82A35E590421C","019cfc41-f6e1-74d7-a646-73966a6006fb","019cfc28-2143-7934-89cc-ce6402563331","","null","
                <div class=""stimulus-container"">
                    <img src=""images/schematic_sequence/dinner_party_scheme/dinner_party_scheme_9.png"" class=""exp-image"">
                    <div class=""question-area""></div> 
                </div>","null","","","","","","","","","","","",""
"","","","","","html-button-response","55","170593","0.0-55.0","971E31D8E7684EAE83C82A35E590421C","019cfc41-f6e1-74d7-a646-73966a6006fb","019cfc28-2143-7934-89cc-ce6402563331","","902","
                <div class=""stimulus-container"">
                    <img src=""images/schematic_sequence/dinner_party_scheme/dinner_party_scheme_9.png"" class=""exp-image"">
                    <div class=""question-area"">
                        <p style=""font-size: 20px; font-weight: bold; margin: 0;"">Is there a person in this image?</p>
                    </div>
                </div>","0","main_experiment_trial","9","dinner_party_scheme","schematic_sequence","chronological","","","","","","",""
"","","","","","html-keyboard-response","56","175596","0.0-56.0","971E31D8E7684EAE83C82A35E590421C","019cfc41-f6e1-74d7-a646-73966a6006fb","019cfc28-2143-7934-89cc-ce6402563331","","null","
                <div class=""stimulus-container"">
                    <img src=""images/schematic_sequence/dinner_party_scheme/dinner_party_scheme_ten.png"" class=""exp-image"">
                    <div class=""question-area""></div> 
                </div>","null","","","","","","","","","","","",""
"","","","","","html-button-response","57","177277","0.0-57.0","971E31D8E7684EAE83C82A35E590421C","019cfc41-f6e1-74d7-a646-73966a6006fb","019cfc28-2143-7934-89cc-ce6402563331","","1680","
                <div class=""stimulus-container"">
                    <img src=""images/schematic_sequence/dinner_party_scheme/dinner_party_scheme_ten.png"" class=""exp-image"">
                    <div class=""question-area"">
                        <p style=""font-size: 20px; font-weight: bold; margin: 0;"">Is there a person in this image?</p>
                    </div>
                </div>","0","main_experiment_trial","ten","dinner_party_scheme","schematic_sequence","chronological","","","","","","",""
"","","","","","html-keyboard-response","58","182279","0.0-58.0","971E31D8E7684EAE83C82A35E590421C","019cfc41-f6e1-74d7-a646-73966a6006fb","019cfc28-2143-7934-89cc-ce6402563331","","null","<div style=""background-color: white; width: 100vw; height: 100vh;""></div>","null","","","","","","","","","","","",""
"","","","","","html-keyboard-response","59","187282","0.0-59.0","971E31D8E7684EAE83C82A35E590421C","019cfc41-f6e1-74d7-a646-73966a6006fb","019cfc28-2143-7934-89cc-ce6402563331","","null","
                <div class=""stimulus-container"">
                    <img src=""images/semantic_sequence/exploring_nature_semantic/exploring_nature_semantic_1.png"" class=""exp-image"">
                    <div class=""question-area""></div> 
                </div>","null","","","","","","","","","","","",""
"","","","","","html-button-response","60","188213","0.0-60.0","971E31D8E7684EAE83C82A35E590421C","019cfc41-f6e1-74d7-a646-73966a6006fb","019cfc28-2143-7934-89cc-ce6402563331","","930","
                <div class=""stimulus-container"">
                    <img src=""images/semantic_sequence/exploring_nature_semantic/exploring_nature_semantic_1.png"" class=""exp-image"">
                    <div class=""question-area"">
                        <p style=""font-size: 20px; font-weight: bold; margin: 0;"">Is there a person in this image?</p>
                    </div>
                </div>","0","main_experiment_trial","1","exploring_nature_semantic","semantic_sequence","chronological","","","","","","",""
"","","","","","html-keyboard-response","61","193217","0.0-61.0","971E31D8E7684EAE83C82A35E590421C","019cfc41-f6e1-74d7-a646-73966a6006fb","019cfc28-2143-7934-89cc-ce6402563331","","null","
                <div class=""stimulus-container"">
                    <img src=""images/semantic_sequence/exploring_nature_semantic/exploring_nature_semantic_2.png"" class=""exp-image"">
                    <div class=""question-area""></div> 
                </div>","null","","","","","","","","","","","",""
"","","","","","html-button-response","62","194065","0.0-62.0","971E31D8E7684EAE83C82A35E590421C","019cfc41-f6e1-74d7-a646-73966a6006fb","019cfc28-2143-7934-89cc-ce6402563331","","846","
                <div class=""stimulus-container"">
                    <img src=""images/semantic_sequence/exploring_nature_semantic/exploring_nature_semantic_2.png"" class=""exp-image"">
                    <div class=""question-area"">
                        <p style=""font-size: 20px; font-weight: bold; margin: 0;"">Is there a person in this image?</p>
                    </div>
                </div>","0","main_experiment_trial","2","exploring_nature_semantic","semantic_sequence","chronological","","","","","","",""
"","","","","","html-keyboard-response","63","199069","0.0-63.0","971E31D8E7684EAE83C82A35E590421C","019cfc41-f6e1-74d7-a646-73966a6006fb","019cfc28-2143-7934-89cc-ce6402563331","","null","
                <div class=""stimulus-container"">
                    <img src=""images/semantic_sequence/exploring_nature_semantic/exploring_nature_semantic_3.png"" class=""exp-image"">
                    <div class=""question-area""></div> 
                </div>","null","","","","","","","","","","","",""
"","","","","","html-button-response","64","199752","0.0-64.0","971E31D8E7684EAE83C82A35E590421C","019cfc41-f6e1-74d7-a646-73966a6006fb","019cfc28-2143-7934-89cc-ce6402563331","","681","
                <div class=""stimulus-container"">
                    <img src=""images/semantic_sequence/exploring_nature_semantic/exploring_nature_semantic_3.png"" class=""exp-image"">
                    <div class=""question-area"">
                        <p style=""font-size: 20px; font-weight: bold; margin: 0;"">Is there a person in this image?</p>
                    </div>
                </div>","0","main_experiment_trial","3","exploring_nature_semantic","semantic_sequence","chronological","","","","","","",""
"","","","","","html-keyboard-response","65","204756","0.0-65.0","971E31D8E7684EAE83C82A35E590421C","019cfc41-f6e1-74d7-a646-73966a6006fb","019cfc28-2143-7934-89cc-ce6402563331","","null","
                <div class=""stimulus-container"">
                    <img src=""images/semantic_sequence/exploring_nature_semantic/exploring_nature_semantic_4.png"" class=""exp-image"">
                    <div class=""question-area""></div> 
                </div>","null","","","","","","","","","","","",""
"","","","","","html-button-response","66","206783","0.0-66.0","971E31D8E7684EAE83C82A35E590421C","019cfc41-f6e1-74d7-a646-73966a6006fb","019cfc28-2143-7934-89cc-ce6402563331","","2024","
                <div class=""stimulus-container"">
                    <img src=""images/semantic_sequence/exploring_nature_semantic/exploring_nature_semantic_4.png"" class=""exp-image"">
                    <div class=""question-area"">
                        <p style=""font-size: 20px; font-weight: bold; margin: 0;"">Is there a person in this image?</p>
                    </div>
                </div>","0","main_experiment_trial","4","exploring_nature_semantic","semantic_sequence","chronological","","","","","","",""
"","","","","","html-keyboard-response","67","211787","0.0-67.0","971E31D8E7684EAE83C82A35E590421C","019cfc41-f6e1-74d7-a646-73966a6006fb","019cfc28-2143-7934-89cc-ce6402563331","","null","
                <div class=""stimulus-container"">
                    <img src=""images/semantic_sequence/exploring_nature_semantic/exploring_nature_semantic_5.png"" class=""exp-image"">
                    <div class=""question-area""></div> 
                </div>","null","","","","","","","","","","","",""
"","","","","","html-button-response","68","214589","0.0-68.0","971E31D8E7684EAE83C82A35E590421C","019cfc41-f6e1-74d7-a646-73966a6006fb","019cfc28-2143-7934-89cc-ce6402563331","","2802","
                <div class=""stimulus-container"">
                    <img src=""images/semantic_sequence/exploring_nature_semantic/exploring_nature_semantic_5.png"" class=""exp-image"">
                    <div class=""question-area"">
                        <p style=""font-size: 20px; font-weight: bold; margin: 0;"">Is there a person in this image?</p>
                    </div>
                </div>","0","main_experiment_trial","5","exploring_nature_semantic","semantic_sequence","chronological","","","","","","",""
"","","","","","html-keyboard-response","69","219599","0.0-69.0","971E31D8E7684EAE83C82A35E590421C","019cfc41-f6e1-74d7-a646-73966a6006fb","019cfc28-2143-7934-89cc-ce6402563331","","null","
                <div class=""stimulus-container"">
                    <img src=""images/semantic_sequence/exploring_nature_semantic/exploring_nature_semantic_6.png"" class=""exp-image"">
                    <div class=""question-area""></div> 
                </div>","null","","","","","","","","","","","",""
"","","","","","html-button-response","70","221358","0.0-70.0","971E31D8E7684EAE83C82A35E590421C","019cfc41-f6e1-74d7-a646-73966a6006fb","019cfc28-2143-7934-89cc-ce6402563331","","1756","
                <div class=""stimulus-container"">
                    <img src=""images/semantic_sequence/exploring_nature_semantic/exploring_nature_semantic_6.png"" class=""exp-image"">
                    <div class=""question-area"">
                        <p style=""font-size: 20px; font-weight: bold; margin: 0;"">Is there a person in this image?</p>
                    </div>
                </div>","0","main_experiment_trial","6","exploring_nature_semantic","semantic_sequence","chronological","","","","","","",""
"","","","","","html-keyboard-response","71","226370","0.0-71.0","971E31D8E7684EAE83C82A35E590421C","019cfc41-f6e1-74d7-a646-73966a6006fb","019cfc28-2143-7934-89cc-ce6402563331","","null","
                <div class=""stimulus-container"">
                    <img src=""images/semantic_sequence/exploring_nature_semantic/exploring_nature_semantic_7.png"" class=""exp-image"">
                    <div class=""question-area""></div> 
                </div>","null","","","","","","","","","","","",""
"","","","","","html-button-response","72","228229","0.0-72.0","971E31D8E7684EAE83C82A35E590421C","019cfc41-f6e1-74d7-a646-73966a6006fb","019cfc28-2143-7934-89cc-ce6402563331","","1858","
                <div class=""stimulus-container"">
                    <img src=""images/semantic_sequence/exploring_nature_semantic/exploring_nature_semantic_7.png"" class=""exp-image"">
                    <div class=""question-area"">
                        <p style=""font-size: 20px; font-weight: bold; margin: 0;"">Is there a person in this image?</p>
                    </div>
                </div>","0","main_experiment_trial","7","exploring_nature_semantic","semantic_sequence","chronological","","","","","","",""
"","","","","","html-keyboard-response","73","233239","0.0-73.0","971E31D8E7684EAE83C82A35E590421C","019cfc41-f6e1-74d7-a646-73966a6006fb","019cfc28-2143-7934-89cc-ce6402563331","","null","
                <div class=""stimulus-container"">
                    <img src=""images/semantic_sequence/exploring_nature_semantic/exploring_nature_semantic_8.png"" class=""exp-image"">
                    <div class=""question-area""></div> 
                </div>","null","","","","","","","","","","","",""
"","","","","","html-button-response","74","234545","0.0-74.0","971E31D8E7684EAE83C82A35E590421C","019cfc41-f6e1-74d7-a646-73966a6006fb","019cfc28-2143-7934-89cc-ce6402563331","","1304","
                <div class=""stimulus-container"">
                    <img src=""images/semantic_sequence/exploring_nature_semantic/exploring_nature_semantic_8.png"" class=""exp-image"">
                    <div class=""question-area"">
                        <p style=""font-size: 20px; font-weight: bold; margin: 0;"">Is there a person in this image?</p>
                    </div>
                </div>","0","main_experiment_trial","8","exploring_nature_semantic","semantic_sequence","chronological","","","","","","",""
"","","","","","html-keyboard-response","75","239549","0.0-75.0","971E31D8E7684EAE83C82A35E590421C","019cfc41-f6e1-74d7-a646-73966a6006fb","019cfc28-2143-7934-89cc-ce6402563331","","null","
                <div class=""stimulus-container"">
                    <img src=""images/semantic_sequence/exploring_nature_semantic/exploring_nature_semantic_9.png"" class=""exp-image"">
                    <div class=""question-area""></div> 
                </div>","null","","","","","","","","","","","",""
"","","","","","html-button-response","76","241521","0.0-76.0","971E31D8E7684EAE83C82A35E590421C","019cfc41-f6e1-74d7-a646-73966a6006fb","019cfc28-2143-7934-89cc-ce6402563331","","1972","
                <div class=""stimulus-container"">
                    <img src=""images/semantic_sequence/exploring_nature_semantic/exploring_nature_semantic_9.png"" class=""exp-image"">
                    <div class=""question-area"">
                        <p style=""font-size: 20px; font-weight: bold; margin: 0;"">Is there a person in this image?</p>
                    </div>
                </div>","0","main_experiment_trial","9","exploring_nature_semantic","semantic_sequence","chronological","","","","","","",""
"","","","","","html-keyboard-response","77","246524","0.0-77.0","971E31D8E7684EAE83C82A35E590421C","019cfc41-f6e1-74d7-a646-73966a6006fb","019cfc28-2143-7934-89cc-ce6402563331","","null","
                <div class=""stimulus-container"">
                    <img src=""images/semantic_sequence/exploring_nature_semantic/exploring_nature_semantic_ten.png"" class=""exp-image"">
                    <div class=""question-area""></div> 
                </div>","null","","","","","","","","","","","",""
"","","","","","html-button-response","78","248652","0.0-78.0","971E31D8E7684EAE83C82A35E590421C","019cfc41-f6e1-74d7-a646-73966a6006fb","019cfc28-2143-7934-89cc-ce6402563331","","2126","
                <div class=""stimulus-container"">
                    <img src=""images/semantic_sequence/exploring_nature_semantic/exploring_nature_semantic_ten.png"" class=""exp-image"">
                    <div class=""question-area"">
                        <p style=""font-size: 20px; font-weight: bold; margin: 0;"">Is there a person in this image?</p>
                    </div>
                </div>","0","main_experiment_trial","ten","exploring_nature_semantic","semantic_sequence","chronological","","","","","","",""
"","","","","","html-keyboard-response","79","253653","0.0-79.0","971E31D8E7684EAE83C82A35E590421C","019cfc41-f6e1-74d7-a646-73966a6006fb","019cfc28-2143-7934-89cc-ce6402563331","","null","<div style=""background-color: white; width: 100vw; height: 100vh;""></div>","null","","","","","","","","","","","",""
"","","","","","html-keyboard-response","80","258655","0.0-80.0","971E31D8E7684EAE83C82A35E590421C","019cfc41-f6e1-74d7-a646-73966a6006fb","019cfc28-2143-7934-89cc-ce6402563331","","null","
                <div class=""stimulus-container"">
                    <img src=""images/semantic_sequence/physical_activity_semantic/physical_activity_semantic_1.png"" class=""exp-image"">
                    <div class=""question-area""></div> 
                </div>","null","","","","","","","","","","","",""
"","","","","","html-button-response","81","260090","0.0-81.0","971E31D8E7684EAE83C82A35E590421C","019cfc41-f6e1-74d7-a646-73966a6006fb","019cfc28-2143-7934-89cc-ce6402563331","","1434","
                <div class=""stimulus-container"">
                    <img src=""images/semantic_sequence/physical_activity_semantic/physical_activity_semantic_1.png"" class=""exp-image"">
                    <div class=""question-area"">
                        <p style=""font-size: 20px; font-weight: bold; margin: 0;"">Is there a person in this image?</p>
                    </div>
                </div>","0","main_experiment_trial","1","physical_activity_semantic","semantic_sequence","chronological","","","","","","",""
"","","","","","html-keyboard-response","82","265096","0.0-82.0","971E31D8E7684EAE83C82A35E590421C","019cfc41-f6e1-74d7-a646-73966a6006fb","019cfc28-2143-7934-89cc-ce6402563331","","null","
                <div class=""stimulus-container"">
                    <img src=""images/semantic_sequence/physical_activity_semantic/physical_activity_semantic_2.png"" class=""exp-image"">
                    <div class=""question-area""></div> 
                </div>","null","","","","","","","","","","","",""
"","","","","","html-button-response","83","267146","0.0-83.0","971E31D8E7684EAE83C82A35E590421C","019cfc41-f6e1-74d7-a646-73966a6006fb","019cfc28-2143-7934-89cc-ce6402563331","","2049","
                <div class=""stimulus-container"">
                    <img src=""images/semantic_sequence/physical_activity_semantic/physical_activity_semantic_2.png"" class=""exp-image"">
                    <div class=""question-area"">
                        <p style=""font-size: 20px; font-weight: bold; margin: 0;"">Is there a person in this image?</p>
                    </div>
                </div>","0","main_experiment_trial","2","physical_activity_semantic","semantic_sequence","chronological","","","","","","",""
"","","","","","html-keyboard-response","84","272150","0.0-84.0","971E31D8E7684EAE83C82A35E590421C","019cfc41-f6e1-74d7-a646-73966a6006fb","019cfc28-2143-7934-89cc-ce6402563331","","null","
                <div class=""stimulus-container"">
                    <img src=""images/semantic_sequence/physical_activity_semantic/physical_activity_semantic_3.png"" class=""exp-image"">
                    <div class=""question-area""></div> 
                </div>","null","","","","","","","","","","","",""
"","","","","","html-button-response","85","273045","0.0-85.0","971E31D8E7684EAE83C82A35E590421C","019cfc41-f6e1-74d7-a646-73966a6006fb","019cfc28-2143-7934-89cc-ce6402563331","","894","
                <div class=""stimulus-container"">
                    <img src=""images/semantic_sequence/physical_activity_semantic/physical_activity_semantic_3.png"" class=""exp-image"">
                    <div class=""question-area"">
                        <p style=""font-size: 20px; font-weight: bold; margin: 0;"">Is there a person in this image?</p>
                    </div>
                </div>","0","main_experiment_trial","3","physical_activity_semantic","semantic_sequence","chronological","","","","","","",""
"","","","","","html-keyboard-response","86","278049","0.0-86.0","971E31D8E7684EAE83C82A35E590421C","019cfc41-f6e1-74d7-a646-73966a6006fb","019cfc28-2143-7934-89cc-ce6402563331","","null","
                <div class=""stimulus-container"">
                    <img src=""images/semantic_sequence/physical_activity_semantic/physical_activity_semantic_4.png"" class=""exp-image"">
                    <div class=""question-area""></div> 
                </div>","null","","","","","","","","","","","",""
"","","","","","html-button-response","87","279635","0.0-87.0","971E31D8E7684EAE83C82A35E590421C","019cfc41-f6e1-74d7-a646-73966a6006fb","019cfc28-2143-7934-89cc-ce6402563331","","1585","
                <div class=""stimulus-container"">
                    <img src=""images/semantic_sequence/physical_activity_semantic/physical_activity_semantic_4.png"" class=""exp-image"">
                    <div class=""question-area"">
                        <p style=""font-size: 20px; font-weight: bold; margin: 0;"">Is there a person in this image?</p>
                    </div>
                </div>","0","main_experiment_trial","4","physical_activity_semantic","semantic_sequence","chronological","","","","","","",""
"","","","","","html-keyboard-response","88","284639","0.0-88.0","971E31D8E7684EAE83C82A35E590421C","019cfc41-f6e1-74d7-a646-73966a6006fb","019cfc28-2143-7934-89cc-ce6402563331","","null","
                <div class=""stimulus-container"">
                    <img src=""images/semantic_sequence/physical_activity_semantic/physical_activity_semantic_5.png"" class=""exp-image"">
                    <div class=""question-area""></div> 
                </div>","null","","","","","","","","","","","",""
"","","","","","html-button-response","89","286274","0.0-89.0","971E31D8E7684EAE83C82A35E590421C","019cfc41-f6e1-74d7-a646-73966a6006fb","019cfc28-2143-7934-89cc-ce6402563331","","1634","
                <div class=""stimulus-container"">
                    <img src=""images/semantic_sequence/physical_activity_semantic/physical_activity_semantic_5.png"" class=""exp-image"">
                    <div class=""question-area"">
                        <p style=""font-size: 20px; font-weight: bold; margin: 0;"">Is there a person in this image?</p>
                    </div>
                </div>","0","main_experiment_trial","5","physical_activity_semantic","semantic_sequence","chronological","","","","","","",""
"","","","","","html-keyboard-response","90","291279","0.0-90.0","971E31D8E7684EAE83C82A35E590421C","019cfc41-f6e1-74d7-a646-73966a6006fb","019cfc28-2143-7934-89cc-ce6402563331","","null","
                <div class=""stimulus-container"">
                    <img src=""images/semantic_sequence/physical_activity_semantic/physical_activity_semantic_6.png"" class=""exp-image"">
                    <div class=""question-area""></div> 
                </div>","null","","","","","","","","","","","",""
"","","","","","html-button-response","91","293840","0.0-91.0","971E31D8E7684EAE83C82A35E590421C","019cfc41-f6e1-74d7-a646-73966a6006fb","019cfc28-2143-7934-89cc-ce6402563331","","2559","
                <div class=""stimulus-container"">
                    <img src=""images/semantic_sequence/physical_activity_semantic/physical_activity_semantic_6.png"" class=""exp-image"">
                    <div class=""question-area"">
                        <p style=""font-size: 20px; font-weight: bold; margin: 0;"">Is there a person in this image?</p>
                    </div>
                </div>","0","main_experiment_trial","6","physical_activity_semantic","semantic_sequence","chronological","","","","","","",""
"","","","","","html-keyboard-response","92","298843","0.0-92.0","971E31D8E7684EAE83C82A35E590421C","019cfc41-f6e1-74d7-a646-73966a6006fb","019cfc28-2143-7934-89cc-ce6402563331","","null","
                <div class=""stimulus-container"">
                    <img src=""images/semantic_sequence/physical_activity_semantic/physical_activity_semantic_7.png"" class=""exp-image"">
                    <div class=""question-area""></div> 
                </div>","null","","","","","","","","","","","",""
"","","","","","html-button-response","93","299576","0.0-93.0","971E31D8E7684EAE83C82A35E590421C","019cfc41-f6e1-74d7-a646-73966a6006fb","019cfc28-2143-7934-89cc-ce6402563331","","732","
                <div class=""stimulus-container"">
                    <img src=""images/semantic_sequence/physical_activity_semantic/physical_activity_semantic_7.png"" class=""exp-image"">
                    <div class=""question-area"">
                        <p style=""font-size: 20px; font-weight: bold; margin: 0;"">Is there a person in this image?</p>
                    </div>
                </div>","0","main_experiment_trial","7","physical_activity_semantic","semantic_sequence","chronological","","","","","","",""
"","","","","","html-keyboard-response","94","304578","0.0-94.0","971E31D8E7684EAE83C82A35E590421C","019cfc41-f6e1-74d7-a646-73966a6006fb","019cfc28-2143-7934-89cc-ce6402563331","","null","
                <div class=""stimulus-container"">
                    <img src=""images/semantic_sequence/physical_activity_semantic/physical_activity_semantic_8.png"" class=""exp-image"">
                    <div class=""question-area""></div> 
                </div>","null","","","","","","","","","","","",""
"","","","","","html-button-response","95","305580","0.0-95.0","971E31D8E7684EAE83C82A35E590421C","019cfc41-f6e1-74d7-a646-73966a6006fb","019cfc28-2143-7934-89cc-ce6402563331","","1000","
                <div class=""stimulus-container"">
                    <img src=""images/semantic_sequence/physical_activity_semantic/physical_activity_semantic_8.png"" class=""exp-image"">
                    <div class=""question-area"">
                        <p style=""font-size: 20px; font-weight: bold; margin: 0;"">Is there a person in this image?</p>
                    </div>
                </div>","0","main_experiment_trial","8","physical_activity_semantic","semantic_sequence","chronological","","","","","","",""
"","","","","","html-keyboard-response","96","310583","0.0-96.0","971E31D8E7684EAE83C82A35E590421C","019cfc41-f6e1-74d7-a646-73966a6006fb","019cfc28-2143-7934-89cc-ce6402563331","","null","
                <div class=""stimulus-container"">
                    <img src=""images/semantic_sequence/physical_activity_semantic/physical_activity_semantic_9.png"" class=""exp-image"">
                    <div class=""question-area""></div> 
                </div>","null","","","","","","","","","","","",""
"","","","","","html-button-response","97","311453","0.0-97.0","971E31D8E7684EAE83C82A35E590421C","019cfc41-f6e1-74d7-a646-73966a6006fb","019cfc28-2143-7934-89cc-ce6402563331","","869","
                <div class=""stimulus-container"">
                    <img src=""images/semantic_sequence/physical_activity_semantic/physical_activity_semantic_9.png"" class=""exp-image"">
                    <div class=""question-area"">
                        <p style=""font-size: 20px; font-weight: bold; margin: 0;"">Is there a person in this image?</p>
                    </div>
                </div>","0","main_experiment_trial","9","physical_activity_semantic","semantic_sequence","chronological","","","","","","",""
"","","","","","html-keyboard-response","98","316455","0.0-98.0","971E31D8E7684EAE83C82A35E590421C","019cfc41-f6e1-74d7-a646-73966a6006fb","019cfc28-2143-7934-89cc-ce6402563331","","null","
                <div class=""stimulus-container"">
                    <img src=""images/semantic_sequence/physical_activity_semantic/physical_activity_semantic_ten.png"" class=""exp-image"">
                    <div class=""question-area""></div> 
                </div>","null","","","","","","","","","","","",""
"","","","","","html-button-response","99","317330","0.0-99.0","971E31D8E7684EAE83C82A35E590421C","019cfc41-f6e1-74d7-a646-73966a6006fb","019cfc28-2143-7934-89cc-ce6402563331","","873","
                <div class=""stimulus-container"">
                    <img src=""images/semantic_sequence/physical_activity_semantic/physical_activity_semantic_ten.png"" class=""exp-image"">
                    <div class=""question-area"">
                        <p style=""font-size: 20px; font-weight: bold; margin: 0;"">Is there a person in this image?</p>
                    </div>
                </div>","0","main_experiment_trial","ten","physical_activity_semantic","semantic_sequence","chronological","","","","","","",""
"","","","","","html-keyboard-response","100","322332","0.0-100.0","971E31D8E7684EAE83C82A35E590421C","019cfc41-f6e1-74d7-a646-73966a6006fb","019cfc28-2143-7934-89cc-ce6402563331","","null","<div style=""background-color: white; width: 100vw; height: 100vh;""></div>","null","","","","","","","","","","","",""
"","","","","","html-keyboard-response","101","327340","0.0-101.0","971E31D8E7684EAE83C82A35E590421C","019cfc41-f6e1-74d7-a646-73966a6006fb","019cfc28-2143-7934-89cc-ce6402563331","","null","
                <div class=""stimulus-container"">
                    <img src=""images/schematic_sequence/restaurant_scheme/restaurant_scheme_1.png"" class=""exp-image"">
                    <div class=""question-area""></div> 
                </div>","null","","","","","","","","","","","",""
"","","","","","html-button-response","102","328278","0.0-102.0","971E31D8E7684EAE83C82A35E590421C","019cfc41-f6e1-74d7-a646-73966a6006fb","019cfc28-2143-7934-89cc-ce6402563331","","936","
                <div class=""stimulus-container"">
                    <img src=""images/schematic_sequence/restaurant_scheme/restaurant_scheme_1.png"" class=""exp-image"">
                    <div class=""question-area"">
                        <p style=""font-size: 20px; font-weight: bold; margin: 0;"">Is there a person in this image?</p>
                    </div>
                </div>","0","main_experiment_trial","1","restaurant_scheme","schematic_sequence","chronological","","","","","","",""
"","","","","","html-keyboard-response","103","333290","0.0-103.0","971E31D8E7684EAE83C82A35E590421C","019cfc41-f6e1-74d7-a646-73966a6006fb","019cfc28-2143-7934-89cc-ce6402563331","","null","
                <div class=""stimulus-container"">
                    <img src=""images/schematic_sequence/restaurant_scheme/restaurant_scheme_2.png"" class=""exp-image"">
                    <div class=""question-area""></div> 
                </div>","null","","","","","","","","","","","",""
"","","","","","html-button-response","104","334302","0.0-104.0","971E31D8E7684EAE83C82A35E590421C","019cfc41-f6e1-74d7-a646-73966a6006fb","019cfc28-2143-7934-89cc-ce6402563331","","1010","
                <div class=""stimulus-container"">
                    <img src=""images/schematic_sequence/restaurant_scheme/restaurant_scheme_2.png"" class=""exp-image"">
                    <div class=""question-area"">
                        <p style=""font-size: 20px; font-weight: bold; margin: 0;"">Is there a person in this image?</p>
                    </div>
                </div>","1","main_experiment_trial","2","restaurant_scheme","schematic_sequence","chronological","","","","","","",""
"","","","","","html-keyboard-response","105","339309","0.0-105.0","971E31D8E7684EAE83C82A35E590421C","019cfc41-f6e1-74d7-a646-73966a6006fb","019cfc28-2143-7934-89cc-ce6402563331","","null","
                <div class=""stimulus-container"">
                    <img src=""images/schematic_sequence/restaurant_scheme/restaurant_scheme_3.png"" class=""exp-image"">
                    <div class=""question-area""></div> 
                </div>","null","","","","","","","","","","","",""
"","","","","","html-button-response","106","339904","0.0-106.0","971E31D8E7684EAE83C82A35E590421C","019cfc41-f6e1-74d7-a646-73966a6006fb","019cfc28-2143-7934-89cc-ce6402563331","","592","
                <div class=""stimulus-container"">
                    <img src=""images/schematic_sequence/restaurant_scheme/restaurant_scheme_3.png"" class=""exp-image"">
                    <div class=""question-area"">
                        <p style=""font-size: 20px; font-weight: bold; margin: 0;"">Is there a person in this image?</p>
                    </div>
                </div>","1","main_experiment_trial","3","restaurant_scheme","schematic_sequence","chronological","","","","","","",""
"","","","","","html-keyboard-response","107","344909","0.0-107.0","971E31D8E7684EAE83C82A35E590421C","019cfc41-f6e1-74d7-a646-73966a6006fb","019cfc28-2143-7934-89cc-ce6402563331","","null","
                <div class=""stimulus-container"">
                    <img src=""images/schematic_sequence/restaurant_scheme/restaurant_scheme_4.png"" class=""exp-image"">
                    <div class=""question-area""></div> 
                </div>","null","","","","","","","","","","","",""
"","","","","","html-button-response","108","345788","0.0-108.0","971E31D8E7684EAE83C82A35E590421C","019cfc41-f6e1-74d7-a646-73966a6006fb","019cfc28-2143-7934-89cc-ce6402563331","","878","
                <div class=""stimulus-container"">
                    <img src=""images/schematic_sequence/restaurant_scheme/restaurant_scheme_4.png"" class=""exp-image"">
                    <div class=""question-area"">
                        <p style=""font-size: 20px; font-weight: bold; margin: 0;"">Is there a person in this image?</p>
                    </div>
                </div>","0","main_experiment_trial","4","restaurant_scheme","schematic_sequence","chronological","","","","","","",""
"","","","","","html-keyboard-response","109","350799","0.0-109.0","971E31D8E7684EAE83C82A35E590421C","019cfc41-f6e1-74d7-a646-73966a6006fb","019cfc28-2143-7934-89cc-ce6402563331","","null","
                <div class=""stimulus-container"">
                    <img src=""images/schematic_sequence/restaurant_scheme/restaurant_scheme_5.png"" class=""exp-image"">
                    <div class=""question-area""></div> 
                </div>","null","","","","","","","","","","","",""
"","","","","","html-button-response","110","351693","0.0-110.0","971E31D8E7684EAE83C82A35E590421C","019cfc41-f6e1-74d7-a646-73966a6006fb","019cfc28-2143-7934-89cc-ce6402563331","","893","
                <div class=""stimulus-container"">
                    <img src=""images/schematic_sequence/restaurant_scheme/restaurant_scheme_5.png"" class=""exp-image"">
                    <div class=""question-area"">
                        <p style=""font-size: 20px; font-weight: bold; margin: 0;"">Is there a person in this image?</p>
                    </div>
                </div>","0","main_experiment_trial","5","restaurant_scheme","schematic_sequence","chronological","","","","","","",""
"","","","","","html-keyboard-response","111","356699","0.0-111.0","971E31D8E7684EAE83C82A35E590421C","019cfc41-f6e1-74d7-a646-73966a6006fb","019cfc28-2143-7934-89cc-ce6402563331","","null","
                <div class=""stimulus-container"">
                    <img src=""images/schematic_sequence/restaurant_scheme/restaurant_scheme_6.png"" class=""exp-image"">
                    <div class=""question-area""></div> 
                </div>","null","","","","","","","","","","","",""
"","","","","","html-button-response","112","357699","0.0-112.0","971E31D8E7684EAE83C82A35E590421C","019cfc41-f6e1-74d7-a646-73966a6006fb","019cfc28-2143-7934-89cc-ce6402563331","","999","
                <div class=""stimulus-container"">
                    <img src=""images/schematic_sequence/restaurant_scheme/restaurant_scheme_6.png"" class=""exp-image"">
                    <div class=""question-area"">
                        <p style=""font-size: 20px; font-weight: bold; margin: 0;"">Is there a person in this image?</p>
                    </div>
                </div>","1","main_experiment_trial","6","restaurant_scheme","schematic_sequence","chronological","","","","","","",""
"","","","","","html-keyboard-response","113","362710","0.0-113.0","971E31D8E7684EAE83C82A35E590421C","019cfc41-f6e1-74d7-a646-73966a6006fb","019cfc28-2143-7934-89cc-ce6402563331","","null","
                <div class=""stimulus-container"">
                    <img src=""images/schematic_sequence/restaurant_scheme/restaurant_scheme_7.png"" class=""exp-image"">
                    <div class=""question-area""></div> 
                </div>","null","","","","","","","","","","","",""
"","","","","","html-button-response","114","363311","0.0-114.0","971E31D8E7684EAE83C82A35E590421C","019cfc41-f6e1-74d7-a646-73966a6006fb","019cfc28-2143-7934-89cc-ce6402563331","","601","
                <div class=""stimulus-container"">
                    <img src=""images/schematic_sequence/restaurant_scheme/restaurant_scheme_7.png"" class=""exp-image"">
                    <div class=""question-area"">
                        <p style=""font-size: 20px; font-weight: bold; margin: 0;"">Is there a person in this image?</p>
                    </div>
                </div>","1","main_experiment_trial","7","restaurant_scheme","schematic_sequence","chronological","","","","","","",""
"","","","","","html-keyboard-response","115","368320","0.0-115.0","971E31D8E7684EAE83C82A35E590421C","019cfc41-f6e1-74d7-a646-73966a6006fb","019cfc28-2143-7934-89cc-ce6402563331","","null","
                <div class=""stimulus-container"">
                    <img src=""images/schematic_sequence/restaurant_scheme/restaurant_scheme_8.png"" class=""exp-image"">
                    <div class=""question-area""></div> 
                </div>","null","","","","","","","","","","","",""
"","","","","","html-button-response","116","369028","0.0-116.0","971E31D8E7684EAE83C82A35E590421C","019cfc41-f6e1-74d7-a646-73966a6006fb","019cfc28-2143-7934-89cc-ce6402563331","","707","
                <div class=""stimulus-container"">
                    <img src=""images/schematic_sequence/restaurant_scheme/restaurant_scheme_8.png"" class=""exp-image"">
                    <div class=""question-area"">
                        <p style=""font-size: 20px; font-weight: bold; margin: 0;"">Is there a person in this image?</p>
                    </div>
                </div>","1","main_experiment_trial","8","restaurant_scheme","schematic_sequence","chronological","","","","","","",""
"","","","","","html-keyboard-response","117","374039","0.0-117.0","971E31D8E7684EAE83C82A35E590421C","019cfc41-f6e1-74d7-a646-73966a6006fb","019cfc28-2143-7934-89cc-ce6402563331","","null","
                <div class=""stimulus-container"">
                    <img src=""images/schematic_sequence/restaurant_scheme/restaurant_scheme_9.png"" class=""exp-image"">
                    <div class=""question-area""></div> 
                </div>","null","","","","","","","","","","","",""
"","","","","","html-button-response","118","374831","0.0-118.0","971E31D8E7684EAE83C82A35E590421C","019cfc41-f6e1-74d7-a646-73966a6006fb","019cfc28-2143-7934-89cc-ce6402563331","","790","
                <div class=""stimulus-container"">
                    <img src=""images/schematic_sequence/restaurant_scheme/restaurant_scheme_9.png"" class=""exp-image"">
                    <div class=""question-area"">
                        <p style=""font-size: 20px; font-weight: bold; margin: 0;"">Is there a person in this image?</p>
                    </div>
                </div>","0","main_experiment_trial","9","restaurant_scheme","schematic_sequence","chronological","","","","","","",""
"","","","","","html-keyboard-response","119","379839","0.0-119.0","971E31D8E7684EAE83C82A35E590421C","019cfc41-f6e1-74d7-a646-73966a6006fb","019cfc28-2143-7934-89cc-ce6402563331","","null","
                <div class=""stimulus-container"">
                    <img src=""images/schematic_sequence/restaurant_scheme/restaurant_scheme_ten.png"" class=""exp-image"">
                    <div class=""question-area""></div> 
                </div>","null","","","","","","","","","","","",""
"","","","","","html-button-response","120","380397","0.0-120.0","971E31D8E7684EAE83C82A35E590421C","019cfc41-f6e1-74d7-a646-73966a6006fb","019cfc28-2143-7934-89cc-ce6402563331","","556","
                <div class=""stimulus-container"">
                    <img src=""images/schematic_sequence/restaurant_scheme/restaurant_scheme_ten.png"" class=""exp-image"">
                    <div class=""question-area"">
                        <p style=""font-size: 20px; font-weight: bold; margin: 0;"">Is there a person in this image?</p>
                    </div>
                </div>","0","main_experiment_trial","ten","restaurant_scheme","schematic_sequence","chronological","","","","","","",""
"","","","","","html-keyboard-response","121","385399","0.0-121.0","971E31D8E7684EAE83C82A35E590421C","019cfc41-f6e1-74d7-a646-73966a6006fb","019cfc28-2143-7934-89cc-ce6402563331","","null","<div style=""background-color: white; width: 100vw; height: 100vh;""></div>","null","","","","","","","","","","","",""
"","","","","","html-keyboard-response","122","390409","0.0-122.0","971E31D8E7684EAE83C82A35E590421C","019cfc41-f6e1-74d7-a646-73966a6006fb","019cfc28-2143-7934-89cc-ce6402563331","","null","
                <div class=""stimulus-container"">
                    <img src=""images/semantic_sequence/housework_semantic/housework_semantic_1.png"" class=""exp-image"">
                    <div class=""question-area""></div> 
                </div>","null","","","","","","","","","","","",""
"","","","","","html-button-response","123","391226","0.0-123.0","971E31D8E7684EAE83C82A35E590421C","019cfc41-f6e1-74d7-a646-73966a6006fb","019cfc28-2143-7934-89cc-ce6402563331","","816","
                <div class=""stimulus-container"">
                    <img src=""images/semantic_sequence/housework_semantic/housework_semantic_1.png"" class=""exp-image"">
                    <div class=""question-area"">
                        <p style=""font-size: 20px; font-weight: bold; margin: 0;"">Is there a person in this image?</p>
                    </div>
                </div>","0","main_experiment_trial","1","housework_semantic","semantic_sequence","chronological","","","","","","",""
"","","","","","html-keyboard-response","124","396229","0.0-124.0","971E31D8E7684EAE83C82A35E590421C","019cfc41-f6e1-74d7-a646-73966a6006fb","019cfc28-2143-7934-89cc-ce6402563331","","null","
                <div class=""stimulus-container"">
                    <img src=""images/semantic_sequence/housework_semantic/housework_semantic_2.png"" class=""exp-image"">
                    <div class=""question-area""></div> 
                </div>","null","","","","","","","","","","","",""
"","","","","","html-button-response","125","397310","0.0-125.0","971E31D8E7684EAE83C82A35E590421C","019cfc41-f6e1-74d7-a646-73966a6006fb","019cfc28-2143-7934-89cc-ce6402563331","","1079","
                <div class=""stimulus-container"">
                    <img src=""images/semantic_sequence/housework_semantic/housework_semantic_2.png"" class=""exp-image"">
                    <div class=""question-area"">
                        <p style=""font-size: 20px; font-weight: bold; margin: 0;"">Is there a person in this image?</p>
                    </div>
                </div>","0","main_experiment_trial","2","housework_semantic","semantic_sequence","chronological","","","","","","",""
"","","","","","html-keyboard-response","126","402319","0.0-126.0","971E31D8E7684EAE83C82A35E590421C","019cfc41-f6e1-74d7-a646-73966a6006fb","019cfc28-2143-7934-89cc-ce6402563331","","null","
                <div class=""stimulus-container"">
                    <img src=""images/semantic_sequence/housework_semantic/housework_semantic_3.png"" class=""exp-image"">
                    <div class=""question-area""></div> 
                </div>","null","","","","","","","","","","","",""
"","","","","","html-button-response","127","403482","0.0-127.0","971E31D8E7684EAE83C82A35E590421C","019cfc41-f6e1-74d7-a646-73966a6006fb","019cfc28-2143-7934-89cc-ce6402563331","","1160","
                <div class=""stimulus-container"">
                    <img src=""images/semantic_sequence/housework_semantic/housework_semantic_3.png"" class=""exp-image"">
                    <div class=""question-area"">
                        <p style=""font-size: 20px; font-weight: bold; margin: 0;"">Is there a person in this image?</p>
                    </div>
                </div>","0","main_experiment_trial","3","housework_semantic","semantic_sequence","chronological","","","","","","",""
"","","","","","html-keyboard-response","128","408488","0.0-128.0","971E31D8E7684EAE83C82A35E590421C","019cfc41-f6e1-74d7-a646-73966a6006fb","019cfc28-2143-7934-89cc-ce6402563331","","null","
                <div class=""stimulus-container"">
                    <img src=""images/semantic_sequence/housework_semantic/housework_semantic_4.png"" class=""exp-image"">
                    <div class=""question-area""></div> 
                </div>","null","","","","","","","","","","","",""
"","","","","","html-button-response","129","409496","0.0-129.0","971E31D8E7684EAE83C82A35E590421C","019cfc41-f6e1-74d7-a646-73966a6006fb","019cfc28-2143-7934-89cc-ce6402563331","","1005","
                <div class=""stimulus-container"">
                    <img src=""images/semantic_sequence/housework_semantic/housework_semantic_4.png"" class=""exp-image"">
                    <div class=""question-area"">
                        <p style=""font-size: 20px; font-weight: bold; margin: 0;"">Is there a person in this image?</p>
                    </div>
                </div>","0","main_experiment_trial","4","housework_semantic","semantic_sequence","chronological","","","","","","",""
"","","","","","html-keyboard-response","130","414498","0.0-130.0","971E31D8E7684EAE83C82A35E590421C","019cfc41-f6e1-74d7-a646-73966a6006fb","019cfc28-2143-7934-89cc-ce6402563331","","null","
                <div class=""stimulus-container"">
                    <img src=""images/semantic_sequence/housework_semantic/housework_semantic_5.png"" class=""exp-image"">
                    <div class=""question-area""></div> 
                </div>","null","","","","","","","","","","","",""
"","","","","","html-button-response","131","415448","0.0-131.0","971E31D8E7684EAE83C82A35E590421C","019cfc41-f6e1-74d7-a646-73966a6006fb","019cfc28-2143-7934-89cc-ce6402563331","","949","
                <div class=""stimulus-container"">
                    <img src=""images/semantic_sequence/housework_semantic/housework_semantic_5.png"" class=""exp-image"">
                    <div class=""question-area"">
                        <p style=""font-size: 20px; font-weight: bold; margin: 0;"">Is there a person in this image?</p>
                    </div>
                </div>","0","main_experiment_trial","5","housework_semantic","semantic_sequence","chronological","","","","","","",""
"","","","","","html-keyboard-response","132","420460","0.0-132.0","971E31D8E7684EAE83C82A35E590421C","019cfc41-f6e1-74d7-a646-73966a6006fb","019cfc28-2143-7934-89cc-ce6402563331","","null","
                <div class=""stimulus-container"">
                    <img src=""images/semantic_sequence/housework_semantic/housework_semantic_6.png"" class=""exp-image"">
                    <div class=""question-area""></div> 
                </div>","null","","","","","","","","","","","",""
"","","","","","html-button-response","133","421488","0.0-133.0","971E31D8E7684EAE83C82A35E590421C","019cfc41-f6e1-74d7-a646-73966a6006fb","019cfc28-2143-7934-89cc-ce6402563331","","1026","
                <div class=""stimulus-container"">
                    <img src=""images/semantic_sequence/housework_semantic/housework_semantic_6.png"" class=""exp-image"">
                    <div class=""question-area"">
                        <p style=""font-size: 20px; font-weight: bold; margin: 0;"">Is there a person in this image?</p>
                    </div>
                </div>","0","main_experiment_trial","6","housework_semantic","semantic_sequence","chronological","","","","","","",""
"","","","","","html-keyboard-response","134","426498","0.0-134.0","971E31D8E7684EAE83C82A35E590421C","019cfc41-f6e1-74d7-a646-73966a6006fb","019cfc28-2143-7934-89cc-ce6402563331","","null","
                <div class=""stimulus-container"">
                    <img src=""images/semantic_sequence/housework_semantic/housework_semantic_7.png"" class=""exp-image"">
                    <div class=""question-area""></div> 
                </div>","null","","","","","","","","","","","",""
"","","","","","html-button-response","135","429508","0.0-135.0","971E31D8E7684EAE83C82A35E590421C","019cfc41-f6e1-74d7-a646-73966a6006fb","019cfc28-2143-7934-89cc-ce6402563331","","null","
                <div class=""stimulus-container"">
                    <img src=""images/semantic_sequence/housework_semantic/housework_semantic_7.png"" class=""exp-image"">
                    <div class=""question-area"">
                        <p style=""font-size: 20px; font-weight: bold; margin: 0;"">Is there a person in this image?</p>
                    </div>
                </div>","null","main_experiment_trial","7","housework_semantic","semantic_sequence","chronological","","","","","","",""
"","","","","","html-keyboard-response","136","434518","0.0-136.0","971E31D8E7684EAE83C82A35E590421C","019cfc41-f6e1-74d7-a646-73966a6006fb","019cfc28-2143-7934-89cc-ce6402563331","","null","
                <div class=""stimulus-container"">
                    <img src=""images/semantic_sequence/housework_semantic/housework_semantic_8.png"" class=""exp-image"">
                    <div class=""question-area""></div> 
                </div>","null","","","","","","","","","","","",""
"","","","","","html-button-response","137","436427","0.0-137.0","971E31D8E7684EAE83C82A35E590421C","019cfc41-f6e1-74d7-a646-73966a6006fb","019cfc28-2143-7934-89cc-ce6402563331","","1907","
                <div class=""stimulus-container"">
                    <img src=""images/semantic_sequence/housework_semantic/housework_semantic_8.png"" class=""exp-image"">
                    <div class=""question-area"">
                        <p style=""font-size: 20px; font-weight: bold; margin: 0;"">Is there a person in this image?</p>
                    </div>
                </div>","0","main_experiment_trial","8","housework_semantic","semantic_sequence","chronological","","","","","","",""
"","","","","","html-keyboard-response","138","441438","0.0-138.0","971E31D8E7684EAE83C82A35E590421C","019cfc41-f6e1-74d7-a646-73966a6006fb","019cfc28-2143-7934-89cc-ce6402563331","","null","
                <div class=""stimulus-container"">
                    <img src=""images/semantic_sequence/housework_semantic/housework_semantic_9.png"" class=""exp-image"">
                    <div class=""question-area""></div> 
                </div>","null","","","","","","","","","","","",""
"","","","","","html-button-response","139","442791","0.0-139.0","971E31D8E7684EAE83C82A35E590421C","019cfc41-f6e1-74d7-a646-73966a6006fb","019cfc28-2143-7934-89cc-ce6402563331","","1351","
                <div class=""stimulus-container"">
                    <img src=""images/semantic_sequence/housework_semantic/housework_semantic_9.png"" class=""exp-image"">
                    <div class=""question-area"">
                        <p style=""font-size: 20px; font-weight: bold; margin: 0;"">Is there a person in this image?</p>
                    </div>
                </div>","0","main_experiment_trial","9","housework_semantic","semantic_sequence","chronological","","","","","","",""
"","","","","","html-keyboard-response","140","447798","0.0-140.0","971E31D8E7684EAE83C82A35E590421C","019cfc41-f6e1-74d7-a646-73966a6006fb","019cfc28-2143-7934-89cc-ce6402563331","","null","
                <div class=""stimulus-container"">
                    <img src=""images/semantic_sequence/housework_semantic/housework_semantic_ten.png"" class=""exp-image"">
                    <div class=""question-area""></div> 
                </div>","null","","","","","","","","","","","",""
"","","","","","html-button-response","141","448636","0.0-141.0","971E31D8E7684EAE83C82A35E590421C","019cfc41-f6e1-74d7-a646-73966a6006fb","019cfc28-2143-7934-89cc-ce6402563331","","837","
                <div class=""stimulus-container"">
                    <img src=""images/semantic_sequence/housework_semantic/housework_semantic_ten.png"" class=""exp-image"">
                    <div class=""question-area"">
                        <p style=""font-size: 20px; font-weight: bold; margin: 0;"">Is there a person in this image?</p>
                    </div>
                </div>","0","main_experiment_trial","ten","housework_semantic","semantic_sequence","chronological","","","","","","",""
"","","","","","html-keyboard-response","142","453647","0.0-142.0","971E31D8E7684EAE83C82A35E590421C","019cfc41-f6e1-74d7-a646-73966a6006fb","019cfc28-2143-7934-89cc-ce6402563331","","null","<div style=""background-color: white; width: 100vw; height: 100vh;""></div>","null","","","","","","","","","","","",""
"","","","","","html-keyboard-response","143","458658","0.0-143.0","971E31D8E7684EAE83C82A35E590421C","019cfc41-f6e1-74d7-a646-73966a6006fb","019cfc28-2143-7934-89cc-ce6402563331","","null","
                <div class=""stimulus-container"">
                    <img src=""images/schematic_sequence/flight_scheme/flight_scheme_1.png"" class=""exp-image"">
                    <div class=""question-area""></div> 
                </div>","null","","","","","","","","","","","",""
"","","","","","html-button-response","144","459615","0.0-144.0","971E31D8E7684EAE83C82A35E590421C","019cfc41-f6e1-74d7-a646-73966a6006fb","019cfc28-2143-7934-89cc-ce6402563331","","955","
                <div class=""stimulus-container"">
                    <img src=""images/schematic_sequence/flight_scheme/flight_scheme_1.png"" class=""exp-image"">
                    <div class=""question-area"">
                        <p style=""font-size: 20px; font-weight: bold; margin: 0;"">Is there a person in this image?</p>
                    </div>
                </div>","0","main_experiment_trial","1","flight_scheme","schematic_sequence","chronological","","","","","","",""
"","","","","","html-keyboard-response","145","464618","0.0-145.0","971E31D8E7684EAE83C82A35E590421C","019cfc41-f6e1-74d7-a646-73966a6006fb","019cfc28-2143-7934-89cc-ce6402563331","","null","
                <div class=""stimulus-container"">
                    <img src=""images/schematic_sequence/flight_scheme/flight_scheme_2.png"" class=""exp-image"">
                    <div class=""question-area""></div> 
                </div>","null","","","","","","","","","","","",""
"","","","","","html-button-response","146","465499","0.0-146.0","971E31D8E7684EAE83C82A35E590421C","019cfc41-f6e1-74d7-a646-73966a6006fb","019cfc28-2143-7934-89cc-ce6402563331","","880","
                <div class=""stimulus-container"">
                    <img src=""images/schematic_sequence/flight_scheme/flight_scheme_2.png"" class=""exp-image"">
                    <div class=""question-area"">
                        <p style=""font-size: 20px; font-weight: bold; margin: 0;"">Is there a person in this image?</p>
                    </div>
                </div>","1","main_experiment_trial","2","flight_scheme","schematic_sequence","chronological","","","","","","",""
"","","","","","html-keyboard-response","147","470508","0.0-147.0","971E31D8E7684EAE83C82A35E590421C","019cfc41-f6e1-74d7-a646-73966a6006fb","019cfc28-2143-7934-89cc-ce6402563331","","null","
                <div class=""stimulus-container"">
                    <img src=""images/schematic_sequence/flight_scheme/flight_scheme_3.png"" class=""exp-image"">
                    <div class=""question-area""></div> 
                </div>","null","","","","","","","","","","","",""
"","","","","","html-button-response","148","471252","0.0-148.0","971E31D8E7684EAE83C82A35E590421C","019cfc41-f6e1-74d7-a646-73966a6006fb","019cfc28-2143-7934-89cc-ce6402563331","","743","
                <div class=""stimulus-container"">
                    <img src=""images/schematic_sequence/flight_scheme/flight_scheme_3.png"" class=""exp-image"">
                    <div class=""question-area"">
                        <p style=""font-size: 20px; font-weight: bold; margin: 0;"">Is there a person in this image?</p>
                    </div>
                </div>","0","main_experiment_trial","3","flight_scheme","schematic_sequence","chronological","","","","","","",""
"","","","","","html-keyboard-response","149","476257","0.0-149.0","971E31D8E7684EAE83C82A35E590421C","019cfc41-f6e1-74d7-a646-73966a6006fb","019cfc28-2143-7934-89cc-ce6402563331","","null","
                <div class=""stimulus-container"">
                    <img src=""images/schematic_sequence/flight_scheme/flight_scheme_4.png"" class=""exp-image"">
                    <div class=""question-area""></div> 
                </div>","null","","","","","","","","","","","",""
"","","","","","html-button-response","150","476951","0.0-150.0","971E31D8E7684EAE83C82A35E590421C","019cfc41-f6e1-74d7-a646-73966a6006fb","019cfc28-2143-7934-89cc-ce6402563331","","691","
                <div class=""stimulus-container"">
                    <img src=""images/schematic_sequence/flight_scheme/flight_scheme_4.png"" class=""exp-image"">
                    <div class=""question-area"">
                        <p style=""font-size: 20px; font-weight: bold; margin: 0;"">Is there a person in this image?</p>
                    </div>
                </div>","0","main_experiment_trial","4","flight_scheme","schematic_sequence","chronological","","","","","","",""
"","","","","","html-keyboard-response","151","481957","0.0-151.0","971E31D8E7684EAE83C82A35E590421C","019cfc41-f6e1-74d7-a646-73966a6006fb","019cfc28-2143-7934-89cc-ce6402563331","","null","
                <div class=""stimulus-container"">
                    <img src=""images/schematic_sequence/flight_scheme/flight_scheme_5.png"" class=""exp-image"">
                    <div class=""question-area""></div> 
                </div>","null","","","","","","","","","","","",""
"","","","","","html-button-response","152","483018","0.0-152.0","971E31D8E7684EAE83C82A35E590421C","019cfc41-f6e1-74d7-a646-73966a6006fb","019cfc28-2143-7934-89cc-ce6402563331","","1059","
                <div class=""stimulus-container"">
                    <img src=""images/schematic_sequence/flight_scheme/flight_scheme_5.png"" class=""exp-image"">
                    <div class=""question-area"">
                        <p style=""font-size: 20px; font-weight: bold; margin: 0;"">Is there a person in this image?</p>
                    </div>
                </div>","0","main_experiment_trial","5","flight_scheme","schematic_sequence","chronological","","","","","","",""
"","","","","","html-keyboard-response","153","488027","0.0-153.0","971E31D8E7684EAE83C82A35E590421C","019cfc41-f6e1-74d7-a646-73966a6006fb","019cfc28-2143-7934-89cc-ce6402563331","","null","
                <div class=""stimulus-container"">
                    <img src=""images/schematic_sequence/flight_scheme/flight_scheme_6.png"" class=""exp-image"">
                    <div class=""question-area""></div> 
                </div>","null","","","","","","","","","","","",""
"","","","","","html-button-response","154","488852","0.0-154.0","971E31D8E7684EAE83C82A35E590421C","019cfc41-f6e1-74d7-a646-73966a6006fb","019cfc28-2143-7934-89cc-ce6402563331","","822","
                <div class=""stimulus-container"">
                    <img src=""images/schematic_sequence/flight_scheme/flight_scheme_6.png"" class=""exp-image"">
                    <div class=""question-area"">
                        <p style=""font-size: 20px; font-weight: bold; margin: 0;"">Is there a person in this image?</p>
                    </div>
                </div>","1","main_experiment_trial","6","flight_scheme","schematic_sequence","chronological","","","","","","",""
"","","","","","html-keyboard-response","155","493857","0.0-155.0","971E31D8E7684EAE83C82A35E590421C","019cfc41-f6e1-74d7-a646-73966a6006fb","019cfc28-2143-7934-89cc-ce6402563331","","null","
                <div class=""stimulus-container"">
                    <img src=""images/schematic_sequence/flight_scheme/flight_scheme_7.png"" class=""exp-image"">
                    <div class=""question-area""></div> 
                </div>","null","","","","","","","","","","","",""
"","","","","","html-button-response","156","495029","0.0-156.0","971E31D8E7684EAE83C82A35E590421C","019cfc41-f6e1-74d7-a646-73966a6006fb","019cfc28-2143-7934-89cc-ce6402563331","","1171","
                <div class=""stimulus-container"">
                    <img src=""images/schematic_sequence/flight_scheme/flight_scheme_7.png"" class=""exp-image"">
                    <div class=""question-area"">
                        <p style=""font-size: 20px; font-weight: bold; margin: 0;"">Is there a person in this image?</p>
                    </div>
                </div>","1","main_experiment_trial","7","flight_scheme","schematic_sequence","chronological","","","","","","",""
"","","","","","html-keyboard-response","157","500037","0.0-157.0","971E31D8E7684EAE83C82A35E590421C","019cfc41-f6e1-74d7-a646-73966a6006fb","019cfc28-2143-7934-89cc-ce6402563331","","null","
                <div class=""stimulus-container"">
                    <img src=""images/schematic_sequence/flight_scheme/flight_scheme_8.png"" class=""exp-image"">
                    <div class=""question-area""></div> 
                </div>","null","","","","","","","","","","","",""
"","","","","","html-button-response","158","500993","0.0-158.0","971E31D8E7684EAE83C82A35E590421C","019cfc41-f6e1-74d7-a646-73966a6006fb","019cfc28-2143-7934-89cc-ce6402563331","","956","
                <div class=""stimulus-container"">
                    <img src=""images/schematic_sequence/flight_scheme/flight_scheme_8.png"" class=""exp-image"">
                    <div class=""question-area"">
                        <p style=""font-size: 20px; font-weight: bold; margin: 0;"">Is there a person in this image?</p>
                    </div>
                </div>","1","main_experiment_trial","8","flight_scheme","schematic_sequence","chronological","","","","","","",""
"","","","","","html-keyboard-response","159","505997","0.0-159.0","971E31D8E7684EAE83C82A35E590421C","019cfc41-f6e1-74d7-a646-73966a6006fb","019cfc28-2143-7934-89cc-ce6402563331","","null","
                <div class=""stimulus-container"">
                    <img src=""images/schematic_sequence/flight_scheme/flight_scheme_9.png"" class=""exp-image"">
                    <div class=""question-area""></div> 
                </div>","null","","","","","","","","","","","",""
"","","","","","html-button-response","160","506591","0.0-160.0","971E31D8E7684EAE83C82A35E590421C","019cfc41-f6e1-74d7-a646-73966a6006fb","019cfc28-2143-7934-89cc-ce6402563331","","593","
                <div class=""stimulus-container"">
                    <img src=""images/schematic_sequence/flight_scheme/flight_scheme_9.png"" class=""exp-image"">
                    <div class=""question-area"">
                        <p style=""font-size: 20px; font-weight: bold; margin: 0;"">Is there a person in this image?</p>
                    </div>
                </div>","0","main_experiment_trial","9","flight_scheme","schematic_sequence","chronological","","","","","","",""
"","","","","","html-keyboard-response","161","511596","0.0-161.0","971E31D8E7684EAE83C82A35E590421C","019cfc41-f6e1-74d7-a646-73966a6006fb","019cfc28-2143-7934-89cc-ce6402563331","","null","
                <div class=""stimulus-container"">
                    <img src=""images/schematic_sequence/flight_scheme/flight_scheme_ten.png"" class=""exp-image"">
                    <div class=""question-area""></div> 
                </div>","null","","","","","","","","","","","",""
"","","","","","html-button-response","162","512409","0.0-162.0","971E31D8E7684EAE83C82A35E590421C","019cfc41-f6e1-74d7-a646-73966a6006fb","019cfc28-2143-7934-89cc-ce6402563331","","811","
                <div class=""stimulus-container"">
                    <img src=""images/schematic_sequence/flight_scheme/flight_scheme_ten.png"" class=""exp-image"">
                    <div class=""question-area"">
                        <p style=""font-size: 20px; font-weight: bold; margin: 0;"">Is there a person in this image?</p>
                    </div>
                </div>","0","main_experiment_trial","ten","flight_scheme","schematic_sequence","chronological","","","","","","",""
"","","","","","html-keyboard-response","163","517418","0.0-163.0","971E31D8E7684EAE83C82A35E590421C","019cfc41-f6e1-74d7-a646-73966a6006fb","019cfc28-2143-7934-89cc-ce6402563331","","null","<div style=""background-color: white; width: 100vw; height: 100vh;""></div>","null","","","","","","","","","","","",""
"","","","","","html-keyboard-response","164","522427","0.0-164.0","971E31D8E7684EAE83C82A35E590421C","019cfc41-f6e1-74d7-a646-73966a6006fb","019cfc28-2143-7934-89cc-ce6402563331","","null","
                <div class=""stimulus-container"">
                    <img src=""images/semantic_sequence/using_technology_semantic/using_technology_semantic_1.png"" class=""exp-image"">
                    <div class=""question-area""></div> 
                </div>","null","","","","","","","","","","","",""
"","","","","","html-button-response","165","522989","0.0-165.0","971E31D8E7684EAE83C82A35E590421C","019cfc41-f6e1-74d7-a646-73966a6006fb","019cfc28-2143-7934-89cc-ce6402563331","","561","
                <div class=""stimulus-container"">
                    <img src=""images/semantic_sequence/using_technology_semantic/using_technology_semantic_1.png"" class=""exp-image"">
                    <div class=""question-area"">
                        <p style=""font-size: 20px; font-weight: bold; margin: 0;"">Is there a person in this image?</p>
                    </div>
                </div>","0","main_experiment_trial","1","using_technology_semantic","semantic_sequence","chronological","","","","","","",""
"","","","","","html-keyboard-response","166","527997","0.0-166.0","971E31D8E7684EAE83C82A35E590421C","019cfc41-f6e1-74d7-a646-73966a6006fb","019cfc28-2143-7934-89cc-ce6402563331","","null","
                <div class=""stimulus-container"">
                    <img src=""images/semantic_sequence/using_technology_semantic/using_technology_semantic_2.png"" class=""exp-image"">
                    <div class=""question-area""></div> 
                </div>","null","","","","","","","","","","","",""
"","","","","","html-button-response","167","528641","0.0-167.0","971E31D8E7684EAE83C82A35E590421C","019cfc41-f6e1-74d7-a646-73966a6006fb","019cfc28-2143-7934-89cc-ce6402563331","","643","
                <div class=""stimulus-container"">
                    <img src=""images/semantic_sequence/using_technology_semantic/using_technology_semantic_2.png"" class=""exp-image"">
                    <div class=""question-area"">
                        <p style=""font-size: 20px; font-weight: bold; margin: 0;"">Is there a person in this image?</p>
                    </div>
                </div>","0","main_experiment_trial","2","using_technology_semantic","semantic_sequence","chronological","","","","","","",""
"","","","","","html-keyboard-response","168","533647","0.0-168.0","971E31D8E7684EAE83C82A35E590421C","019cfc41-f6e1-74d7-a646-73966a6006fb","019cfc28-2143-7934-89cc-ce6402563331","","null","
                <div class=""stimulus-container"">
                    <img src=""images/semantic_sequence/using_technology_semantic/using_technology_semantic_3.png"" class=""exp-image"">
                    <div class=""question-area""></div> 
                </div>","null","","","","","","","","","","","",""
"","","","","","html-button-response","169","534295","0.0-169.0","971E31D8E7684EAE83C82A35E590421C","019cfc41-f6e1-74d7-a646-73966a6006fb","019cfc28-2143-7934-89cc-ce6402563331","","646","
                <div class=""stimulus-container"">
                    <img src=""images/semantic_sequence/using_technology_semantic/using_technology_semantic_3.png"" class=""exp-image"">
                    <div class=""question-area"">
                        <p style=""font-size: 20px; font-weight: bold; margin: 0;"">Is there a person in this image?</p>
                    </div>
                </div>","0","main_experiment_trial","3","using_technology_semantic","semantic_sequence","chronological","","","","","","",""
"","","","","","html-keyboard-response","170","539307","0.0-170.0","971E31D8E7684EAE83C82A35E590421C","019cfc41-f6e1-74d7-a646-73966a6006fb","019cfc28-2143-7934-89cc-ce6402563331","","null","
                <div class=""stimulus-container"">
                    <img src=""images/semantic_sequence/using_technology_semantic/using_technology_semantic_4.png"" class=""exp-image"">
                    <div class=""question-area""></div> 
                </div>","null","","","","","","","","","","","",""
"","","","","","html-button-response","171","540055","0.0-171.0","971E31D8E7684EAE83C82A35E590421C","019cfc41-f6e1-74d7-a646-73966a6006fb","019cfc28-2143-7934-89cc-ce6402563331","","746","
                <div class=""stimulus-container"">
                    <img src=""images/semantic_sequence/using_technology_semantic/using_technology_semantic_4.png"" class=""exp-image"">
                    <div class=""question-area"">
                        <p style=""font-size: 20px; font-weight: bold; margin: 0;"">Is there a person in this image?</p>
                    </div>
                </div>","0","main_experiment_trial","4","using_technology_semantic","semantic_sequence","chronological","","","","","","",""
"","","","","","html-keyboard-response","172","545067","0.0-172.0","971E31D8E7684EAE83C82A35E590421C","019cfc41-f6e1-74d7-a646-73966a6006fb","019cfc28-2143-7934-89cc-ce6402563331","","null","
                <div class=""stimulus-container"">
                    <img src=""images/semantic_sequence/using_technology_semantic/using_technology_semantic_5.png"" class=""exp-image"">
                    <div class=""question-area""></div> 
                </div>","null","","","","","","","","","","","",""
"","","","","","html-button-response","173","545893","0.0-173.0","971E31D8E7684EAE83C82A35E590421C","019cfc41-f6e1-74d7-a646-73966a6006fb","019cfc28-2143-7934-89cc-ce6402563331","","823","
                <div class=""stimulus-container"">
                    <img src=""images/semantic_sequence/using_technology_semantic/using_technology_semantic_5.png"" class=""exp-image"">
                    <div class=""question-area"">
                        <p style=""font-size: 20px; font-weight: bold; margin: 0;"">Is there a person in this image?</p>
                    </div>
                </div>","0","main_experiment_trial","5","using_technology_semantic","semantic_sequence","chronological","","","","","","",""
"","","","","","html-keyboard-response","174","550897","0.0-174.0","971E31D8E7684EAE83C82A35E590421C","019cfc41-f6e1-74d7-a646-73966a6006fb","019cfc28-2143-7934-89cc-ce6402563331","","null","
                <div class=""stimulus-container"">
                    <img src=""images/semantic_sequence/using_technology_semantic/using_technology_semantic_6.png"" class=""exp-image"">
                    <div class=""question-area""></div> 
                </div>","null","","","","","","","","","","","",""
