"success","timeout","failed_images","failed_audio","failed_video","trial_type","trial_index","time_elapsed","internal_node_id","subject_id","study_id","session_id","view_history","rt","stimulus","response","task","image_index","folder","sequence_type","presentation_order","valuable_image_index","reward_type","distance_from_x","target_X","chosen_image_index","is_x_plus_dist","correct_choice"
"true","false","[]","[]","[]","preload","0","210121","0.0-0.0","60DE196C666E474DA5C41E006D9A1B9F","019dac5c-3a06-7fc7-9be0-c9bb0dee0a74","019dac5b-243f-7307-af64-a10f53f1ef70","","","","","","","","","","","","","","","",""
"","","","","","instructions","1","214196","0.0-1.0","60DE196C666E474DA5C41E006D9A1B9F","019dac5c-3a06-7fc7-9be0-c9bb0dee0a74","019dac5b-243f-7307-af64-a10f53f1ef70","[{""page_index"":0,""viewing_time"":4071}]","4072","","","","","","","","","","","","","",""
"","","","","","instructions","2","219235","0.0-2.0","60DE196C666E474DA5C41E006D9A1B9F","019dac5c-3a06-7fc7-9be0-c9bb0dee0a74","019dac5b-243f-7307-af64-a10f53f1ef70","[{""page_index"":0,""viewing_time"":5038}]","5038","","","","","","","","","","","","","",""
"true","","","","","fullscreen","3","224903","0.0-3.0","60DE196C666E474DA5C41E006D9A1B9F","019dac5c-3a06-7fc7-9be0-c9bb0dee0a74","019dac5b-243f-7307-af64-a10f53f1ef70","","4563","","","","","","","","","","","","","",""
"","","","","","instructions","4","234507","0.0-4.0","60DE196C666E474DA5C41E006D9A1B9F","019dac5c-3a06-7fc7-9be0-c9bb0dee0a74","019dac5b-243f-7307-af64-a10f53f1ef70","[{""page_index"":0,""viewing_time"":9603}]","9604","","","","","","","","","","","","","",""
"","","","","","instructions","5","242547","0.0-5.0","60DE196C666E474DA5C41E006D9A1B9F","019dac5c-3a06-7fc7-9be0-c9bb0dee0a74","019dac5b-243f-7307-af64-a10f53f1ef70","[{""page_index"":0,""viewing_time"":8039}]","8039","","","","","","","","","","","","","",""
"","","","","","html-keyboard-response","6","246603","0.0-6.0","60DE196C666E474DA5C41E006D9A1B9F","019dac5c-3a06-7fc7-9be0-c9bb0dee0a74","019dac5b-243f-7307-af64-a10f53f1ef70","","null","
                <div class=""stimulus-container"">
                    <img src=""images/instructions/movie_1.png"" class=""exp-image"">
                    <div class=""question-area""></div> 
                </div>","null","","","","","","","","","","","",""
"","","","","","html-button-response","7","249606","0.0-7.0","60DE196C666E474DA5C41E006D9A1B9F","019dac5c-3a06-7fc7-9be0-c9bb0dee0a74","019dac5b-243f-7307-af64-a10f53f1ef70","","null","
                <div class=""stimulus-container"">
                    <img src=""images/instructions/movie_1.png"" class=""exp-image"">
                    <div class=""question-area"">
                        <p style=""font-size: 20px; font-weight: bold; margin: 0;"">Was there a person in this image?</p>
                    </div>
                </div>","null","example_question","1","","","","","","","","","",""
"","","","","","html-keyboard-response","8","253614","0.0-8.0","60DE196C666E474DA5C41E006D9A1B9F","019dac5c-3a06-7fc7-9be0-c9bb0dee0a74","019dac5b-243f-7307-af64-a10f53f1ef70","","null","
                <div class=""stimulus-container"">
                    <img src=""images/instructions/movie_2.png"" class=""exp-image"">
                    <div class=""question-area""></div> 
                </div>","null","","","","","","","","","","","",""
"","","","","","html-button-response","9","255500","0.0-9.0","60DE196C666E474DA5C41E006D9A1B9F","019dac5c-3a06-7fc7-9be0-c9bb0dee0a74","019dac5b-243f-7307-af64-a10f53f1ef70","","1885","
                <div class=""stimulus-container"">
                    <img src=""images/instructions/movie_2.png"" class=""exp-image"">
                    <div class=""question-area"">
                        <p style=""font-size: 20px; font-weight: bold; margin: 0;"">Was there a person in this image?</p>
                    </div>
                </div>","1","example_question","2","","","","","","","","","",""
"","","","","","html-keyboard-response","10","259502","0.0-10.0","60DE196C666E474DA5C41E006D9A1B9F","019dac5c-3a06-7fc7-9be0-c9bb0dee0a74","019dac5b-243f-7307-af64-a10f53f1ef70","","null","
                <div class=""stimulus-container"">
                    <img src=""images/instructions/movie_3.png"" class=""exp-image"">
                    <div class=""question-area""></div> 
                </div>","null","","","","","","","","","","","",""
"","","","","","html-button-response","11","261155","0.0-11.0","60DE196C666E474DA5C41E006D9A1B9F","019dac5c-3a06-7fc7-9be0-c9bb0dee0a74","019dac5b-243f-7307-af64-a10f53f1ef70","","1652","
                <div class=""stimulus-container"">
                    <img src=""images/instructions/movie_3.png"" class=""exp-image"">
                    <div class=""question-area"">
                        <p style=""font-size: 20px; font-weight: bold; margin: 0;"">Was there a person in this image?</p>
                    </div>
                </div>","0","example_question","3","","","","","","","","","",""
"","","","","","html-keyboard-response","12","265171","0.0-12.0","60DE196C666E474DA5C41E006D9A1B9F","019dac5c-3a06-7fc7-9be0-c9bb0dee0a74","019dac5b-243f-7307-af64-a10f53f1ef70","","null","
                <div class=""stimulus-container"">
                    <img src=""images/instructions/movie_4.png"" class=""exp-image"">
                    <div class=""question-area""></div> 
                </div>","null","","","","","","","","","","","",""
"","","","","","html-button-response","13","266459","0.0-13.0","60DE196C666E474DA5C41E006D9A1B9F","019dac5c-3a06-7fc7-9be0-c9bb0dee0a74","019dac5b-243f-7307-af64-a10f53f1ef70","","1287","
                <div class=""stimulus-container"">
                    <img src=""images/instructions/movie_4.png"" class=""exp-image"">
                    <div class=""question-area"">
                        <p style=""font-size: 20px; font-weight: bold; margin: 0;"">Was there a person in this image?</p>
                    </div>
                </div>","0","example_question","4","","","","","","","","","",""
"","","","","","instructions","14","270355","0.0-14.0","60DE196C666E474DA5C41E006D9A1B9F","019dac5c-3a06-7fc7-9be0-c9bb0dee0a74","019dac5b-243f-7307-af64-a10f53f1ef70","[{""page_index"":0,""viewing_time"":3895}]","3895","","","","","","","","","","","","","",""
"","","","","","instructions","15","273851","0.0-15.0","60DE196C666E474DA5C41E006D9A1B9F","019dac5c-3a06-7fc7-9be0-c9bb0dee0a74","019dac5b-243f-7307-af64-a10f53f1ef70","[{""page_index"":0,""viewing_time"":3495}]","3496","","","","","","","","","","","","","",""
"","","","","","html-keyboard-response","16","278856","0.0-16.0","60DE196C666E474DA5C41E006D9A1B9F","019dac5c-3a06-7fc7-9be0-c9bb0dee0a74","019dac5b-243f-7307-af64-a10f53f1ef70","","null","<div style=""background-color: white; width: 100vw; height: 100vh;""></div>","null","","","","","","","","","","","",""
"","","","","","html-keyboard-response","17","283872","0.0-17.0","60DE196C666E474DA5C41E006D9A1B9F","019dac5c-3a06-7fc7-9be0-c9bb0dee0a74","019dac5b-243f-7307-af64-a10f53f1ef70","","null","
                <div class=""stimulus-container"">
                    <img src=""images/semantic_sequence/maintaining_a_car_semantic/maintaining_a_car_semantic_1.png"" class=""exp-image"">
                    <div class=""question-area""></div> 
                </div>","null","","","","","","","","","","","",""
"","","","","","html-button-response","18","285539","0.0-18.0","60DE196C666E474DA5C41E006D9A1B9F","019dac5c-3a06-7fc7-9be0-c9bb0dee0a74","019dac5b-243f-7307-af64-a10f53f1ef70","","1665","
                <div class=""stimulus-container"">
                    <img src=""images/semantic_sequence/maintaining_a_car_semantic/maintaining_a_car_semantic_1.png"" class=""exp-image"">
                    <div class=""question-area"">
                        <p style=""font-size: 20px; font-weight: bold; margin: 0;"">Is there a person in this image?</p>
                    </div>
                </div>","0","main_experiment_trial","1","maintaining_a_car_semantic","semantic_sequence","chronological","","","","","","",""
"","","","","","html-keyboard-response","19","290544","0.0-19.0","60DE196C666E474DA5C41E006D9A1B9F","019dac5c-3a06-7fc7-9be0-c9bb0dee0a74","019dac5b-243f-7307-af64-a10f53f1ef70","","null","
                <div class=""stimulus-container"">
                    <img src=""images/semantic_sequence/maintaining_a_car_semantic/maintaining_a_car_semantic_2.png"" class=""exp-image"">
                    <div class=""question-area""></div> 
                </div>","null","","","","","","","","","","","",""
"","","","","","html-button-response","20","291867","0.0-20.0","60DE196C666E474DA5C41E006D9A1B9F","019dac5c-3a06-7fc7-9be0-c9bb0dee0a74","019dac5b-243f-7307-af64-a10f53f1ef70","","1322","
                <div class=""stimulus-container"">
                    <img src=""images/semantic_sequence/maintaining_a_car_semantic/maintaining_a_car_semantic_2.png"" class=""exp-image"">
                    <div class=""question-area"">
                        <p style=""font-size: 20px; font-weight: bold; margin: 0;"">Is there a person in this image?</p>
                    </div>
                </div>","0","main_experiment_trial","2","maintaining_a_car_semantic","semantic_sequence","chronological","","","","","","",""
"","","","","","html-keyboard-response","21","296881","0.0-21.0","60DE196C666E474DA5C41E006D9A1B9F","019dac5c-3a06-7fc7-9be0-c9bb0dee0a74","019dac5b-243f-7307-af64-a10f53f1ef70","","null","
                <div class=""stimulus-container"">
                    <img src=""images/semantic_sequence/maintaining_a_car_semantic/maintaining_a_car_semantic_3.png"" class=""exp-image"">
                    <div class=""question-area""></div> 
                </div>","null","","","","","","","","","","","",""
"","","","","","html-button-response","22","298147","0.0-22.0","60DE196C666E474DA5C41E006D9A1B9F","019dac5c-3a06-7fc7-9be0-c9bb0dee0a74","019dac5b-243f-7307-af64-a10f53f1ef70","","1265","
                <div class=""stimulus-container"">
                    <img src=""images/semantic_sequence/maintaining_a_car_semantic/maintaining_a_car_semantic_3.png"" class=""exp-image"">
                    <div class=""question-area"">
                        <p style=""font-size: 20px; font-weight: bold; margin: 0;"">Is there a person in this image?</p>
                    </div>
                </div>","0","main_experiment_trial","3","maintaining_a_car_semantic","semantic_sequence","chronological","","","","","","",""
"","","","","","html-keyboard-response","23","303157","0.0-23.0","60DE196C666E474DA5C41E006D9A1B9F","019dac5c-3a06-7fc7-9be0-c9bb0dee0a74","019dac5b-243f-7307-af64-a10f53f1ef70","","null","
                <div class=""stimulus-container"">
                    <img src=""images/semantic_sequence/maintaining_a_car_semantic/maintaining_a_car_semantic_4.png"" class=""exp-image"">
                    <div class=""question-area""></div> 
                </div>","null","","","","","","","","","","","",""
"","","","","","html-button-response","24","304659","0.0-24.0","60DE196C666E474DA5C41E006D9A1B9F","019dac5c-3a06-7fc7-9be0-c9bb0dee0a74","019dac5b-243f-7307-af64-a10f53f1ef70","","1501","
                <div class=""stimulus-container"">
                    <img src=""images/semantic_sequence/maintaining_a_car_semantic/maintaining_a_car_semantic_4.png"" class=""exp-image"">
                    <div class=""question-area"">
                        <p style=""font-size: 20px; font-weight: bold; margin: 0;"">Is there a person in this image?</p>
                    </div>
                </div>","0","main_experiment_trial","4","maintaining_a_car_semantic","semantic_sequence","chronological","","","","","","",""
"","","","","","html-keyboard-response","25","309667","0.0-25.0","60DE196C666E474DA5C41E006D9A1B9F","019dac5c-3a06-7fc7-9be0-c9bb0dee0a74","019dac5b-243f-7307-af64-a10f53f1ef70","","null","
                <div class=""stimulus-container"">
                    <img src=""images/semantic_sequence/maintaining_a_car_semantic/maintaining_a_car_semantic_5.png"" class=""exp-image"">
                    <div class=""question-area""></div> 
                </div>","null","","","","","","","","","","","",""
"","","","","","html-button-response","26","310499","0.0-26.0","60DE196C666E474DA5C41E006D9A1B9F","019dac5c-3a06-7fc7-9be0-c9bb0dee0a74","019dac5b-243f-7307-af64-a10f53f1ef70","","831","
                <div class=""stimulus-container"">
                    <img src=""images/semantic_sequence/maintaining_a_car_semantic/maintaining_a_car_semantic_5.png"" class=""exp-image"">
                    <div class=""question-area"">
                        <p style=""font-size: 20px; font-weight: bold; margin: 0;"">Is there a person in this image?</p>
                    </div>
                </div>","0","main_experiment_trial","5","maintaining_a_car_semantic","semantic_sequence","chronological","","","","","","",""
"","","","","","html-keyboard-response","27","315502","0.0-27.0","60DE196C666E474DA5C41E006D9A1B9F","019dac5c-3a06-7fc7-9be0-c9bb0dee0a74","019dac5b-243f-7307-af64-a10f53f1ef70","","null","
                <div class=""stimulus-container"">
                    <img src=""images/semantic_sequence/maintaining_a_car_semantic/maintaining_a_car_semantic_6.png"" class=""exp-image"">
                    <div class=""question-area""></div> 
                </div>","null","","","","","","","","","","","",""
"","","","","","html-button-response","28","316667","0.0-28.0","60DE196C666E474DA5C41E006D9A1B9F","019dac5c-3a06-7fc7-9be0-c9bb0dee0a74","019dac5b-243f-7307-af64-a10f53f1ef70","","1164","
                <div class=""stimulus-container"">
                    <img src=""images/semantic_sequence/maintaining_a_car_semantic/maintaining_a_car_semantic_6.png"" class=""exp-image"">
                    <div class=""question-area"">
                        <p style=""font-size: 20px; font-weight: bold; margin: 0;"">Is there a person in this image?</p>
                    </div>
                </div>","0","main_experiment_trial","6","maintaining_a_car_semantic","semantic_sequence","chronological","","","","","","",""
"","","","","","html-keyboard-response","29","321681","0.0-29.0","60DE196C666E474DA5C41E006D9A1B9F","019dac5c-3a06-7fc7-9be0-c9bb0dee0a74","019dac5b-243f-7307-af64-a10f53f1ef70","","null","
                <div class=""stimulus-container"">
                    <img src=""images/semantic_sequence/maintaining_a_car_semantic/maintaining_a_car_semantic_7.png"" class=""exp-image"">
                    <div class=""question-area""></div> 
                </div>","null","","","","","","","","","","","",""
"","","","","","html-button-response","30","322459","0.0-30.0","60DE196C666E474DA5C41E006D9A1B9F","019dac5c-3a06-7fc7-9be0-c9bb0dee0a74","019dac5b-243f-7307-af64-a10f53f1ef70","","777","
                <div class=""stimulus-container"">
                    <img src=""images/semantic_sequence/maintaining_a_car_semantic/maintaining_a_car_semantic_7.png"" class=""exp-image"">
                    <div class=""question-area"">
                        <p style=""font-size: 20px; font-weight: bold; margin: 0;"">Is there a person in this image?</p>
                    </div>
                </div>","0","main_experiment_trial","7","maintaining_a_car_semantic","semantic_sequence","chronological","","","","","","",""
"","","","","","html-keyboard-response","31","327463","0.0-31.0","60DE196C666E474DA5C41E006D9A1B9F","019dac5c-3a06-7fc7-9be0-c9bb0dee0a74","019dac5b-243f-7307-af64-a10f53f1ef70","","null","
                <div class=""stimulus-container"">
                    <img src=""images/semantic_sequence/maintaining_a_car_semantic/maintaining_a_car_semantic_8.png"" class=""exp-image"">
                    <div class=""question-area""></div> 
                </div>","null","","","","","","","","","","","",""
"","","","","","html-button-response","32","328603","0.0-32.0","60DE196C666E474DA5C41E006D9A1B9F","019dac5c-3a06-7fc7-9be0-c9bb0dee0a74","019dac5b-243f-7307-af64-a10f53f1ef70","","1138","
                <div class=""stimulus-container"">
                    <img src=""images/semantic_sequence/maintaining_a_car_semantic/maintaining_a_car_semantic_8.png"" class=""exp-image"">
                    <div class=""question-area"">
                        <p style=""font-size: 20px; font-weight: bold; margin: 0;"">Is there a person in this image?</p>
                    </div>
                </div>","0","main_experiment_trial","8","maintaining_a_car_semantic","semantic_sequence","chronological","","","","","","",""
"","","","","","html-keyboard-response","33","333606","0.0-33.0","60DE196C666E474DA5C41E006D9A1B9F","019dac5c-3a06-7fc7-9be0-c9bb0dee0a74","019dac5b-243f-7307-af64-a10f53f1ef70","","null","
                <div class=""stimulus-container"">
                    <img src=""images/semantic_sequence/maintaining_a_car_semantic/maintaining_a_car_semantic_9.png"" class=""exp-image"">
                    <div class=""question-area""></div> 
                </div>","null","","","","","","","","","","","",""
"","","","","","html-button-response","34","334539","0.0-34.0","60DE196C666E474DA5C41E006D9A1B9F","019dac5c-3a06-7fc7-9be0-c9bb0dee0a74","019dac5b-243f-7307-af64-a10f53f1ef70","","931","
                <div class=""stimulus-container"">
                    <img src=""images/semantic_sequence/maintaining_a_car_semantic/maintaining_a_car_semantic_9.png"" class=""exp-image"">
                    <div class=""question-area"">
                        <p style=""font-size: 20px; font-weight: bold; margin: 0;"">Is there a person in this image?</p>
                    </div>
                </div>","0","main_experiment_trial","9","maintaining_a_car_semantic","semantic_sequence","chronological","","","","","","",""
"","","","","","html-keyboard-response","35","339542","0.0-35.0","60DE196C666E474DA5C41E006D9A1B9F","019dac5c-3a06-7fc7-9be0-c9bb0dee0a74","019dac5b-243f-7307-af64-a10f53f1ef70","","null","
                <div class=""stimulus-container"">
                    <img src=""images/semantic_sequence/maintaining_a_car_semantic/maintaining_a_car_semantic_ten.png"" class=""exp-image"">
                    <div class=""question-area""></div> 
                </div>","null","","","","","","","","","","","",""
"","","","","","html-button-response","36","340251","0.0-36.0","60DE196C666E474DA5C41E006D9A1B9F","019dac5c-3a06-7fc7-9be0-c9bb0dee0a74","019dac5b-243f-7307-af64-a10f53f1ef70","","708","
                <div class=""stimulus-container"">
                    <img src=""images/semantic_sequence/maintaining_a_car_semantic/maintaining_a_car_semantic_ten.png"" class=""exp-image"">
                    <div class=""question-area"">
                        <p style=""font-size: 20px; font-weight: bold; margin: 0;"">Is there a person in this image?</p>
                    </div>
                </div>","0","main_experiment_trial","ten","maintaining_a_car_semantic","semantic_sequence","chronological","","","","","","",""
"","","","","","html-keyboard-response","37","345262","0.0-37.0","60DE196C666E474DA5C41E006D9A1B9F","019dac5c-3a06-7fc7-9be0-c9bb0dee0a74","019dac5b-243f-7307-af64-a10f53f1ef70","","null","<div style=""background-color: white; width: 100vw; height: 100vh;""></div>","null","","","","","","","","","","","",""
"","","","","","html-keyboard-response","38","350267","0.0-38.0","60DE196C666E474DA5C41E006D9A1B9F","019dac5c-3a06-7fc7-9be0-c9bb0dee0a74","019dac5b-243f-7307-af64-a10f53f1ef70","","null","
                <div class=""stimulus-container"">
                    <img src=""images/causal_sequence/saving_a_cat_causal/saving_a_cat_causal_1.png"" class=""exp-image"">
                    <div class=""question-area""></div> 
                </div>","null","","","","","","","","","","","",""
"","","","","","html-button-response","39","352291","0.0-39.0","60DE196C666E474DA5C41E006D9A1B9F","019dac5c-3a06-7fc7-9be0-c9bb0dee0a74","019dac5b-243f-7307-af64-a10f53f1ef70","","2023","
                <div class=""stimulus-container"">
                    <img src=""images/causal_sequence/saving_a_cat_causal/saving_a_cat_causal_1.png"" class=""exp-image"">
                    <div class=""question-area"">
                        <p style=""font-size: 20px; font-weight: bold; margin: 0;"">Is there a person in this image?</p>
                    </div>
                </div>","0","main_experiment_trial","1","saving_a_cat_causal","causal_sequence","chronological","","","","","","",""
"","","","","","html-keyboard-response","40","357298","0.0-40.0","60DE196C666E474DA5C41E006D9A1B9F","019dac5c-3a06-7fc7-9be0-c9bb0dee0a74","019dac5b-243f-7307-af64-a10f53f1ef70","","null","
                <div class=""stimulus-container"">
                    <img src=""images/causal_sequence/saving_a_cat_causal/saving_a_cat_causal_2.png"" class=""exp-image"">
                    <div class=""question-area""></div> 
                </div>","null","","","","","","","","","","","",""
"","","","","","html-button-response","41","358083","0.0-41.0","60DE196C666E474DA5C41E006D9A1B9F","019dac5c-3a06-7fc7-9be0-c9bb0dee0a74","019dac5b-243f-7307-af64-a10f53f1ef70","","784","
                <div class=""stimulus-container"">
                    <img src=""images/causal_sequence/saving_a_cat_causal/saving_a_cat_causal_2.png"" class=""exp-image"">
                    <div class=""question-area"">
                        <p style=""font-size: 20px; font-weight: bold; margin: 0;"">Is there a person in this image?</p>
                    </div>
                </div>","1","main_experiment_trial","2","saving_a_cat_causal","causal_sequence","chronological","","","","","","",""
"","","","","","html-keyboard-response","42","363089","0.0-42.0","60DE196C666E474DA5C41E006D9A1B9F","019dac5c-3a06-7fc7-9be0-c9bb0dee0a74","019dac5b-243f-7307-af64-a10f53f1ef70","","null","
                <div class=""stimulus-container"">
                    <img src=""images/causal_sequence/saving_a_cat_causal/saving_a_cat_causal_3.png"" class=""exp-image"">
                    <div class=""question-area""></div> 
                </div>","null","","","","","","","","","","","",""
"","","","","","html-button-response","43","365947","0.0-43.0","60DE196C666E474DA5C41E006D9A1B9F","019dac5c-3a06-7fc7-9be0-c9bb0dee0a74","019dac5b-243f-7307-af64-a10f53f1ef70","","2857","
                <div class=""stimulus-container"">
                    <img src=""images/causal_sequence/saving_a_cat_causal/saving_a_cat_causal_3.png"" class=""exp-image"">
                    <div class=""question-area"">
                        <p style=""font-size: 20px; font-weight: bold; margin: 0;"">Is there a person in this image?</p>
                    </div>
                </div>","1","main_experiment_trial","3","saving_a_cat_causal","causal_sequence","chronological","","","","","","",""
"","","","","","html-keyboard-response","44","370950","0.0-44.0","60DE196C666E474DA5C41E006D9A1B9F","019dac5c-3a06-7fc7-9be0-c9bb0dee0a74","019dac5b-243f-7307-af64-a10f53f1ef70","","null","
                <div class=""stimulus-container"">
                    <img src=""images/causal_sequence/saving_a_cat_causal/saving_a_cat_causal_4.png"" class=""exp-image"">
                    <div class=""question-area""></div> 
                </div>","null","","","","","","","","","","","",""
"","","","","","html-button-response","45","372507","0.0-45.0","60DE196C666E474DA5C41E006D9A1B9F","019dac5c-3a06-7fc7-9be0-c9bb0dee0a74","019dac5b-243f-7307-af64-a10f53f1ef70","","1555","
                <div class=""stimulus-container"">
                    <img src=""images/causal_sequence/saving_a_cat_causal/saving_a_cat_causal_4.png"" class=""exp-image"">
                    <div class=""question-area"">
                        <p style=""font-size: 20px; font-weight: bold; margin: 0;"">Is there a person in this image?</p>
                    </div>
                </div>","0","main_experiment_trial","4","saving_a_cat_causal","causal_sequence","chronological","","","","","","",""
"","","","","","html-keyboard-response","46","377521","0.0-46.0","60DE196C666E474DA5C41E006D9A1B9F","019dac5c-3a06-7fc7-9be0-c9bb0dee0a74","019dac5b-243f-7307-af64-a10f53f1ef70","","null","
                <div class=""stimulus-container"">
                    <img src=""images/causal_sequence/saving_a_cat_causal/saving_a_cat_causal_5.png"" class=""exp-image"">
                    <div class=""question-area""></div> 
                </div>","null","","","","","","","","","","","",""
"","","","","","html-button-response","47","378803","0.0-47.0","60DE196C666E474DA5C41E006D9A1B9F","019dac5c-3a06-7fc7-9be0-c9bb0dee0a74","019dac5b-243f-7307-af64-a10f53f1ef70","","1281","
                <div class=""stimulus-container"">
                    <img src=""images/causal_sequence/saving_a_cat_causal/saving_a_cat_causal_5.png"" class=""exp-image"">
                    <div class=""question-area"">
                        <p style=""font-size: 20px; font-weight: bold; margin: 0;"">Is there a person in this image?</p>
                    </div>
                </div>","0","main_experiment_trial","5","saving_a_cat_causal","causal_sequence","chronological","","","","","","",""
"","","","","","html-keyboard-response","48","383816","0.0-48.0","60DE196C666E474DA5C41E006D9A1B9F","019dac5c-3a06-7fc7-9be0-c9bb0dee0a74","019dac5b-243f-7307-af64-a10f53f1ef70","","null","
                <div class=""stimulus-container"">
                    <img src=""images/causal_sequence/saving_a_cat_causal/saving_a_cat_causal_6.png"" class=""exp-image"">
                    <div class=""question-area""></div> 
                </div>","null","","","","","","","","","","","",""
"","","","","","html-button-response","49","385123","0.0-49.0","60DE196C666E474DA5C41E006D9A1B9F","019dac5c-3a06-7fc7-9be0-c9bb0dee0a74","019dac5b-243f-7307-af64-a10f53f1ef70","","1306","
                <div class=""stimulus-container"">
                    <img src=""images/causal_sequence/saving_a_cat_causal/saving_a_cat_causal_6.png"" class=""exp-image"">
                    <div class=""question-area"">
                        <p style=""font-size: 20px; font-weight: bold; margin: 0;"">Is there a person in this image?</p>
                    </div>
                </div>","0","main_experiment_trial","6","saving_a_cat_causal","causal_sequence","chronological","","","","","","",""
"","","","","","html-keyboard-response","50","390134","0.0-50.0","60DE196C666E474DA5C41E006D9A1B9F","019dac5c-3a06-7fc7-9be0-c9bb0dee0a74","019dac5b-243f-7307-af64-a10f53f1ef70","","null","
                <div class=""stimulus-container"">
                    <img src=""images/causal_sequence/saving_a_cat_causal/saving_a_cat_causal_7.png"" class=""exp-image"">
                    <div class=""question-area""></div> 
                </div>","null","","","","","","","","","","","",""
"","","","","","html-button-response","51","393150","0.0-51.0","60DE196C666E474DA5C41E006D9A1B9F","019dac5c-3a06-7fc7-9be0-c9bb0dee0a74","019dac5b-243f-7307-af64-a10f53f1ef70","","null","
                <div class=""stimulus-container"">
                    <img src=""images/causal_sequence/saving_a_cat_causal/saving_a_cat_causal_7.png"" class=""exp-image"">
                    <div class=""question-area"">
                        <p style=""font-size: 20px; font-weight: bold; margin: 0;"">Is there a person in this image?</p>
                    </div>
                </div>","null","main_experiment_trial","7","saving_a_cat_causal","causal_sequence","chronological","","","","","","",""
"","","","","","html-keyboard-response","52","398161","0.0-52.0","60DE196C666E474DA5C41E006D9A1B9F","019dac5c-3a06-7fc7-9be0-c9bb0dee0a74","019dac5b-243f-7307-af64-a10f53f1ef70","","null","
                <div class=""stimulus-container"">
                    <img src=""images/causal_sequence/saving_a_cat_causal/saving_a_cat_causal_8.png"" class=""exp-image"">
                    <div class=""question-area""></div> 
                </div>","null","","","","","","","","","","","",""
"","","","","","html-button-response","53","399955","0.0-53.0","60DE196C666E474DA5C41E006D9A1B9F","019dac5c-3a06-7fc7-9be0-c9bb0dee0a74","019dac5b-243f-7307-af64-a10f53f1ef70","","1793","
                <div class=""stimulus-container"">
                    <img src=""images/causal_sequence/saving_a_cat_causal/saving_a_cat_causal_8.png"" class=""exp-image"">
                    <div class=""question-area"">
                        <p style=""font-size: 20px; font-weight: bold; margin: 0;"">Is there a person in this image?</p>
                    </div>
                </div>","0","main_experiment_trial","8","saving_a_cat_causal","causal_sequence","chronological","","","","","","",""
"","","","","","html-keyboard-response","54","404961","0.0-54.0","60DE196C666E474DA5C41E006D9A1B9F","019dac5c-3a06-7fc7-9be0-c9bb0dee0a74","019dac5b-243f-7307-af64-a10f53f1ef70","","null","
                <div class=""stimulus-container"">
                    <img src=""images/causal_sequence/saving_a_cat_causal/saving_a_cat_causal_9.png"" class=""exp-image"">
                    <div class=""question-area""></div> 
                </div>","null","","","","","","","","","","","",""
"","","","","","html-button-response","55","406171","0.0-55.0","60DE196C666E474DA5C41E006D9A1B9F","019dac5c-3a06-7fc7-9be0-c9bb0dee0a74","019dac5b-243f-7307-af64-a10f53f1ef70","","1209","
                <div class=""stimulus-container"">
                    <img src=""images/causal_sequence/saving_a_cat_causal/saving_a_cat_causal_9.png"" class=""exp-image"">
                    <div class=""question-area"">
                        <p style=""font-size: 20px; font-weight: bold; margin: 0;"">Is there a person in this image?</p>
                    </div>
                </div>","0","main_experiment_trial","9","saving_a_cat_causal","causal_sequence","chronological","","","","","","",""
"","","","","","html-keyboard-response","56","411200","0.0-56.0","60DE196C666E474DA5C41E006D9A1B9F","019dac5c-3a06-7fc7-9be0-c9bb0dee0a74","019dac5b-243f-7307-af64-a10f53f1ef70","","null","
                <div class=""stimulus-container"">
                    <img src=""images/causal_sequence/saving_a_cat_causal/saving_a_cat_causal_ten.png"" class=""exp-image"">
                    <div class=""question-area""></div> 
                </div>","null","","","","","","","","","","","",""
"","","","","","html-button-response","57","412475","0.0-57.0","60DE196C666E474DA5C41E006D9A1B9F","019dac5c-3a06-7fc7-9be0-c9bb0dee0a74","019dac5b-243f-7307-af64-a10f53f1ef70","","1274","
                <div class=""stimulus-container"">
                    <img src=""images/causal_sequence/saving_a_cat_causal/saving_a_cat_causal_ten.png"" class=""exp-image"">
                    <div class=""question-area"">
                        <p style=""font-size: 20px; font-weight: bold; margin: 0;"">Is there a person in this image?</p>
                    </div>
                </div>","0","main_experiment_trial","ten","saving_a_cat_causal","causal_sequence","chronological","","","","","","",""
"","","","","","html-keyboard-response","58","417476","0.0-58.0","60DE196C666E474DA5C41E006D9A1B9F","019dac5c-3a06-7fc7-9be0-c9bb0dee0a74","019dac5b-243f-7307-af64-a10f53f1ef70","","null","<div style=""background-color: white; width: 100vw; height: 100vh;""></div>","null","","","","","","","","","","","",""
"","","","","","html-keyboard-response","59","422490","0.0-59.0","60DE196C666E474DA5C41E006D9A1B9F","019dac5c-3a06-7fc7-9be0-c9bb0dee0a74","019dac5b-243f-7307-af64-a10f53f1ef70","","null","
                <div class=""stimulus-container"">
                    <img src=""images/semantic_sequence/housework_semantic/housework_semantic_1.png"" class=""exp-image"">
                    <div class=""question-area""></div> 
                </div>","null","","","","","","","","","","","",""
"","","","","","html-button-response","60","424067","0.0-60.0","60DE196C666E474DA5C41E006D9A1B9F","019dac5c-3a06-7fc7-9be0-c9bb0dee0a74","019dac5b-243f-7307-af64-a10f53f1ef70","","1576","
                <div class=""stimulus-container"">
                    <img src=""images/semantic_sequence/housework_semantic/housework_semantic_1.png"" class=""exp-image"">
                    <div class=""question-area"">
                        <p style=""font-size: 20px; font-weight: bold; margin: 0;"">Is there a person in this image?</p>
                    </div>
                </div>","1","main_experiment_trial","1","housework_semantic","semantic_sequence","chronological","","","","","","",""
"","","","","","html-keyboard-response","61","429073","0.0-61.0","60DE196C666E474DA5C41E006D9A1B9F","019dac5c-3a06-7fc7-9be0-c9bb0dee0a74","019dac5b-243f-7307-af64-a10f53f1ef70","","null","
                <div class=""stimulus-container"">
                    <img src=""images/semantic_sequence/housework_semantic/housework_semantic_2.png"" class=""exp-image"">
                    <div class=""question-area""></div> 
                </div>","null","","","","","","","","","","","",""
"","","","","","html-button-response","62","430371","0.0-62.0","60DE196C666E474DA5C41E006D9A1B9F","019dac5c-3a06-7fc7-9be0-c9bb0dee0a74","019dac5b-243f-7307-af64-a10f53f1ef70","","1297","
                <div class=""stimulus-container"">
                    <img src=""images/semantic_sequence/housework_semantic/housework_semantic_2.png"" class=""exp-image"">
                    <div class=""question-area"">
                        <p style=""font-size: 20px; font-weight: bold; margin: 0;"">Is there a person in this image?</p>
                    </div>
                </div>","0","main_experiment_trial","2","housework_semantic","semantic_sequence","chronological","","","","","","",""
"","","","","","html-keyboard-response","63","435374","0.0-63.0","60DE196C666E474DA5C41E006D9A1B9F","019dac5c-3a06-7fc7-9be0-c9bb0dee0a74","019dac5b-243f-7307-af64-a10f53f1ef70","","null","
                <div class=""stimulus-container"">
                    <img src=""images/semantic_sequence/housework_semantic/housework_semantic_3.png"" class=""exp-image"">
                    <div class=""question-area""></div> 
                </div>","null","","","","","","","","","","","",""
"","","","","","html-button-response","64","437083","0.0-64.0","60DE196C666E474DA5C41E006D9A1B9F","019dac5c-3a06-7fc7-9be0-c9bb0dee0a74","019dac5b-243f-7307-af64-a10f53f1ef70","","1708","
                <div class=""stimulus-container"">
                    <img src=""images/semantic_sequence/housework_semantic/housework_semantic_3.png"" class=""exp-image"">
                    <div class=""question-area"">
                        <p style=""font-size: 20px; font-weight: bold; margin: 0;"">Is there a person in this image?</p>
                    </div>
                </div>","0","main_experiment_trial","3","housework_semantic","semantic_sequence","chronological","","","","","","",""
"","","","","","html-keyboard-response","65","442089","0.0-65.0","60DE196C666E474DA5C41E006D9A1B9F","019dac5c-3a06-7fc7-9be0-c9bb0dee0a74","019dac5b-243f-7307-af64-a10f53f1ef70","","null","
                <div class=""stimulus-container"">
                    <img src=""images/semantic_sequence/housework_semantic/housework_semantic_4.png"" class=""exp-image"">
                    <div class=""question-area""></div> 
                </div>","null","","","","","","","","","","","",""
"","","","","","html-button-response","66","443275","0.0-66.0","60DE196C666E474DA5C41E006D9A1B9F","019dac5c-3a06-7fc7-9be0-c9bb0dee0a74","019dac5b-243f-7307-af64-a10f53f1ef70","","1184","
                <div class=""stimulus-container"">
                    <img src=""images/semantic_sequence/housework_semantic/housework_semantic_4.png"" class=""exp-image"">
                    <div class=""question-area"">
                        <p style=""font-size: 20px; font-weight: bold; margin: 0;"">Is there a person in this image?</p>
                    </div>
                </div>","0","main_experiment_trial","4","housework_semantic","semantic_sequence","chronological","","","","","","",""
"","","","","","html-keyboard-response","67","448288","0.0-67.0","60DE196C666E474DA5C41E006D9A1B9F","019dac5c-3a06-7fc7-9be0-c9bb0dee0a74","019dac5b-243f-7307-af64-a10f53f1ef70","","null","
                <div class=""stimulus-container"">
                    <img src=""images/semantic_sequence/housework_semantic/housework_semantic_5.png"" class=""exp-image"">
                    <div class=""question-area""></div> 
                </div>","null","","","","","","","","","","","",""
"","","","","","html-button-response","68","449547","0.0-68.0","60DE196C666E474DA5C41E006D9A1B9F","019dac5c-3a06-7fc7-9be0-c9bb0dee0a74","019dac5b-243f-7307-af64-a10f53f1ef70","","1258","
                <div class=""stimulus-container"">
                    <img src=""images/semantic_sequence/housework_semantic/housework_semantic_5.png"" class=""exp-image"">
                    <div class=""question-area"">
                        <p style=""font-size: 20px; font-weight: bold; margin: 0;"">Is there a person in this image?</p>
                    </div>
                </div>","0","main_experiment_trial","5","housework_semantic","semantic_sequence","chronological","","","","","","",""
"","","","","","html-keyboard-response","69","454549","0.0-69.0","60DE196C666E474DA5C41E006D9A1B9F","019dac5c-3a06-7fc7-9be0-c9bb0dee0a74","019dac5b-243f-7307-af64-a10f53f1ef70","","null","
                <div class=""stimulus-container"">
                    <img src=""images/semantic_sequence/housework_semantic/housework_semantic_6.png"" class=""exp-image"">
                    <div class=""question-area""></div> 
                </div>","null","","","","","","","","","","","",""
"","","","","","html-button-response","70","455499","0.0-70.0","60DE196C666E474DA5C41E006D9A1B9F","019dac5c-3a06-7fc7-9be0-c9bb0dee0a74","019dac5b-243f-7307-af64-a10f53f1ef70","","949","
                <div class=""stimulus-container"">
                    <img src=""images/semantic_sequence/housework_semantic/housework_semantic_6.png"" class=""exp-image"">
                    <div class=""question-area"">
                        <p style=""font-size: 20px; font-weight: bold; margin: 0;"">Is there a person in this image?</p>
                    </div>
                </div>","0","main_experiment_trial","6","housework_semantic","semantic_sequence","chronological","","","","","","",""
"","","","","","html-keyboard-response","71","460500","0.0-71.0","60DE196C666E474DA5C41E006D9A1B9F","019dac5c-3a06-7fc7-9be0-c9bb0dee0a74","019dac5b-243f-7307-af64-a10f53f1ef70","","null","
                <div class=""stimulus-container"">
                    <img src=""images/semantic_sequence/housework_semantic/housework_semantic_7.png"" class=""exp-image"">
                    <div class=""question-area""></div> 
                </div>","null","","","","","","","","","","","",""
"","","","","","html-button-response","72","463502","0.0-72.0","60DE196C666E474DA5C41E006D9A1B9F","019dac5c-3a06-7fc7-9be0-c9bb0dee0a74","019dac5b-243f-7307-af64-a10f53f1ef70","","null","
                <div class=""stimulus-container"">
                    <img src=""images/semantic_sequence/housework_semantic/housework_semantic_7.png"" class=""exp-image"">
                    <div class=""question-area"">
                        <p style=""font-size: 20px; font-weight: bold; margin: 0;"">Is there a person in this image?</p>
                    </div>
                </div>","null","main_experiment_trial","7","housework_semantic","semantic_sequence","chronological","","","","","","",""
"","","","","","html-keyboard-response","73","468518","0.0-73.0","60DE196C666E474DA5C41E006D9A1B9F","019dac5c-3a06-7fc7-9be0-c9bb0dee0a74","019dac5b-243f-7307-af64-a10f53f1ef70","","null","
                <div class=""stimulus-container"">
                    <img src=""images/semantic_sequence/housework_semantic/housework_semantic_8.png"" class=""exp-image"">
                    <div class=""question-area""></div> 
                </div>","null","","","","","","","","","","","",""
"","","","","","html-button-response","74","469963","0.0-74.0","60DE196C666E474DA5C41E006D9A1B9F","019dac5c-3a06-7fc7-9be0-c9bb0dee0a74","019dac5b-243f-7307-af64-a10f53f1ef70","","1444","
                <div class=""stimulus-container"">
                    <img src=""images/semantic_sequence/housework_semantic/housework_semantic_8.png"" class=""exp-image"">
                    <div class=""question-area"">
                        <p style=""font-size: 20px; font-weight: bold; margin: 0;"">Is there a person in this image?</p>
                    </div>
                </div>","0","main_experiment_trial","8","housework_semantic","semantic_sequence","chronological","","","","","","",""
"","","","","","html-keyboard-response","75","474973","0.0-75.0","60DE196C666E474DA5C41E006D9A1B9F","019dac5c-3a06-7fc7-9be0-c9bb0dee0a74","019dac5b-243f-7307-af64-a10f53f1ef70","","null","
                <div class=""stimulus-container"">
                    <img src=""images/semantic_sequence/housework_semantic/housework_semantic_9.png"" class=""exp-image"">
                    <div class=""question-area""></div> 
                </div>","null","","","","","","","","","","","",""
"","","","","","html-button-response","76","476195","0.0-76.0","60DE196C666E474DA5C41E006D9A1B9F","019dac5c-3a06-7fc7-9be0-c9bb0dee0a74","019dac5b-243f-7307-af64-a10f53f1ef70","","1221","
                <div class=""stimulus-container"">
                    <img src=""images/semantic_sequence/housework_semantic/housework_semantic_9.png"" class=""exp-image"">
                    <div class=""question-area"">
                        <p style=""font-size: 20px; font-weight: bold; margin: 0;"">Is there a person in this image?</p>
                    </div>
                </div>","0","main_experiment_trial","9","housework_semantic","semantic_sequence","chronological","","","","","","",""
"","","","","","html-keyboard-response","77","481212","0.0-77.0","60DE196C666E474DA5C41E006D9A1B9F","019dac5c-3a06-7fc7-9be0-c9bb0dee0a74","019dac5b-243f-7307-af64-a10f53f1ef70","","null","
                <div class=""stimulus-container"">
                    <img src=""images/semantic_sequence/housework_semantic/housework_semantic_ten.png"" class=""exp-image"">
                    <div class=""question-area""></div> 
                </div>","null","","","","","","","","","","","",""
"","","","","","html-button-response","78","482404","0.0-78.0","60DE196C666E474DA5C41E006D9A1B9F","019dac5c-3a06-7fc7-9be0-c9bb0dee0a74","019dac5b-243f-7307-af64-a10f53f1ef70","","1191","
                <div class=""stimulus-container"">
                    <img src=""images/semantic_sequence/housework_semantic/housework_semantic_ten.png"" class=""exp-image"">
                    <div class=""question-area"">
                        <p style=""font-size: 20px; font-weight: bold; margin: 0;"">Is there a person in this image?</p>
                    </div>
                </div>","0","main_experiment_trial","ten","housework_semantic","semantic_sequence","chronological","","","","","","",""
"","","","","","html-keyboard-response","79","487419","0.0-79.0","60DE196C666E474DA5C41E006D9A1B9F","019dac5c-3a06-7fc7-9be0-c9bb0dee0a74","019dac5b-243f-7307-af64-a10f53f1ef70","","null","<div style=""background-color: white; width: 100vw; height: 100vh;""></div>","null","","","","","","","","","","","",""
"","","","","","html-keyboard-response","80","492427","0.0-80.0","60DE196C666E474DA5C41E006D9A1B9F","019dac5c-3a06-7fc7-9be0-c9bb0dee0a74","019dac5b-243f-7307-af64-a10f53f1ef70","","null","
                <div class=""stimulus-container"">
                    <img src=""images/semantic_sequence/visiting_cities_semantic/visiting_cities_semantic_1.png"" class=""exp-image"">
                    <div class=""question-area""></div> 
                </div>","null","","","","","","","","","","","",""
"","","","","","html-button-response","81","495431","0.0-81.0","60DE196C666E474DA5C41E006D9A1B9F","019dac5c-3a06-7fc7-9be0-c9bb0dee0a74","019dac5b-243f-7307-af64-a10f53f1ef70","","null","
                <div class=""stimulus-container"">
                    <img src=""images/semantic_sequence/visiting_cities_semantic/visiting_cities_semantic_1.png"" class=""exp-image"">
                    <div class=""question-area"">
                        <p style=""font-size: 20px; font-weight: bold; margin: 0;"">Is there a person in this image?</p>
                    </div>
                </div>","null","main_experiment_trial","1","visiting_cities_semantic","semantic_sequence","chronological","","","","","","",""
"","","","","","html-keyboard-response","82","500438","0.0-82.0","60DE196C666E474DA5C41E006D9A1B9F","019dac5c-3a06-7fc7-9be0-c9bb0dee0a74","019dac5b-243f-7307-af64-a10f53f1ef70","","null","
                <div class=""stimulus-container"">
                    <img src=""images/semantic_sequence/visiting_cities_semantic/visiting_cities_semantic_2.png"" class=""exp-image"">
                    <div class=""question-area""></div> 
                </div>","null","","","","","","","","","","","",""
"","","","","","html-button-response","83","501779","0.0-83.0","60DE196C666E474DA5C41E006D9A1B9F","019dac5c-3a06-7fc7-9be0-c9bb0dee0a74","019dac5b-243f-7307-af64-a10f53f1ef70","","1340","
                <div class=""stimulus-container"">
                    <img src=""images/semantic_sequence/visiting_cities_semantic/visiting_cities_semantic_2.png"" class=""exp-image"">
                    <div class=""question-area"">
                        <p style=""font-size: 20px; font-weight: bold; margin: 0;"">Is there a person in this image?</p>
                    </div>
                </div>","0","main_experiment_trial","2","visiting_cities_semantic","semantic_sequence","chronological","","","","","","",""
"","","","","","html-keyboard-response","84","506793","0.0-84.0","60DE196C666E474DA5C41E006D9A1B9F","019dac5c-3a06-7fc7-9be0-c9bb0dee0a74","019dac5b-243f-7307-af64-a10f53f1ef70","","null","
                <div class=""stimulus-container"">
                    <img src=""images/semantic_sequence/visiting_cities_semantic/visiting_cities_semantic_3.png"" class=""exp-image"">
                    <div class=""question-area""></div> 
                </div>","null","","","","","","","","","","","",""
"","","","","","html-button-response","85","507499","0.0-85.0","60DE196C666E474DA5C41E006D9A1B9F","019dac5c-3a06-7fc7-9be0-c9bb0dee0a74","019dac5b-243f-7307-af64-a10f53f1ef70","","705","
                <div class=""stimulus-container"">
                    <img src=""images/semantic_sequence/visiting_cities_semantic/visiting_cities_semantic_3.png"" class=""exp-image"">
                    <div class=""question-area"">
                        <p style=""font-size: 20px; font-weight: bold; margin: 0;"">Is there a person in this image?</p>
                    </div>
                </div>","1","main_experiment_trial","3","visiting_cities_semantic","semantic_sequence","chronological","","","","","","",""
"","","","","","html-keyboard-response","86","512502","0.0-86.0","60DE196C666E474DA5C41E006D9A1B9F","019dac5c-3a06-7fc7-9be0-c9bb0dee0a74","019dac5b-243f-7307-af64-a10f53f1ef70","","null","
                <div class=""stimulus-container"">
                    <img src=""images/semantic_sequence/visiting_cities_semantic/visiting_cities_semantic_4.png"" class=""exp-image"">
                    <div class=""question-area""></div> 
                </div>","null","","","","","","","","","","","",""
"","","","","","html-button-response","87","513115","0.0-87.0","60DE196C666E474DA5C41E006D9A1B9F","019dac5c-3a06-7fc7-9be0-c9bb0dee0a74","019dac5b-243f-7307-af64-a10f53f1ef70","","612","
                <div class=""stimulus-container"">
                    <img src=""images/semantic_sequence/visiting_cities_semantic/visiting_cities_semantic_4.png"" class=""exp-image"">
                    <div class=""question-area"">
                        <p style=""font-size: 20px; font-weight: bold; margin: 0;"">Is there a person in this image?</p>
                    </div>
                </div>","1","main_experiment_trial","4","visiting_cities_semantic","semantic_sequence","chronological","","","","","","",""
"","","","","","html-keyboard-response","88","518125","0.0-88.0","60DE196C666E474DA5C41E006D9A1B9F","019dac5c-3a06-7fc7-9be0-c9bb0dee0a74","019dac5b-243f-7307-af64-a10f53f1ef70","","null","
                <div class=""stimulus-container"">
                    <img src=""images/semantic_sequence/visiting_cities_semantic/visiting_cities_semantic_5.png"" class=""exp-image"">
                    <div class=""question-area""></div> 
                </div>","null","","","","","","","","","","","",""
"","","","","","html-button-response","89","518739","0.0-89.0","60DE196C666E474DA5C41E006D9A1B9F","019dac5c-3a06-7fc7-9be0-c9bb0dee0a74","019dac5b-243f-7307-af64-a10f53f1ef70","","613","
                <div class=""stimulus-container"">
                    <img src=""images/semantic_sequence/visiting_cities_semantic/visiting_cities_semantic_5.png"" class=""exp-image"">
                    <div class=""question-area"">
                        <p style=""font-size: 20px; font-weight: bold; margin: 0;"">Is there a person in this image?</p>
                    </div>
                </div>","1","main_experiment_trial","5","visiting_cities_semantic","semantic_sequence","chronological","","","","","","",""
"","","","","","html-keyboard-response","90","523751","0.0-90.0","60DE196C666E474DA5C41E006D9A1B9F","019dac5c-3a06-7fc7-9be0-c9bb0dee0a74","019dac5b-243f-7307-af64-a10f53f1ef70","","null","
                <div class=""stimulus-container"">
                    <img src=""images/semantic_sequence/visiting_cities_semantic/visiting_cities_semantic_6.png"" class=""exp-image"">
                    <div class=""question-area""></div> 
                </div>","null","","","","","","","","","","","",""
"","","","","","html-button-response","91","524403","0.0-91.0","60DE196C666E474DA5C41E006D9A1B9F","019dac5c-3a06-7fc7-9be0-c9bb0dee0a74","019dac5b-243f-7307-af64-a10f53f1ef70","","651","
                <div class=""stimulus-container"">
                    <img src=""images/semantic_sequence/visiting_cities_semantic/visiting_cities_semantic_6.png"" class=""exp-image"">
                    <div class=""question-area"">
                        <p style=""font-size: 20px; font-weight: bold; margin: 0;"">Is there a person in this image?</p>
                    </div>
                </div>","1","main_experiment_trial","6","visiting_cities_semantic","semantic_sequence","chronological","","","","","","",""
"","","","","","html-keyboard-response","92","529412","0.0-92.0","60DE196C666E474DA5C41E006D9A1B9F","019dac5c-3a06-7fc7-9be0-c9bb0dee0a74","019dac5b-243f-7307-af64-a10f53f1ef70","","null","
                <div class=""stimulus-container"">
                    <img src=""images/semantic_sequence/visiting_cities_semantic/visiting_cities_semantic_7.png"" class=""exp-image"">
                    <div class=""question-area""></div> 
                </div>","null","","","","","","","","","","","",""
"","","","","","html-button-response","93","529987","0.0-93.0","60DE196C666E474DA5C41E006D9A1B9F","019dac5c-3a06-7fc7-9be0-c9bb0dee0a74","019dac5b-243f-7307-af64-a10f53f1ef70","","574","
                <div class=""stimulus-container"">
                    <img src=""images/semantic_sequence/visiting_cities_semantic/visiting_cities_semantic_7.png"" class=""exp-image"">
                    <div class=""question-area"">
                        <p style=""font-size: 20px; font-weight: bold; margin: 0;"">Is there a person in this image?</p>
                    </div>
                </div>","1","main_experiment_trial","7","visiting_cities_semantic","semantic_sequence","chronological","","","","","","",""
"","","","","","html-keyboard-response","94","534991","0.0-94.0","60DE196C666E474DA5C41E006D9A1B9F","019dac5c-3a06-7fc7-9be0-c9bb0dee0a74","019dac5b-243f-7307-af64-a10f53f1ef70","","null","
                <div class=""stimulus-container"">
                    <img src=""images/semantic_sequence/visiting_cities_semantic/visiting_cities_semantic_8.png"" class=""exp-image"">
                    <div class=""question-area""></div> 
                </div>","null","","","","","","","","","","","",""
"","","","","","html-button-response","95","535659","0.0-95.0","60DE196C666E474DA5C41E006D9A1B9F","019dac5c-3a06-7fc7-9be0-c9bb0dee0a74","019dac5b-243f-7307-af64-a10f53f1ef70","","667","
                <div class=""stimulus-container"">
                    <img src=""images/semantic_sequence/visiting_cities_semantic/visiting_cities_semantic_8.png"" class=""exp-image"">
                    <div class=""question-area"">
                        <p style=""font-size: 20px; font-weight: bold; margin: 0;"">Is there a person in this image?</p>
                    </div>
                </div>","1","main_experiment_trial","8","visiting_cities_semantic","semantic_sequence","chronological","","","","","","",""
"","","","","","html-keyboard-response","96","540664","0.0-96.0","60DE196C666E474DA5C41E006D9A1B9F","019dac5c-3a06-7fc7-9be0-c9bb0dee0a74","019dac5b-243f-7307-af64-a10f53f1ef70","","null","
                <div class=""stimulus-container"">
                    <img src=""images/semantic_sequence/visiting_cities_semantic/visiting_cities_semantic_9.png"" class=""exp-image"">
                    <div class=""question-area""></div> 
                </div>","null","","","","","","","","","","","",""
"","","","","","html-button-response","97","541291","0.0-97.0","60DE196C666E474DA5C41E006D9A1B9F","019dac5c-3a06-7fc7-9be0-c9bb0dee0a74","019dac5b-243f-7307-af64-a10f53f1ef70","","626","
                <div class=""stimulus-container"">
                    <img src=""images/semantic_sequence/visiting_cities_semantic/visiting_cities_semantic_9.png"" class=""exp-image"">
                    <div class=""question-area"">
                        <p style=""font-size: 20px; font-weight: bold; margin: 0;"">Is there a person in this image?</p>
                    </div>
                </div>","1","main_experiment_trial","9","visiting_cities_semantic","semantic_sequence","chronological","","","","","","",""
"","","","","","html-keyboard-response","98","546307","0.0-98.0","60DE196C666E474DA5C41E006D9A1B9F","019dac5c-3a06-7fc7-9be0-c9bb0dee0a74","019dac5b-243f-7307-af64-a10f53f1ef70","","null","
                <div class=""stimulus-container"">
                    <img src=""images/semantic_sequence/visiting_cities_semantic/visiting_cities_semantic_ten.png"" class=""exp-image"">
                    <div class=""question-area""></div> 
                </div>","null","","","","","","","","","","","",""
"","","","","","html-button-response","99","546875","0.0-99.0","60DE196C666E474DA5C41E006D9A1B9F","019dac5c-3a06-7fc7-9be0-c9bb0dee0a74","019dac5b-243f-7307-af64-a10f53f1ef70","","567","
                <div class=""stimulus-container"">
                    <img src=""images/semantic_sequence/visiting_cities_semantic/visiting_cities_semantic_ten.png"" class=""exp-image"">
                    <div class=""question-area"">
                        <p style=""font-size: 20px; font-weight: bold; margin: 0;"">Is there a person in this image?</p>
                    </div>
                </div>","1","main_experiment_trial","ten","visiting_cities_semantic","semantic_sequence","chronological","","","","","","",""
"","","","","","html-keyboard-response","100","551890","0.0-100.0","60DE196C666E474DA5C41E006D9A1B9F","019dac5c-3a06-7fc7-9be0-c9bb0dee0a74","019dac5b-243f-7307-af64-a10f53f1ef70","","null","<div style=""background-color: white; width: 100vw; height: 100vh;""></div>","null","","","","","","","","","","","",""
"","","","","","html-keyboard-response","101","556896","0.0-101.0","60DE196C666E474DA5C41E006D9A1B9F","019dac5c-3a06-7fc7-9be0-c9bb0dee0a74","019dac5b-243f-7307-af64-a10f53f1ef70","","null","
                <div class=""stimulus-container"">
                    <img src=""images/causal_sequence/the_performance_causal/the_performance_causal_1.png"" class=""exp-image"">
                    <div class=""question-area""></div> 
                </div>","null","","","","","","","","","","","",""
"","","","","","html-button-response","102","558539","0.0-102.0","60DE196C666E474DA5C41E006D9A1B9F","019dac5c-3a06-7fc7-9be0-c9bb0dee0a74","019dac5b-243f-7307-af64-a10f53f1ef70","","1642","
                <div class=""stimulus-container"">
                    <img src=""images/causal_sequence/the_performance_causal/the_performance_causal_1.png"" class=""exp-image"">
                    <div class=""question-area"">
                        <p style=""font-size: 20px; font-weight: bold; margin: 0;"">Is there a person in this image?</p>
                    </div>
                </div>","0","main_experiment_trial","1","the_performance_causal","causal_sequence","chronological","","","","","","",""
"","","","","","html-keyboard-response","103","563555","0.0-103.0","60DE196C666E474DA5C41E006D9A1B9F","019dac5c-3a06-7fc7-9be0-c9bb0dee0a74","019dac5b-243f-7307-af64-a10f53f1ef70","","null","
                <div class=""stimulus-container"">
                    <img src=""images/causal_sequence/the_performance_causal/the_performance_causal_2.png"" class=""exp-image"">
                    <div class=""question-area""></div> 
                </div>","null","","","","","","","","","","","",""
"","","","","","html-button-response","104","564955","0.0-104.0","60DE196C666E474DA5C41E006D9A1B9F","019dac5c-3a06-7fc7-9be0-c9bb0dee0a74","019dac5b-243f-7307-af64-a10f53f1ef70","","1399","
                <div class=""stimulus-container"">
                    <img src=""images/causal_sequence/the_performance_causal/the_performance_causal_2.png"" class=""exp-image"">
                    <div class=""question-area"">
                        <p style=""font-size: 20px; font-weight: bold; margin: 0;"">Is there a person in this image?</p>
                    </div>
                </div>","0","main_experiment_trial","2","the_performance_causal","causal_sequence","chronological","","","","","","",""
"","","","","","html-keyboard-response","105","569963","0.0-105.0","60DE196C666E474DA5C41E006D9A1B9F","019dac5c-3a06-7fc7-9be0-c9bb0dee0a74","019dac5b-243f-7307-af64-a10f53f1ef70","","null","
                <div class=""stimulus-container"">
                    <img src=""images/causal_sequence/the_performance_causal/the_performance_causal_3.png"" class=""exp-image"">
                    <div class=""question-area""></div> 
                </div>","null","","","","","","","","","","","",""
"","","","","","html-button-response","106","570595","0.0-106.0","60DE196C666E474DA5C41E006D9A1B9F","019dac5c-3a06-7fc7-9be0-c9bb0dee0a74","019dac5b-243f-7307-af64-a10f53f1ef70","","631","
                <div class=""stimulus-container"">
                    <img src=""images/causal_sequence/the_performance_causal/the_performance_causal_3.png"" class=""exp-image"">
                    <div class=""question-area"">
                        <p style=""font-size: 20px; font-weight: bold; margin: 0;"">Is there a person in this image?</p>
                    </div>
                </div>","0","main_experiment_trial","3","the_performance_causal","causal_sequence","chronological","","","","","","",""
"","","","","","html-keyboard-response","107","575612","0.0-107.0","60DE196C666E474DA5C41E006D9A1B9F","019dac5c-3a06-7fc7-9be0-c9bb0dee0a74","019dac5b-243f-7307-af64-a10f53f1ef70","","null","
                <div class=""stimulus-container"">
                    <img src=""images/causal_sequence/the_performance_causal/the_performance_causal_4.png"" class=""exp-image"">
                    <div class=""question-area""></div> 
                </div>","null","","","","","","","","","","","",""
"","","","","","html-button-response","108","576571","0.0-108.0","60DE196C666E474DA5C41E006D9A1B9F","019dac5c-3a06-7fc7-9be0-c9bb0dee0a74","019dac5b-243f-7307-af64-a10f53f1ef70","","958","
                <div class=""stimulus-container"">
                    <img src=""images/causal_sequence/the_performance_causal/the_performance_causal_4.png"" class=""exp-image"">
                    <div class=""question-area"">
                        <p style=""font-size: 20px; font-weight: bold; margin: 0;"">Is there a person in this image?</p>
                    </div>
                </div>","0","main_experiment_trial","4","the_performance_causal","causal_sequence","chronological","","","","","","",""
"","","","","","html-keyboard-response","109","581586","0.0-109.0","60DE196C666E474DA5C41E006D9A1B9F","019dac5c-3a06-7fc7-9be0-c9bb0dee0a74","019dac5b-243f-7307-af64-a10f53f1ef70","","null","
                <div class=""stimulus-container"">
                    <img src=""images/causal_sequence/the_performance_causal/the_performance_causal_5.png"" class=""exp-image"">
                    <div class=""question-area""></div> 
                </div>","null","","","","","","","","","","","",""
"","","","","","html-button-response","110","582155","0.0-110.0","60DE196C666E474DA5C41E006D9A1B9F","019dac5c-3a06-7fc7-9be0-c9bb0dee0a74","019dac5b-243f-7307-af64-a10f53f1ef70","","568","
                <div class=""stimulus-container"">
                    <img src=""images/causal_sequence/the_performance_causal/the_performance_causal_5.png"" class=""exp-image"">
                    <div class=""question-area"">
                        <p style=""font-size: 20px; font-weight: bold; margin: 0;"">Is there a person in this image?</p>
                    </div>
                </div>","0","main_experiment_trial","5","the_performance_causal","causal_sequence","chronological","","","","","","",""
"","","","","","html-keyboard-response","111","587162","0.0-111.0","60DE196C666E474DA5C41E006D9A1B9F","019dac5c-3a06-7fc7-9be0-c9bb0dee0a74","019dac5b-243f-7307-af64-a10f53f1ef70","","null","
                <div class=""stimulus-container"">
                    <img src=""images/causal_sequence/the_performance_causal/the_performance_causal_6.png"" class=""exp-image"">
                    <div class=""question-area""></div> 
                </div>","null","","","","","","","","","","","",""
"","","","","","html-button-response","112","588387","0.0-112.0","60DE196C666E474DA5C41E006D9A1B9F","019dac5c-3a06-7fc7-9be0-c9bb0dee0a74","019dac5b-243f-7307-af64-a10f53f1ef70","","1224","
                <div class=""stimulus-container"">
                    <img src=""images/causal_sequence/the_performance_causal/the_performance_causal_6.png"" class=""exp-image"">
                    <div class=""question-area"">
                        <p style=""font-size: 20px; font-weight: bold; margin: 0;"">Is there a person in this image?</p>
                    </div>
                </div>","0","main_experiment_trial","6","the_performance_causal","causal_sequence","chronological","","","","","","",""
"","","","","","html-keyboard-response","113","593398","0.0-113.0","60DE196C666E474DA5C41E006D9A1B9F","019dac5c-3a06-7fc7-9be0-c9bb0dee0a74","019dac5b-243f-7307-af64-a10f53f1ef70","","null","
                <div class=""stimulus-container"">
                    <img src=""images/causal_sequence/the_performance_causal/the_performance_causal_7.png"" class=""exp-image"">
                    <div class=""question-area""></div> 
                </div>","null","","","","","","","","","","","",""
"","","","","","html-button-response","114","595059","0.0-114.0","60DE196C666E474DA5C41E006D9A1B9F","019dac5c-3a06-7fc7-9be0-c9bb0dee0a74","019dac5b-243f-7307-af64-a10f53f1ef70","","1660","
                <div class=""stimulus-container"">
                    <img src=""images/causal_sequence/the_performance_causal/the_performance_causal_7.png"" class=""exp-image"">
                    <div class=""question-area"">
                        <p style=""font-size: 20px; font-weight: bold; margin: 0;"">Is there a person in this image?</p>
                    </div>
                </div>","0","main_experiment_trial","7","the_performance_causal","causal_sequence","chronological","","","","","","",""
"","","","","","html-keyboard-response","115","600066","0.0-115.0","60DE196C666E474DA5C41E006D9A1B9F","019dac5c-3a06-7fc7-9be0-c9bb0dee0a74","019dac5b-243f-7307-af64-a10f53f1ef70","","null","
                <div class=""stimulus-container"">
                    <img src=""images/causal_sequence/the_performance_causal/the_performance_causal_8.png"" class=""exp-image"">
                    <div class=""question-area""></div> 
                </div>","null","","","","","","","","","","","",""
"","","","","","html-button-response","116","600827","0.0-116.0","60DE196C666E474DA5C41E006D9A1B9F","019dac5c-3a06-7fc7-9be0-c9bb0dee0a74","019dac5b-243f-7307-af64-a10f53f1ef70","","760","
                <div class=""stimulus-container"">
                    <img src=""images/causal_sequence/the_performance_causal/the_performance_causal_8.png"" class=""exp-image"">
                    <div class=""question-area"">
                        <p style=""font-size: 20px; font-weight: bold; margin: 0;"">Is there a person in this image?</p>
                    </div>
                </div>","0","main_experiment_trial","8","the_performance_causal","causal_sequence","chronological","","","","","","",""
"","","","","","html-keyboard-response","117","605838","0.0-117.0","60DE196C666E474DA5C41E006D9A1B9F","019dac5c-3a06-7fc7-9be0-c9bb0dee0a74","019dac5b-243f-7307-af64-a10f53f1ef70","","null","
                <div class=""stimulus-container"">
                    <img src=""images/causal_sequence/the_performance_causal/the_performance_causal_9.png"" class=""exp-image"">
                    <div class=""question-area""></div> 
                </div>","null","","","","","","","","","","","",""
"","","","","","html-button-response","118","606547","0.0-118.0","60DE196C666E474DA5C41E006D9A1B9F","019dac5c-3a06-7fc7-9be0-c9bb0dee0a74","019dac5b-243f-7307-af64-a10f53f1ef70","","708","
                <div class=""stimulus-container"">
                    <img src=""images/causal_sequence/the_performance_causal/the_performance_causal_9.png"" class=""exp-image"">
                    <div class=""question-area"">
                        <p style=""font-size: 20px; font-weight: bold; margin: 0;"">Is there a person in this image?</p>
                    </div>
                </div>","0","main_experiment_trial","9","the_performance_causal","causal_sequence","chronological","","","","","","",""
"","","","","","html-keyboard-response","119","611554","0.0-119.0","60DE196C666E474DA5C41E006D9A1B9F","019dac5c-3a06-7fc7-9be0-c9bb0dee0a74","019dac5b-243f-7307-af64-a10f53f1ef70","","null","
                <div class=""stimulus-container"">
                    <img src=""images/causal_sequence/the_performance_causal/the_performance_causal_ten.png"" class=""exp-image"">
                    <div class=""question-area""></div> 
                </div>","null","","","","","","","","","","","",""
"","","","","","html-button-response","120","612843","0.0-120.0","60DE196C666E474DA5C41E006D9A1B9F","019dac5c-3a06-7fc7-9be0-c9bb0dee0a74","019dac5b-243f-7307-af64-a10f53f1ef70","","1288","
                <div class=""stimulus-container"">
                    <img src=""images/causal_sequence/the_performance_causal/the_performance_causal_ten.png"" class=""exp-image"">
                    <div class=""question-area"">
                        <p style=""font-size: 20px; font-weight: bold; margin: 0;"">Is there a person in this image?</p>
                    </div>
                </div>","0","main_experiment_trial","ten","the_performance_causal","causal_sequence","chronological","","","","","","",""
"","","","","","html-keyboard-response","121","617849","0.0-121.0","60DE196C666E474DA5C41E006D9A1B9F","019dac5c-3a06-7fc7-9be0-c9bb0dee0a74","019dac5b-243f-7307-af64-a10f53f1ef70","","null","<div style=""background-color: white; width: 100vw; height: 100vh;""></div>","null","","","","","","","","","","","",""
"","","","","","html-keyboard-response","122","622859","0.0-122.0","60DE196C666E474DA5C41E006D9A1B9F","019dac5c-3a06-7fc7-9be0-c9bb0dee0a74","019dac5b-243f-7307-af64-a10f53f1ef70","","null","
                <div class=""stimulus-container"">
                    <img src=""images/causal_sequence/package_causal/package_causal_1.png"" class=""exp-image"">
                    <div class=""question-area""></div> 
                </div>","null","","","","","","","","","","","",""
"","","","","","html-button-response","123","624107","0.0-123.0","60DE196C666E474DA5C41E006D9A1B9F","019dac5c-3a06-7fc7-9be0-c9bb0dee0a74","019dac5b-243f-7307-af64-a10f53f1ef70","","1247","
                <div class=""stimulus-container"">
                    <img src=""images/causal_sequence/package_causal/package_causal_1.png"" class=""exp-image"">
                    <div class=""question-area"">
                        <p style=""font-size: 20px; font-weight: bold; margin: 0;"">Is there a person in this image?</p>
                    </div>
                </div>","0","main_experiment_trial","1","package_causal","causal_sequence","chronological","","","","","","",""
"","","","","","html-keyboard-response","124","629118","0.0-124.0","60DE196C666E474DA5C41E006D9A1B9F","019dac5c-3a06-7fc7-9be0-c9bb0dee0a74","019dac5b-243f-7307-af64-a10f53f1ef70","","null","
                <div class=""stimulus-container"">
                    <img src=""images/causal_sequence/package_causal/package_causal_2.png"" class=""exp-image"">
                    <div class=""question-area""></div> 
                </div>","null","","","","","","","","","","","",""
"","","","","","html-button-response","125","632012","0.0-125.0","60DE196C666E474DA5C41E006D9A1B9F","019dac5c-3a06-7fc7-9be0-c9bb0dee0a74","019dac5b-243f-7307-af64-a10f53f1ef70","","2892","
                <div class=""stimulus-container"">
                    <img src=""images/causal_sequence/package_causal/package_causal_2.png"" class=""exp-image"">
                    <div class=""question-area"">
                        <p style=""font-size: 20px; font-weight: bold; margin: 0;"">Is there a person in this image?</p>
                    </div>
                </div>","1","main_experiment_trial","2","package_causal","causal_sequence","chronological","","","","","","",""
"","","","","","html-keyboard-response","126","637021","0.0-126.0","60DE196C666E474DA5C41E006D9A1B9F","019dac5c-3a06-7fc7-9be0-c9bb0dee0a74","019dac5b-243f-7307-af64-a10f53f1ef70","","null","
                <div class=""stimulus-container"">
                    <img src=""images/causal_sequence/package_causal/package_causal_3.png"" class=""exp-image"">
                    <div class=""question-area""></div> 
                </div>","null","","","","","","","","","","","",""
"","","","","","html-button-response","127","638579","0.0-127.0","60DE196C666E474DA5C41E006D9A1B9F","019dac5c-3a06-7fc7-9be0-c9bb0dee0a74","019dac5b-243f-7307-af64-a10f53f1ef70","","1557","
                <div class=""stimulus-container"">
                    <img src=""images/causal_sequence/package_causal/package_causal_3.png"" class=""exp-image"">
                    <div class=""question-area"">
                        <p style=""font-size: 20px; font-weight: bold; margin: 0;"">Is there a person in this image?</p>
                    </div>
                </div>","0","main_experiment_trial","3","package_causal","causal_sequence","chronological","","","","","","",""
"","","","","","html-keyboard-response","128","643585","0.0-128.0","60DE196C666E474DA5C41E006D9A1B9F","019dac5c-3a06-7fc7-9be0-c9bb0dee0a74","019dac5b-243f-7307-af64-a10f53f1ef70","","null","
                <div class=""stimulus-container"">
                    <img src=""images/causal_sequence/package_causal/package_causal_4.png"" class=""exp-image"">
                    <div class=""question-area""></div> 
                </div>","null","","","","","","","","","","","",""
"","","","","","html-button-response","129","644811","0.0-129.0","60DE196C666E474DA5C41E006D9A1B9F","019dac5c-3a06-7fc7-9be0-c9bb0dee0a74","019dac5b-243f-7307-af64-a10f53f1ef70","","1224","
                <div class=""stimulus-container"">
                    <img src=""images/causal_sequence/package_causal/package_causal_4.png"" class=""exp-image"">
                    <div class=""question-area"">
                        <p style=""font-size: 20px; font-weight: bold; margin: 0;"">Is there a person in this image?</p>
                    </div>
                </div>","1","main_experiment_trial","4","package_causal","causal_sequence","chronological","","","","","","",""
"","","","","","html-keyboard-response","130","649815","0.0-130.0","60DE196C666E474DA5C41E006D9A1B9F","019dac5c-3a06-7fc7-9be0-c9bb0dee0a74","019dac5b-243f-7307-af64-a10f53f1ef70","","null","
                <div class=""stimulus-container"">
                    <img src=""images/causal_sequence/package_causal/package_causal_5.png"" class=""exp-image"">
                    <div class=""question-area""></div> 
                </div>","null","","","","","","","","","","","",""
"","","","","","html-button-response","131","651107","0.0-131.0","60DE196C666E474DA5C41E006D9A1B9F","019dac5c-3a06-7fc7-9be0-c9bb0dee0a74","019dac5b-243f-7307-af64-a10f53f1ef70","","1291","
                <div class=""stimulus-container"">
                    <img src=""images/causal_sequence/package_causal/package_causal_5.png"" class=""exp-image"">
                    <div class=""question-area"">
                        <p style=""font-size: 20px; font-weight: bold; margin: 0;"">Is there a person in this image?</p>
                    </div>
                </div>","0","main_experiment_trial","5","package_causal","causal_sequence","chronological","","","","","","",""
"","","","","","html-keyboard-response","132","656109","0.0-132.0","60DE196C666E474DA5C41E006D9A1B9F","019dac5c-3a06-7fc7-9be0-c9bb0dee0a74","019dac5b-243f-7307-af64-a10f53f1ef70","","null","
                <div class=""stimulus-container"">
                    <img src=""images/causal_sequence/package_causal/package_causal_6.png"" class=""exp-image"">
                    <div class=""question-area""></div> 
                </div>","null","","","","","","","","","","","",""
"","","","","","html-button-response","133","656979","0.0-133.0","60DE196C666E474DA5C41E006D9A1B9F","019dac5c-3a06-7fc7-9be0-c9bb0dee0a74","019dac5b-243f-7307-af64-a10f53f1ef70","","870","
                <div class=""stimulus-container"">
                    <img src=""images/causal_sequence/package_causal/package_causal_6.png"" class=""exp-image"">
                    <div class=""question-area"">
                        <p style=""font-size: 20px; font-weight: bold; margin: 0;"">Is there a person in this image?</p>
                    </div>
                </div>","0","main_experiment_trial","6","package_causal","causal_sequence","chronological","","","","","","",""
"","","","","","html-keyboard-response","134","661996","0.0-134.0","60DE196C666E474DA5C41E006D9A1B9F","019dac5c-3a06-7fc7-9be0-c9bb0dee0a74","019dac5b-243f-7307-af64-a10f53f1ef70","","null","
                <div class=""stimulus-container"">
                    <img src=""images/causal_sequence/package_causal/package_causal_7.png"" class=""exp-image"">
                    <div class=""question-area""></div> 
                </div>","null","","","","","","","","","","","",""
"","","","","","html-button-response","135","665010","0.0-135.0","60DE196C666E474DA5C41E006D9A1B9F","019dac5c-3a06-7fc7-9be0-c9bb0dee0a74","019dac5b-243f-7307-af64-a10f53f1ef70","","null","
                <div class=""stimulus-container"">
                    <img src=""images/causal_sequence/package_causal/package_causal_7.png"" class=""exp-image"">
                    <div class=""question-area"">
                        <p style=""font-size: 20px; font-weight: bold; margin: 0;"">Is there a person in this image?</p>
                    </div>
                </div>","null","main_experiment_trial","7","package_causal","causal_sequence","chronological","","","","","","",""
"","","","","","html-keyboard-response","136","670020","0.0-136.0","60DE196C666E474DA5C41E006D9A1B9F","019dac5c-3a06-7fc7-9be0-c9bb0dee0a74","019dac5b-243f-7307-af64-a10f53f1ef70","","null","
                <div class=""stimulus-container"">
                    <img src=""images/causal_sequence/package_causal/package_causal_8.png"" class=""exp-image"">
                    <div class=""question-area""></div> 
                </div>","null","","","","","","","","","","","",""
"","","","","","html-button-response","137","671204","0.0-137.0","60DE196C666E474DA5C41E006D9A1B9F","019dac5c-3a06-7fc7-9be0-c9bb0dee0a74","019dac5b-243f-7307-af64-a10f53f1ef70","","1182","
                <div class=""stimulus-container"">
                    <img src=""images/causal_sequence/package_causal/package_causal_8.png"" class=""exp-image"">
                    <div class=""question-area"">
                        <p style=""font-size: 20px; font-weight: bold; margin: 0;"">Is there a person in this image?</p>
                    </div>
                </div>","0","main_experiment_trial","8","package_causal","causal_sequence","chronological","","","","","","",""
"","","","","","html-keyboard-response","138","676214","0.0-138.0","60DE196C666E474DA5C41E006D9A1B9F","019dac5c-3a06-7fc7-9be0-c9bb0dee0a74","019dac5b-243f-7307-af64-a10f53f1ef70","","null","
                <div class=""stimulus-container"">
                    <img src=""images/causal_sequence/package_causal/package_causal_9.png"" class=""exp-image"">
                    <div class=""question-area""></div> 
                </div>","null","","","","","","","","","","","",""
"","","","","","html-button-response","139","677523","0.0-139.0","60DE196C666E474DA5C41E006D9A1B9F","019dac5c-3a06-7fc7-9be0-c9bb0dee0a74","019dac5b-243f-7307-af64-a10f53f1ef70","","1308","
                <div class=""stimulus-container"">
                    <img src=""images/causal_sequence/package_causal/package_causal_9.png"" class=""exp-image"">
                    <div class=""question-area"">
                        <p style=""font-size: 20px; font-weight: bold; margin: 0;"">Is there a person in this image?</p>
                    </div>
                </div>","0","main_experiment_trial","9","package_causal","causal_sequence","chronological","","","","","","",""
"","","","","","html-keyboard-response","140","682537","0.0-140.0","60DE196C666E474DA5C41E006D9A1B9F","019dac5c-3a06-7fc7-9be0-c9bb0dee0a74","019dac5b-243f-7307-af64-a10f53f1ef70","","null","
                <div class=""stimulus-container"">
                    <img src=""images/causal_sequence/package_causal/package_causal_ten.png"" class=""exp-image"">
                    <div class=""question-area""></div> 
                </div>","null","","","","","","","","","","","",""
"","","","","","html-button-response","141","683859","0.0-141.0","60DE196C666E474DA5C41E006D9A1B9F","019dac5c-3a06-7fc7-9be0-c9bb0dee0a74","019dac5b-243f-7307-af64-a10f53f1ef70","","1321","
                <div class=""stimulus-container"">
                    <img src=""images/causal_sequence/package_causal/package_causal_ten.png"" class=""exp-image"">
                    <div class=""question-area"">
                        <p style=""font-size: 20px; font-weight: bold; margin: 0;"">Is there a person in this image?</p>
                    </div>
                </div>","0","main_experiment_trial","ten","package_causal","causal_sequence","chronological","","","","","","",""
"","","","","","html-keyboard-response","142","688866","0.0-142.0","60DE196C666E474DA5C41E006D9A1B9F","019dac5c-3a06-7fc7-9be0-c9bb0dee0a74","019dac5b-243f-7307-af64-a10f53f1ef70","","null","<div style=""background-color: white; width: 100vw; height: 100vh;""></div>","null","","","","","","","","","","","",""
"","","","","","html-keyboard-response","143","693876","0.0-143.0","60DE196C666E474DA5C41E006D9A1B9F","019dac5c-3a06-7fc7-9be0-c9bb0dee0a74","019dac5b-243f-7307-af64-a10f53f1ef70","","null","
                <div class=""stimulus-container"">
                    <img src=""images/semantic_sequence/kitchen_operations_semantic/kitchen_operations_semantic_1.png"" class=""exp-image"">
                    <div class=""question-area""></div> 
                </div>","null","","","","","","","","","","","",""
"","","","","","html-button-response","144","695331","0.0-144.0","60DE196C666E474DA5C41E006D9A1B9F","019dac5c-3a06-7fc7-9be0-c9bb0dee0a74","019dac5b-243f-7307-af64-a10f53f1ef70","","1454","
                <div class=""stimulus-container"">
                    <img src=""images/semantic_sequence/kitchen_operations_semantic/kitchen_operations_semantic_1.png"" class=""exp-image"">
                    <div class=""question-area"">
                        <p style=""font-size: 20px; font-weight: bold; margin: 0;"">Is there a person in this image?</p>
                    </div>
                </div>","0","main_experiment_trial","1","kitchen_operations_semantic","semantic_sequence","chronological","","","","","","",""
"","","","","","html-keyboard-response","145","700342","0.0-145.0","60DE196C666E474DA5C41E006D9A1B9F","019dac5c-3a06-7fc7-9be0-c9bb0dee0a74","019dac5b-243f-7307-af64-a10f53f1ef70","","null","
                <div class=""stimulus-container"">
                    <img src=""images/semantic_sequence/kitchen_operations_semantic/kitchen_operations_semantic_2.png"" class=""exp-image"">
                    <div class=""question-area""></div> 
                </div>","null","","","","","","","","","","","",""
"","","","","","html-button-response","146","701731","0.0-146.0","60DE196C666E474DA5C41E006D9A1B9F","019dac5c-3a06-7fc7-9be0-c9bb0dee0a74","019dac5b-243f-7307-af64-a10f53f1ef70","","1388","
                <div class=""stimulus-container"">
                    <img src=""images/semantic_sequence/kitchen_operations_semantic/kitchen_operations_semantic_2.png"" class=""exp-image"">
                    <div class=""question-area"">
                        <p style=""font-size: 20px; font-weight: bold; margin: 0;"">Is there a person in this image?</p>
                    </div>
                </div>","0","main_experiment_trial","2","kitchen_operations_semantic","semantic_sequence","chronological","","","","","","",""
"","","","","","html-keyboard-response","147","706742","0.0-147.0","60DE196C666E474DA5C41E006D9A1B9F","019dac5c-3a06-7fc7-9be0-c9bb0dee0a74","019dac5b-243f-7307-af64-a10f53f1ef70","","null","
                <div class=""stimulus-container"">
                    <img src=""images/semantic_sequence/kitchen_operations_semantic/kitchen_operations_semantic_3.png"" class=""exp-image"">
                    <div class=""question-area""></div> 
                </div>","null","","","","","","","","","","","",""
"","","","","","html-button-response","148","707803","0.0-148.0","60DE196C666E474DA5C41E006D9A1B9F","019dac5c-3a06-7fc7-9be0-c9bb0dee0a74","019dac5b-243f-7307-af64-a10f53f1ef70","","1060","
                <div class=""stimulus-container"">
                    <img src=""images/semantic_sequence/kitchen_operations_semantic/kitchen_operations_semantic_3.png"" class=""exp-image"">
                    <div class=""question-area"">
                        <p style=""font-size: 20px; font-weight: bold; margin: 0;"">Is there a person in this image?</p>
                    </div>
                </div>","0","main_experiment_trial","3","kitchen_operations_semantic","semantic_sequence","chronological","","","","","","",""
"","","","","","html-keyboard-response","149","712814","0.0-149.0","60DE196C666E474DA5C41E006D9A1B9F","019dac5c-3a06-7fc7-9be0-c9bb0dee0a74","019dac5b-243f-7307-af64-a10f53f1ef70","","null","
                <div class=""stimulus-container"">
                    <img src=""images/semantic_sequence/kitchen_operations_semantic/kitchen_operations_semantic_4.png"" class=""exp-image"">
                    <div class=""question-area""></div> 
                </div>","null","","","","","","","","","","","",""
"","","","","","html-button-response","150","714043","0.0-150.0","60DE196C666E474DA5C41E006D9A1B9F","019dac5c-3a06-7fc7-9be0-c9bb0dee0a74","019dac5b-243f-7307-af64-a10f53f1ef70","","1228","
                <div class=""stimulus-container"">
                    <img src=""images/semantic_sequence/kitchen_operations_semantic/kitchen_operations_semantic_4.png"" class=""exp-image"">
                    <div class=""question-area"">
                        <p style=""font-size: 20px; font-weight: bold; margin: 0;"">Is there a person in this image?</p>
                    </div>
                </div>","0","main_experiment_trial","4","kitchen_operations_semantic","semantic_sequence","chronological","","","","","","",""
"","","","","","html-keyboard-response","151","719057","0.0-151.0","60DE196C666E474DA5C41E006D9A1B9F","019dac5c-3a06-7fc7-9be0-c9bb0dee0a74","019dac5b-243f-7307-af64-a10f53f1ef70","","null","
                <div class=""stimulus-container"">
                    <img src=""images/semantic_sequence/kitchen_operations_semantic/kitchen_operations_semantic_5.png"" class=""exp-image"">
                    <div class=""question-area""></div> 
                </div>","null","","","","","","","","","","","",""
"","","","","","html-button-response","152","720371","0.0-152.0","60DE196C666E474DA5C41E006D9A1B9F","019dac5c-3a06-7fc7-9be0-c9bb0dee0a74","019dac5b-243f-7307-af64-a10f53f1ef70","","1314","
                <div class=""stimulus-container"">
                    <img src=""images/semantic_sequence/kitchen_operations_semantic/kitchen_operations_semantic_5.png"" class=""exp-image"">
                    <div class=""question-area"">
                        <p style=""font-size: 20px; font-weight: bold; margin: 0;"">Is there a person in this image?</p>
                    </div>
                </div>","0","main_experiment_trial","5","kitchen_operations_semantic","semantic_sequence","chronological","","","","","","",""
"","","","","","html-keyboard-response","153","725381","0.0-153.0","60DE196C666E474DA5C41E006D9A1B9F","019dac5c-3a06-7fc7-9be0-c9bb0dee0a74","019dac5b-243f-7307-af64-a10f53f1ef70","","null","
                <div class=""stimulus-container"">
                    <img src=""images/semantic_sequence/kitchen_operations_semantic/kitchen_operations_semantic_6.png"" class=""exp-image"">
                    <div class=""question-area""></div> 
                </div>","null","","","","","","","","","","","",""
"","","","","","html-button-response","154","727211","0.0-154.0","60DE196C666E474DA5C41E006D9A1B9F","019dac5c-3a06-7fc7-9be0-c9bb0dee0a74","019dac5b-243f-7307-af64-a10f53f1ef70","","1829","
                <div class=""stimulus-container"">
                    <img src=""images/semantic_sequence/kitchen_operations_semantic/kitchen_operations_semantic_6.png"" class=""exp-image"">
                    <div class=""question-area"">
                        <p style=""font-size: 20px; font-weight: bold; margin: 0;"">Is there a person in this image?</p>
                    </div>
                </div>","0","main_experiment_trial","6","kitchen_operations_semantic","semantic_sequence","chronological","","","","","","",""
"","","","","","html-keyboard-response","155","732216","0.0-155.0","60DE196C666E474DA5C41E006D9A1B9F","019dac5c-3a06-7fc7-9be0-c9bb0dee0a74","019dac5b-243f-7307-af64-a10f53f1ef70","","null","
                <div class=""stimulus-container"">
                    <img src=""images/semantic_sequence/kitchen_operations_semantic/kitchen_operations_semantic_7.png"" class=""exp-image"">
                    <div class=""question-area""></div> 
                </div>","null","","","","","","","","","","","",""
"","","","","","html-button-response","156","733467","0.0-156.0","60DE196C666E474DA5C41E006D9A1B9F","019dac5c-3a06-7fc7-9be0-c9bb0dee0a74","019dac5b-243f-7307-af64-a10f53f1ef70","","1250","
                <div class=""stimulus-container"">
                    <img src=""images/semantic_sequence/kitchen_operations_semantic/kitchen_operations_semantic_7.png"" class=""exp-image"">
                    <div class=""question-area"">
                        <p style=""font-size: 20px; font-weight: bold; margin: 0;"">Is there a person in this image?</p>
                    </div>
                </div>","0","main_experiment_trial","7","kitchen_operations_semantic","semantic_sequence","chronological","","","","","","",""
"","","","","","html-keyboard-response","157","738482","0.0-157.0","60DE196C666E474DA5C41E006D9A1B9F","019dac5c-3a06-7fc7-9be0-c9bb0dee0a74","019dac5b-243f-7307-af64-a10f53f1ef70","","null","
                <div class=""stimulus-container"">
                    <img src=""images/semantic_sequence/kitchen_operations_semantic/kitchen_operations_semantic_8.png"" class=""exp-image"">
                    <div class=""question-area""></div> 
                </div>","null","","","","","","","","","","","",""
"","","","","","html-button-response","158","739804","0.0-158.0","60DE196C666E474DA5C41E006D9A1B9F","019dac5c-3a06-7fc7-9be0-c9bb0dee0a74","019dac5b-243f-7307-af64-a10f53f1ef70","","1320","
                <div class=""stimulus-container"">
                    <img src=""images/semantic_sequence/kitchen_operations_semantic/kitchen_operations_semantic_8.png"" class=""exp-image"">
                    <div class=""question-area"">
                        <p style=""font-size: 20px; font-weight: bold; margin: 0;"">Is there a person in this image?</p>
                    </div>
                </div>","0","main_experiment_trial","8","kitchen_operations_semantic","semantic_sequence","chronological","","","","","","",""
"","","","","","html-keyboard-response","159","744814","0.0-159.0","60DE196C666E474DA5C41E006D9A1B9F","019dac5c-3a06-7fc7-9be0-c9bb0dee0a74","019dac5b-243f-7307-af64-a10f53f1ef70","","null","
                <div class=""stimulus-container"">
                    <img src=""images/semantic_sequence/kitchen_operations_semantic/kitchen_operations_semantic_9.png"" class=""exp-image"">
                    <div class=""question-area""></div> 
                </div>","null","","","","","","","","","","","",""
"","","","","","html-button-response","160","746291","0.0-160.0","60DE196C666E474DA5C41E006D9A1B9F","019dac5c-3a06-7fc7-9be0-c9bb0dee0a74","019dac5b-243f-7307-af64-a10f53f1ef70","","1476","
                <div class=""stimulus-container"">
                    <img src=""images/semantic_sequence/kitchen_operations_semantic/kitchen_operations_semantic_9.png"" class=""exp-image"">
                    <div class=""question-area"">
                        <p style=""font-size: 20px; font-weight: bold; margin: 0;"">Is there a person in this image?</p>
                    </div>
                </div>","0","main_experiment_trial","9","kitchen_operations_semantic","semantic_sequence","chronological","","","","","","",""
"","","","","","html-keyboard-response","161","751304","0.0-161.0","60DE196C666E474DA5C41E006D9A1B9F","019dac5c-3a06-7fc7-9be0-c9bb0dee0a74","019dac5b-243f-7307-af64-a10f53f1ef70","","null","
                <div class=""stimulus-container"">
                    <img src=""images/semantic_sequence/kitchen_operations_semantic/kitchen_operations_semantic_ten.png"" class=""exp-image"">
                    <div class=""question-area""></div> 
                </div>","null","","","","","","","","","","","",""
"","","","","","html-button-response","162","752622","0.0-162.0","60DE196C666E474DA5C41E006D9A1B9F","019dac5c-3a06-7fc7-9be0-c9bb0dee0a74","019dac5b-243f-7307-af64-a10f53f1ef70","","1317","
                <div class=""stimulus-container"">
                    <img src=""images/semantic_sequence/kitchen_operations_semantic/kitchen_operations_semantic_ten.png"" class=""exp-image"">
                    <div class=""question-area"">
                        <p style=""font-size: 20px; font-weight: bold; margin: 0;"">Is there a person in this image?</p>
                    </div>
                </div>","0","main_experiment_trial","ten","kitchen_operations_semantic","semantic_sequence","chronological","","","","","","",""
"","","","","","html-keyboard-response","163","757636","0.0-163.0","60DE196C666E474DA5C41E006D9A1B9F","019dac5c-3a06-7fc7-9be0-c9bb0dee0a74","019dac5b-243f-7307-af64-a10f53f1ef70","","null","<div style=""background-color: white; width: 100vw; height: 100vh;""></div>","null","","","","","","","","","","","",""
"","","","","","html-keyboard-response","164","762647","0.0-164.0","60DE196C666E474DA5C41E006D9A1B9F","019dac5c-3a06-7fc7-9be0-c9bb0dee0a74","019dac5b-243f-7307-af64-a10f53f1ef70","","null","
                <div class=""stimulus-container"">
                    <img src=""images/semantic_sequence/self_care_activities_semantic/self_care_activities_semantic_1.png"" class=""exp-image"">
                    <div class=""question-area""></div> 
                </div>","null","","","","","","","","","","","",""
"","","","","","html-button-response","165","764203","0.0-165.0","60DE196C666E474DA5C41E006D9A1B9F","019dac5c-3a06-7fc7-9be0-c9bb0dee0a74","019dac5b-243f-7307-af64-a10f53f1ef70","","1555","
                <div class=""stimulus-container"">
                    <img src=""images/semantic_sequence/self_care_activities_semantic/self_care_activities_semantic_1.png"" class=""exp-image"">
                    <div class=""question-area"">
                        <p style=""font-size: 20px; font-weight: bold; margin: 0;"">Is there a person in this image?</p>
                    </div>
                </div>","0","main_experiment_trial","1","self_care_activities_semantic","semantic_sequence","chronological","","","","","","",""
"","","","","","html-keyboard-response","166","769220","0.0-166.0","60DE196C666E474DA5C41E006D9A1B9F","019dac5c-3a06-7fc7-9be0-c9bb0dee0a74","019dac5b-243f-7307-af64-a10f53f1ef70","","null","
                <div class=""stimulus-container"">
                    <img src=""images/semantic_sequence/self_care_activities_semantic/self_care_activities_semantic_2.png"" class=""exp-image"">
                    <div class=""question-area""></div> 
                </div>","null","","","","","","","","","","","",""
"","","","","","html-button-response","167","770299","0.0-167.0","60DE196C666E474DA5C41E006D9A1B9F","019dac5c-3a06-7fc7-9be0-c9bb0dee0a74","019dac5b-243f-7307-af64-a10f53f1ef70","","1078","
                <div class=""stimulus-container"">
                    <img src=""images/semantic_sequence/self_care_activities_semantic/self_care_activities_semantic_2.png"" class=""exp-image"">
                    <div class=""question-area"">
                        <p style=""font-size: 20px; font-weight: bold; margin: 0;"">Is there a person in this image?</p>
                    </div>
                </div>","0","main_experiment_trial","2","self_care_activities_semantic","semantic_sequence","chronological","","","","","","",""
"","","","","","html-keyboard-response","168","775304","0.0-168.0","60DE196C666E474DA5C41E006D9A1B9F","019dac5c-3a06-7fc7-9be0-c9bb0dee0a74","019dac5b-243f-7307-af64-a10f53f1ef70","","null","
                <div class=""stimulus-container"">
                    <img src=""images/semantic_sequence/self_care_activities_semantic/self_care_activities_semantic_3.png"" class=""exp-image"">
                    <div class=""question-area""></div> 
                </div>","null","","","","","","","","","","","",""
"","","","","","html-button-response","169","776763","0.0-169.0","60DE196C666E474DA5C41E006D9A1B9F","019dac5c-3a06-7fc7-9be0-c9bb0dee0a74","019dac5b-243f-7307-af64-a10f53f1ef70","","1458","
                <div class=""stimulus-container"">
                    <img src=""images/semantic_sequence/self_care_activities_semantic/self_care_activities_semantic_3.png"" class=""exp-image"">
                    <div class=""question-area"">
                        <p style=""font-size: 20px; font-weight: bold; margin: 0;"">Is there a person in this image?</p>
                    </div>
                </div>","0","main_experiment_trial","3","self_care_activities_semantic","semantic_sequence","chronological","","","","","","",""
"","","","","","html-keyboard-response","170","781777","0.0-170.0","60DE196C666E474DA5C41E006D9A1B9F","019dac5c-3a06-7fc7-9be0-c9bb0dee0a74","019dac5b-243f-7307-af64-a10f53f1ef70","","null","
                <div class=""stimulus-container"">
                    <img src=""images/semantic_sequence/self_care_activities_semantic/self_care_activities_semantic_4.png"" class=""exp-image"">
                    <div class=""question-area""></div> 
                </div>","null","","","","","","","","","","","",""
"","","","","","html-button-response","171","784787","0.0-171.0","60DE196C666E474DA5C41E006D9A1B9F","019dac5c-3a06-7fc7-9be0-c9bb0dee0a74","019dac5b-243f-7307-af64-a10f53f1ef70","","null","
                <div class=""stimulus-container"">
                    <img src=""images/semantic_sequence/self_care_activities_semantic/self_care_activities_semantic_4.png"" class=""exp-image"">
                    <div class=""question-area"">
                        <p style=""font-size: 20px; font-weight: bold; margin: 0;"">Is there a person in this image?</p>
                    </div>
                </div>","null","main_experiment_trial","4","self_care_activities_semantic","semantic_sequence","chronological","","","","","","",""
"","","","","","html-keyboard-response","172","789793","0.0-172.0","60DE196C666E474DA5C41E006D9A1B9F","019dac5c-3a06-7fc7-9be0-c9bb0dee0a74","019dac5b-243f-7307-af64-a10f53f1ef70","","null","
                <div class=""stimulus-container"">
                    <img src=""images/semantic_sequence/self_care_activities_semantic/self_care_activities_semantic_5.png"" class=""exp-image"">
                    <div class=""question-area""></div> 
                </div>","null","","","","","","","","","","","",""
"","","","","","html-button-response","173","790931","0.0-173.0","60DE196C666E474DA5C41E006D9A1B9F","019dac5c-3a06-7fc7-9be0-c9bb0dee0a74","019dac5b-243f-7307-af64-a10f53f1ef70","","1137","
                <div class=""stimulus-container"">
                    <img src=""images/semantic_sequence/self_care_activities_semantic/self_care_activities_semantic_5.png"" class=""exp-image"">
                    <div class=""question-area"">
                        <p style=""font-size: 20px; font-weight: bold; margin: 0;"">Is there a person in this image?</p>
                    </div>
                </div>","0","main_experiment_trial","5","self_care_activities_semantic","semantic_sequence","chronological","","","","","","",""
"","","","","","html-keyboard-response","174","795936","0.0-174.0","60DE196C666E474DA5C41E006D9A1B9F","019dac5c-3a06-7fc7-9be0-c9bb0dee0a74","019dac5b-243f-7307-af64-a10f53f1ef70","","null","
                <div class=""stimulus-container"">
                    <img src=""images/semantic_sequence/self_care_activities_semantic/self_care_activities_semantic_6.png"" class=""exp-image"">
                    <div class=""question-area""></div> 
                </div>","null","","","","","","","","","","","",""
