"success","timeout","failed_images","failed_audio","failed_video","trial_type","trial_index","time_elapsed","internal_node_id","subject_id","study_id","session_id","view_history","rt","stimulus","response","task","folder","sequence_type","valuable_image_index","reward_type","distance_from_x","target_X","chosen_image_index","is_x_plus_dist","correct_choice"
"true","false","[]","[]","[]","preload","0","8366","0.0-0.0","2D9786E199F44AAC9ACE66F0BA86C347","019db5e5-57bc-7114-81a2-dcbb91a720d3","019db5e1-c4eb-76d2-9e84-fe63359ddeee","","","","","","","","","","","","","",""
"","","","","","instructions","1","41838","0.0-1.0","2D9786E199F44AAC9ACE66F0BA86C347","019db5e5-57bc-7114-81a2-dcbb91a720d3","019db5e1-c4eb-76d2-9e84-fe63359ddeee","[{""page_index"":0,""viewing_time"":33471}]","33472","","","","","","","","","","","",""
"","","","","","instructions","2","44195","0.0-2.0","2D9786E199F44AAC9ACE66F0BA86C347","019db5e5-57bc-7114-81a2-dcbb91a720d3","019db5e1-c4eb-76d2-9e84-fe63359ddeee","[{""page_index"":0,""viewing_time"":2355}]","2356","","","","","","","","","","","",""
"true","","","","","fullscreen","3","46577","0.0-3.0","2D9786E199F44AAC9ACE66F0BA86C347","019db5e5-57bc-7114-81a2-dcbb91a720d3","019db5e1-c4eb-76d2-9e84-fe63359ddeee","","1378","","","","","","","","","","","",""
"","","","","","instructions","4","73048","0.0-4.0","2D9786E199F44AAC9ACE66F0BA86C347","019db5e5-57bc-7114-81a2-dcbb91a720d3","019db5e1-c4eb-76d2-9e84-fe63359ddeee","[{""page_index"":0,""viewing_time"":26470}]","26470","","","","","","","","","","","",""
"","","","","","instructions","5","76537","0.0-5.0","2D9786E199F44AAC9ACE66F0BA86C347","019db5e5-57bc-7114-81a2-dcbb91a720d3","019db5e1-c4eb-76d2-9e84-fe63359ddeee","[{""page_index"":0,""viewing_time"":3488}]","3488","","","","","","","","","","","",""
"","","","","","html-button-response","6","80048","0.0-6.0","2D9786E199F44AAC9ACE66F0BA86C347","019db5e5-57bc-7114-81a2-dcbb91a720d3","019db5e1-c4eb-76d2-9e84-fe63359ddeee","","3510","
            <div class=""stimulus-container"">
                <img src=""images/schematic_sequence/hotel_scheme/hotel_scheme_4.png"" class=""exp-image"">
                <div class=""question-area"">
                    <p style=""font-size: 20px; font-weight: bold;"">Click the button to reveal the image value</p>
                </div>
            </div>","0","part2_active_reveal_click","hotel_scheme","","","","","","","",""
"","","","","","html-keyboard-response","7","88049","0.0-7.0","2D9786E199F44AAC9ACE66F0BA86C347","019db5e5-57bc-7114-81a2-dcbb91a720d3","019db5e1-c4eb-76d2-9e84-fe63359ddeee","","null","
            <div class=""stimulus-container"" style=""display: flex; align-items: center; justify-content: center; gap: 40px;"">
                <img src=""images/schematic_sequence/hotel_scheme/hotel_scheme_4.png"" class=""exp-image"">
                <div style=""text-align: center;"">
                    <img src=""images/dollar.png"" style=""width: 150px; height: 150px; border: 5px solid green; border-radius: 15px;"">
                    <p style=""color: green; font-weight: bold; font-size: 28px; margin-top: 15px;"">WORTH MONEY</p>
                </div>
            </div>","null","part2_value_learning","hotel_scheme","schematic_sequence","4","valuable","","","","",""
"","","","","","html-keyboard-response","8","93051","0.0-8.0","2D9786E199F44AAC9ACE66F0BA86C347","019db5e5-57bc-7114-81a2-dcbb91a720d3","019db5e1-c4eb-76d2-9e84-fe63359ddeee","","null","<div style=""background-color: white; width: 100vw; height: 100vh;""></div>","null","","","","","","","","","",""
"","","","","","html-button-response","9","94071","0.0-9.0","2D9786E199F44AAC9ACE66F0BA86C347","019db5e5-57bc-7114-81a2-dcbb91a720d3","019db5e1-c4eb-76d2-9e84-fe63359ddeee","","1019","
            <div class=""stimulus-container"">
                <img src=""images/schematic_sequence/dinner_party_scheme/dinner_party_scheme_7.png"" class=""exp-image"">
                <div class=""question-area"">
                    <p style=""font-size: 20px; font-weight: bold;"">Click the button to reveal the image value</p>
                </div>
            </div>","0","part2_active_reveal_click","dinner_party_scheme","","","","","","","",""
"","","","","","html-keyboard-response","10","102074","0.0-10.0","2D9786E199F44AAC9ACE66F0BA86C347","019db5e5-57bc-7114-81a2-dcbb91a720d3","019db5e1-c4eb-76d2-9e84-fe63359ddeee","","null","
            <div class=""stimulus-container"" style=""display: flex; align-items: center; justify-content: center; gap: 40px;"">
                <img src=""images/schematic_sequence/dinner_party_scheme/dinner_party_scheme_7.png"" class=""exp-image"">
                <div style=""text-align: center;"">
                    <img src=""images/gray.png"" style=""width: 150px; height: 150px; border: 5px solid grey; border-radius: 15px;"">
                    <p style=""color: grey; font-weight: bold; font-size: 28px; margin-top: 15px;"">NEUTRAL VALUE</p>
                </div>
            </div>","null","part2_value_learning","dinner_party_scheme","schematic_sequence","7","neutral","","","","",""
"","","","","","html-keyboard-response","11","107077","0.0-11.0","2D9786E199F44AAC9ACE66F0BA86C347","019db5e5-57bc-7114-81a2-dcbb91a720d3","019db5e1-c4eb-76d2-9e84-fe63359ddeee","","null","<div style=""background-color: white; width: 100vw; height: 100vh;""></div>","null","","","","","","","","","",""
"","","","","","html-button-response","12","109442","0.0-12.0","2D9786E199F44AAC9ACE66F0BA86C347","019db5e5-57bc-7114-81a2-dcbb91a720d3","019db5e1-c4eb-76d2-9e84-fe63359ddeee","","2364","
            <div class=""stimulus-container"">
                <img src=""images/semantic_sequence/physical_activity_semantic/physical_activity_semantic_7.png"" class=""exp-image"">
                <div class=""question-area"">
                    <p style=""font-size: 20px; font-weight: bold;"">Click the button to reveal the image value</p>
                </div>
            </div>","0","part2_active_reveal_click","physical_activity_semantic","","","","","","","",""
"","","","","","html-keyboard-response","13","117445","0.0-13.0","2D9786E199F44AAC9ACE66F0BA86C347","019db5e5-57bc-7114-81a2-dcbb91a720d3","019db5e1-c4eb-76d2-9e84-fe63359ddeee","","null","
            <div class=""stimulus-container"" style=""display: flex; align-items: center; justify-content: center; gap: 40px;"">
                <img src=""images/semantic_sequence/physical_activity_semantic/physical_activity_semantic_7.png"" class=""exp-image"">
                <div style=""text-align: center;"">
                    <img src=""images/dollar.png"" style=""width: 150px; height: 150px; border: 5px solid green; border-radius: 15px;"">
                    <p style=""color: green; font-weight: bold; font-size: 28px; margin-top: 15px;"">WORTH MONEY</p>
                </div>
            </div>","null","part2_value_learning","physical_activity_semantic","semantic_sequence","7","valuable","","","","",""
"","","","","","html-keyboard-response","14","122447","0.0-14.0","2D9786E199F44AAC9ACE66F0BA86C347","019db5e5-57bc-7114-81a2-dcbb91a720d3","019db5e1-c4eb-76d2-9e84-fe63359ddeee","","null","<div style=""background-color: white; width: 100vw; height: 100vh;""></div>","null","","","","","","","","","",""
"","","","","","html-button-response","15","125739","0.0-15.0","2D9786E199F44AAC9ACE66F0BA86C347","019db5e5-57bc-7114-81a2-dcbb91a720d3","019db5e1-c4eb-76d2-9e84-fe63359ddeee","","3291","
            <div class=""stimulus-container"">
                <img src=""images/semantic_sequence/self_care_activities_semantic/self_care_activities_semantic_5.png"" class=""exp-image"">
                <div class=""question-area"">
                    <p style=""font-size: 20px; font-weight: bold;"">Click the button to reveal the image value</p>
                </div>
            </div>","0","part2_active_reveal_click","self_care_activities_semantic","","","","","","","",""
"","","","","","html-keyboard-response","16","133742","0.0-16.0","2D9786E199F44AAC9ACE66F0BA86C347","019db5e5-57bc-7114-81a2-dcbb91a720d3","019db5e1-c4eb-76d2-9e84-fe63359ddeee","","null","
            <div class=""stimulus-container"" style=""display: flex; align-items: center; justify-content: center; gap: 40px;"">
                <img src=""images/semantic_sequence/self_care_activities_semantic/self_care_activities_semantic_5.png"" class=""exp-image"">
                <div style=""text-align: center;"">
                    <img src=""images/gray.png"" style=""width: 150px; height: 150px; border: 5px solid grey; border-radius: 15px;"">
                    <p style=""color: grey; font-weight: bold; font-size: 28px; margin-top: 15px;"">NEUTRAL VALUE</p>
                </div>
            </div>","null","part2_value_learning","self_care_activities_semantic","semantic_sequence","5","neutral","","","","",""
"","","","","","html-keyboard-response","17","138745","0.0-17.0","2D9786E199F44AAC9ACE66F0BA86C347","019db5e5-57bc-7114-81a2-dcbb91a720d3","019db5e1-c4eb-76d2-9e84-fe63359ddeee","","null","<div style=""background-color: white; width: 100vw; height: 100vh;""></div>","null","","","","","","","","","",""
"","","","","","html-button-response","18","151708","0.0-18.0","2D9786E199F44AAC9ACE66F0BA86C347","019db5e5-57bc-7114-81a2-dcbb91a720d3","019db5e1-c4eb-76d2-9e84-fe63359ddeee","","12961","
            <div class=""stimulus-container"">
                <img src=""images/schematic_sequence/supermarket_scheme/supermarket_scheme_4.png"" class=""exp-image"">
                <div class=""question-area"">
                    <p style=""font-size: 20px; font-weight: bold;"">Click the button to reveal the image value</p>
                </div>
            </div>","0","part2_active_reveal_click","supermarket_scheme","","","","","","","",""
"","","","","","html-keyboard-response","19","159711","0.0-19.0","2D9786E199F44AAC9ACE66F0BA86C347","019db5e5-57bc-7114-81a2-dcbb91a720d3","019db5e1-c4eb-76d2-9e84-fe63359ddeee","","null","
            <div class=""stimulus-container"" style=""display: flex; align-items: center; justify-content: center; gap: 40px;"">
                <img src=""images/schematic_sequence/supermarket_scheme/supermarket_scheme_4.png"" class=""exp-image"">
                <div style=""text-align: center;"">
                    <img src=""images/dollar.png"" style=""width: 150px; height: 150px; border: 5px solid green; border-radius: 15px;"">
                    <p style=""color: green; font-weight: bold; font-size: 28px; margin-top: 15px;"">WORTH MONEY</p>
                </div>
            </div>","null","part2_value_learning","supermarket_scheme","schematic_sequence","4","valuable","","","","",""
"","","","","","html-keyboard-response","20","164714","0.0-20.0","2D9786E199F44AAC9ACE66F0BA86C347","019db5e5-57bc-7114-81a2-dcbb91a720d3","019db5e1-c4eb-76d2-9e84-fe63359ddeee","","null","<div style=""background-color: white; width: 100vw; height: 100vh;""></div>","null","","","","","","","","","",""
"","","","","","html-button-response","21","167238","0.0-21.0","2D9786E199F44AAC9ACE66F0BA86C347","019db5e5-57bc-7114-81a2-dcbb91a720d3","019db5e1-c4eb-76d2-9e84-fe63359ddeee","","2521","
            <div class=""stimulus-container"">
                <img src=""images/schematic_sequence/restaurant_scheme/restaurant_scheme_5.png"" class=""exp-image"">
                <div class=""question-area"">
                    <p style=""font-size: 20px; font-weight: bold;"">Click the button to reveal the image value</p>
                </div>
            </div>","0","part2_active_reveal_click","restaurant_scheme","","","","","","","",""
"","","","","","html-keyboard-response","22","175241","0.0-22.0","2D9786E199F44AAC9ACE66F0BA86C347","019db5e5-57bc-7114-81a2-dcbb91a720d3","019db5e1-c4eb-76d2-9e84-fe63359ddeee","","null","
            <div class=""stimulus-container"" style=""display: flex; align-items: center; justify-content: center; gap: 40px;"">
                <img src=""images/schematic_sequence/restaurant_scheme/restaurant_scheme_5.png"" class=""exp-image"">
                <div style=""text-align: center;"">
                    <img src=""images/gray.png"" style=""width: 150px; height: 150px; border: 5px solid grey; border-radius: 15px;"">
                    <p style=""color: grey; font-weight: bold; font-size: 28px; margin-top: 15px;"">NEUTRAL VALUE</p>
                </div>
            </div>","null","part2_value_learning","restaurant_scheme","schematic_sequence","5","neutral","","","","",""
"","","","","","html-keyboard-response","23","180244","0.0-23.0","2D9786E199F44AAC9ACE66F0BA86C347","019db5e5-57bc-7114-81a2-dcbb91a720d3","019db5e1-c4eb-76d2-9e84-fe63359ddeee","","null","<div style=""background-color: white; width: 100vw; height: 100vh;""></div>","null","","","","","","","","","",""
"","","","","","html-button-response","24","182125","0.0-24.0","2D9786E199F44AAC9ACE66F0BA86C347","019db5e5-57bc-7114-81a2-dcbb91a720d3","019db5e1-c4eb-76d2-9e84-fe63359ddeee","","1880","
            <div class=""stimulus-container"">
                <img src=""images/schematic_sequence/interview_scheme/interview_scheme_7.png"" class=""exp-image"">
                <div class=""question-area"">
                    <p style=""font-size: 20px; font-weight: bold;"">Click the button to reveal the image value</p>
                </div>
            </div>","0","part2_active_reveal_click","interview_scheme","","","","","","","",""
"","","","","","html-keyboard-response","25","190128","0.0-25.0","2D9786E199F44AAC9ACE66F0BA86C347","019db5e5-57bc-7114-81a2-dcbb91a720d3","019db5e1-c4eb-76d2-9e84-fe63359ddeee","","null","
            <div class=""stimulus-container"" style=""display: flex; align-items: center; justify-content: center; gap: 40px;"">
                <img src=""images/schematic_sequence/interview_scheme/interview_scheme_7.png"" class=""exp-image"">
                <div style=""text-align: center;"">
                    <img src=""images/dollar.png"" style=""width: 150px; height: 150px; border: 5px solid green; border-radius: 15px;"">
                    <p style=""color: green; font-weight: bold; font-size: 28px; margin-top: 15px;"">WORTH MONEY</p>
                </div>
            </div>","null","part2_value_learning","interview_scheme","schematic_sequence","7","valuable","","","","",""
"","","","","","html-keyboard-response","26","195131","0.0-26.0","2D9786E199F44AAC9ACE66F0BA86C347","019db5e5-57bc-7114-81a2-dcbb91a720d3","019db5e1-c4eb-76d2-9e84-fe63359ddeee","","null","<div style=""background-color: white; width: 100vw; height: 100vh;""></div>","null","","","","","","","","","",""
"","","","","","html-button-response","27","197484","0.0-27.0","2D9786E199F44AAC9ACE66F0BA86C347","019db5e5-57bc-7114-81a2-dcbb91a720d3","019db5e1-c4eb-76d2-9e84-fe63359ddeee","","2351","
            <div class=""stimulus-container"">
                <img src=""images/semantic_sequence/visiting_cities_semantic/visiting_cities_semantic_6.png"" class=""exp-image"">
                <div class=""question-area"">
                    <p style=""font-size: 20px; font-weight: bold;"">Click the button to reveal the image value</p>
                </div>
            </div>","0","part2_active_reveal_click","visiting_cities_semantic","","","","","","","",""
"","","","","","html-keyboard-response","28","205488","0.0-28.0","2D9786E199F44AAC9ACE66F0BA86C347","019db5e5-57bc-7114-81a2-dcbb91a720d3","019db5e1-c4eb-76d2-9e84-fe63359ddeee","","null","
            <div class=""stimulus-container"" style=""display: flex; align-items: center; justify-content: center; gap: 40px;"">
                <img src=""images/semantic_sequence/visiting_cities_semantic/visiting_cities_semantic_6.png"" class=""exp-image"">
                <div style=""text-align: center;"">
                    <img src=""images/dollar.png"" style=""width: 150px; height: 150px; border: 5px solid green; border-radius: 15px;"">
                    <p style=""color: green; font-weight: bold; font-size: 28px; margin-top: 15px;"">WORTH MONEY</p>
                </div>
            </div>","null","part2_value_learning","visiting_cities_semantic","semantic_sequence","6","valuable","","","","",""
"","","","","","html-keyboard-response","29","210491","0.0-29.0","2D9786E199F44AAC9ACE66F0BA86C347","019db5e5-57bc-7114-81a2-dcbb91a720d3","019db5e1-c4eb-76d2-9e84-fe63359ddeee","","null","<div style=""background-color: white; width: 100vw; height: 100vh;""></div>","null","","","","","","","","","",""
"","","","","","html-button-response","30","212909","0.0-30.0","2D9786E199F44AAC9ACE66F0BA86C347","019db5e5-57bc-7114-81a2-dcbb91a720d3","019db5e1-c4eb-76d2-9e84-fe63359ddeee","","2416","
            <div class=""stimulus-container"">
                <img src=""images/semantic_sequence/housework_semantic/housework_semantic_7.png"" class=""exp-image"">
                <div class=""question-area"">
                    <p style=""font-size: 20px; font-weight: bold;"">Click the button to reveal the image value</p>
                </div>
            </div>","0","part2_active_reveal_click","housework_semantic","","","","","","","",""
"","","","","","html-keyboard-response","31","220912","0.0-31.0","2D9786E199F44AAC9ACE66F0BA86C347","019db5e5-57bc-7114-81a2-dcbb91a720d3","019db5e1-c4eb-76d2-9e84-fe63359ddeee","","null","
            <div class=""stimulus-container"" style=""display: flex; align-items: center; justify-content: center; gap: 40px;"">
                <img src=""images/semantic_sequence/housework_semantic/housework_semantic_7.png"" class=""exp-image"">
                <div style=""text-align: center;"">
                    <img src=""images/gray.png"" style=""width: 150px; height: 150px; border: 5px solid grey; border-radius: 15px;"">
                    <p style=""color: grey; font-weight: bold; font-size: 28px; margin-top: 15px;"">NEUTRAL VALUE</p>
                </div>
            </div>","null","part2_value_learning","housework_semantic","semantic_sequence","7","neutral","","","","",""
"","","","","","html-keyboard-response","32","225914","0.0-32.0","2D9786E199F44AAC9ACE66F0BA86C347","019db5e5-57bc-7114-81a2-dcbb91a720d3","019db5e1-c4eb-76d2-9e84-fe63359ddeee","","null","<div style=""background-color: white; width: 100vw; height: 100vh;""></div>","null","","","","","","","","","",""
"","","","","","html-button-response","33","230518","0.0-33.0","2D9786E199F44AAC9ACE66F0BA86C347","019db5e5-57bc-7114-81a2-dcbb91a720d3","019db5e1-c4eb-76d2-9e84-fe63359ddeee","","4602","
            <div class=""stimulus-container"">
                <img src=""images/semantic_sequence/kitchen_operations_semantic/kitchen_operations_semantic_6.png"" class=""exp-image"">
                <div class=""question-area"">
                    <p style=""font-size: 20px; font-weight: bold;"">Click the button to reveal the image value</p>
                </div>
            </div>","0","part2_active_reveal_click","kitchen_operations_semantic","","","","","","","",""
"","","","","","html-keyboard-response","34","238521","0.0-34.0","2D9786E199F44AAC9ACE66F0BA86C347","019db5e5-57bc-7114-81a2-dcbb91a720d3","019db5e1-c4eb-76d2-9e84-fe63359ddeee","","null","
            <div class=""stimulus-container"" style=""display: flex; align-items: center; justify-content: center; gap: 40px;"">
                <img src=""images/semantic_sequence/kitchen_operations_semantic/kitchen_operations_semantic_6.png"" class=""exp-image"">
                <div style=""text-align: center;"">
                    <img src=""images/dollar.png"" style=""width: 150px; height: 150px; border: 5px solid green; border-radius: 15px;"">
                    <p style=""color: green; font-weight: bold; font-size: 28px; margin-top: 15px;"">WORTH MONEY</p>
                </div>
            </div>","null","part2_value_learning","kitchen_operations_semantic","semantic_sequence","6","valuable","","","","",""
"","","","","","html-keyboard-response","35","243524","0.0-35.0","2D9786E199F44AAC9ACE66F0BA86C347","019db5e5-57bc-7114-81a2-dcbb91a720d3","019db5e1-c4eb-76d2-9e84-fe63359ddeee","","null","<div style=""background-color: white; width: 100vw; height: 100vh;""></div>","null","","","","","","","","","",""
"","","","","","html-button-response","36","245880","0.0-36.0","2D9786E199F44AAC9ACE66F0BA86C347","019db5e5-57bc-7114-81a2-dcbb91a720d3","019db5e1-c4eb-76d2-9e84-fe63359ddeee","","2355","
            <div class=""stimulus-container"">
                <img src=""images/semantic_sequence/maintaining_a_car_semantic/maintaining_a_car_semantic_6.png"" class=""exp-image"">
                <div class=""question-area"">
                    <p style=""font-size: 20px; font-weight: bold;"">Click the button to reveal the image value</p>
                </div>
            </div>","0","part2_active_reveal_click","maintaining_a_car_semantic","","","","","","","",""
"","","","","","html-keyboard-response","37","253884","0.0-37.0","2D9786E199F44AAC9ACE66F0BA86C347","019db5e5-57bc-7114-81a2-dcbb91a720d3","019db5e1-c4eb-76d2-9e84-fe63359ddeee","","null","
            <div class=""stimulus-container"" style=""display: flex; align-items: center; justify-content: center; gap: 40px;"">
                <img src=""images/semantic_sequence/maintaining_a_car_semantic/maintaining_a_car_semantic_6.png"" class=""exp-image"">
                <div style=""text-align: center;"">
                    <img src=""images/gray.png"" style=""width: 150px; height: 150px; border: 5px solid grey; border-radius: 15px;"">
                    <p style=""color: grey; font-weight: bold; font-size: 28px; margin-top: 15px;"">NEUTRAL VALUE</p>
                </div>
            </div>","null","part2_value_learning","maintaining_a_car_semantic","semantic_sequence","6","neutral","","","","",""
"","","","","","html-keyboard-response","38","258886","0.0-38.0","2D9786E199F44AAC9ACE66F0BA86C347","019db5e5-57bc-7114-81a2-dcbb91a720d3","019db5e1-c4eb-76d2-9e84-fe63359ddeee","","null","<div style=""background-color: white; width: 100vw; height: 100vh;""></div>","null","","","","","","","","","",""
"","","","","","html-button-response","39","260767","0.0-39.0","2D9786E199F44AAC9ACE66F0BA86C347","019db5e5-57bc-7114-81a2-dcbb91a720d3","019db5e1-c4eb-76d2-9e84-fe63359ddeee","","1879","
            <div class=""stimulus-container"">
                <img src=""images/schematic_sequence/flight_scheme/flight_scheme_5.png"" class=""exp-image"">
                <div class=""question-area"">
                    <p style=""font-size: 20px; font-weight: bold;"">Click the button to reveal the image value</p>
                </div>
            </div>","0","part2_active_reveal_click","flight_scheme","","","","","","","",""
"","","","","","html-keyboard-response","40","268771","0.0-40.0","2D9786E199F44AAC9ACE66F0BA86C347","019db5e5-57bc-7114-81a2-dcbb91a720d3","019db5e1-c4eb-76d2-9e84-fe63359ddeee","","null","
            <div class=""stimulus-container"" style=""display: flex; align-items: center; justify-content: center; gap: 40px;"">
                <img src=""images/schematic_sequence/flight_scheme/flight_scheme_5.png"" class=""exp-image"">
                <div style=""text-align: center;"">
                    <img src=""images/gray.png"" style=""width: 150px; height: 150px; border: 5px solid grey; border-radius: 15px;"">
                    <p style=""color: grey; font-weight: bold; font-size: 28px; margin-top: 15px;"">NEUTRAL VALUE</p>
                </div>
            </div>","null","part2_value_learning","flight_scheme","schematic_sequence","5","neutral","","","","",""
"","","","","","html-keyboard-response","41","273773","0.0-41.0","2D9786E199F44AAC9ACE66F0BA86C347","019db5e5-57bc-7114-81a2-dcbb91a720d3","019db5e1-c4eb-76d2-9e84-fe63359ddeee","","null","<div style=""background-color: white; width: 100vw; height: 100vh;""></div>","null","","","","","","","","","",""
"","","","","","instructions","42","277150","0.0-42.0","2D9786E199F44AAC9ACE66F0BA86C347","019db5e5-57bc-7114-81a2-dcbb91a720d3","019db5e1-c4eb-76d2-9e84-fe63359ddeee","[{""page_index"":0,""viewing_time"":3376}]","3376","","","","","","","","","","","",""
"","","","","","html-keyboard-response","43","280154","0.0-43.0-0.0","2D9786E199F44AAC9ACE66F0BA86C347","019db5e5-57bc-7114-81a2-dcbb91a720d3","019db5e1-c4eb-76d2-9e84-fe63359ddeee","","null","
                            <div style=""font-family: Arial; margin-bottom: 20px;""><h3>Which image is worth <b>more money</b>?</h3></div>
                            <div class=""stimulus-container"" style=""display: flex; width: 800px; justify-content: center; gap: 30px;"">
                                <img src=""images/schematic_sequence/dinner_party_scheme/dinner_party_scheme_6.png"" class=""small-image"">
                                <img src=""images/schematic_sequence/dinner_party_scheme/dinner_party_scheme_8.png"" class=""small-image"">
                            </div>","null","","","","","","","","","",""
"","","","","","html-button-response","44","281237","0.0-43.0-1.0","2D9786E199F44AAC9ACE66F0BA86C347","019db5e5-57bc-7114-81a2-dcbb91a720d3","019db5e1-c4eb-76d2-9e84-fe63359ddeee","","1081","
                            <div style=""font-family: Arial; margin-bottom: 20px;""><h3>Which image is worth <b>more money</b>?</h3></div>
                            <div class=""stimulus-container"" style=""display: flex; width: 800px; justify-content: center; gap: 30px;"">
                                <img src=""images/schematic_sequence/dinner_party_scheme/dinner_party_scheme_6.png"" class=""small-image"">
                                <img src=""images/schematic_sequence/dinner_party_scheme/dinner_party_scheme_8.png"" class=""small-image"">
                            </div>","0","part3_choice_neighbors","dinner_party_scheme","schematic_sequence","","","1","7","6","0",""
"","","","","","html-keyboard-response","45","284241","0.0-44.0-0.0","2D9786E199F44AAC9ACE66F0BA86C347","019db5e5-57bc-7114-81a2-dcbb91a720d3","019db5e1-c4eb-76d2-9e84-fe63359ddeee","","null","
                            <div style=""font-family: Arial; margin-bottom: 20px;""><h3>Which image is worth <b>more money</b>?</h3></div>
                            <div class=""stimulus-container"" style=""display: flex; width: 800px; justify-content: center; gap: 30px;"">
                                <img src=""images/semantic_sequence/housework_semantic/housework_semantic_ten.png"" class=""small-image"">
                                <img src=""images/semantic_sequence/housework_semantic/housework_semantic_4.png"" class=""small-image"">
                            </div>","null","","","","","","","","","",""
"","","","","","html-button-response","46","286319","0.0-44.0-1.0","2D9786E199F44AAC9ACE66F0BA86C347","019db5e5-57bc-7114-81a2-dcbb91a720d3","019db5e1-c4eb-76d2-9e84-fe63359ddeee","","2073","
                            <div style=""font-family: Arial; margin-bottom: 20px;""><h3>Which image is worth <b>more money</b>?</h3></div>
                            <div class=""stimulus-container"" style=""display: flex; width: 800px; justify-content: center; gap: 30px;"">
                                <img src=""images/semantic_sequence/housework_semantic/housework_semantic_ten.png"" class=""small-image"">
                                <img src=""images/semantic_sequence/housework_semantic/housework_semantic_4.png"" class=""small-image"">
                            </div>","0","part3_choice_neighbors","housework_semantic","semantic_sequence","","","3","7","10","1",""
"","","","","","html-keyboard-response","47","289322","0.0-45.0-0.0","2D9786E199F44AAC9ACE66F0BA86C347","019db5e5-57bc-7114-81a2-dcbb91a720d3","019db5e1-c4eb-76d2-9e84-fe63359ddeee","","null","
                            <div style=""font-family: Arial; margin-bottom: 20px;""><h3>Which image is worth <b>more money</b>?</h3></div>
                            <div class=""stimulus-container"" style=""display: flex; width: 800px; justify-content: center; gap: 30px;"">
                                <img src=""images/schematic_sequence/restaurant_scheme/restaurant_scheme_8.png"" class=""small-image"">
                                <img src=""images/schematic_sequence/restaurant_scheme/restaurant_scheme_2.png"" class=""small-image"">
                            </div>","null","","","","","","","","","",""
"","","","","","html-button-response","48","290185","0.0-45.0-1.0","2D9786E199F44AAC9ACE66F0BA86C347","019db5e5-57bc-7114-81a2-dcbb91a720d3","019db5e1-c4eb-76d2-9e84-fe63359ddeee","","861","
                            <div style=""font-family: Arial; margin-bottom: 20px;""><h3>Which image is worth <b>more money</b>?</h3></div>
                            <div class=""stimulus-container"" style=""display: flex; width: 800px; justify-content: center; gap: 30px;"">
                                <img src=""images/schematic_sequence/restaurant_scheme/restaurant_scheme_8.png"" class=""small-image"">
                                <img src=""images/schematic_sequence/restaurant_scheme/restaurant_scheme_2.png"" class=""small-image"">
                            </div>","0","part3_choice_neighbors","restaurant_scheme","schematic_sequence","","","3","5","8","1",""
"","","","","","html-keyboard-response","49","293188","0.0-46.0-0.0","2D9786E199F44AAC9ACE66F0BA86C347","019db5e5-57bc-7114-81a2-dcbb91a720d3","019db5e1-c4eb-76d2-9e84-fe63359ddeee","","null","
                            <div style=""font-family: Arial; margin-bottom: 20px;""><h3>Which image is worth <b>more money</b>?</h3></div>
                            <div class=""stimulus-container"" style=""display: flex; width: 800px; justify-content: center; gap: 30px;"">
                                <img src=""images/schematic_sequence/flight_scheme/flight_scheme_2.png"" class=""small-image"">
                                <img src=""images/schematic_sequence/flight_scheme/flight_scheme_8.png"" class=""small-image"">
                            </div>","null","","","","","","","","","",""
"","","","","","html-button-response","50","293708","0.0-46.0-1.0","2D9786E199F44AAC9ACE66F0BA86C347","019db5e5-57bc-7114-81a2-dcbb91a720d3","019db5e1-c4eb-76d2-9e84-fe63359ddeee","","518","
                            <div style=""font-family: Arial; margin-bottom: 20px;""><h3>Which image is worth <b>more money</b>?</h3></div>
                            <div class=""stimulus-container"" style=""display: flex; width: 800px; justify-content: center; gap: 30px;"">
                                <img src=""images/schematic_sequence/flight_scheme/flight_scheme_2.png"" class=""small-image"">
                                <img src=""images/schematic_sequence/flight_scheme/flight_scheme_8.png"" class=""small-image"">
                            </div>","0","part3_choice_neighbors","flight_scheme","schematic_sequence","","","3","5","2","0",""
"","","","","","html-keyboard-response","51","296712","0.0-47.0-0.0","2D9786E199F44AAC9ACE66F0BA86C347","019db5e5-57bc-7114-81a2-dcbb91a720d3","019db5e1-c4eb-76d2-9e84-fe63359ddeee","","null","<div style=""font-family: Arial; margin-bottom: 20px;""><h3>Which image is worth <b>more money?</h3></div>
                            <div class=""stimulus-container"" style=""display: flex; width: 800px; justify-content: center; gap: 30px;"">
                                <img src=""images/semantic_sequence/kitchen_operations_semantic/kitchen_operations_semantic_6.png"" class=""small-image"">
                                <img src=""images/schematic_sequence/flight_scheme/flight_scheme_5.png"" class=""small-image"">
                            </div>","null","","","","","","","","","",""
"","","","","","html-button-response","52","298823","0.0-47.0-1.0","2D9786E199F44AAC9ACE66F0BA86C347","019db5e5-57bc-7114-81a2-dcbb91a720d3","019db5e1-c4eb-76d2-9e84-fe63359ddeee","","2110","<div style=""font-family: Arial; margin-bottom: 20px;""><h3>Which image is worth <b>more money</b>?</h3></div>
                            <div class=""stimulus-container"" style=""display: flex; width: 800px; justify-content: center; gap: 30px;"">
                                <img src=""images/semantic_sequence/kitchen_operations_semantic/kitchen_operations_semantic_6.png"" class=""small-image"">
                                <img src=""images/schematic_sequence/flight_scheme/flight_scheme_5.png"" class=""small-image"">
                            </div>","1","part3_valuable_vs_neutral_direct","","","","","","","","","false"
"","","","","","html-keyboard-response","53","301824","0.0-48.0-0.0","2D9786E199F44AAC9ACE66F0BA86C347","019db5e5-57bc-7114-81a2-dcbb91a720d3","019db5e1-c4eb-76d2-9e84-fe63359ddeee","","null","
                            <div style=""font-family: Arial; margin-bottom: 20px;""><h3>Which image is worth <b>more money</b>?</h3></div>
                            <div class=""stimulus-container"" style=""display: flex; width: 800px; justify-content: center; gap: 30px;"">
                                <img src=""images/schematic_sequence/flight_scheme/flight_scheme_7.png"" class=""small-image"">
                                <img src=""images/schematic_sequence/flight_scheme/flight_scheme_3.png"" class=""small-image"">
                            </div>","null","","","","","","","","","",""
"","","","","","html-button-response","54","302339","0.0-48.0-1.0","2D9786E199F44AAC9ACE66F0BA86C347","019db5e5-57bc-7114-81a2-dcbb91a720d3","019db5e1-c4eb-76d2-9e84-fe63359ddeee","","514","
                            <div style=""font-family: Arial; margin-bottom: 20px;""><h3>Which image is worth <b>more money</b>?</h3></div>
                            <div class=""stimulus-container"" style=""display: flex; width: 800px; justify-content: center; gap: 30px;"">
                                <img src=""images/schematic_sequence/flight_scheme/flight_scheme_7.png"" class=""small-image"">
                                <img src=""images/schematic_sequence/flight_scheme/flight_scheme_3.png"" class=""small-image"">
                            </div>","1","part3_choice_neighbors","flight_scheme","schematic_sequence","","","2","5","3","0",""
"","","","","","html-keyboard-response","55","305342","0.0-49.0-0.0","2D9786E199F44AAC9ACE66F0BA86C347","019db5e5-57bc-7114-81a2-dcbb91a720d3","019db5e1-c4eb-76d2-9e84-fe63359ddeee","","null","
                            <div style=""font-family: Arial; margin-bottom: 20px;""><h3>Which image is worth <b>more money</b>?</h3></div>
                            <div class=""stimulus-container"" style=""display: flex; width: 800px; justify-content: center; gap: 30px;"">
                                <img src=""images/semantic_sequence/kitchen_operations_semantic/kitchen_operations_semantic_4.png"" class=""small-image"">
                                <img src=""images/semantic_sequence/kitchen_operations_semantic/kitchen_operations_semantic_8.png"" class=""small-image"">
                            </div>","null","","","","","","","","","",""
"","","","","","html-button-response","56","306254","0.0-49.0-1.0","2D9786E199F44AAC9ACE66F0BA86C347","019db5e5-57bc-7114-81a2-dcbb91a720d3","019db5e1-c4eb-76d2-9e84-fe63359ddeee","","911","
                            <div style=""font-family: Arial; margin-bottom: 20px;""><h3>Which image is worth <b>more money</b>?</h3></div>
                            <div class=""stimulus-container"" style=""display: flex; width: 800px; justify-content: center; gap: 30px;"">
                                <img src=""images/semantic_sequence/kitchen_operations_semantic/kitchen_operations_semantic_4.png"" class=""small-image"">
                                <img src=""images/semantic_sequence/kitchen_operations_semantic/kitchen_operations_semantic_8.png"" class=""small-image"">
                            </div>","0","part3_choice_neighbors","kitchen_operations_semantic","semantic_sequence","","","2","6","4","0",""
"","","","","","html-keyboard-response","57","309257","0.0-50.0-0.0","2D9786E199F44AAC9ACE66F0BA86C347","019db5e5-57bc-7114-81a2-dcbb91a720d3","019db5e1-c4eb-76d2-9e84-fe63359ddeee","","null","
                            <div style=""font-family: Arial; margin-bottom: 20px;""><h3>Which image is worth <b>more money</b>?</h3></div>
                            <div class=""stimulus-container"" style=""display: flex; width: 800px; justify-content: center; gap: 30px;"">
                                <img src=""images/semantic_sequence/physical_activity_semantic/physical_activity_semantic_8.png"" class=""small-image"">
                                <img src=""images/semantic_sequence/physical_activity_semantic/physical_activity_semantic_6.png"" class=""small-image"">
                            </div>","null","","","","","","","","","",""
"","","","","","html-button-response","58","309874","0.0-50.0-1.0","2D9786E199F44AAC9ACE66F0BA86C347","019db5e5-57bc-7114-81a2-dcbb91a720d3","019db5e1-c4eb-76d2-9e84-fe63359ddeee","","615","
                            <div style=""font-family: Arial; margin-bottom: 20px;""><h3>Which image is worth <b>more money</b>?</h3></div>
                            <div class=""stimulus-container"" style=""display: flex; width: 800px; justify-content: center; gap: 30px;"">
                                <img src=""images/semantic_sequence/physical_activity_semantic/physical_activity_semantic_8.png"" class=""small-image"">
                                <img src=""images/semantic_sequence/physical_activity_semantic/physical_activity_semantic_6.png"" class=""small-image"">
                            </div>","1","part3_choice_neighbors","physical_activity_semantic","semantic_sequence","","","1","7","6","0",""
"","","","","","html-keyboard-response","59","312876","0.0-51.0-0.0","2D9786E199F44AAC9ACE66F0BA86C347","019db5e5-57bc-7114-81a2-dcbb91a720d3","019db5e1-c4eb-76d2-9e84-fe63359ddeee","","null","
                            <div style=""font-family: Arial; margin-bottom: 20px;""><h3>Which image is worth <b>more money</b>?</h3></div>
                            <div class=""stimulus-container"" style=""display: flex; width: 800px; justify-content: center; gap: 30px;"">
                                <img src=""images/schematic_sequence/hotel_scheme/hotel_scheme_1.png"" class=""small-image"">
                                <img src=""images/schematic_sequence/hotel_scheme/hotel_scheme_7.png"" class=""small-image"">
                            </div>","null","","","","","","","","","",""
"","","","","","html-button-response","60","315398","0.0-51.0-1.0","2D9786E199F44AAC9ACE66F0BA86C347","019db5e5-57bc-7114-81a2-dcbb91a720d3","019db5e1-c4eb-76d2-9e84-fe63359ddeee","","2520","
                            <div style=""font-family: Arial; margin-bottom: 20px;""><h3>Which image is worth <b>more money</b>?</h3></div>
                            <div class=""stimulus-container"" style=""display: flex; width: 800px; justify-content: center; gap: 30px;"">
                                <img src=""images/schematic_sequence/hotel_scheme/hotel_scheme_1.png"" class=""small-image"">
                                <img src=""images/schematic_sequence/hotel_scheme/hotel_scheme_7.png"" class=""small-image"">
                            </div>","0","part3_choice_neighbors","hotel_scheme","schematic_sequence","","","3","4","1","0",""
"","","","","","html-keyboard-response","61","318400","0.0-52.0-0.0","2D9786E199F44AAC9ACE66F0BA86C347","019db5e5-57bc-7114-81a2-dcbb91a720d3","019db5e1-c4eb-76d2-9e84-fe63359ddeee","","null","
                            <div style=""font-family: Arial; margin-bottom: 20px;""><h3>Which image is worth <b>more money</b>?</h3></div>
                            <div class=""stimulus-container"" style=""display: flex; width: 800px; justify-content: center; gap: 30px;"">
                                <img src=""images/schematic_sequence/interview_scheme/interview_scheme_6.png"" class=""small-image"">
                                <img src=""images/schematic_sequence/interview_scheme/interview_scheme_8.png"" class=""small-image"">
                            </div>","null","","","","","","","","","",""
"","","","","","html-button-response","62","318891","0.0-52.0-1.0","2D9786E199F44AAC9ACE66F0BA86C347","019db5e5-57bc-7114-81a2-dcbb91a720d3","019db5e1-c4eb-76d2-9e84-fe63359ddeee","","489","
                            <div style=""font-family: Arial; margin-bottom: 20px;""><h3>Which image is worth <b>more money</b>?</h3></div>
                            <div class=""stimulus-container"" style=""display: flex; width: 800px; justify-content: center; gap: 30px;"">
                                <img src=""images/schematic_sequence/interview_scheme/interview_scheme_6.png"" class=""small-image"">
                                <img src=""images/schematic_sequence/interview_scheme/interview_scheme_8.png"" class=""small-image"">
                            </div>","0","part3_choice_neighbors","interview_scheme","schematic_sequence","","","1","7","6","0",""
"","","","","","html-keyboard-response","63","321894","0.0-53.0-0.0","2D9786E199F44AAC9ACE66F0BA86C347","019db5e5-57bc-7114-81a2-dcbb91a720d3","019db5e1-c4eb-76d2-9e84-fe63359ddeee","","null","
                            <div style=""font-family: Arial; margin-bottom: 20px;""><h3>Which image is worth <b>more money</b>?</h3></div>
                            <div class=""stimulus-container"" style=""display: flex; width: 800px; justify-content: center; gap: 30px;"">
                                <img src=""images/semantic_sequence/maintaining_a_car_semantic/maintaining_a_car_semantic_8.png"" class=""small-image"">
                                <img src=""images/semantic_sequence/maintaining_a_car_semantic/maintaining_a_car_semantic_4.png"" class=""small-image"">
                            </div>","null","","","","","","","","","",""
"","","","","","html-button-response","64","322553","0.0-53.0-1.0","2D9786E199F44AAC9ACE66F0BA86C347","019db5e5-57bc-7114-81a2-dcbb91a720d3","019db5e1-c4eb-76d2-9e84-fe63359ddeee","","657","
                            <div style=""font-family: Arial; margin-bottom: 20px;""><h3>Which image is worth <b>more money</b>?</h3></div>
                            <div class=""stimulus-container"" style=""display: flex; width: 800px; justify-content: center; gap: 30px;"">
                                <img src=""images/semantic_sequence/maintaining_a_car_semantic/maintaining_a_car_semantic_8.png"" class=""small-image"">
                                <img src=""images/semantic_sequence/maintaining_a_car_semantic/maintaining_a_car_semantic_4.png"" class=""small-image"">
                            </div>","1","part3_choice_neighbors","maintaining_a_car_semantic","semantic_sequence","","","2","6","4","0",""
"","","","","","html-keyboard-response","65","325556","0.0-54.0-0.0","2D9786E199F44AAC9ACE66F0BA86C347","019db5e5-57bc-7114-81a2-dcbb91a720d3","019db5e1-c4eb-76d2-9e84-fe63359ddeee","","null","<div style=""font-family: Arial; margin-bottom: 20px;""><h3>Which image is worth <b>more money?</h3></div>
                            <div class=""stimulus-container"" style=""display: flex; width: 800px; justify-content: center; gap: 30px;"">
                                <img src=""images/semantic_sequence/self_care_activities_semantic/self_care_activities_semantic_5.png"" class=""small-image"">
                                <img src=""images/schematic_sequence/hotel_scheme/hotel_scheme_4.png"" class=""small-image"">
                            </div>","null","","","","","","","","","",""
"","","","","","html-button-response","66","325993","0.0-54.0-1.0","2D9786E199F44AAC9ACE66F0BA86C347","019db5e5-57bc-7114-81a2-dcbb91a720d3","019db5e1-c4eb-76d2-9e84-fe63359ddeee","","436","<div style=""font-family: Arial; margin-bottom: 20px;""><h3>Which image is worth <b>more money</b>?</h3></div>
                            <div class=""stimulus-container"" style=""display: flex; width: 800px; justify-content: center; gap: 30px;"">
                                <img src=""images/semantic_sequence/self_care_activities_semantic/self_care_activities_semantic_5.png"" class=""small-image"">
                                <img src=""images/schematic_sequence/hotel_scheme/hotel_scheme_4.png"" class=""small-image"">
                            </div>","1","part3_valuable_vs_neutral_direct","","","","","","","","","true"
"","","","","","html-keyboard-response","67","328997","0.0-55.0-0.0","2D9786E199F44AAC9ACE66F0BA86C347","019db5e5-57bc-7114-81a2-dcbb91a720d3","019db5e1-c4eb-76d2-9e84-fe63359ddeee","","null","
                            <div style=""font-family: Arial; margin-bottom: 20px;""><h3>Which image is worth <b>more money</b>?</h3></div>
                            <div class=""stimulus-container"" style=""display: flex; width: 800px; justify-content: center; gap: 30px;"">
                                <img src=""images/semantic_sequence/visiting_cities_semantic/visiting_cities_semantic_3.png"" class=""small-image"">
                                <img src=""images/semantic_sequence/visiting_cities_semantic/visiting_cities_semantic_9.png"" class=""small-image"">
                            </div>","null","","","","","","","","","",""
"","","","","","html-button-response","68","329429","0.0-55.0-1.0","2D9786E199F44AAC9ACE66F0BA86C347","019db5e5-57bc-7114-81a2-dcbb91a720d3","019db5e1-c4eb-76d2-9e84-fe63359ddeee","","431","
                            <div style=""font-family: Arial; margin-bottom: 20px;""><h3>Which image is worth <b>more money</b>?</h3></div>
                            <div class=""stimulus-container"" style=""display: flex; width: 800px; justify-content: center; gap: 30px;"">
                                <img src=""images/semantic_sequence/visiting_cities_semantic/visiting_cities_semantic_3.png"" class=""small-image"">
                                <img src=""images/semantic_sequence/visiting_cities_semantic/visiting_cities_semantic_9.png"" class=""small-image"">
                            </div>","0","part3_choice_neighbors","visiting_cities_semantic","semantic_sequence","","","3","6","3","0",""
"","","","","","html-keyboard-response","69","332431","0.0-56.0-0.0","2D9786E199F44AAC9ACE66F0BA86C347","019db5e5-57bc-7114-81a2-dcbb91a720d3","019db5e1-c4eb-76d2-9e84-fe63359ddeee","","null","
                            <div style=""font-family: Arial; margin-bottom: 20px;""><h3>Which image is worth <b>more money</b>?</h3></div>
                            <div class=""stimulus-container"" style=""display: flex; width: 800px; justify-content: center; gap: 30px;"">
                                <img src=""images/semantic_sequence/self_care_activities_semantic/self_care_activities_semantic_2.png"" class=""small-image"">
                                <img src=""images/semantic_sequence/self_care_activities_semantic/self_care_activities_semantic_8.png"" class=""small-image"">
                            </div>","null","","","","","","","","","",""
"","","","","","html-button-response","70","332804","0.0-56.0-1.0","2D9786E199F44AAC9ACE66F0BA86C347","019db5e5-57bc-7114-81a2-dcbb91a720d3","019db5e1-c4eb-76d2-9e84-fe63359ddeee","","372","
                            <div style=""font-family: Arial; margin-bottom: 20px;""><h3>Which image is worth <b>more money</b>?</h3></div>
                            <div class=""stimulus-container"" style=""display: flex; width: 800px; justify-content: center; gap: 30px;"">
                                <img src=""images/semantic_sequence/self_care_activities_semantic/self_care_activities_semantic_2.png"" class=""small-image"">
                                <img src=""images/semantic_sequence/self_care_activities_semantic/self_care_activities_semantic_8.png"" class=""small-image"">
                            </div>","1","part3_choice_neighbors","self_care_activities_semantic","semantic_sequence","","","3","5","8","1",""
"","","","","","html-keyboard-response","71","335807","0.0-57.0-0.0","2D9786E199F44AAC9ACE66F0BA86C347","019db5e5-57bc-7114-81a2-dcbb91a720d3","019db5e1-c4eb-76d2-9e84-fe63359ddeee","","null","
                            <div style=""font-family: Arial; margin-bottom: 20px;""><h3>Which image is worth <b>more money</b>?</h3></div>
                            <div class=""stimulus-container"" style=""display: flex; width: 800px; justify-content: center; gap: 30px;"">
                                <img src=""images/semantic_sequence/physical_activity_semantic/physical_activity_semantic_9.png"" class=""small-image"">
                                <img src=""images/semantic_sequence/physical_activity_semantic/physical_activity_semantic_5.png"" class=""small-image"">
                            </div>","null","","","","","","","","","",""
"","","","","","html-button-response","72","336254","0.0-57.0-1.0","2D9786E199F44AAC9ACE66F0BA86C347","019db5e5-57bc-7114-81a2-dcbb91a720d3","019db5e1-c4eb-76d2-9e84-fe63359ddeee","","444","
                            <div style=""font-family: Arial; margin-bottom: 20px;""><h3>Which image is worth <b>more money</b>?</h3></div>
                            <div class=""stimulus-container"" style=""display: flex; width: 800px; justify-content: center; gap: 30px;"">
                                <img src=""images/semantic_sequence/physical_activity_semantic/physical_activity_semantic_9.png"" class=""small-image"">
                                <img src=""images/semantic_sequence/physical_activity_semantic/physical_activity_semantic_5.png"" class=""small-image"">
                            </div>","1","part3_choice_neighbors","physical_activity_semantic","semantic_sequence","","","2","7","5","0",""
"","","","","","html-keyboard-response","73","339257","0.0-58.0-0.0","2D9786E199F44AAC9ACE66F0BA86C347","019db5e5-57bc-7114-81a2-dcbb91a720d3","019db5e1-c4eb-76d2-9e84-fe63359ddeee","","null","
                            <div style=""font-family: Arial; margin-bottom: 20px;""><h3>Which image is worth <b>more money</b>?</h3></div>
                            <div class=""stimulus-container"" style=""display: flex; width: 800px; justify-content: center; gap: 30px;"">
                                <img src=""images/semantic_sequence/visiting_cities_semantic/visiting_cities_semantic_5.png"" class=""small-image"">
                                <img src=""images/semantic_sequence/visiting_cities_semantic/visiting_cities_semantic_7.png"" class=""small-image"">
                            </div>","null","","","","","","","","","",""
"","","","","","html-button-response","74","340484","0.0-58.0-1.0","2D9786E199F44AAC9ACE66F0BA86C347","019db5e5-57bc-7114-81a2-dcbb91a720d3","019db5e1-c4eb-76d2-9e84-fe63359ddeee","","1225","
                            <div style=""font-family: Arial; margin-bottom: 20px;""><h3>Which image is worth <b>more money</b>?</h3></div>
                            <div class=""stimulus-container"" style=""display: flex; width: 800px; justify-content: center; gap: 30px;"">
                                <img src=""images/semantic_sequence/visiting_cities_semantic/visiting_cities_semantic_5.png"" class=""small-image"">
                                <img src=""images/semantic_sequence/visiting_cities_semantic/visiting_cities_semantic_7.png"" class=""small-image"">
                            </div>","1","part3_choice_neighbors","visiting_cities_semantic","semantic_sequence","","","1","6","7","1",""
"","","","","","html-keyboard-response","75","343487","0.0-59.0-0.0","2D9786E199F44AAC9ACE66F0BA86C347","019db5e5-57bc-7114-81a2-dcbb91a720d3","019db5e1-c4eb-76d2-9e84-fe63359ddeee","","null","
                            <div style=""font-family: Arial; margin-bottom: 20px;""><h3>Which image is worth <b>more money</b>?</h3></div>
                            <div class=""stimulus-container"" style=""display: flex; width: 800px; justify-content: center; gap: 30px;"">
                                <img src=""images/semantic_sequence/housework_semantic/housework_semantic_8.png"" class=""small-image"">
                                <img src=""images/semantic_sequence/housework_semantic/housework_semantic_6.png"" class=""small-image"">
                            </div>","null","","","","","","","","","",""
"","","","","","html-button-response","76","346305","0.0-59.0-1.0","2D9786E199F44AAC9ACE66F0BA86C347","019db5e5-57bc-7114-81a2-dcbb91a720d3","019db5e1-c4eb-76d2-9e84-fe63359ddeee","","2816","
                            <div style=""font-family: Arial; margin-bottom: 20px;""><h3>Which image is worth <b>more money</b>?</h3></div>
                            <div class=""stimulus-container"" style=""display: flex; width: 800px; justify-content: center; gap: 30px;"">
                                <img src=""images/semantic_sequence/housework_semantic/housework_semantic_8.png"" class=""small-image"">
                                <img src=""images/semantic_sequence/housework_semantic/housework_semantic_6.png"" class=""small-image"">
                            </div>","1","part3_choice_neighbors","housework_semantic","semantic_sequence","","","1","7","6","0",""
"","","","","","html-keyboard-response","77","349308","0.0-60.0-0.0","2D9786E199F44AAC9ACE66F0BA86C347","019db5e5-57bc-7114-81a2-dcbb91a720d3","019db5e1-c4eb-76d2-9e84-fe63359ddeee","","null","
                            <div style=""font-family: Arial; margin-bottom: 20px;""><h3>Which image is worth <b>more money</b>?</h3></div>
                            <div class=""stimulus-container"" style=""display: flex; width: 800px; justify-content: center; gap: 30px;"">
                                <img src=""images/semantic_sequence/kitchen_operations_semantic/kitchen_operations_semantic_3.png"" class=""small-image"">
                                <img src=""images/semantic_sequence/kitchen_operations_semantic/kitchen_operations_semantic_9.png"" class=""small-image"">
                            </div>","null","","","","","","","","","",""
"","","","","","html-button-response","78","349991","0.0-60.0-1.0","2D9786E199F44AAC9ACE66F0BA86C347","019db5e5-57bc-7114-81a2-dcbb91a720d3","019db5e1-c4eb-76d2-9e84-fe63359ddeee","","681","
                            <div style=""font-family: Arial; margin-bottom: 20px;""><h3>Which image is worth <b>more money</b>?</h3></div>
                            <div class=""stimulus-container"" style=""display: flex; width: 800px; justify-content: center; gap: 30px;"">
                                <img src=""images/semantic_sequence/kitchen_operations_semantic/kitchen_operations_semantic_3.png"" class=""small-image"">
                                <img src=""images/semantic_sequence/kitchen_operations_semantic/kitchen_operations_semantic_9.png"" class=""small-image"">
                            </div>","0","part3_choice_neighbors","kitchen_operations_semantic","semantic_sequence","","","3","6","3","0",""
"","","","","","html-keyboard-response","79","352994","0.0-61.0-0.0","2D9786E199F44AAC9ACE66F0BA86C347","019db5e5-57bc-7114-81a2-dcbb91a720d3","019db5e1-c4eb-76d2-9e84-fe63359ddeee","","null","
                            <div style=""font-family: Arial; margin-bottom: 20px;""><h3>Which image is worth <b>more money</b>?</h3></div>
                            <div class=""stimulus-container"" style=""display: flex; width: 800px; justify-content: center; gap: 30px;"">
                                <img src=""images/semantic_sequence/visiting_cities_semantic/visiting_cities_semantic_4.png"" class=""small-image"">
                                <img src=""images/semantic_sequence/visiting_cities_semantic/visiting_cities_semantic_8.png"" class=""small-image"">
                            </div>","null","","","","","","","","","",""
"","","","","","html-button-response","80","353603","0.0-61.0-1.0","2D9786E199F44AAC9ACE66F0BA86C347","019db5e5-57bc-7114-81a2-dcbb91a720d3","019db5e1-c4eb-76d2-9e84-fe63359ddeee","","607","
                            <div style=""font-family: Arial; margin-bottom: 20px;""><h3>Which image is worth <b>more money</b>?</h3></div>
                            <div class=""stimulus-container"" style=""display: flex; width: 800px; justify-content: center; gap: 30px;"">
                                <img src=""images/semantic_sequence/visiting_cities_semantic/visiting_cities_semantic_4.png"" class=""small-image"">
                                <img src=""images/semantic_sequence/visiting_cities_semantic/visiting_cities_semantic_8.png"" class=""small-image"">
                            </div>","0","part3_choice_neighbors","visiting_cities_semantic","semantic_sequence","","","2","6","4","0",""
"","","","","","html-keyboard-response","81","356605","0.0-62.0-0.0","2D9786E199F44AAC9ACE66F0BA86C347","019db5e5-57bc-7114-81a2-dcbb91a720d3","019db5e1-c4eb-76d2-9e84-fe63359ddeee","","null","
                            <div style=""font-family: Arial; margin-bottom: 20px;""><h3>Which image is worth <b>more money</b>?</h3></div>
                            <div class=""stimulus-container"" style=""display: flex; width: 800px; justify-content: center; gap: 30px;"">
                                <img src=""images/schematic_sequence/flight_scheme/flight_scheme_4.png"" class=""small-image"">
                                <img src=""images/schematic_sequence/flight_scheme/flight_scheme_6.png"" class=""small-image"">
                            </div>","null","","","","","","","","","",""
"","","","","","html-button-response","82","357056","0.0-62.0-1.0","2D9786E199F44AAC9ACE66F0BA86C347","019db5e5-57bc-7114-81a2-dcbb91a720d3","019db5e1-c4eb-76d2-9e84-fe63359ddeee","","449","
                            <div style=""font-family: Arial; margin-bottom: 20px;""><h3>Which image is worth <b>more money</b>?</h3></div>
                            <div class=""stimulus-container"" style=""display: flex; width: 800px; justify-content: center; gap: 30px;"">
                                <img src=""images/schematic_sequence/flight_scheme/flight_scheme_4.png"" class=""small-image"">
                                <img src=""images/schematic_sequence/flight_scheme/flight_scheme_6.png"" class=""small-image"">
                            </div>","1","part3_choice_neighbors","flight_scheme","schematic_sequence","","","1","5","6","1",""
"","","","","","html-keyboard-response","83","360059","0.0-63.0-0.0","2D9786E199F44AAC9ACE66F0BA86C347","019db5e5-57bc-7114-81a2-dcbb91a720d3","019db5e1-c4eb-76d2-9e84-fe63359ddeee","","null","
                            <div style=""font-family: Arial; margin-bottom: 20px;""><h3>Which image is worth <b>more money</b>?</h3></div>
                            <div class=""stimulus-container"" style=""display: flex; width: 800px; justify-content: center; gap: 30px;"">
                                <img src=""images/schematic_sequence/dinner_party_scheme/dinner_party_scheme_4.png"" class=""small-image"">
                                <img src=""images/schematic_sequence/dinner_party_scheme/dinner_party_scheme_ten.png"" class=""small-image"">
                            </div>","null","","","","","","","","","",""
"","","","","","html-button-response","84","361023","0.0-63.0-1.0","2D9786E199F44AAC9ACE66F0BA86C347","019db5e5-57bc-7114-81a2-dcbb91a720d3","019db5e1-c4eb-76d2-9e84-fe63359ddeee","","962","
                            <div style=""font-family: Arial; margin-bottom: 20px;""><h3>Which image is worth <b>more money</b>?</h3></div>
                            <div class=""stimulus-container"" style=""display: flex; width: 800px; justify-content: center; gap: 30px;"">
                                <img src=""images/schematic_sequence/dinner_party_scheme/dinner_party_scheme_4.png"" class=""small-image"">
                                <img src=""images/schematic_sequence/dinner_party_scheme/dinner_party_scheme_ten.png"" class=""small-image"">
                            </div>","0","part3_choice_neighbors","dinner_party_scheme","schematic_sequence","","","3","7","4","0",""
"","","","","","html-keyboard-response","85","364026","0.0-64.0-0.0","2D9786E199F44AAC9ACE66F0BA86C347","019db5e5-57bc-7114-81a2-dcbb91a720d3","019db5e1-c4eb-76d2-9e84-fe63359ddeee","","null","
                            <div style=""font-family: Arial; margin-bottom: 20px;""><h3>Which image is worth <b>more money</b>?</h3></div>
                            <div class=""stimulus-container"" style=""display: flex; width: 800px; justify-content: center; gap: 30px;"">
                                <img src=""images/schematic_sequence/hotel_scheme/hotel_scheme_6.png"" class=""small-image"">
                                <img src=""images/schematic_sequence/hotel_scheme/hotel_scheme_2.png"" class=""small-image"">
                            </div>","null","","","","","","","","","",""
"","","","","","html-button-response","86","364744","0.0-64.0-1.0","2D9786E199F44AAC9ACE66F0BA86C347","019db5e5-57bc-7114-81a2-dcbb91a720d3","019db5e1-c4eb-76d2-9e84-fe63359ddeee","","716","
                            <div style=""font-family: Arial; margin-bottom: 20px;""><h3>Which image is worth <b>more money</b>?</h3></div>
                            <div class=""stimulus-container"" style=""display: flex; width: 800px; justify-content: center; gap: 30px;"">
                                <img src=""images/schematic_sequence/hotel_scheme/hotel_scheme_6.png"" class=""small-image"">
                                <img src=""images/schematic_sequence/hotel_scheme/hotel_scheme_2.png"" class=""small-image"">
                            </div>","1","part3_choice_neighbors","hotel_scheme","schematic_sequence","","","2","4","2","0",""
"","","","","","html-keyboard-response","87","367746","0.0-65.0-0.0","2D9786E199F44AAC9ACE66F0BA86C347","019db5e5-57bc-7114-81a2-dcbb91a720d3","019db5e1-c4eb-76d2-9e84-fe63359ddeee","","null","
                            <div style=""font-family: Arial; margin-bottom: 20px;""><h3>Which image is worth <b>more money</b>?</h3></div>
                            <div class=""stimulus-container"" style=""display: flex; width: 800px; justify-content: center; gap: 30px;"">
                                <img src=""images/schematic_sequence/supermarket_scheme/supermarket_scheme_3.png"" class=""small-image"">
                                <img src=""images/schematic_sequence/supermarket_scheme/supermarket_scheme_5.png"" class=""small-image"">
                            </div>","null","","","","","","","","","",""
"","","","","","html-button-response","88","368100","0.0-65.0-1.0","2D9786E199F44AAC9ACE66F0BA86C347","019db5e5-57bc-7114-81a2-dcbb91a720d3","019db5e1-c4eb-76d2-9e84-fe63359ddeee","","353","
                            <div style=""font-family: Arial; margin-bottom: 20px;""><h3>Which image is worth <b>more money</b>?</h3></div>
                            <div class=""stimulus-container"" style=""display: flex; width: 800px; justify-content: center; gap: 30px;"">
                                <img src=""images/schematic_sequence/supermarket_scheme/supermarket_scheme_3.png"" class=""small-image"">
                                <img src=""images/schematic_sequence/supermarket_scheme/supermarket_scheme_5.png"" class=""small-image"">
                            </div>","1","part3_choice_neighbors","supermarket_scheme","schematic_sequence","","","1","4","5","1",""
"","","","","","html-keyboard-response","89","371102","0.0-66.0-0.0","2D9786E199F44AAC9ACE66F0BA86C347","019db5e5-57bc-7114-81a2-dcbb91a720d3","019db5e1-c4eb-76d2-9e84-fe63359ddeee","","null","<div style=""font-family: Arial; margin-bottom: 20px;""><h3>Which image is worth <b>more money?</h3></div>
                            <div class=""stimulus-container"" style=""display: flex; width: 800px; justify-content: center; gap: 30px;"">
                                <img src=""images/schematic_sequence/interview_scheme/interview_scheme_7.png"" class=""small-image"">
                                <img src=""images/semantic_sequence/housework_semantic/housework_semantic_7.png"" class=""small-image"">
                            </div>","null","","","","","","","","","",""
"","","","","","html-button-response","90","371722","0.0-66.0-1.0","2D9786E199F44AAC9ACE66F0BA86C347","019db5e5-57bc-7114-81a2-dcbb91a720d3","019db5e1-c4eb-76d2-9e84-fe63359ddeee","","619","<div style=""font-family: Arial; margin-bottom: 20px;""><h3>Which image is worth <b>more money</b>?</h3></div>
                            <div class=""stimulus-container"" style=""display: flex; width: 800px; justify-content: center; gap: 30px;"">
                                <img src=""images/schematic_sequence/interview_scheme/interview_scheme_7.png"" class=""small-image"">
                                <img src=""images/semantic_sequence/housework_semantic/housework_semantic_7.png"" class=""small-image"">
                            </div>","0","part3_valuable_vs_neutral_direct","","","","","","","","","true"
"","","","","","html-keyboard-response","91","374725","0.0-67.0-0.0","2D9786E199F44AAC9ACE66F0BA86C347","019db5e5-57bc-7114-81a2-dcbb91a720d3","019db5e1-c4eb-76d2-9e84-fe63359ddeee","","null","
                            <div style=""font-family: Arial; margin-bottom: 20px;""><h3>Which image is worth <b>more money</b>?</h3></div>
                            <div class=""stimulus-container"" style=""display: flex; width: 800px; justify-content: center; gap: 30px;"">
                                <img src=""images/semantic_sequence/housework_semantic/housework_semantic_5.png"" class=""small-image"">
                                <img src=""images/semantic_sequence/housework_semantic/housework_semantic_9.png"" class=""small-image"">
                            </div>","null","","","","","","","","","",""
"","","","","","html-button-response","92","375191","0.0-67.0-1.0","2D9786E199F44AAC9ACE66F0BA86C347","019db5e5-57bc-7114-81a2-dcbb91a720d3","019db5e1-c4eb-76d2-9e84-fe63359ddeee","","466","
                            <div style=""font-family: Arial; margin-bottom: 20px;""><h3>Which image is worth <b>more money</b>?</h3></div>
                            <div class=""stimulus-container"" style=""display: flex; width: 800px; justify-content: center; gap: 30px;"">
                                <img src=""images/semantic_sequence/housework_semantic/housework_semantic_5.png"" class=""small-image"">
                                <img src=""images/semantic_sequence/housework_semantic/housework_semantic_9.png"" class=""small-image"">
                            </div>","1","part3_choice_neighbors","housework_semantic","semantic_sequence","","","2","7","9","1",""
"","","","","","html-keyboard-response","93","378193","0.0-68.0-0.0","2D9786E199F44AAC9ACE66F0BA86C347","019db5e5-57bc-7114-81a2-dcbb91a720d3","019db5e1-c4eb-76d2-9e84-fe63359ddeee","","null","
                            <div style=""font-family: Arial; margin-bottom: 20px;""><h3>Which image is worth <b>more money</b>?</h3></div>
                            <div class=""stimulus-container"" style=""display: flex; width: 800px; justify-content: center; gap: 30px;"">
                                <img src=""images/schematic_sequence/hotel_scheme/hotel_scheme_5.png"" class=""small-image"">
                                <img src=""images/schematic_sequence/hotel_scheme/hotel_scheme_3.png"" class=""small-image"">
                            </div>","null","","","","","","","","","",""
"","","","","","html-button-response","94","379656","0.0-68.0-1.0","2D9786E199F44AAC9ACE66F0BA86C347","019db5e5-57bc-7114-81a2-dcbb91a720d3","019db5e1-c4eb-76d2-9e84-fe63359ddeee","","1462","
                            <div style=""font-family: Arial; margin-bottom: 20px;""><h3>Which image is worth <b>more money</b>?</h3></div>
                            <div class=""stimulus-container"" style=""display: flex; width: 800px; justify-content: center; gap: 30px;"">
                                <img src=""images/schematic_sequence/hotel_scheme/hotel_scheme_5.png"" class=""small-image"">
                                <img src=""images/schematic_sequence/hotel_scheme/hotel_scheme_3.png"" class=""small-image"">
                            </div>","1","part3_choice_neighbors","hotel_scheme","schematic_sequence","","","1","4","3","0",""
"","","","","","html-keyboard-response","95","382658","0.0-69.0-0.0","2D9786E199F44AAC9ACE66F0BA86C347","019db5e5-57bc-7114-81a2-dcbb91a720d3","019db5e1-c4eb-76d2-9e84-fe63359ddeee","","null","
                            <div style=""font-family: Arial; margin-bottom: 20px;""><h3>Which image is worth <b>more money</b>?</h3></div>
                            <div class=""stimulus-container"" style=""display: flex; width: 800px; justify-content: center; gap: 30px;"">
                                <img src=""images/semantic_sequence/kitchen_operations_semantic/kitchen_operations_semantic_5.png"" class=""small-image"">
                                <img src=""images/semantic_sequence/kitchen_operations_semantic/kitchen_operations_semantic_7.png"" class=""small-image"">
                            </div>","null","","","","","","","","","",""
"","","","","","html-button-response","96","383708","0.0-69.0-1.0","2D9786E199F44AAC9ACE66F0BA86C347","019db5e5-57bc-7114-81a2-dcbb91a720d3","019db5e1-c4eb-76d2-9e84-fe63359ddeee","","1047","
                            <div style=""font-family: Arial; margin-bottom: 20px;""><h3>Which image is worth <b>more money</b>?</h3></div>
                            <div class=""stimulus-container"" style=""display: flex; width: 800px; justify-content: center; gap: 30px;"">
                                <img src=""images/semantic_sequence/kitchen_operations_semantic/kitchen_operations_semantic_5.png"" class=""small-image"">
                                <img src=""images/semantic_sequence/kitchen_operations_semantic/kitchen_operations_semantic_7.png"" class=""small-image"">
                            </div>","0","part3_choice_neighbors","kitchen_operations_semantic","semantic_sequence","","","1","6","5","0",""
"","","","","","html-keyboard-response","97","386711","0.0-70.0-0.0","2D9786E199F44AAC9ACE66F0BA86C347","019db5e5-57bc-7114-81a2-dcbb91a720d3","019db5e1-c4eb-76d2-9e84-fe63359ddeee","","null","
                            <div style=""font-family: Arial; margin-bottom: 20px;""><h3>Which image is worth <b>more money</b>?</h3></div>
                            <div class=""stimulus-container"" style=""display: flex; width: 800px; justify-content: center; gap: 30px;"">
                                <img src=""images/schematic_sequence/dinner_party_scheme/dinner_party_scheme_5.png"" class=""small-image"">
                                <img src=""images/schematic_sequence/dinner_party_scheme/dinner_party_scheme_9.png"" class=""small-image"">
                            </div>","null","","","","","","","","","",""
"","","","","","html-button-response","98","387194","0.0-70.0-1.0","2D9786E199F44AAC9ACE66F0BA86C347","019db5e5-57bc-7114-81a2-dcbb91a720d3","019db5e1-c4eb-76d2-9e84-fe63359ddeee","","481","
                            <div style=""font-family: Arial; margin-bottom: 20px;""><h3>Which image is worth <b>more money</b>?</h3></div>
                            <div class=""stimulus-container"" style=""display: flex; width: 800px; justify-content: center; gap: 30px;"">
                                <img src=""images/schematic_sequence/dinner_party_scheme/dinner_party_scheme_5.png"" class=""small-image"">
                                <img src=""images/schematic_sequence/dinner_party_scheme/dinner_party_scheme_9.png"" class=""small-image"">
                            </div>","0","part3_choice_neighbors","dinner_party_scheme","schematic_sequence","","","2","7","5","0",""
"","","","","","html-keyboard-response","99","390197","0.0-71.0-0.0","2D9786E199F44AAC9ACE66F0BA86C347","019db5e5-57bc-7114-81a2-dcbb91a720d3","019db5e1-c4eb-76d2-9e84-fe63359ddeee","","null","
                            <div style=""font-family: Arial; margin-bottom: 20px;""><h3>Which image is worth <b>more money</b>?</h3></div>
                            <div class=""stimulus-container"" style=""display: flex; width: 800px; justify-content: center; gap: 30px;"">
                                <img src=""images/schematic_sequence/restaurant_scheme/restaurant_scheme_4.png"" class=""small-image"">
                                <img src=""images/schematic_sequence/restaurant_scheme/restaurant_scheme_6.png"" class=""small-image"">
                            </div>","null","","","","","","","","","",""
"","","","","","html-button-response","100","390563","0.0-71.0-1.0","2D9786E199F44AAC9ACE66F0BA86C347","019db5e5-57bc-7114-81a2-dcbb91a720d3","019db5e1-c4eb-76d2-9e84-fe63359ddeee","","364","
                            <div style=""font-family: Arial; margin-bottom: 20px;""><h3>Which image is worth <b>more money</b>?</h3></div>
                            <div class=""stimulus-container"" style=""display: flex; width: 800px; justify-content: center; gap: 30px;"">
                                <img src=""images/schematic_sequence/restaurant_scheme/restaurant_scheme_4.png"" class=""small-image"">
                                <img src=""images/schematic_sequence/restaurant_scheme/restaurant_scheme_6.png"" class=""small-image"">
                            </div>","0","part3_choice_neighbors","restaurant_scheme","schematic_sequence","","","1","5","4","0",""
"","","","","","html-keyboard-response","101","393566","0.0-72.0-0.0","2D9786E199F44AAC9ACE66F0BA86C347","019db5e5-57bc-7114-81a2-dcbb91a720d3","019db5e1-c4eb-76d2-9e84-fe63359ddeee","","null","<div style=""font-family: Arial; margin-bottom: 20px;""><h3>Which image is worth <b>more money?</h3></div>
                            <div class=""stimulus-container"" style=""display: flex; width: 800px; justify-content: center; gap: 30px;"">
                                <img src=""images/schematic_sequence/dinner_party_scheme/dinner_party_scheme_7.png"" class=""small-image"">
                                <img src=""images/schematic_sequence/supermarket_scheme/supermarket_scheme_4.png"" class=""small-image"">
                            </div>","null","","","","","","","","","",""
"","","","","","html-button-response","102","394109","0.0-72.0-1.0","2D9786E199F44AAC9ACE66F0BA86C347","019db5e5-57bc-7114-81a2-dcbb91a720d3","019db5e1-c4eb-76d2-9e84-fe63359ddeee","","541","<div style=""font-family: Arial; margin-bottom: 20px;""><h3>Which image is worth <b>more money</b>?</h3></div>
                            <div class=""stimulus-container"" style=""display: flex; width: 800px; justify-content: center; gap: 30px;"">
                                <img src=""images/schematic_sequence/dinner_party_scheme/dinner_party_scheme_7.png"" class=""small-image"">
                                <img src=""images/schematic_sequence/supermarket_scheme/supermarket_scheme_4.png"" class=""small-image"">
                            </div>","0","part3_valuable_vs_neutral_direct","","","","","","","","","false"
"","","","","","html-keyboard-response","103","397112","0.0-73.0-0.0","2D9786E199F44AAC9ACE66F0BA86C347","019db5e5-57bc-7114-81a2-dcbb91a720d3","019db5e1-c4eb-76d2-9e84-fe63359ddeee","","null","
                            <div style=""font-family: Arial; margin-bottom: 20px;""><h3>Which image is worth <b>more money</b>?</h3></div>
                            <div class=""stimulus-container"" style=""display: flex; width: 800px; justify-content: center; gap: 30px;"">
                                <img src=""images/schematic_sequence/restaurant_scheme/restaurant_scheme_7.png"" class=""small-image"">
                                <img src=""images/schematic_sequence/restaurant_scheme/restaurant_scheme_3.png"" class=""small-image"">
                            </div>","null","","","","","","","","","",""
"","","","","","html-button-response","104","397727","0.0-73.0-1.0","2D9786E199F44AAC9ACE66F0BA86C347","019db5e5-57bc-7114-81a2-dcbb91a720d3","019db5e1-c4eb-76d2-9e84-fe63359ddeee","","613","
                            <div style=""font-family: Arial; margin-bottom: 20px;""><h3>Which image is worth <b>more money</b>?</h3></div>
                            <div class=""stimulus-container"" style=""display: flex; width: 800px; justify-content: center; gap: 30px;"">
                                <img src=""images/schematic_sequence/restaurant_scheme/restaurant_scheme_7.png"" class=""small-image"">
                                <img src=""images/schematic_sequence/restaurant_scheme/restaurant_scheme_3.png"" class=""small-image"">
                            </div>","1","part3_choice_neighbors","restaurant_scheme","schematic_sequence","","","2","5","3","0",""
"","","","","","html-keyboard-response","105","400731","0.0-74.0-0.0","2D9786E199F44AAC9ACE66F0BA86C347","019db5e5-57bc-7114-81a2-dcbb91a720d3","019db5e1-c4eb-76d2-9e84-fe63359ddeee","","null","
                            <div style=""font-family: Arial; margin-bottom: 20px;""><h3>Which image is worth <b>more money</b>?</h3></div>
                            <div class=""stimulus-container"" style=""display: flex; width: 800px; justify-content: center; gap: 30px;"">
                                <img src=""images/semantic_sequence/self_care_activities_semantic/self_care_activities_semantic_3.png"" class=""small-image"">
                                <img src=""images/semantic_sequence/self_care_activities_semantic/self_care_activities_semantic_7.png"" class=""small-image"">
                            </div>","null","","","","","","","","","",""
"","","","","","html-button-response","106","401415","0.0-74.0-1.0","2D9786E199F44AAC9ACE66F0BA86C347","019db5e5-57bc-7114-81a2-dcbb91a720d3","019db5e1-c4eb-76d2-9e84-fe63359ddeee","","682","
                            <div style=""font-family: Arial; margin-bottom: 20px;""><h3>Which image is worth <b>more money</b>?</h3></div>
                            <div class=""stimulus-container"" style=""display: flex; width: 800px; justify-content: center; gap: 30px;"">
                                <img src=""images/semantic_sequence/self_care_activities_semantic/self_care_activities_semantic_3.png"" class=""small-image"">
                                <img src=""images/semantic_sequence/self_care_activities_semantic/self_care_activities_semantic_7.png"" class=""small-image"">
                            </div>","0","part3_choice_neighbors","self_care_activities_semantic","semantic_sequence","","","2","5","3","0",""
"","","","","","html-keyboard-response","107","404417","0.0-75.0-0.0","2D9786E199F44AAC9ACE66F0BA86C347","019db5e5-57bc-7114-81a2-dcbb91a720d3","019db5e1-c4eb-76d2-9e84-fe63359ddeee","","null","<div style=""font-family: Arial; margin-bottom: 20px;""><h3>Which image is worth <b>more money?</h3></div>
                            <div class=""stimulus-container"" style=""display: flex; width: 800px; justify-content: center; gap: 30px;"">
                                <img src=""images/semantic_sequence/visiting_cities_semantic/visiting_cities_semantic_6.png"" class=""small-image"">
                                <img src=""images/schematic_sequence/restaurant_scheme/restaurant_scheme_5.png"" class=""small-image"">
                            </div>","null","","","","","","","","","",""
"","","","","","html-button-response","108","404825","0.0-75.0-1.0","2D9786E199F44AAC9ACE66F0BA86C347","019db5e5-57bc-7114-81a2-dcbb91a720d3","019db5e1-c4eb-76d2-9e84-fe63359ddeee","","407","<div style=""font-family: Arial; margin-bottom: 20px;""><h3>Which image is worth <b>more money</b>?</h3></div>
                            <div class=""stimulus-container"" style=""display: flex; width: 800px; justify-content: center; gap: 30px;"">
                                <img src=""images/semantic_sequence/visiting_cities_semantic/visiting_cities_semantic_6.png"" class=""small-image"">
                                <img src=""images/schematic_sequence/restaurant_scheme/restaurant_scheme_5.png"" class=""small-image"">
                            </div>","1","part3_valuable_vs_neutral_direct","","","","","","","","","false"
"","","","","","html-keyboard-response","109","407827","0.0-76.0-0.0","2D9786E199F44AAC9ACE66F0BA86C347","019db5e5-57bc-7114-81a2-dcbb91a720d3","019db5e1-c4eb-76d2-9e84-fe63359ddeee","","null","
                            <div style=""font-family: Arial; margin-bottom: 20px;""><h3>Which image is worth <b>more money</b>?</h3></div>
                            <div class=""stimulus-container"" style=""display: flex; width: 800px; justify-content: center; gap: 30px;"">
                                <img src=""images/schematic_sequence/supermarket_scheme/supermarket_scheme_2.png"" class=""small-image"">
                                <img src=""images/schematic_sequence/supermarket_scheme/supermarket_scheme_6.png"" class=""small-image"">
                            </div>","null","","","","","","","","","",""
"","","","","","html-button-response","110","408559","0.0-76.0-1.0","2D9786E199F44AAC9ACE66F0BA86C347","019db5e5-57bc-7114-81a2-dcbb91a720d3","019db5e1-c4eb-76d2-9e84-fe63359ddeee","","730","
                            <div style=""font-family: Arial; margin-bottom: 20px;""><h3>Which image is worth <b>more money</b>?</h3></div>
                            <div class=""stimulus-container"" style=""display: flex; width: 800px; justify-content: center; gap: 30px;"">
                                <img src=""images/schematic_sequence/supermarket_scheme/supermarket_scheme_2.png"" class=""small-image"">
                                <img src=""images/schematic_sequence/supermarket_scheme/supermarket_scheme_6.png"" class=""small-image"">
                            </div>","1","part3_choice_neighbors","supermarket_scheme","schematic_sequence","","","2","4","6","1",""
"","","","","","html-keyboard-response","111","411563","0.0-77.0-0.0","2D9786E199F44AAC9ACE66F0BA86C347","019db5e5-57bc-7114-81a2-dcbb91a720d3","019db5e1-c4eb-76d2-9e84-fe63359ddeee","","null","
                            <div style=""font-family: Arial; margin-bottom: 20px;""><h3>Which image is worth <b>more money</b>?</h3></div>
                            <div class=""stimulus-container"" style=""display: flex; width: 800px; justify-content: center; gap: 30px;"">
                                <img src=""images/schematic_sequence/supermarket_scheme/supermarket_scheme_7.png"" class=""small-image"">
                                <img src=""images/schematic_sequence/supermarket_scheme/supermarket_scheme_1.png"" class=""small-image"">
                            </div>","null","","","","","","","","","",""
"","","","","","html-button-response","112","413544","0.0-77.0-1.0","2D9786E199F44AAC9ACE66F0BA86C347","019db5e5-57bc-7114-81a2-dcbb91a720d3","019db5e1-c4eb-76d2-9e84-fe63359ddeee","","1980","
                            <div style=""font-family: Arial; margin-bottom: 20px;""><h3>Which image is worth <b>more money</b>?</h3></div>
                            <div class=""stimulus-container"" style=""display: flex; width: 800px; justify-content: center; gap: 30px;"">
                                <img src=""images/schematic_sequence/supermarket_scheme/supermarket_scheme_7.png"" class=""small-image"">
                                <img src=""images/schematic_sequence/supermarket_scheme/supermarket_scheme_1.png"" class=""small-image"">
                            </div>","0","part3_choice_neighbors","supermarket_scheme","schematic_sequence","","","3","4","7","1",""
"","","","","","html-keyboard-response","113","416547","0.0-78.0-0.0","2D9786E199F44AAC9ACE66F0BA86C347","019db5e5-57bc-7114-81a2-dcbb91a720d3","019db5e1-c4eb-76d2-9e84-fe63359ddeee","","null","
                            <div style=""font-family: Arial; margin-bottom: 20px;""><h3>Which image is worth <b>more money</b>?</h3></div>
                            <div class=""stimulus-container"" style=""display: flex; width: 800px; justify-content: center; gap: 30px;"">
                                <img src=""images/semantic_sequence/maintaining_a_car_semantic/maintaining_a_car_semantic_7.png"" class=""small-image"">
                                <img src=""images/semantic_sequence/maintaining_a_car_semantic/maintaining_a_car_semantic_5.png"" class=""small-image"">
                            </div>","null","","","","","","","","","",""
"","","","","","html-button-response","114","417126","0.0-78.0-1.0","2D9786E199F44AAC9ACE66F0BA86C347","019db5e5-57bc-7114-81a2-dcbb91a720d3","019db5e1-c4eb-76d2-9e84-fe63359ddeee","","576","
                            <div style=""font-family: Arial; margin-bottom: 20px;""><h3>Which image is worth <b>more money</b>?</h3></div>
                            <div class=""stimulus-container"" style=""display: flex; width: 800px; justify-content: center; gap: 30px;"">
                                <img src=""images/semantic_sequence/maintaining_a_car_semantic/maintaining_a_car_semantic_7.png"" class=""small-image"">
                                <img src=""images/semantic_sequence/maintaining_a_car_semantic/maintaining_a_car_semantic_5.png"" class=""small-image"">
                            </div>","0","part3_choice_neighbors","maintaining_a_car_semantic","semantic_sequence","","","1","6","7","1",""
"","","","","","html-keyboard-response","115","420128","0.0-79.0-0.0","2D9786E199F44AAC9ACE66F0BA86C347","019db5e5-57bc-7114-81a2-dcbb91a720d3","019db5e1-c4eb-76d2-9e84-fe63359ddeee","","null","
                            <div style=""font-family: Arial; margin-bottom: 20px;""><h3>Which image is worth <b>more money</b>?</h3></div>
                            <div class=""stimulus-container"" style=""display: flex; width: 800px; justify-content: center; gap: 30px;"">
                                <img src=""images/schematic_sequence/interview_scheme/interview_scheme_9.png"" class=""small-image"">
                                <img src=""images/schematic_sequence/interview_scheme/interview_scheme_5.png"" class=""small-image"">
                            </div>","null","","","","","","","","","",""
"","","","","","html-button-response","116","420510","0.0-79.0-1.0","2D9786E199F44AAC9ACE66F0BA86C347","019db5e5-57bc-7114-81a2-dcbb91a720d3","019db5e1-c4eb-76d2-9e84-fe63359ddeee","","379","
                            <div style=""font-family: Arial; margin-bottom: 20px;""><h3>Which image is worth <b>more money</b>?</h3></div>
                            <div class=""stimulus-container"" style=""display: flex; width: 800px; justify-content: center; gap: 30px;"">
                                <img src=""images/schematic_sequence/interview_scheme/interview_scheme_9.png"" class=""small-image"">
                                <img src=""images/schematic_sequence/interview_scheme/interview_scheme_5.png"" class=""small-image"">
                            </div>","1","part3_choice_neighbors","interview_scheme","schematic_sequence","","","2","7","5","0",""
"","","","","","html-keyboard-response","117","423513","0.0-80.0-0.0","2D9786E199F44AAC9ACE66F0BA86C347","019db5e5-57bc-7114-81a2-dcbb91a720d3","019db5e1-c4eb-76d2-9e84-fe63359ddeee","","null","
                            <div style=""font-family: Arial; margin-bottom: 20px;""><h3>Which image is worth <b>more money</b>?</h3></div>
                            <div class=""stimulus-container"" style=""display: flex; width: 800px; justify-content: center; gap: 30px;"">
                                <img src=""images/semantic_sequence/maintaining_a_car_semantic/maintaining_a_car_semantic_9.png"" class=""small-image"">
                                <img src=""images/semantic_sequence/maintaining_a_car_semantic/maintaining_a_car_semantic_3.png"" class=""small-image"">
                            </div>","null","","","","","","","","","",""
"","","","","","html-button-response","118","423960","0.0-80.0-1.0","2D9786E199F44AAC9ACE66F0BA86C347","019db5e5-57bc-7114-81a2-dcbb91a720d3","019db5e1-c4eb-76d2-9e84-fe63359ddeee","","445","
                            <div style=""font-family: Arial; margin-bottom: 20px;""><h3>Which image is worth <b>more money</b>?</h3></div>
                            <div class=""stimulus-container"" style=""display: flex; width: 800px; justify-content: center; gap: 30px;"">
                                <img src=""images/semantic_sequence/maintaining_a_car_semantic/maintaining_a_car_semantic_9.png"" class=""small-image"">
                                <img src=""images/semantic_sequence/maintaining_a_car_semantic/maintaining_a_car_semantic_3.png"" class=""small-image"">
                            </div>","1","part3_choice_neighbors","maintaining_a_car_semantic","semantic_sequence","","","3","6","3","0",""
"","","","","","html-keyboard-response","119","426964","0.0-81.0-0.0","2D9786E199F44AAC9ACE66F0BA86C347","019db5e5-57bc-7114-81a2-dcbb91a720d3","019db5e1-c4eb-76d2-9e84-fe63359ddeee","","null","
                            <div style=""font-family: Arial; margin-bottom: 20px;""><h3>Which image is worth <b>more money</b>?</h3></div>
                            <div class=""stimulus-container"" style=""display: flex; width: 800px; justify-content: center; gap: 30px;"">
                                <img src=""images/semantic_sequence/physical_activity_semantic/physical_activity_semantic_ten.png"" class=""small-image"">
                                <img src=""images/semantic_sequence/physical_activity_semantic/physical_activity_semantic_4.png"" class=""small-image"">
                            </div>","null","","","","","","","","","",""
"","","","","","html-button-response","120","428434","0.0-81.0-1.0","2D9786E199F44AAC9ACE66F0BA86C347","019db5e5-57bc-7114-81a2-dcbb91a720d3","019db5e1-c4eb-76d2-9e84-fe63359ddeee","","1468","
                            <div style=""font-family: Arial; margin-bottom: 20px;""><h3>Which image is worth <b>more money</b>?</h3></div>
                            <div class=""stimulus-container"" style=""display: flex; width: 800px; justify-content: center; gap: 30px;"">
                                <img src=""images/semantic_sequence/physical_activity_semantic/physical_activity_semantic_ten.png"" class=""small-image"">
                                <img src=""images/semantic_sequence/physical_activity_semantic/physical_activity_semantic_4.png"" class=""small-image"">
                            </div>","0","part3_choice_neighbors","physical_activity_semantic","semantic_sequence","","","3","7","10","1",""
"","","","","","html-keyboard-response","121","431437","0.0-82.0-0.0","2D9786E199F44AAC9ACE66F0BA86C347","019db5e5-57bc-7114-81a2-dcbb91a720d3","019db5e1-c4eb-76d2-9e84-fe63359ddeee","","null","<div style=""font-family: Arial; margin-bottom: 20px;""><h3>Which image is worth <b>more money?</h3></div>
                            <div class=""stimulus-container"" style=""display: flex; width: 800px; justify-content: center; gap: 30px;"">
                                <img src=""images/semantic_sequence/physical_activity_semantic/physical_activity_semantic_7.png"" class=""small-image"">
                                <img src=""images/semantic_sequence/maintaining_a_car_semantic/maintaining_a_car_semantic_6.png"" class=""small-image"">
                            </div>","null","","","","","","","","","",""
"","","","","","html-button-response","122","433707","0.0-82.0-1.0","2D9786E199F44AAC9ACE66F0BA86C347","019db5e5-57bc-7114-81a2-dcbb91a720d3","019db5e1-c4eb-76d2-9e84-fe63359ddeee","","2268","<div style=""font-family: Arial; margin-bottom: 20px;""><h3>Which image is worth <b>more money</b>?</h3></div>
                            <div class=""stimulus-container"" style=""display: flex; width: 800px; justify-content: center; gap: 30px;"">
                                <img src=""images/semantic_sequence/physical_activity_semantic/physical_activity_semantic_7.png"" class=""small-image"">
                                <img src=""images/semantic_sequence/maintaining_a_car_semantic/maintaining_a_car_semantic_6.png"" class=""small-image"">
                            </div>","1","part3_valuable_vs_neutral_direct","","","","","","","","","false"
"","","","","","html-keyboard-response","123","436710","0.0-83.0-0.0","2D9786E199F44AAC9ACE66F0BA86C347","019db5e5-57bc-7114-81a2-dcbb91a720d3","019db5e1-c4eb-76d2-9e84-fe63359ddeee","","null","
                            <div style=""font-family: Arial; margin-bottom: 20px;""><h3>Which image is worth <b>more money</b>?</h3></div>
                            <div class=""stimulus-container"" style=""display: flex; width: 800px; justify-content: center; gap: 30px;"">
                                <img src=""images/semantic_sequence/self_care_activities_semantic/self_care_activities_semantic_4.png"" class=""small-image"">
                                <img src=""images/semantic_sequence/self_care_activities_semantic/self_care_activities_semantic_6.png"" class=""small-image"">
                            </div>","null","","","","","","","","","",""
"","","","","","html-button-response","124","442365","0.0-83.0-1.0","2D9786E199F44AAC9ACE66F0BA86C347","019db5e5-57bc-7114-81a2-dcbb91a720d3","019db5e1-c4eb-76d2-9e84-fe63359ddeee","","5653","
                            <div style=""font-family: Arial; margin-bottom: 20px;""><h3>Which image is worth <b>more money</b>?</h3></div>
                            <div class=""stimulus-container"" style=""display: flex; width: 800px; justify-content: center; gap: 30px;"">
                                <img src=""images/semantic_sequence/self_care_activities_semantic/self_care_activities_semantic_4.png"" class=""small-image"">
                                <img src=""images/semantic_sequence/self_care_activities_semantic/self_care_activities_semantic_6.png"" class=""small-image"">
                            </div>","0","part3_choice_neighbors","self_care_activities_semantic","semantic_sequence","","","1","5","4","0",""
"","","","","","html-keyboard-response","125","445368","0.0-84.0-0.0","2D9786E199F44AAC9ACE66F0BA86C347","019db5e5-57bc-7114-81a2-dcbb91a720d3","019db5e1-c4eb-76d2-9e84-fe63359ddeee","","null","
                            <div style=""font-family: Arial; margin-bottom: 20px;""><h3>Which image is worth <b>more money</b>?</h3></div>
                            <div class=""stimulus-container"" style=""display: flex; width: 800px; justify-content: center; gap: 30px;"">
                                <img src=""images/schematic_sequence/interview_scheme/interview_scheme_4.png"" class=""small-image"">
                                <img src=""images/schematic_sequence/interview_scheme/interview_scheme_ten.png"" class=""small-image"">
                            </div>","null","","","","","","","","","",""
"","","","","","html-button-response","126","446359","0.0-84.0-1.0","2D9786E199F44AAC9ACE66F0BA86C347","019db5e5-57bc-7114-81a2-dcbb91a720d3","019db5e1-c4eb-76d2-9e84-fe63359ddeee","","989","
                            <div style=""font-family: Arial; margin-bottom: 20px;""><h3>Which image is worth <b>more money</b>?</h3></div>
                            <div class=""stimulus-container"" style=""display: flex; width: 800px; justify-content: center; gap: 30px;"">
                                <img src=""images/schematic_sequence/interview_scheme/interview_scheme_4.png"" class=""small-image"">
                                <img src=""images/schematic_sequence/interview_scheme/interview_scheme_ten.png"" class=""small-image"">
                            </div>","1","part3_choice_neighbors","interview_scheme","schematic_sequence","","","3","7","10","1",""
"","","","","","survey-text","127","477825","0.0-85.0","2D9786E199F44AAC9ACE66F0BA86C347","019db5e5-57bc-7114-81a2-dcbb91a720d3","019db5e1-c4eb-76d2-9e84-fe63359ddeee","","31462","","{""gender"":""MALE"",""age"":""25"",""decision_strategy"":""What seemed most similar to things that were worth money in the first part."",""consistency_check"":""Yes, unless I remembered an image was identical from the first part.""}","demographics_and_strategy","","","","","","","","",""
"","","","","","instructions","128","480376","0.0-86.0","2D9786E199F44AAC9ACE66F0BA86C347","019db5e5-57bc-7114-81a2-dcbb91a720d3","019db5e1-c4eb-76d2-9e84-fe63359ddeee","[{""page_index"":0,""viewing_time"":2549}]","2550","","","","","","","","","","","",""
