"success","timeout","failed_images","failed_audio","failed_video","trial_type","trial_index","time_elapsed","internal_node_id","subject_id","study_id","session_id","view_history","rt","stimulus","response","task","image_index","folder","sequence_type","presentation_order","valuable_image_index","reward_type","correct_choice","distance_from_x","target_X","chosen_image_index","is_x_plus_dist"
"true","false","[]","[]","[]","preload","0","5148","0.0-0.0","059CFA9B63DD4F2A896E14D75DACB6BF","019cfc81-2684-75e7-aa88-fb572255f379","019cfc7b-6c7b-7b1b-afe7-acad8efc6711","","","","","","","","","","","","","","","",""
"","","","","","instructions","1","15389","0.0-1.0","059CFA9B63DD4F2A896E14D75DACB6BF","019cfc81-2684-75e7-aa88-fb572255f379","019cfc7b-6c7b-7b1b-afe7-acad8efc6711","[{""page_index"":0,""viewing_time"":10240}]","10240","","","","","","","","","","","","","",""
"","","","","","instructions","2","19023","0.0-2.0","059CFA9B63DD4F2A896E14D75DACB6BF","019cfc81-2684-75e7-aa88-fb572255f379","019cfc7b-6c7b-7b1b-afe7-acad8efc6711","[{""page_index"":0,""viewing_time"":3632}]","3633","","","","","","","","","","","","","",""
"true","","","","","fullscreen","3","21384","0.0-3.0","059CFA9B63DD4F2A896E14D75DACB6BF","019cfc81-2684-75e7-aa88-fb572255f379","019cfc7b-6c7b-7b1b-afe7-acad8efc6711","","1358","","","","","","","","","","","","","",""
"","","","","","instructions","4","29607","0.0-4.0","059CFA9B63DD4F2A896E14D75DACB6BF","019cfc81-2684-75e7-aa88-fb572255f379","019cfc7b-6c7b-7b1b-afe7-acad8efc6711","[{""page_index"":0,""viewing_time"":8221}]","8221","","","","","","","","","","","","","",""
"","","","","","instructions","5","38920","0.0-5.0","059CFA9B63DD4F2A896E14D75DACB6BF","019cfc81-2684-75e7-aa88-fb572255f379","019cfc7b-6c7b-7b1b-afe7-acad8efc6711","[{""page_index"":0,""viewing_time"":9313}]","9313","","","","","","","","","","","","","",""
"","","","","","html-keyboard-response","6","42923","0.0-6.0","059CFA9B63DD4F2A896E14D75DACB6BF","019cfc81-2684-75e7-aa88-fb572255f379","019cfc7b-6c7b-7b1b-afe7-acad8efc6711","","null","
                <div class=""stimulus-container"">
                    <img src=""images/instructions/movie_1.png"" class=""exp-image"">
                    <div class=""question-area""></div> 
                </div>","null","","","","","","","","","","","",""
"","","","","","html-button-response","7","45925","0.0-7.0","059CFA9B63DD4F2A896E14D75DACB6BF","019cfc81-2684-75e7-aa88-fb572255f379","019cfc7b-6c7b-7b1b-afe7-acad8efc6711","","null","
                <div class=""stimulus-container"">
                    <img src=""images/instructions/movie_1.png"" class=""exp-image"">
                    <div class=""question-area"">
                        <p style=""font-size: 20px; font-weight: bold; margin: 0;"">Was there a person in this image?</p>
                    </div>
                </div>","null","example_question","1","","","","","","","","","",""
"","","","","","html-keyboard-response","8","49927","0.0-8.0","059CFA9B63DD4F2A896E14D75DACB6BF","019cfc81-2684-75e7-aa88-fb572255f379","019cfc7b-6c7b-7b1b-afe7-acad8efc6711","","null","
                <div class=""stimulus-container"">
                    <img src=""images/instructions/movie_2.png"" class=""exp-image"">
                    <div class=""question-area""></div> 
                </div>","null","","","","","","","","","","","",""
"","","","","","html-button-response","9","51066","0.0-9.0","059CFA9B63DD4F2A896E14D75DACB6BF","019cfc81-2684-75e7-aa88-fb572255f379","019cfc7b-6c7b-7b1b-afe7-acad8efc6711","","1138","
                <div class=""stimulus-container"">
                    <img src=""images/instructions/movie_2.png"" class=""exp-image"">
                    <div class=""question-area"">
                        <p style=""font-size: 20px; font-weight: bold; margin: 0;"">Was there a person in this image?</p>
                    </div>
                </div>","0","example_question","2","","","","","","","","","",""
"","","","","","html-keyboard-response","10","55068","0.0-10.0","059CFA9B63DD4F2A896E14D75DACB6BF","019cfc81-2684-75e7-aa88-fb572255f379","019cfc7b-6c7b-7b1b-afe7-acad8efc6711","","null","
                <div class=""stimulus-container"">
                    <img src=""images/instructions/movie_3.png"" class=""exp-image"">
                    <div class=""question-area""></div> 
                </div>","null","","","","","","","","","","","",""
"","","","","","html-button-response","11","55790","0.0-11.0","059CFA9B63DD4F2A896E14D75DACB6BF","019cfc81-2684-75e7-aa88-fb572255f379","019cfc7b-6c7b-7b1b-afe7-acad8efc6711","","721","
                <div class=""stimulus-container"">
                    <img src=""images/instructions/movie_3.png"" class=""exp-image"">
                    <div class=""question-area"">
                        <p style=""font-size: 20px; font-weight: bold; margin: 0;"">Was there a person in this image?</p>
                    </div>
                </div>","0","example_question","3","","","","","","","","","",""
"","","","","","html-keyboard-response","12","59792","0.0-12.0","059CFA9B63DD4F2A896E14D75DACB6BF","019cfc81-2684-75e7-aa88-fb572255f379","019cfc7b-6c7b-7b1b-afe7-acad8efc6711","","null","
                <div class=""stimulus-container"">
                    <img src=""images/instructions/movie_4.png"" class=""exp-image"">
                    <div class=""question-area""></div> 
                </div>","null","","","","","","","","","","","",""
"","","","","","html-button-response","13","60624","0.0-13.0","059CFA9B63DD4F2A896E14D75DACB6BF","019cfc81-2684-75e7-aa88-fb572255f379","019cfc7b-6c7b-7b1b-afe7-acad8efc6711","","829","
                <div class=""stimulus-container"">
                    <img src=""images/instructions/movie_4.png"" class=""exp-image"">
                    <div class=""question-area"">
                        <p style=""font-size: 20px; font-weight: bold; margin: 0;"">Was there a person in this image?</p>
                    </div>
                </div>","0","example_question","4","","","","","","","","","",""
"","","","","","instructions","14","68915","0.0-14.0","059CFA9B63DD4F2A896E14D75DACB6BF","019cfc81-2684-75e7-aa88-fb572255f379","019cfc7b-6c7b-7b1b-afe7-acad8efc6711","[{""page_index"":0,""viewing_time"":8290}]","8290","","","","","","","","","","","","","",""
"","","","","","instructions","15","74102","0.0-15.0","059CFA9B63DD4F2A896E14D75DACB6BF","019cfc81-2684-75e7-aa88-fb572255f379","019cfc7b-6c7b-7b1b-afe7-acad8efc6711","[{""page_index"":0,""viewing_time"":5186}]","5186","","","","","","","","","","","","","",""
"","","","","","html-keyboard-response","16","79103","0.0-16.0","059CFA9B63DD4F2A896E14D75DACB6BF","019cfc81-2684-75e7-aa88-fb572255f379","019cfc7b-6c7b-7b1b-afe7-acad8efc6711","","null","<div style=""background-color: white; width: 100vw; height: 100vh;""></div>","null","","","","","","","","","","","",""
"","","","","","html-keyboard-response","17","84105","0.0-17.0","059CFA9B63DD4F2A896E14D75DACB6BF","019cfc81-2684-75e7-aa88-fb572255f379","019cfc7b-6c7b-7b1b-afe7-acad8efc6711","","null","
                <div class=""stimulus-container"">
                    <img src=""images/causal_sequence/package_causal/package_causal_1.png"" class=""exp-image"">
                    <div class=""question-area""></div> 
                </div>","null","","","","","","","","","","","",""
"","","","","","html-button-response","18","85534","0.0-18.0","059CFA9B63DD4F2A896E14D75DACB6BF","019cfc81-2684-75e7-aa88-fb572255f379","019cfc7b-6c7b-7b1b-afe7-acad8efc6711","","1427","
                <div class=""stimulus-container"">
                    <img src=""images/causal_sequence/package_causal/package_causal_1.png"" class=""exp-image"">
                    <div class=""question-area"">
                        <p style=""font-size: 20px; font-weight: bold; margin: 0;"">Is there a person in this image?</p>
                    </div>
                </div>","0","main_experiment_trial","1","package_causal","causal_sequence","chronological","","","","","","",""
"","","","","","html-keyboard-response","19","90535","0.0-19.0","059CFA9B63DD4F2A896E14D75DACB6BF","019cfc81-2684-75e7-aa88-fb572255f379","019cfc7b-6c7b-7b1b-afe7-acad8efc6711","","null","
                <div class=""stimulus-container"">
                    <img src=""images/causal_sequence/package_causal/package_causal_2.png"" class=""exp-image"">
                    <div class=""question-area""></div> 
                </div>","null","","","","","","","","","","","",""
"","","","","","html-button-response","20","91106","0.0-20.0","059CFA9B63DD4F2A896E14D75DACB6BF","019cfc81-2684-75e7-aa88-fb572255f379","019cfc7b-6c7b-7b1b-afe7-acad8efc6711","","569","
                <div class=""stimulus-container"">
                    <img src=""images/causal_sequence/package_causal/package_causal_2.png"" class=""exp-image"">
                    <div class=""question-area"">
                        <p style=""font-size: 20px; font-weight: bold; margin: 0;"">Is there a person in this image?</p>
                    </div>
                </div>","0","main_experiment_trial","2","package_causal","causal_sequence","chronological","","","","","","",""
"","","","","","html-keyboard-response","21","96108","0.0-21.0","059CFA9B63DD4F2A896E14D75DACB6BF","019cfc81-2684-75e7-aa88-fb572255f379","019cfc7b-6c7b-7b1b-afe7-acad8efc6711","","null","
                <div class=""stimulus-container"">
                    <img src=""images/causal_sequence/package_causal/package_causal_3.png"" class=""exp-image"">
                    <div class=""question-area""></div> 
                </div>","null","","","","","","","","","","","",""
"","","","","","html-button-response","22","96915","0.0-22.0","059CFA9B63DD4F2A896E14D75DACB6BF","019cfc81-2684-75e7-aa88-fb572255f379","019cfc7b-6c7b-7b1b-afe7-acad8efc6711","","806","
                <div class=""stimulus-container"">
                    <img src=""images/causal_sequence/package_causal/package_causal_3.png"" class=""exp-image"">
                    <div class=""question-area"">
                        <p style=""font-size: 20px; font-weight: bold; margin: 0;"">Is there a person in this image?</p>
                    </div>
                </div>","0","main_experiment_trial","3","package_causal","causal_sequence","chronological","","","","","","",""
"","","","","","html-keyboard-response","23","101917","0.0-23.0","059CFA9B63DD4F2A896E14D75DACB6BF","019cfc81-2684-75e7-aa88-fb572255f379","019cfc7b-6c7b-7b1b-afe7-acad8efc6711","","null","
                <div class=""stimulus-container"">
                    <img src=""images/causal_sequence/package_causal/package_causal_4.png"" class=""exp-image"">
                    <div class=""question-area""></div> 
                </div>","null","","","","","","","","","","","",""
"","","","","","html-button-response","24","102667","0.0-24.0","059CFA9B63DD4F2A896E14D75DACB6BF","019cfc81-2684-75e7-aa88-fb572255f379","019cfc7b-6c7b-7b1b-afe7-acad8efc6711","","748","
                <div class=""stimulus-container"">
                    <img src=""images/causal_sequence/package_causal/package_causal_4.png"" class=""exp-image"">
                    <div class=""question-area"">
                        <p style=""font-size: 20px; font-weight: bold; margin: 0;"">Is there a person in this image?</p>
                    </div>
                </div>","0","main_experiment_trial","4","package_causal","causal_sequence","chronological","","","","","","",""
"","","","","","html-keyboard-response","25","107668","0.0-25.0","059CFA9B63DD4F2A896E14D75DACB6BF","019cfc81-2684-75e7-aa88-fb572255f379","019cfc7b-6c7b-7b1b-afe7-acad8efc6711","","null","
                <div class=""stimulus-container"">
                    <img src=""images/causal_sequence/package_causal/package_causal_5.png"" class=""exp-image"">
                    <div class=""question-area""></div> 
                </div>","null","","","","","","","","","","","",""
"","","","","","html-button-response","26","108428","0.0-26.0","059CFA9B63DD4F2A896E14D75DACB6BF","019cfc81-2684-75e7-aa88-fb572255f379","019cfc7b-6c7b-7b1b-afe7-acad8efc6711","","758","
                <div class=""stimulus-container"">
                    <img src=""images/causal_sequence/package_causal/package_causal_5.png"" class=""exp-image"">
                    <div class=""question-area"">
                        <p style=""font-size: 20px; font-weight: bold; margin: 0;"">Is there a person in this image?</p>
                    </div>
                </div>","0","main_experiment_trial","5","package_causal","causal_sequence","chronological","","","","","","",""
"","","","","","html-keyboard-response","27","113429","0.0-27.0","059CFA9B63DD4F2A896E14D75DACB6BF","019cfc81-2684-75e7-aa88-fb572255f379","019cfc7b-6c7b-7b1b-afe7-acad8efc6711","","null","
                <div class=""stimulus-container"">
                    <img src=""images/causal_sequence/package_causal/package_causal_6.png"" class=""exp-image"">
                    <div class=""question-area""></div> 
                </div>","null","","","","","","","","","","","",""
"","","","","","html-button-response","28","114159","0.0-28.0","059CFA9B63DD4F2A896E14D75DACB6BF","019cfc81-2684-75e7-aa88-fb572255f379","019cfc7b-6c7b-7b1b-afe7-acad8efc6711","","728","
                <div class=""stimulus-container"">
                    <img src=""images/causal_sequence/package_causal/package_causal_6.png"" class=""exp-image"">
                    <div class=""question-area"">
                        <p style=""font-size: 20px; font-weight: bold; margin: 0;"">Is there a person in this image?</p>
                    </div>
                </div>","0","main_experiment_trial","6","package_causal","causal_sequence","chronological","","","","","","",""
"","","","","","html-keyboard-response","29","119160","0.0-29.0","059CFA9B63DD4F2A896E14D75DACB6BF","019cfc81-2684-75e7-aa88-fb572255f379","019cfc7b-6c7b-7b1b-afe7-acad8efc6711","","null","
                <div class=""stimulus-container"">
                    <img src=""images/causal_sequence/package_causal/package_causal_7.png"" class=""exp-image"">
                    <div class=""question-area""></div> 
                </div>","null","","","","","","","","","","","",""
"","","","","","html-button-response","30","120101","0.0-30.0","059CFA9B63DD4F2A896E14D75DACB6BF","019cfc81-2684-75e7-aa88-fb572255f379","019cfc7b-6c7b-7b1b-afe7-acad8efc6711","","939","
                <div class=""stimulus-container"">
                    <img src=""images/causal_sequence/package_causal/package_causal_7.png"" class=""exp-image"">
                    <div class=""question-area"">
                        <p style=""font-size: 20px; font-weight: bold; margin: 0;"">Is there a person in this image?</p>
                    </div>
                </div>","0","main_experiment_trial","7","package_causal","causal_sequence","chronological","","","","","","",""
"","","","","","html-keyboard-response","31","125103","0.0-31.0","059CFA9B63DD4F2A896E14D75DACB6BF","019cfc81-2684-75e7-aa88-fb572255f379","019cfc7b-6c7b-7b1b-afe7-acad8efc6711","","null","
                <div class=""stimulus-container"">
                    <img src=""images/causal_sequence/package_causal/package_causal_8.png"" class=""exp-image"">
                    <div class=""question-area""></div> 
                </div>","null","","","","","","","","","","","",""
"","","","","","html-button-response","32","125812","0.0-32.0","059CFA9B63DD4F2A896E14D75DACB6BF","019cfc81-2684-75e7-aa88-fb572255f379","019cfc7b-6c7b-7b1b-afe7-acad8efc6711","","707","
                <div class=""stimulus-container"">
                    <img src=""images/causal_sequence/package_causal/package_causal_8.png"" class=""exp-image"">
                    <div class=""question-area"">
                        <p style=""font-size: 20px; font-weight: bold; margin: 0;"">Is there a person in this image?</p>
                    </div>
                </div>","0","main_experiment_trial","8","package_causal","causal_sequence","chronological","","","","","","",""
"","","","","","html-keyboard-response","33","130813","0.0-33.0","059CFA9B63DD4F2A896E14D75DACB6BF","019cfc81-2684-75e7-aa88-fb572255f379","019cfc7b-6c7b-7b1b-afe7-acad8efc6711","","null","
                <div class=""stimulus-container"">
                    <img src=""images/causal_sequence/package_causal/package_causal_9.png"" class=""exp-image"">
                    <div class=""question-area""></div> 
                </div>","null","","","","","","","","","","","",""
"","","","","","html-button-response","34","131957","0.0-34.0","059CFA9B63DD4F2A896E14D75DACB6BF","019cfc81-2684-75e7-aa88-fb572255f379","019cfc7b-6c7b-7b1b-afe7-acad8efc6711","","1143","
                <div class=""stimulus-container"">
                    <img src=""images/causal_sequence/package_causal/package_causal_9.png"" class=""exp-image"">
                    <div class=""question-area"">
                        <p style=""font-size: 20px; font-weight: bold; margin: 0;"">Is there a person in this image?</p>
                    </div>
                </div>","0","main_experiment_trial","9","package_causal","causal_sequence","chronological","","","","","","",""
"","","","","","html-keyboard-response","35","136958","0.0-35.0","059CFA9B63DD4F2A896E14D75DACB6BF","019cfc81-2684-75e7-aa88-fb572255f379","019cfc7b-6c7b-7b1b-afe7-acad8efc6711","","null","
                <div class=""stimulus-container"">
                    <img src=""images/causal_sequence/package_causal/package_causal_ten.png"" class=""exp-image"">
                    <div class=""question-area""></div> 
                </div>","null","","","","","","","","","","","",""
"","","","","","html-button-response","36","137537","0.0-36.0","059CFA9B63DD4F2A896E14D75DACB6BF","019cfc81-2684-75e7-aa88-fb572255f379","019cfc7b-6c7b-7b1b-afe7-acad8efc6711","","577","
                <div class=""stimulus-container"">
                    <img src=""images/causal_sequence/package_causal/package_causal_ten.png"" class=""exp-image"">
                    <div class=""question-area"">
                        <p style=""font-size: 20px; font-weight: bold; margin: 0;"">Is there a person in this image?</p>
                    </div>
                </div>","0","main_experiment_trial","ten","package_causal","causal_sequence","chronological","","","","","","",""
"","","","","","html-keyboard-response","37","142539","0.0-37.0","059CFA9B63DD4F2A896E14D75DACB6BF","019cfc81-2684-75e7-aa88-fb572255f379","019cfc7b-6c7b-7b1b-afe7-acad8efc6711","","null","<div style=""background-color: white; width: 100vw; height: 100vh;""></div>","null","","","","","","","","","","","",""
"","","","","","html-keyboard-response","38","147540","0.0-38.0","059CFA9B63DD4F2A896E14D75DACB6BF","019cfc81-2684-75e7-aa88-fb572255f379","019cfc7b-6c7b-7b1b-afe7-acad8efc6711","","null","
                <div class=""stimulus-container"">
                    <img src=""images/schematic_sequence/flight_scheme/flight_scheme_1.png"" class=""exp-image"">
                    <div class=""question-area""></div> 
                </div>","null","","","","","","","","","","","",""
"","","","","","html-button-response","39","148546","0.0-39.0","059CFA9B63DD4F2A896E14D75DACB6BF","019cfc81-2684-75e7-aa88-fb572255f379","019cfc7b-6c7b-7b1b-afe7-acad8efc6711","","1004","
                <div class=""stimulus-container"">
                    <img src=""images/schematic_sequence/flight_scheme/flight_scheme_1.png"" class=""exp-image"">
                    <div class=""question-area"">
                        <p style=""font-size: 20px; font-weight: bold; margin: 0;"">Is there a person in this image?</p>
                    </div>
                </div>","0","main_experiment_trial","1","flight_scheme","schematic_sequence","chronological","","","","","","",""
"","","","","","html-keyboard-response","40","153548","0.0-40.0","059CFA9B63DD4F2A896E14D75DACB6BF","019cfc81-2684-75e7-aa88-fb572255f379","019cfc7b-6c7b-7b1b-afe7-acad8efc6711","","null","
                <div class=""stimulus-container"">
                    <img src=""images/schematic_sequence/flight_scheme/flight_scheme_2.png"" class=""exp-image"">
                    <div class=""question-area""></div> 
                </div>","null","","","","","","","","","","","",""
"","","","","","html-button-response","41","155446","0.0-41.0","059CFA9B63DD4F2A896E14D75DACB6BF","019cfc81-2684-75e7-aa88-fb572255f379","019cfc7b-6c7b-7b1b-afe7-acad8efc6711","","1897","
                <div class=""stimulus-container"">
                    <img src=""images/schematic_sequence/flight_scheme/flight_scheme_2.png"" class=""exp-image"">
                    <div class=""question-area"">
                        <p style=""font-size: 20px; font-weight: bold; margin: 0;"">Is there a person in this image?</p>
                    </div>
                </div>","1","main_experiment_trial","2","flight_scheme","schematic_sequence","chronological","","","","","","",""
"","","","","","html-keyboard-response","42","160448","0.0-42.0","059CFA9B63DD4F2A896E14D75DACB6BF","019cfc81-2684-75e7-aa88-fb572255f379","019cfc7b-6c7b-7b1b-afe7-acad8efc6711","","null","
                <div class=""stimulus-container"">
                    <img src=""images/schematic_sequence/flight_scheme/flight_scheme_3.png"" class=""exp-image"">
                    <div class=""question-area""></div> 
                </div>","null","","","","","","","","","","","",""
"","","","","","html-button-response","43","161369","0.0-43.0","059CFA9B63DD4F2A896E14D75DACB6BF","019cfc81-2684-75e7-aa88-fb572255f379","019cfc7b-6c7b-7b1b-afe7-acad8efc6711","","920","
                <div class=""stimulus-container"">
                    <img src=""images/schematic_sequence/flight_scheme/flight_scheme_3.png"" class=""exp-image"">
                    <div class=""question-area"">
                        <p style=""font-size: 20px; font-weight: bold; margin: 0;"">Is there a person in this image?</p>
                    </div>
                </div>","0","main_experiment_trial","3","flight_scheme","schematic_sequence","chronological","","","","","","",""
"","","","","","html-keyboard-response","44","166371","0.0-44.0","059CFA9B63DD4F2A896E14D75DACB6BF","019cfc81-2684-75e7-aa88-fb572255f379","019cfc7b-6c7b-7b1b-afe7-acad8efc6711","","null","
                <div class=""stimulus-container"">
                    <img src=""images/schematic_sequence/flight_scheme/flight_scheme_4.png"" class=""exp-image"">
                    <div class=""question-area""></div> 
                </div>","null","","","","","","","","","","","",""
"","","","","","html-button-response","45","167533","0.0-45.0","059CFA9B63DD4F2A896E14D75DACB6BF","019cfc81-2684-75e7-aa88-fb572255f379","019cfc7b-6c7b-7b1b-afe7-acad8efc6711","","1160","
                <div class=""stimulus-container"">
                    <img src=""images/schematic_sequence/flight_scheme/flight_scheme_4.png"" class=""exp-image"">
                    <div class=""question-area"">
                        <p style=""font-size: 20px; font-weight: bold; margin: 0;"">Is there a person in this image?</p>
                    </div>
                </div>","0","main_experiment_trial","4","flight_scheme","schematic_sequence","chronological","","","","","","",""
"","","","","","html-keyboard-response","46","172534","0.0-46.0","059CFA9B63DD4F2A896E14D75DACB6BF","019cfc81-2684-75e7-aa88-fb572255f379","019cfc7b-6c7b-7b1b-afe7-acad8efc6711","","null","
                <div class=""stimulus-container"">
                    <img src=""images/schematic_sequence/flight_scheme/flight_scheme_5.png"" class=""exp-image"">
                    <div class=""question-area""></div> 
                </div>","null","","","","","","","","","","","",""
"","","","","","html-button-response","47","175536","0.0-47.0","059CFA9B63DD4F2A896E14D75DACB6BF","019cfc81-2684-75e7-aa88-fb572255f379","019cfc7b-6c7b-7b1b-afe7-acad8efc6711","","null","
                <div class=""stimulus-container"">
                    <img src=""images/schematic_sequence/flight_scheme/flight_scheme_5.png"" class=""exp-image"">
                    <div class=""question-area"">
                        <p style=""font-size: 20px; font-weight: bold; margin: 0;"">Is there a person in this image?</p>
                    </div>
                </div>","null","main_experiment_trial","5","flight_scheme","schematic_sequence","chronological","","","","","","",""
"","","","","","html-keyboard-response","48","180539","0.0-48.0","059CFA9B63DD4F2A896E14D75DACB6BF","019cfc81-2684-75e7-aa88-fb572255f379","019cfc7b-6c7b-7b1b-afe7-acad8efc6711","","null","
                <div class=""stimulus-container"">
                    <img src=""images/schematic_sequence/flight_scheme/flight_scheme_6.png"" class=""exp-image"">
                    <div class=""question-area""></div> 
                </div>","null","","","","","","","","","","","",""
"","","","","","html-button-response","49","181252","0.0-49.0","059CFA9B63DD4F2A896E14D75DACB6BF","019cfc81-2684-75e7-aa88-fb572255f379","019cfc7b-6c7b-7b1b-afe7-acad8efc6711","","711","
                <div class=""stimulus-container"">
                    <img src=""images/schematic_sequence/flight_scheme/flight_scheme_6.png"" class=""exp-image"">
                    <div class=""question-area"">
                        <p style=""font-size: 20px; font-weight: bold; margin: 0;"">Is there a person in this image?</p>
                    </div>
                </div>","1","main_experiment_trial","6","flight_scheme","schematic_sequence","chronological","","","","","","",""
"","","","","","html-keyboard-response","50","186253","0.0-50.0","059CFA9B63DD4F2A896E14D75DACB6BF","019cfc81-2684-75e7-aa88-fb572255f379","019cfc7b-6c7b-7b1b-afe7-acad8efc6711","","null","
                <div class=""stimulus-container"">
                    <img src=""images/schematic_sequence/flight_scheme/flight_scheme_7.png"" class=""exp-image"">
                    <div class=""question-area""></div> 
                </div>","null","","","","","","","","","","","",""
"","","","","","html-button-response","51","187085","0.0-51.0","059CFA9B63DD4F2A896E14D75DACB6BF","019cfc81-2684-75e7-aa88-fb572255f379","019cfc7b-6c7b-7b1b-afe7-acad8efc6711","","828","
                <div class=""stimulus-container"">
                    <img src=""images/schematic_sequence/flight_scheme/flight_scheme_7.png"" class=""exp-image"">
                    <div class=""question-area"">
                        <p style=""font-size: 20px; font-weight: bold; margin: 0;"">Is there a person in this image?</p>
                    </div>
                </div>","1","main_experiment_trial","7","flight_scheme","schematic_sequence","chronological","","","","","","",""
"","","","","","html-keyboard-response","52","192088","0.0-52.0","059CFA9B63DD4F2A896E14D75DACB6BF","019cfc81-2684-75e7-aa88-fb572255f379","019cfc7b-6c7b-7b1b-afe7-acad8efc6711","","null","
                <div class=""stimulus-container"">
                    <img src=""images/schematic_sequence/flight_scheme/flight_scheme_8.png"" class=""exp-image"">
                    <div class=""question-area""></div> 
                </div>","null","","","","","","","","","","","",""
"","","","","","html-button-response","53","195090","0.0-53.0","059CFA9B63DD4F2A896E14D75DACB6BF","019cfc81-2684-75e7-aa88-fb572255f379","019cfc7b-6c7b-7b1b-afe7-acad8efc6711","","null","
                <div class=""stimulus-container"">
                    <img src=""images/schematic_sequence/flight_scheme/flight_scheme_8.png"" class=""exp-image"">
                    <div class=""question-area"">
                        <p style=""font-size: 20px; font-weight: bold; margin: 0;"">Is there a person in this image?</p>
                    </div>
                </div>","null","main_experiment_trial","8","flight_scheme","schematic_sequence","chronological","","","","","","",""
"","","","","","html-keyboard-response","54","200091","0.0-54.0","059CFA9B63DD4F2A896E14D75DACB6BF","019cfc81-2684-75e7-aa88-fb572255f379","019cfc7b-6c7b-7b1b-afe7-acad8efc6711","","null","
                <div class=""stimulus-container"">
                    <img src=""images/schematic_sequence/flight_scheme/flight_scheme_9.png"" class=""exp-image"">
                    <div class=""question-area""></div> 
                </div>","null","","","","","","","","","","","",""
"","","","","","html-button-response","55","201419","0.0-55.0","059CFA9B63DD4F2A896E14D75DACB6BF","019cfc81-2684-75e7-aa88-fb572255f379","019cfc7b-6c7b-7b1b-afe7-acad8efc6711","","1326","
                <div class=""stimulus-container"">
                    <img src=""images/schematic_sequence/flight_scheme/flight_scheme_9.png"" class=""exp-image"">
                    <div class=""question-area"">
                        <p style=""font-size: 20px; font-weight: bold; margin: 0;"">Is there a person in this image?</p>
                    </div>
                </div>","0","main_experiment_trial","9","flight_scheme","schematic_sequence","chronological","","","","","","",""
"","","","","","html-keyboard-response","56","206421","0.0-56.0","059CFA9B63DD4F2A896E14D75DACB6BF","019cfc81-2684-75e7-aa88-fb572255f379","019cfc7b-6c7b-7b1b-afe7-acad8efc6711","","null","
                <div class=""stimulus-container"">
                    <img src=""images/schematic_sequence/flight_scheme/flight_scheme_ten.png"" class=""exp-image"">
                    <div class=""question-area""></div> 
                </div>","null","","","","","","","","","","","",""
"","","","","","html-button-response","57","208904","0.0-57.0","059CFA9B63DD4F2A896E14D75DACB6BF","019cfc81-2684-75e7-aa88-fb572255f379","019cfc7b-6c7b-7b1b-afe7-acad8efc6711","","2480","
                <div class=""stimulus-container"">
                    <img src=""images/schematic_sequence/flight_scheme/flight_scheme_ten.png"" class=""exp-image"">
                    <div class=""question-area"">
                        <p style=""font-size: 20px; font-weight: bold; margin: 0;"">Is there a person in this image?</p>
                    </div>
                </div>","0","main_experiment_trial","ten","flight_scheme","schematic_sequence","chronological","","","","","","",""
"","","","","","html-keyboard-response","58","213905","0.0-58.0","059CFA9B63DD4F2A896E14D75DACB6BF","019cfc81-2684-75e7-aa88-fb572255f379","019cfc7b-6c7b-7b1b-afe7-acad8efc6711","","null","<div style=""background-color: white; width: 100vw; height: 100vh;""></div>","null","","","","","","","","","","","",""
"","","","","","html-keyboard-response","59","218907","0.0-59.0","059CFA9B63DD4F2A896E14D75DACB6BF","019cfc81-2684-75e7-aa88-fb572255f379","019cfc7b-6c7b-7b1b-afe7-acad8efc6711","","null","
                <div class=""stimulus-container"">
                    <img src=""images/causal_sequence/saving_a_cat_causal/saving_a_cat_causal_1.png"" class=""exp-image"">
                    <div class=""question-area""></div> 
                </div>","null","","","","","","","","","","","",""
"","","","","","html-button-response","60","221909","0.0-60.0","059CFA9B63DD4F2A896E14D75DACB6BF","019cfc81-2684-75e7-aa88-fb572255f379","019cfc7b-6c7b-7b1b-afe7-acad8efc6711","","null","
                <div class=""stimulus-container"">
                    <img src=""images/causal_sequence/saving_a_cat_causal/saving_a_cat_causal_1.png"" class=""exp-image"">
                    <div class=""question-area"">
                        <p style=""font-size: 20px; font-weight: bold; margin: 0;"">Is there a person in this image?</p>
                    </div>
                </div>","null","main_experiment_trial","1","saving_a_cat_causal","causal_sequence","chronological","","","","","","",""
"","","","","","html-keyboard-response","61","226911","0.0-61.0","059CFA9B63DD4F2A896E14D75DACB6BF","019cfc81-2684-75e7-aa88-fb572255f379","019cfc7b-6c7b-7b1b-afe7-acad8efc6711","","null","
                <div class=""stimulus-container"">
                    <img src=""images/causal_sequence/saving_a_cat_causal/saving_a_cat_causal_2.png"" class=""exp-image"">
                    <div class=""question-area""></div> 
                </div>","null","","","","","","","","","","","",""
"","","","","","html-button-response","62","228429","0.0-62.0","059CFA9B63DD4F2A896E14D75DACB6BF","019cfc81-2684-75e7-aa88-fb572255f379","019cfc7b-6c7b-7b1b-afe7-acad8efc6711","","1517","
                <div class=""stimulus-container"">
                    <img src=""images/causal_sequence/saving_a_cat_causal/saving_a_cat_causal_2.png"" class=""exp-image"">
                    <div class=""question-area"">
                        <p style=""font-size: 20px; font-weight: bold; margin: 0;"">Is there a person in this image?</p>
                    </div>
                </div>","1","main_experiment_trial","2","saving_a_cat_causal","causal_sequence","chronological","","","","","","",""
"","","","","","html-keyboard-response","63","233431","0.0-63.0","059CFA9B63DD4F2A896E14D75DACB6BF","019cfc81-2684-75e7-aa88-fb572255f379","019cfc7b-6c7b-7b1b-afe7-acad8efc6711","","null","
                <div class=""stimulus-container"">
                    <img src=""images/causal_sequence/saving_a_cat_causal/saving_a_cat_causal_3.png"" class=""exp-image"">
                    <div class=""question-area""></div> 
                </div>","null","","","","","","","","","","","",""
"","","","","","html-button-response","64","235722","0.0-64.0","059CFA9B63DD4F2A896E14D75DACB6BF","019cfc81-2684-75e7-aa88-fb572255f379","019cfc7b-6c7b-7b1b-afe7-acad8efc6711","","2289","
                <div class=""stimulus-container"">
                    <img src=""images/causal_sequence/saving_a_cat_causal/saving_a_cat_causal_3.png"" class=""exp-image"">
                    <div class=""question-area"">
                        <p style=""font-size: 20px; font-weight: bold; margin: 0;"">Is there a person in this image?</p>
                    </div>
                </div>","1","main_experiment_trial","3","saving_a_cat_causal","causal_sequence","chronological","","","","","","",""
"","","","","","html-keyboard-response","65","240724","0.0-65.0","059CFA9B63DD4F2A896E14D75DACB6BF","019cfc81-2684-75e7-aa88-fb572255f379","019cfc7b-6c7b-7b1b-afe7-acad8efc6711","","null","
                <div class=""stimulus-container"">
                    <img src=""images/causal_sequence/saving_a_cat_causal/saving_a_cat_causal_4.png"" class=""exp-image"">
                    <div class=""question-area""></div> 
                </div>","null","","","","","","","","","","","",""
"","","","","","html-button-response","66","243726","0.0-66.0","059CFA9B63DD4F2A896E14D75DACB6BF","019cfc81-2684-75e7-aa88-fb572255f379","019cfc7b-6c7b-7b1b-afe7-acad8efc6711","","null","
                <div class=""stimulus-container"">
                    <img src=""images/causal_sequence/saving_a_cat_causal/saving_a_cat_causal_4.png"" class=""exp-image"">
                    <div class=""question-area"">
                        <p style=""font-size: 20px; font-weight: bold; margin: 0;"">Is there a person in this image?</p>
                    </div>
                </div>","null","main_experiment_trial","4","saving_a_cat_causal","causal_sequence","chronological","","","","","","",""
"","","","","","html-keyboard-response","67","248727","0.0-67.0","059CFA9B63DD4F2A896E14D75DACB6BF","019cfc81-2684-75e7-aa88-fb572255f379","019cfc7b-6c7b-7b1b-afe7-acad8efc6711","","null","
                <div class=""stimulus-container"">
                    <img src=""images/causal_sequence/saving_a_cat_causal/saving_a_cat_causal_5.png"" class=""exp-image"">
                    <div class=""question-area""></div> 
                </div>","null","","","","","","","","","","","",""
"","","","","","html-button-response","68","249564","0.0-68.0","059CFA9B63DD4F2A896E14D75DACB6BF","019cfc81-2684-75e7-aa88-fb572255f379","019cfc7b-6c7b-7b1b-afe7-acad8efc6711","","835","
                <div class=""stimulus-container"">
                    <img src=""images/causal_sequence/saving_a_cat_causal/saving_a_cat_causal_5.png"" class=""exp-image"">
                    <div class=""question-area"">
                        <p style=""font-size: 20px; font-weight: bold; margin: 0;"">Is there a person in this image?</p>
                    </div>
                </div>","0","main_experiment_trial","5","saving_a_cat_causal","causal_sequence","chronological","","","","","","",""
"","","","","","html-keyboard-response","69","254565","0.0-69.0","059CFA9B63DD4F2A896E14D75DACB6BF","019cfc81-2684-75e7-aa88-fb572255f379","019cfc7b-6c7b-7b1b-afe7-acad8efc6711","","null","
                <div class=""stimulus-container"">
                    <img src=""images/causal_sequence/saving_a_cat_causal/saving_a_cat_causal_6.png"" class=""exp-image"">
                    <div class=""question-area""></div> 
                </div>","null","","","","","","","","","","","",""
"","","","","","html-button-response","70","255399","0.0-70.0","059CFA9B63DD4F2A896E14D75DACB6BF","019cfc81-2684-75e7-aa88-fb572255f379","019cfc7b-6c7b-7b1b-afe7-acad8efc6711","","832","
                <div class=""stimulus-container"">
                    <img src=""images/causal_sequence/saving_a_cat_causal/saving_a_cat_causal_6.png"" class=""exp-image"">
                    <div class=""question-area"">
                        <p style=""font-size: 20px; font-weight: bold; margin: 0;"">Is there a person in this image?</p>
                    </div>
                </div>","0","main_experiment_trial","6","saving_a_cat_causal","causal_sequence","chronological","","","","","","",""
"","","","","","html-keyboard-response","71","260400","0.0-71.0","059CFA9B63DD4F2A896E14D75DACB6BF","019cfc81-2684-75e7-aa88-fb572255f379","019cfc7b-6c7b-7b1b-afe7-acad8efc6711","","null","
                <div class=""stimulus-container"">
                    <img src=""images/causal_sequence/saving_a_cat_causal/saving_a_cat_causal_7.png"" class=""exp-image"">
                    <div class=""question-area""></div> 
                </div>","null","","","","","","","","","","","",""
"","","","","","html-button-response","72","260911","0.0-72.0","059CFA9B63DD4F2A896E14D75DACB6BF","019cfc81-2684-75e7-aa88-fb572255f379","019cfc7b-6c7b-7b1b-afe7-acad8efc6711","","509","
                <div class=""stimulus-container"">
                    <img src=""images/causal_sequence/saving_a_cat_causal/saving_a_cat_causal_7.png"" class=""exp-image"">
                    <div class=""question-area"">
                        <p style=""font-size: 20px; font-weight: bold; margin: 0;"">Is there a person in this image?</p>
                    </div>
                </div>","0","main_experiment_trial","7","saving_a_cat_causal","causal_sequence","chronological","","","","","","",""
"","","","","","html-keyboard-response","73","265913","0.0-73.0","059CFA9B63DD4F2A896E14D75DACB6BF","019cfc81-2684-75e7-aa88-fb572255f379","019cfc7b-6c7b-7b1b-afe7-acad8efc6711","","null","
                <div class=""stimulus-container"">
                    <img src=""images/causal_sequence/saving_a_cat_causal/saving_a_cat_causal_8.png"" class=""exp-image"">
                    <div class=""question-area""></div> 
                </div>","null","","","","","","","","","","","",""
"","","","","","html-button-response","74","265989","0.0-74.0","059CFA9B63DD4F2A896E14D75DACB6BF","019cfc81-2684-75e7-aa88-fb572255f379","019cfc7b-6c7b-7b1b-afe7-acad8efc6711","","73","
                <div class=""stimulus-container"">
                    <img src=""images/causal_sequence/saving_a_cat_causal/saving_a_cat_causal_8.png"" class=""exp-image"">
                    <div class=""question-area"">
                        <p style=""font-size: 20px; font-weight: bold; margin: 0;"">Is there a person in this image?</p>
                    </div>
                </div>","0","main_experiment_trial","8","saving_a_cat_causal","causal_sequence","chronological","","","","","","",""
"","","","","","html-keyboard-response","75","270991","0.0-75.0","059CFA9B63DD4F2A896E14D75DACB6BF","019cfc81-2684-75e7-aa88-fb572255f379","019cfc7b-6c7b-7b1b-afe7-acad8efc6711","","null","
                <div class=""stimulus-container"">
                    <img src=""images/causal_sequence/saving_a_cat_causal/saving_a_cat_causal_9.png"" class=""exp-image"">
                    <div class=""question-area""></div> 
                </div>","null","","","","","","","","","","","",""
"","","","","","html-button-response","76","271420","0.0-76.0","059CFA9B63DD4F2A896E14D75DACB6BF","019cfc81-2684-75e7-aa88-fb572255f379","019cfc7b-6c7b-7b1b-afe7-acad8efc6711","","427","
                <div class=""stimulus-container"">
                    <img src=""images/causal_sequence/saving_a_cat_causal/saving_a_cat_causal_9.png"" class=""exp-image"">
                    <div class=""question-area"">
                        <p style=""font-size: 20px; font-weight: bold; margin: 0;"">Is there a person in this image?</p>
                    </div>
                </div>","0","main_experiment_trial","9","saving_a_cat_causal","causal_sequence","chronological","","","","","","",""
"","","","","","html-keyboard-response","77","276422","0.0-77.0","059CFA9B63DD4F2A896E14D75DACB6BF","019cfc81-2684-75e7-aa88-fb572255f379","019cfc7b-6c7b-7b1b-afe7-acad8efc6711","","null","
                <div class=""stimulus-container"">
                    <img src=""images/causal_sequence/saving_a_cat_causal/saving_a_cat_causal_ten.png"" class=""exp-image"">
                    <div class=""question-area""></div> 
                </div>","null","","","","","","","","","","","",""
"","","","","","html-button-response","78","279425","0.0-78.0","059CFA9B63DD4F2A896E14D75DACB6BF","019cfc81-2684-75e7-aa88-fb572255f379","019cfc7b-6c7b-7b1b-afe7-acad8efc6711","","null","
                <div class=""stimulus-container"">
                    <img src=""images/causal_sequence/saving_a_cat_causal/saving_a_cat_causal_ten.png"" class=""exp-image"">
                    <div class=""question-area"">
                        <p style=""font-size: 20px; font-weight: bold; margin: 0;"">Is there a person in this image?</p>
                    </div>
                </div>","null","main_experiment_trial","ten","saving_a_cat_causal","causal_sequence","chronological","","","","","","",""
"","","","","","html-keyboard-response","79","284427","0.0-79.0","059CFA9B63DD4F2A896E14D75DACB6BF","019cfc81-2684-75e7-aa88-fb572255f379","019cfc7b-6c7b-7b1b-afe7-acad8efc6711","","null","<div style=""background-color: white; width: 100vw; height: 100vh;""></div>","null","","","","","","","","","","","",""
"","","","","","html-keyboard-response","80","289429","0.0-80.0","059CFA9B63DD4F2A896E14D75DACB6BF","019cfc81-2684-75e7-aa88-fb572255f379","019cfc7b-6c7b-7b1b-afe7-acad8efc6711","","null","
                <div class=""stimulus-container"">
                    <img src=""images/causal_sequence/museum_causal/museum_causal_1.png"" class=""exp-image"">
                    <div class=""question-area""></div> 
                </div>","null","","","","","","","","","","","",""
"","","","","","html-button-response","81","290268","0.0-81.0","059CFA9B63DD4F2A896E14D75DACB6BF","019cfc81-2684-75e7-aa88-fb572255f379","019cfc7b-6c7b-7b1b-afe7-acad8efc6711","","837","
                <div class=""stimulus-container"">
                    <img src=""images/causal_sequence/museum_causal/museum_causal_1.png"" class=""exp-image"">
                    <div class=""question-area"">
                        <p style=""font-size: 20px; font-weight: bold; margin: 0;"">Is there a person in this image?</p>
                    </div>
                </div>","0","main_experiment_trial","1","museum_causal","causal_sequence","chronological","","","","","","",""
"","","","","","html-keyboard-response","82","295270","0.0-82.0","059CFA9B63DD4F2A896E14D75DACB6BF","019cfc81-2684-75e7-aa88-fb572255f379","019cfc7b-6c7b-7b1b-afe7-acad8efc6711","","null","
                <div class=""stimulus-container"">
                    <img src=""images/causal_sequence/museum_causal/museum_causal_2.png"" class=""exp-image"">
                    <div class=""question-area""></div> 
                </div>","null","","","","","","","","","","","",""
"","","","","","html-button-response","83","295820","0.0-83.0","059CFA9B63DD4F2A896E14D75DACB6BF","019cfc81-2684-75e7-aa88-fb572255f379","019cfc7b-6c7b-7b1b-afe7-acad8efc6711","","548","
                <div class=""stimulus-container"">
                    <img src=""images/causal_sequence/museum_causal/museum_causal_2.png"" class=""exp-image"">
                    <div class=""question-area"">
                        <p style=""font-size: 20px; font-weight: bold; margin: 0;"">Is there a person in this image?</p>
                    </div>
                </div>","0","main_experiment_trial","2","museum_causal","causal_sequence","chronological","","","","","","",""
"","","","","","html-keyboard-response","84","300822","0.0-84.0","059CFA9B63DD4F2A896E14D75DACB6BF","019cfc81-2684-75e7-aa88-fb572255f379","019cfc7b-6c7b-7b1b-afe7-acad8efc6711","","null","
                <div class=""stimulus-container"">
                    <img src=""images/causal_sequence/museum_causal/museum_causal_3.png"" class=""exp-image"">
                    <div class=""question-area""></div> 
                </div>","null","","","","","","","","","","","",""
"","","","","","html-button-response","85","303825","0.0-85.0","059CFA9B63DD4F2A896E14D75DACB6BF","019cfc81-2684-75e7-aa88-fb572255f379","019cfc7b-6c7b-7b1b-afe7-acad8efc6711","","null","
                <div class=""stimulus-container"">
                    <img src=""images/causal_sequence/museum_causal/museum_causal_3.png"" class=""exp-image"">
                    <div class=""question-area"">
                        <p style=""font-size: 20px; font-weight: bold; margin: 0;"">Is there a person in this image?</p>
                    </div>
                </div>","null","main_experiment_trial","3","museum_causal","causal_sequence","chronological","","","","","","",""
"","","","","","html-keyboard-response","86","308826","0.0-86.0","059CFA9B63DD4F2A896E14D75DACB6BF","019cfc81-2684-75e7-aa88-fb572255f379","019cfc7b-6c7b-7b1b-afe7-acad8efc6711","","null","
                <div class=""stimulus-container"">
                    <img src=""images/causal_sequence/museum_causal/museum_causal_4.png"" class=""exp-image"">
                    <div class=""question-area""></div> 
                </div>","null","","","","","","","","","","","",""
"","","","","","html-button-response","87","309571","0.0-87.0","059CFA9B63DD4F2A896E14D75DACB6BF","019cfc81-2684-75e7-aa88-fb572255f379","019cfc7b-6c7b-7b1b-afe7-acad8efc6711","","744","
                <div class=""stimulus-container"">
                    <img src=""images/causal_sequence/museum_causal/museum_causal_4.png"" class=""exp-image"">
                    <div class=""question-area"">
                        <p style=""font-size: 20px; font-weight: bold; margin: 0;"">Is there a person in this image?</p>
                    </div>
                </div>","1","main_experiment_trial","4","museum_causal","causal_sequence","chronological","","","","","","",""
"","","","","","html-keyboard-response","88","314573","0.0-88.0","059CFA9B63DD4F2A896E14D75DACB6BF","019cfc81-2684-75e7-aa88-fb572255f379","019cfc7b-6c7b-7b1b-afe7-acad8efc6711","","null","
                <div class=""stimulus-container"">
                    <img src=""images/causal_sequence/museum_causal/museum_causal_5.png"" class=""exp-image"">
                    <div class=""question-area""></div> 
                </div>","null","","","","","","","","","","","",""
"","","","","","html-button-response","89","315394","0.0-89.0","059CFA9B63DD4F2A896E14D75DACB6BF","019cfc81-2684-75e7-aa88-fb572255f379","019cfc7b-6c7b-7b1b-afe7-acad8efc6711","","819","
                <div class=""stimulus-container"">
                    <img src=""images/causal_sequence/museum_causal/museum_causal_5.png"" class=""exp-image"">
                    <div class=""question-area"">
                        <p style=""font-size: 20px; font-weight: bold; margin: 0;"">Is there a person in this image?</p>
                    </div>
                </div>","0","main_experiment_trial","5","museum_causal","causal_sequence","chronological","","","","","","",""
"","","","","","html-keyboard-response","90","320396","0.0-90.0","059CFA9B63DD4F2A896E14D75DACB6BF","019cfc81-2684-75e7-aa88-fb572255f379","019cfc7b-6c7b-7b1b-afe7-acad8efc6711","","null","
                <div class=""stimulus-container"">
                    <img src=""images/causal_sequence/museum_causal/museum_causal_6.png"" class=""exp-image"">
                    <div class=""question-area""></div> 
                </div>","null","","","","","","","","","","","",""
"","","","","","html-button-response","91","321852","0.0-91.0","059CFA9B63DD4F2A896E14D75DACB6BF","019cfc81-2684-75e7-aa88-fb572255f379","019cfc7b-6c7b-7b1b-afe7-acad8efc6711","","1454","
                <div class=""stimulus-container"">
                    <img src=""images/causal_sequence/museum_causal/museum_causal_6.png"" class=""exp-image"">
                    <div class=""question-area"">
                        <p style=""font-size: 20px; font-weight: bold; margin: 0;"">Is there a person in this image?</p>
                    </div>
                </div>","0","main_experiment_trial","6","museum_causal","causal_sequence","chronological","","","","","","",""
"","","","","","html-keyboard-response","92","326854","0.0-92.0","059CFA9B63DD4F2A896E14D75DACB6BF","019cfc81-2684-75e7-aa88-fb572255f379","019cfc7b-6c7b-7b1b-afe7-acad8efc6711","","null","
                <div class=""stimulus-container"">
                    <img src=""images/causal_sequence/museum_causal/museum_causal_7.png"" class=""exp-image"">
                    <div class=""question-area""></div> 
                </div>","null","","","","","","","","","","","",""
"","","","","","html-button-response","93","328259","0.0-93.0","059CFA9B63DD4F2A896E14D75DACB6BF","019cfc81-2684-75e7-aa88-fb572255f379","019cfc7b-6c7b-7b1b-afe7-acad8efc6711","","1403","
                <div class=""stimulus-container"">
                    <img src=""images/causal_sequence/museum_causal/museum_causal_7.png"" class=""exp-image"">
                    <div class=""question-area"">
                        <p style=""font-size: 20px; font-weight: bold; margin: 0;"">Is there a person in this image?</p>
                    </div>
                </div>","1","main_experiment_trial","7","museum_causal","causal_sequence","chronological","","","","","","",""
"","","","","","html-keyboard-response","94","333261","0.0-94.0","059CFA9B63DD4F2A896E14D75DACB6BF","019cfc81-2684-75e7-aa88-fb572255f379","019cfc7b-6c7b-7b1b-afe7-acad8efc6711","","null","
                <div class=""stimulus-container"">
                    <img src=""images/causal_sequence/museum_causal/museum_causal_8.png"" class=""exp-image"">
                    <div class=""question-area""></div> 
                </div>","null","","","","","","","","","","","",""
"","","","","","html-button-response","95","334735","0.0-95.0","059CFA9B63DD4F2A896E14D75DACB6BF","019cfc81-2684-75e7-aa88-fb572255f379","019cfc7b-6c7b-7b1b-afe7-acad8efc6711","","1473","
                <div class=""stimulus-container"">
                    <img src=""images/causal_sequence/museum_causal/museum_causal_8.png"" class=""exp-image"">
                    <div class=""question-area"">
                        <p style=""font-size: 20px; font-weight: bold; margin: 0;"">Is there a person in this image?</p>
                    </div>
                </div>","0","main_experiment_trial","8","museum_causal","causal_sequence","chronological","","","","","","",""
"","","","","","html-keyboard-response","96","339737","0.0-96.0","059CFA9B63DD4F2A896E14D75DACB6BF","019cfc81-2684-75e7-aa88-fb572255f379","019cfc7b-6c7b-7b1b-afe7-acad8efc6711","","null","
                <div class=""stimulus-container"">
                    <img src=""images/causal_sequence/museum_causal/museum_causal_9.png"" class=""exp-image"">
                    <div class=""question-area""></div> 
                </div>","null","","","","","","","","","","","",""
"","","","","","html-button-response","97","341514","0.0-97.0","059CFA9B63DD4F2A896E14D75DACB6BF","019cfc81-2684-75e7-aa88-fb572255f379","019cfc7b-6c7b-7b1b-afe7-acad8efc6711","","1774","
                <div class=""stimulus-container"">
                    <img src=""images/causal_sequence/museum_causal/museum_causal_9.png"" class=""exp-image"">
                    <div class=""question-area"">
                        <p style=""font-size: 20px; font-weight: bold; margin: 0;"">Is there a person in this image?</p>
                    </div>
                </div>","1","main_experiment_trial","9","museum_causal","causal_sequence","chronological","","","","","","",""
"","","","","","html-keyboard-response","98","346517","0.0-98.0","059CFA9B63DD4F2A896E14D75DACB6BF","019cfc81-2684-75e7-aa88-fb572255f379","019cfc7b-6c7b-7b1b-afe7-acad8efc6711","","null","
                <div class=""stimulus-container"">
                    <img src=""images/causal_sequence/museum_causal/museum_causal_ten.png"" class=""exp-image"">
                    <div class=""question-area""></div> 
                </div>","null","","","","","","","","","","","",""
"","","","","","html-button-response","99","347708","0.0-99.0","059CFA9B63DD4F2A896E14D75DACB6BF","019cfc81-2684-75e7-aa88-fb572255f379","019cfc7b-6c7b-7b1b-afe7-acad8efc6711","","1189","
                <div class=""stimulus-container"">
                    <img src=""images/causal_sequence/museum_causal/museum_causal_ten.png"" class=""exp-image"">
                    <div class=""question-area"">
                        <p style=""font-size: 20px; font-weight: bold; margin: 0;"">Is there a person in this image?</p>
                    </div>
                </div>","0","main_experiment_trial","ten","museum_causal","causal_sequence","chronological","","","","","","",""
"","","","","","html-keyboard-response","100","352709","0.0-100.0","059CFA9B63DD4F2A896E14D75DACB6BF","019cfc81-2684-75e7-aa88-fb572255f379","019cfc7b-6c7b-7b1b-afe7-acad8efc6711","","null","<div style=""background-color: white; width: 100vw; height: 100vh;""></div>","null","","","","","","","","","","","",""
"","","","","","html-keyboard-response","101","357710","0.0-101.0","059CFA9B63DD4F2A896E14D75DACB6BF","019cfc81-2684-75e7-aa88-fb572255f379","019cfc7b-6c7b-7b1b-afe7-acad8efc6711","","null","
                <div class=""stimulus-container"">
                    <img src=""images/semantic_sequence/kitchen_operations_semantic/kitchen_operations_semantic_1.png"" class=""exp-image"">
                    <div class=""question-area""></div> 
                </div>","null","","","","","","","","","","","",""
"","","","","","html-button-response","102","359191","0.0-102.0","059CFA9B63DD4F2A896E14D75DACB6BF","019cfc81-2684-75e7-aa88-fb572255f379","019cfc7b-6c7b-7b1b-afe7-acad8efc6711","","1480","
                <div class=""stimulus-container"">
                    <img src=""images/semantic_sequence/kitchen_operations_semantic/kitchen_operations_semantic_1.png"" class=""exp-image"">
                    <div class=""question-area"">
                        <p style=""font-size: 20px; font-weight: bold; margin: 0;"">Is there a person in this image?</p>
                    </div>
                </div>","0","main_experiment_trial","1","kitchen_operations_semantic","semantic_sequence","chronological","","","","","","",""
"","","","","","html-keyboard-response","103","364192","0.0-103.0","059CFA9B63DD4F2A896E14D75DACB6BF","019cfc81-2684-75e7-aa88-fb572255f379","019cfc7b-6c7b-7b1b-afe7-acad8efc6711","","null","
                <div class=""stimulus-container"">
                    <img src=""images/semantic_sequence/kitchen_operations_semantic/kitchen_operations_semantic_2.png"" class=""exp-image"">
                    <div class=""question-area""></div> 
                </div>","null","","","","","","","","","","","",""
"","","","","","html-button-response","104","365455","0.0-104.0","059CFA9B63DD4F2A896E14D75DACB6BF","019cfc81-2684-75e7-aa88-fb572255f379","019cfc7b-6c7b-7b1b-afe7-acad8efc6711","","1262","
                <div class=""stimulus-container"">
                    <img src=""images/semantic_sequence/kitchen_operations_semantic/kitchen_operations_semantic_2.png"" class=""exp-image"">
                    <div class=""question-area"">
                        <p style=""font-size: 20px; font-weight: bold; margin: 0;"">Is there a person in this image?</p>
                    </div>
                </div>","0","main_experiment_trial","2","kitchen_operations_semantic","semantic_sequence","chronological","","","","","","",""
"","","","","","html-keyboard-response","105","370457","0.0-105.0","059CFA9B63DD4F2A896E14D75DACB6BF","019cfc81-2684-75e7-aa88-fb572255f379","019cfc7b-6c7b-7b1b-afe7-acad8efc6711","","null","
                <div class=""stimulus-container"">
                    <img src=""images/semantic_sequence/kitchen_operations_semantic/kitchen_operations_semantic_3.png"" class=""exp-image"">
                    <div class=""question-area""></div> 
                </div>","null","","","","","","","","","","","",""
"","","","","","html-button-response","106","371982","0.0-106.0","059CFA9B63DD4F2A896E14D75DACB6BF","019cfc81-2684-75e7-aa88-fb572255f379","019cfc7b-6c7b-7b1b-afe7-acad8efc6711","","1522","
                <div class=""stimulus-container"">
                    <img src=""images/semantic_sequence/kitchen_operations_semantic/kitchen_operations_semantic_3.png"" class=""exp-image"">
                    <div class=""question-area"">
                        <p style=""font-size: 20px; font-weight: bold; margin: 0;"">Is there a person in this image?</p>
                    </div>
                </div>","0","main_experiment_trial","3","kitchen_operations_semantic","semantic_sequence","chronological","","","","","","",""
"","","","","","html-keyboard-response","107","376984","0.0-107.0","059CFA9B63DD4F2A896E14D75DACB6BF","019cfc81-2684-75e7-aa88-fb572255f379","019cfc7b-6c7b-7b1b-afe7-acad8efc6711","","null","
                <div class=""stimulus-container"">
                    <img src=""images/semantic_sequence/kitchen_operations_semantic/kitchen_operations_semantic_4.png"" class=""exp-image"">
                    <div class=""question-area""></div> 
                </div>","null","","","","","","","","","","","",""
"","","","","","html-button-response","108","378216","0.0-108.0","059CFA9B63DD4F2A896E14D75DACB6BF","019cfc81-2684-75e7-aa88-fb572255f379","019cfc7b-6c7b-7b1b-afe7-acad8efc6711","","1230","
                <div class=""stimulus-container"">
                    <img src=""images/semantic_sequence/kitchen_operations_semantic/kitchen_operations_semantic_4.png"" class=""exp-image"">
                    <div class=""question-area"">
                        <p style=""font-size: 20px; font-weight: bold; margin: 0;"">Is there a person in this image?</p>
                    </div>
                </div>","0","main_experiment_trial","4","kitchen_operations_semantic","semantic_sequence","chronological","","","","","","",""
"","","","","","html-keyboard-response","109","383218","0.0-109.0","059CFA9B63DD4F2A896E14D75DACB6BF","019cfc81-2684-75e7-aa88-fb572255f379","019cfc7b-6c7b-7b1b-afe7-acad8efc6711","","null","
                <div class=""stimulus-container"">
                    <img src=""images/semantic_sequence/kitchen_operations_semantic/kitchen_operations_semantic_5.png"" class=""exp-image"">
                    <div class=""question-area""></div> 
                </div>","null","","","","","","","","","","","",""
"","","","","","html-button-response","110","384219","0.0-110.0","059CFA9B63DD4F2A896E14D75DACB6BF","019cfc81-2684-75e7-aa88-fb572255f379","019cfc7b-6c7b-7b1b-afe7-acad8efc6711","","999","
                <div class=""stimulus-container"">
                    <img src=""images/semantic_sequence/kitchen_operations_semantic/kitchen_operations_semantic_5.png"" class=""exp-image"">
                    <div class=""question-area"">
                        <p style=""font-size: 20px; font-weight: bold; margin: 0;"">Is there a person in this image?</p>
                    </div>
                </div>","0","main_experiment_trial","5","kitchen_operations_semantic","semantic_sequence","chronological","","","","","","",""
"","","","","","html-keyboard-response","111","389221","0.0-111.0","059CFA9B63DD4F2A896E14D75DACB6BF","019cfc81-2684-75e7-aa88-fb572255f379","019cfc7b-6c7b-7b1b-afe7-acad8efc6711","","null","
                <div class=""stimulus-container"">
                    <img src=""images/semantic_sequence/kitchen_operations_semantic/kitchen_operations_semantic_6.png"" class=""exp-image"">
                    <div class=""question-area""></div> 
                </div>","null","","","","","","","","","","","",""
"","","","","","html-button-response","112","390323","0.0-112.0","059CFA9B63DD4F2A896E14D75DACB6BF","019cfc81-2684-75e7-aa88-fb572255f379","019cfc7b-6c7b-7b1b-afe7-acad8efc6711","","1099","
                <div class=""stimulus-container"">
                    <img src=""images/semantic_sequence/kitchen_operations_semantic/kitchen_operations_semantic_6.png"" class=""exp-image"">
                    <div class=""question-area"">
                        <p style=""font-size: 20px; font-weight: bold; margin: 0;"">Is there a person in this image?</p>
                    </div>
                </div>","0","main_experiment_trial","6","kitchen_operations_semantic","semantic_sequence","chronological","","","","","","",""
"","","","","","html-keyboard-response","113","395324","0.0-113.0","059CFA9B63DD4F2A896E14D75DACB6BF","019cfc81-2684-75e7-aa88-fb572255f379","019cfc7b-6c7b-7b1b-afe7-acad8efc6711","","null","
                <div class=""stimulus-container"">
                    <img src=""images/semantic_sequence/kitchen_operations_semantic/kitchen_operations_semantic_7.png"" class=""exp-image"">
                    <div class=""question-area""></div> 
                </div>","null","","","","","","","","","","","",""
"","","","","","html-button-response","114","396094","0.0-114.0","059CFA9B63DD4F2A896E14D75DACB6BF","019cfc81-2684-75e7-aa88-fb572255f379","019cfc7b-6c7b-7b1b-afe7-acad8efc6711","","768","
                <div class=""stimulus-container"">
                    <img src=""images/semantic_sequence/kitchen_operations_semantic/kitchen_operations_semantic_7.png"" class=""exp-image"">
                    <div class=""question-area"">
                        <p style=""font-size: 20px; font-weight: bold; margin: 0;"">Is there a person in this image?</p>
                    </div>
                </div>","0","main_experiment_trial","7","kitchen_operations_semantic","semantic_sequence","chronological","","","","","","",""
"","","","","","html-keyboard-response","115","401096","0.0-115.0","059CFA9B63DD4F2A896E14D75DACB6BF","019cfc81-2684-75e7-aa88-fb572255f379","019cfc7b-6c7b-7b1b-afe7-acad8efc6711","","null","
                <div class=""stimulus-container"">
                    <img src=""images/semantic_sequence/kitchen_operations_semantic/kitchen_operations_semantic_8.png"" class=""exp-image"">
                    <div class=""question-area""></div> 
                </div>","null","","","","","","","","","","","",""
"","","","","","html-button-response","116","401634","0.0-116.0","059CFA9B63DD4F2A896E14D75DACB6BF","019cfc81-2684-75e7-aa88-fb572255f379","019cfc7b-6c7b-7b1b-afe7-acad8efc6711","","536","
                <div class=""stimulus-container"">
                    <img src=""images/semantic_sequence/kitchen_operations_semantic/kitchen_operations_semantic_8.png"" class=""exp-image"">
                    <div class=""question-area"">
                        <p style=""font-size: 20px; font-weight: bold; margin: 0;"">Is there a person in this image?</p>
                    </div>
                </div>","0","main_experiment_trial","8","kitchen_operations_semantic","semantic_sequence","chronological","","","","","","",""
"","","","","","html-keyboard-response","117","406636","0.0-117.0","059CFA9B63DD4F2A896E14D75DACB6BF","019cfc81-2684-75e7-aa88-fb572255f379","019cfc7b-6c7b-7b1b-afe7-acad8efc6711","","null","
                <div class=""stimulus-container"">
                    <img src=""images/semantic_sequence/kitchen_operations_semantic/kitchen_operations_semantic_9.png"" class=""exp-image"">
                    <div class=""question-area""></div> 
                </div>","null","","","","","","","","","","","",""
"","","","","","html-button-response","118","407566","0.0-118.0","059CFA9B63DD4F2A896E14D75DACB6BF","019cfc81-2684-75e7-aa88-fb572255f379","019cfc7b-6c7b-7b1b-afe7-acad8efc6711","","928","
                <div class=""stimulus-container"">
                    <img src=""images/semantic_sequence/kitchen_operations_semantic/kitchen_operations_semantic_9.png"" class=""exp-image"">
                    <div class=""question-area"">
                        <p style=""font-size: 20px; font-weight: bold; margin: 0;"">Is there a person in this image?</p>
                    </div>
                </div>","0","main_experiment_trial","9","kitchen_operations_semantic","semantic_sequence","chronological","","","","","","",""
"","","","","","html-keyboard-response","119","412567","0.0-119.0","059CFA9B63DD4F2A896E14D75DACB6BF","019cfc81-2684-75e7-aa88-fb572255f379","019cfc7b-6c7b-7b1b-afe7-acad8efc6711","","null","
                <div class=""stimulus-container"">
                    <img src=""images/semantic_sequence/kitchen_operations_semantic/kitchen_operations_semantic_ten.png"" class=""exp-image"">
                    <div class=""question-area""></div> 
                </div>","null","","","","","","","","","","","",""
"","","","","","html-button-response","120","413670","0.0-120.0","059CFA9B63DD4F2A896E14D75DACB6BF","019cfc81-2684-75e7-aa88-fb572255f379","019cfc7b-6c7b-7b1b-afe7-acad8efc6711","","1101","
                <div class=""stimulus-container"">
                    <img src=""images/semantic_sequence/kitchen_operations_semantic/kitchen_operations_semantic_ten.png"" class=""exp-image"">
                    <div class=""question-area"">
                        <p style=""font-size: 20px; font-weight: bold; margin: 0;"">Is there a person in this image?</p>
                    </div>
                </div>","0","main_experiment_trial","ten","kitchen_operations_semantic","semantic_sequence","chronological","","","","","","",""
"","","","","","html-keyboard-response","121","418672","0.0-121.0","059CFA9B63DD4F2A896E14D75DACB6BF","019cfc81-2684-75e7-aa88-fb572255f379","019cfc7b-6c7b-7b1b-afe7-acad8efc6711","","null","<div style=""background-color: white; width: 100vw; height: 100vh;""></div>","null","","","","","","","","","","","",""
"","","","","","html-keyboard-response","122","423674","0.0-122.0","059CFA9B63DD4F2A896E14D75DACB6BF","019cfc81-2684-75e7-aa88-fb572255f379","019cfc7b-6c7b-7b1b-afe7-acad8efc6711","","null","
                <div class=""stimulus-container"">
                    <img src=""images/schematic_sequence/restaurant_scheme/restaurant_scheme_1.png"" class=""exp-image"">
                    <div class=""question-area""></div> 
                </div>","null","","","","","","","","","","","",""
"","","","","","html-button-response","123","425091","0.0-123.0","059CFA9B63DD4F2A896E14D75DACB6BF","019cfc81-2684-75e7-aa88-fb572255f379","019cfc7b-6c7b-7b1b-afe7-acad8efc6711","","1416","
                <div class=""stimulus-container"">
                    <img src=""images/schematic_sequence/restaurant_scheme/restaurant_scheme_1.png"" class=""exp-image"">
                    <div class=""question-area"">
                        <p style=""font-size: 20px; font-weight: bold; margin: 0;"">Is there a person in this image?</p>
                    </div>
                </div>","0","main_experiment_trial","1","restaurant_scheme","schematic_sequence","chronological","","","","","","",""
"","","","","","html-keyboard-response","124","430093","0.0-124.0","059CFA9B63DD4F2A896E14D75DACB6BF","019cfc81-2684-75e7-aa88-fb572255f379","019cfc7b-6c7b-7b1b-afe7-acad8efc6711","","null","
                <div class=""stimulus-container"">
                    <img src=""images/schematic_sequence/restaurant_scheme/restaurant_scheme_2.png"" class=""exp-image"">
                    <div class=""question-area""></div> 
                </div>","null","","","","","","","","","","","",""
"","","","","","html-button-response","125","430953","0.0-125.0","059CFA9B63DD4F2A896E14D75DACB6BF","019cfc81-2684-75e7-aa88-fb572255f379","019cfc7b-6c7b-7b1b-afe7-acad8efc6711","","858","
                <div class=""stimulus-container"">
                    <img src=""images/schematic_sequence/restaurant_scheme/restaurant_scheme_2.png"" class=""exp-image"">
                    <div class=""question-area"">
                        <p style=""font-size: 20px; font-weight: bold; margin: 0;"">Is there a person in this image?</p>
                    </div>
                </div>","1","main_experiment_trial","2","restaurant_scheme","schematic_sequence","chronological","","","","","","",""
"","","","","","html-keyboard-response","126","435954","0.0-126.0","059CFA9B63DD4F2A896E14D75DACB6BF","019cfc81-2684-75e7-aa88-fb572255f379","019cfc7b-6c7b-7b1b-afe7-acad8efc6711","","null","
                <div class=""stimulus-container"">
                    <img src=""images/schematic_sequence/restaurant_scheme/restaurant_scheme_3.png"" class=""exp-image"">
                    <div class=""question-area""></div> 
                </div>","null","","","","","","","","","","","",""
"","","","","","html-button-response","127","437419","0.0-127.0","059CFA9B63DD4F2A896E14D75DACB6BF","019cfc81-2684-75e7-aa88-fb572255f379","019cfc7b-6c7b-7b1b-afe7-acad8efc6711","","1463","
                <div class=""stimulus-container"">
                    <img src=""images/schematic_sequence/restaurant_scheme/restaurant_scheme_3.png"" class=""exp-image"">
                    <div class=""question-area"">
                        <p style=""font-size: 20px; font-weight: bold; margin: 0;"">Is there a person in this image?</p>
                    </div>
                </div>","1","main_experiment_trial","3","restaurant_scheme","schematic_sequence","chronological","","","","","","",""
"","","","","","html-keyboard-response","128","442420","0.0-128.0","059CFA9B63DD4F2A896E14D75DACB6BF","019cfc81-2684-75e7-aa88-fb572255f379","019cfc7b-6c7b-7b1b-afe7-acad8efc6711","","null","
                <div class=""stimulus-container"">
                    <img src=""images/schematic_sequence/restaurant_scheme/restaurant_scheme_4.png"" class=""exp-image"">
                    <div class=""question-area""></div> 
                </div>","null","","","","","","","","","","","",""
"","","","","","html-button-response","129","443582","0.0-129.0","059CFA9B63DD4F2A896E14D75DACB6BF","019cfc81-2684-75e7-aa88-fb572255f379","019cfc7b-6c7b-7b1b-afe7-acad8efc6711","","1160","
                <div class=""stimulus-container"">
                    <img src=""images/schematic_sequence/restaurant_scheme/restaurant_scheme_4.png"" class=""exp-image"">
                    <div class=""question-area"">
                        <p style=""font-size: 20px; font-weight: bold; margin: 0;"">Is there a person in this image?</p>
                    </div>
                </div>","0","main_experiment_trial","4","restaurant_scheme","schematic_sequence","chronological","","","","","","",""
"","","","","","html-keyboard-response","130","448584","0.0-130.0","059CFA9B63DD4F2A896E14D75DACB6BF","019cfc81-2684-75e7-aa88-fb572255f379","019cfc7b-6c7b-7b1b-afe7-acad8efc6711","","null","
                <div class=""stimulus-container"">
                    <img src=""images/schematic_sequence/restaurant_scheme/restaurant_scheme_5.png"" class=""exp-image"">
                    <div class=""question-area""></div> 
                </div>","null","","","","","","","","","","","",""
"","","","","","html-button-response","131","449564","0.0-131.0","059CFA9B63DD4F2A896E14D75DACB6BF","019cfc81-2684-75e7-aa88-fb572255f379","019cfc7b-6c7b-7b1b-afe7-acad8efc6711","","978","
                <div class=""stimulus-container"">
                    <img src=""images/schematic_sequence/restaurant_scheme/restaurant_scheme_5.png"" class=""exp-image"">
                    <div class=""question-area"">
                        <p style=""font-size: 20px; font-weight: bold; margin: 0;"">Is there a person in this image?</p>
                    </div>
                </div>","0","main_experiment_trial","5","restaurant_scheme","schematic_sequence","chronological","","","","","","",""
"","","","","","html-keyboard-response","132","454567","0.0-132.0","059CFA9B63DD4F2A896E14D75DACB6BF","019cfc81-2684-75e7-aa88-fb572255f379","019cfc7b-6c7b-7b1b-afe7-acad8efc6711","","null","
                <div class=""stimulus-container"">
                    <img src=""images/schematic_sequence/restaurant_scheme/restaurant_scheme_6.png"" class=""exp-image"">
                    <div class=""question-area""></div> 
                </div>","null","","","","","","","","","","","",""
"","","","","","html-button-response","133","455697","0.0-133.0","059CFA9B63DD4F2A896E14D75DACB6BF","019cfc81-2684-75e7-aa88-fb572255f379","019cfc7b-6c7b-7b1b-afe7-acad8efc6711","","1129","
                <div class=""stimulus-container"">
                    <img src=""images/schematic_sequence/restaurant_scheme/restaurant_scheme_6.png"" class=""exp-image"">
                    <div class=""question-area"">
                        <p style=""font-size: 20px; font-weight: bold; margin: 0;"">Is there a person in this image?</p>
                    </div>
                </div>","1","main_experiment_trial","6","restaurant_scheme","schematic_sequence","chronological","","","","","","",""
"","","","","","html-keyboard-response","134","460699","0.0-134.0","059CFA9B63DD4F2A896E14D75DACB6BF","019cfc81-2684-75e7-aa88-fb572255f379","019cfc7b-6c7b-7b1b-afe7-acad8efc6711","","null","
                <div class=""stimulus-container"">
                    <img src=""images/schematic_sequence/restaurant_scheme/restaurant_scheme_7.png"" class=""exp-image"">
                    <div class=""question-area""></div> 
                </div>","null","","","","","","","","","","","",""
"","","","","","html-button-response","135","461610","0.0-135.0","059CFA9B63DD4F2A896E14D75DACB6BF","019cfc81-2684-75e7-aa88-fb572255f379","019cfc7b-6c7b-7b1b-afe7-acad8efc6711","","909","
                <div class=""stimulus-container"">
                    <img src=""images/schematic_sequence/restaurant_scheme/restaurant_scheme_7.png"" class=""exp-image"">
                    <div class=""question-area"">
                        <p style=""font-size: 20px; font-weight: bold; margin: 0;"">Is there a person in this image?</p>
                    </div>
                </div>","1","main_experiment_trial","7","restaurant_scheme","schematic_sequence","chronological","","","","","","",""
"","","","","","html-keyboard-response","136","466612","0.0-136.0","059CFA9B63DD4F2A896E14D75DACB6BF","019cfc81-2684-75e7-aa88-fb572255f379","019cfc7b-6c7b-7b1b-afe7-acad8efc6711","","null","
                <div class=""stimulus-container"">
                    <img src=""images/schematic_sequence/restaurant_scheme/restaurant_scheme_8.png"" class=""exp-image"">
                    <div class=""question-area""></div> 
                </div>","null","","","","","","","","","","","",""
"","","","","","html-button-response","137","469376","0.0-137.0","059CFA9B63DD4F2A896E14D75DACB6BF","019cfc81-2684-75e7-aa88-fb572255f379","019cfc7b-6c7b-7b1b-afe7-acad8efc6711","","2762","
                <div class=""stimulus-container"">
                    <img src=""images/schematic_sequence/restaurant_scheme/restaurant_scheme_8.png"" class=""exp-image"">
                    <div class=""question-area"">
                        <p style=""font-size: 20px; font-weight: bold; margin: 0;"">Is there a person in this image?</p>
                    </div>
                </div>","0","main_experiment_trial","8","restaurant_scheme","schematic_sequence","chronological","","","","","","",""
"","","","","","html-keyboard-response","138","474378","0.0-138.0","059CFA9B63DD4F2A896E14D75DACB6BF","019cfc81-2684-75e7-aa88-fb572255f379","019cfc7b-6c7b-7b1b-afe7-acad8efc6711","","null","
                <div class=""stimulus-container"">
                    <img src=""images/schematic_sequence/restaurant_scheme/restaurant_scheme_9.png"" class=""exp-image"">
                    <div class=""question-area""></div> 
                </div>","null","","","","","","","","","","","",""
"","","","","","html-button-response","139","476557","0.0-139.0","059CFA9B63DD4F2A896E14D75DACB6BF","019cfc81-2684-75e7-aa88-fb572255f379","019cfc7b-6c7b-7b1b-afe7-acad8efc6711","","2177","
                <div class=""stimulus-container"">
                    <img src=""images/schematic_sequence/restaurant_scheme/restaurant_scheme_9.png"" class=""exp-image"">
                    <div class=""question-area"">
                        <p style=""font-size: 20px; font-weight: bold; margin: 0;"">Is there a person in this image?</p>
                    </div>
                </div>","0","main_experiment_trial","9","restaurant_scheme","schematic_sequence","chronological","","","","","","",""
"","","","","","html-keyboard-response","140","481559","0.0-140.0","059CFA9B63DD4F2A896E14D75DACB6BF","019cfc81-2684-75e7-aa88-fb572255f379","019cfc7b-6c7b-7b1b-afe7-acad8efc6711","","null","
                <div class=""stimulus-container"">
                    <img src=""images/schematic_sequence/restaurant_scheme/restaurant_scheme_ten.png"" class=""exp-image"">
                    <div class=""question-area""></div> 
                </div>","null","","","","","","","","","","","",""
"","","","","","html-button-response","141","482741","0.0-141.0","059CFA9B63DD4F2A896E14D75DACB6BF","019cfc81-2684-75e7-aa88-fb572255f379","019cfc7b-6c7b-7b1b-afe7-acad8efc6711","","1181","
                <div class=""stimulus-container"">
                    <img src=""images/schematic_sequence/restaurant_scheme/restaurant_scheme_ten.png"" class=""exp-image"">
                    <div class=""question-area"">
                        <p style=""font-size: 20px; font-weight: bold; margin: 0;"">Is there a person in this image?</p>
                    </div>
                </div>","0","main_experiment_trial","ten","restaurant_scheme","schematic_sequence","chronological","","","","","","",""
"","","","","","html-keyboard-response","142","487742","0.0-142.0","059CFA9B63DD4F2A896E14D75DACB6BF","019cfc81-2684-75e7-aa88-fb572255f379","019cfc7b-6c7b-7b1b-afe7-acad8efc6711","","null","<div style=""background-color: white; width: 100vw; height: 100vh;""></div>","null","","","","","","","","","","","",""
"","","","","","html-keyboard-response","143","492744","0.0-143.0","059CFA9B63DD4F2A896E14D75DACB6BF","019cfc81-2684-75e7-aa88-fb572255f379","019cfc7b-6c7b-7b1b-afe7-acad8efc6711","","null","
                <div class=""stimulus-container"">
                    <img src=""images/semantic_sequence/housework_semantic/housework_semantic_1.png"" class=""exp-image"">
                    <div class=""question-area""></div> 
                </div>","null","","","","","","","","","","","",""
"","","","","","html-button-response","144","493396","0.0-144.0","059CFA9B63DD4F2A896E14D75DACB6BF","019cfc81-2684-75e7-aa88-fb572255f379","019cfc7b-6c7b-7b1b-afe7-acad8efc6711","","650","
                <div class=""stimulus-container"">
                    <img src=""images/semantic_sequence/housework_semantic/housework_semantic_1.png"" class=""exp-image"">
                    <div class=""question-area"">
                        <p style=""font-size: 20px; font-weight: bold; margin: 0;"">Is there a person in this image?</p>
                    </div>
                </div>","0","main_experiment_trial","1","housework_semantic","semantic_sequence","chronological","","","","","","",""
"","","","","","html-keyboard-response","145","498397","0.0-145.0","059CFA9B63DD4F2A896E14D75DACB6BF","019cfc81-2684-75e7-aa88-fb572255f379","019cfc7b-6c7b-7b1b-afe7-acad8efc6711","","null","
                <div class=""stimulus-container"">
                    <img src=""images/semantic_sequence/housework_semantic/housework_semantic_2.png"" class=""exp-image"">
                    <div class=""question-area""></div> 
                </div>","null","","","","","","","","","","","",""
"","","","","","html-button-response","146","498995","0.0-146.0","059CFA9B63DD4F2A896E14D75DACB6BF","019cfc81-2684-75e7-aa88-fb572255f379","019cfc7b-6c7b-7b1b-afe7-acad8efc6711","","596","
                <div class=""stimulus-container"">
                    <img src=""images/semantic_sequence/housework_semantic/housework_semantic_2.png"" class=""exp-image"">
                    <div class=""question-area"">
                        <p style=""font-size: 20px; font-weight: bold; margin: 0;"">Is there a person in this image?</p>
                    </div>
                </div>","0","main_experiment_trial","2","housework_semantic","semantic_sequence","chronological","","","","","","",""
"","","","","","html-keyboard-response","147","503997","0.0-147.0","059CFA9B63DD4F2A896E14D75DACB6BF","019cfc81-2684-75e7-aa88-fb572255f379","019cfc7b-6c7b-7b1b-afe7-acad8efc6711","","null","
                <div class=""stimulus-container"">
                    <img src=""images/semantic_sequence/housework_semantic/housework_semantic_3.png"" class=""exp-image"">
                    <div class=""question-area""></div> 
                </div>","null","","","","","","","","","","","",""
"","","","","","html-button-response","148","505763","0.0-148.0","059CFA9B63DD4F2A896E14D75DACB6BF","019cfc81-2684-75e7-aa88-fb572255f379","019cfc7b-6c7b-7b1b-afe7-acad8efc6711","","1764","
                <div class=""stimulus-container"">
                    <img src=""images/semantic_sequence/housework_semantic/housework_semantic_3.png"" class=""exp-image"">
                    <div class=""question-area"">
                        <p style=""font-size: 20px; font-weight: bold; margin: 0;"">Is there a person in this image?</p>
                    </div>
                </div>","0","main_experiment_trial","3","housework_semantic","semantic_sequence","chronological","","","","","","",""
"","","","","","html-keyboard-response","149","510764","0.0-149.0","059CFA9B63DD4F2A896E14D75DACB6BF","019cfc81-2684-75e7-aa88-fb572255f379","019cfc7b-6c7b-7b1b-afe7-acad8efc6711","","null","
                <div class=""stimulus-container"">
                    <img src=""images/semantic_sequence/housework_semantic/housework_semantic_4.png"" class=""exp-image"">
                    <div class=""question-area""></div> 
                </div>","null","","","","","","","","","","","",""
"","","","","","html-button-response","150","512075","0.0-150.0","059CFA9B63DD4F2A896E14D75DACB6BF","019cfc81-2684-75e7-aa88-fb572255f379","019cfc7b-6c7b-7b1b-afe7-acad8efc6711","","1308","
                <div class=""stimulus-container"">
                    <img src=""images/semantic_sequence/housework_semantic/housework_semantic_4.png"" class=""exp-image"">
                    <div class=""question-area"">
                        <p style=""font-size: 20px; font-weight: bold; margin: 0;"">Is there a person in this image?</p>
                    </div>
                </div>","0","main_experiment_trial","4","housework_semantic","semantic_sequence","chronological","","","","","","",""
"","","","","","html-keyboard-response","151","517077","0.0-151.0","059CFA9B63DD4F2A896E14D75DACB6BF","019cfc81-2684-75e7-aa88-fb572255f379","019cfc7b-6c7b-7b1b-afe7-acad8efc6711","","null","
                <div class=""stimulus-container"">
                    <img src=""images/semantic_sequence/housework_semantic/housework_semantic_5.png"" class=""exp-image"">
                    <div class=""question-area""></div> 
                </div>","null","","","","","","","","","","","",""
"","","","","","html-button-response","152","518236","0.0-152.0","059CFA9B63DD4F2A896E14D75DACB6BF","019cfc81-2684-75e7-aa88-fb572255f379","019cfc7b-6c7b-7b1b-afe7-acad8efc6711","","1157","
                <div class=""stimulus-container"">
                    <img src=""images/semantic_sequence/housework_semantic/housework_semantic_5.png"" class=""exp-image"">
                    <div class=""question-area"">
                        <p style=""font-size: 20px; font-weight: bold; margin: 0;"">Is there a person in this image?</p>
                    </div>
                </div>","0","main_experiment_trial","5","housework_semantic","semantic_sequence","chronological","","","","","","",""
"","","","","","html-keyboard-response","153","523238","0.0-153.0","059CFA9B63DD4F2A896E14D75DACB6BF","019cfc81-2684-75e7-aa88-fb572255f379","019cfc7b-6c7b-7b1b-afe7-acad8efc6711","","null","
                <div class=""stimulus-container"">
                    <img src=""images/semantic_sequence/housework_semantic/housework_semantic_6.png"" class=""exp-image"">
                    <div class=""question-area""></div> 
                </div>","null","","","","","","","","","","","",""
"","","","","","html-button-response","154","525888","0.0-154.0","059CFA9B63DD4F2A896E14D75DACB6BF","019cfc81-2684-75e7-aa88-fb572255f379","019cfc7b-6c7b-7b1b-afe7-acad8efc6711","","2648","
                <div class=""stimulus-container"">
                    <img src=""images/semantic_sequence/housework_semantic/housework_semantic_6.png"" class=""exp-image"">
                    <div class=""question-area"">
                        <p style=""font-size: 20px; font-weight: bold; margin: 0;"">Is there a person in this image?</p>
                    </div>
                </div>","0","main_experiment_trial","6","housework_semantic","semantic_sequence","chronological","","","","","","",""
"","","","","","html-keyboard-response","155","530889","0.0-155.0","059CFA9B63DD4F2A896E14D75DACB6BF","019cfc81-2684-75e7-aa88-fb572255f379","019cfc7b-6c7b-7b1b-afe7-acad8efc6711","","null","
                <div class=""stimulus-container"">
                    <img src=""images/semantic_sequence/housework_semantic/housework_semantic_7.png"" class=""exp-image"">
                    <div class=""question-area""></div> 
                </div>","null","","","","","","","","","","","",""
"","","","","","html-button-response","156","532098","0.0-156.0","059CFA9B63DD4F2A896E14D75DACB6BF","019cfc81-2684-75e7-aa88-fb572255f379","019cfc7b-6c7b-7b1b-afe7-acad8efc6711","","1207","
                <div class=""stimulus-container"">
                    <img src=""images/semantic_sequence/housework_semantic/housework_semantic_7.png"" class=""exp-image"">
                    <div class=""question-area"">
                        <p style=""font-size: 20px; font-weight: bold; margin: 0;"">Is there a person in this image?</p>
                    </div>
                </div>","0","main_experiment_trial","7","housework_semantic","semantic_sequence","chronological","","","","","","",""
"","","","","","html-keyboard-response","157","537100","0.0-157.0","059CFA9B63DD4F2A896E14D75DACB6BF","019cfc81-2684-75e7-aa88-fb572255f379","019cfc7b-6c7b-7b1b-afe7-acad8efc6711","","null","
                <div class=""stimulus-container"">
                    <img src=""images/semantic_sequence/housework_semantic/housework_semantic_8.png"" class=""exp-image"">
                    <div class=""question-area""></div> 
                </div>","null","","","","","","","","","","","",""
"","","","","","html-button-response","158","538020","0.0-158.0","059CFA9B63DD4F2A896E14D75DACB6BF","019cfc81-2684-75e7-aa88-fb572255f379","019cfc7b-6c7b-7b1b-afe7-acad8efc6711","","917","
                <div class=""stimulus-container"">
                    <img src=""images/semantic_sequence/housework_semantic/housework_semantic_8.png"" class=""exp-image"">
                    <div class=""question-area"">
                        <p style=""font-size: 20px; font-weight: bold; margin: 0;"">Is there a person in this image?</p>
                    </div>
                </div>","0","main_experiment_trial","8","housework_semantic","semantic_sequence","chronological","","","","","","",""
"","","","","","html-keyboard-response","159","543023","0.0-159.0","059CFA9B63DD4F2A896E14D75DACB6BF","019cfc81-2684-75e7-aa88-fb572255f379","019cfc7b-6c7b-7b1b-afe7-acad8efc6711","","null","
                <div class=""stimulus-container"">
                    <img src=""images/semantic_sequence/housework_semantic/housework_semantic_9.png"" class=""exp-image"">
                    <div class=""question-area""></div> 
                </div>","null","","","","","","","","","","","",""
"","","","","","html-button-response","160","543817","0.0-160.0","059CFA9B63DD4F2A896E14D75DACB6BF","019cfc81-2684-75e7-aa88-fb572255f379","019cfc7b-6c7b-7b1b-afe7-acad8efc6711","","792","
                <div class=""stimulus-container"">
                    <img src=""images/semantic_sequence/housework_semantic/housework_semantic_9.png"" class=""exp-image"">
                    <div class=""question-area"">
                        <p style=""font-size: 20px; font-weight: bold; margin: 0;"">Is there a person in this image?</p>
                    </div>
                </div>","0","main_experiment_trial","9","housework_semantic","semantic_sequence","chronological","","","","","","",""
"","","","","","html-keyboard-response","161","548819","0.0-161.0","059CFA9B63DD4F2A896E14D75DACB6BF","019cfc81-2684-75e7-aa88-fb572255f379","019cfc7b-6c7b-7b1b-afe7-acad8efc6711","","null","
                <div class=""stimulus-container"">
                    <img src=""images/semantic_sequence/housework_semantic/housework_semantic_ten.png"" class=""exp-image"">
                    <div class=""question-area""></div> 
                </div>","null","","","","","","","","","","","",""
"","","","","","html-button-response","162","549506","0.0-162.0","059CFA9B63DD4F2A896E14D75DACB6BF","019cfc81-2684-75e7-aa88-fb572255f379","019cfc7b-6c7b-7b1b-afe7-acad8efc6711","","685","
                <div class=""stimulus-container"">
                    <img src=""images/semantic_sequence/housework_semantic/housework_semantic_ten.png"" class=""exp-image"">
                    <div class=""question-area"">
                        <p style=""font-size: 20px; font-weight: bold; margin: 0;"">Is there a person in this image?</p>
                    </div>
                </div>","0","main_experiment_trial","ten","housework_semantic","semantic_sequence","chronological","","","","","","",""
"","","","","","html-keyboard-response","163","554507","0.0-163.0","059CFA9B63DD4F2A896E14D75DACB6BF","019cfc81-2684-75e7-aa88-fb572255f379","019cfc7b-6c7b-7b1b-afe7-acad8efc6711","","null","<div style=""background-color: white; width: 100vw; height: 100vh;""></div>","null","","","","","","","","","","","",""
"","","","","","html-keyboard-response","164","559509","0.0-164.0","059CFA9B63DD4F2A896E14D75DACB6BF","019cfc81-2684-75e7-aa88-fb572255f379","019cfc7b-6c7b-7b1b-afe7-acad8efc6711","","null","
                <div class=""stimulus-container"">
                    <img src=""images/schematic_sequence/dinner_party_scheme/dinner_party_scheme_1.png"" class=""exp-image"">
                    <div class=""question-area""></div> 
                </div>","null","","","","","","","","","","","",""
"","","","","","html-button-response","165","560028","0.0-165.0","059CFA9B63DD4F2A896E14D75DACB6BF","019cfc81-2684-75e7-aa88-fb572255f379","019cfc7b-6c7b-7b1b-afe7-acad8efc6711","","518","
                <div class=""stimulus-container"">
                    <img src=""images/schematic_sequence/dinner_party_scheme/dinner_party_scheme_1.png"" class=""exp-image"">
                    <div class=""question-area"">
                        <p style=""font-size: 20px; font-weight: bold; margin: 0;"">Is there a person in this image?</p>
                    </div>
                </div>","0","main_experiment_trial","1","dinner_party_scheme","schematic_sequence","chronological","","","","","","",""
"","","","","","html-keyboard-response","166","565029","0.0-166.0","059CFA9B63DD4F2A896E14D75DACB6BF","019cfc81-2684-75e7-aa88-fb572255f379","019cfc7b-6c7b-7b1b-afe7-acad8efc6711","","null","
                <div class=""stimulus-container"">
                    <img src=""images/schematic_sequence/dinner_party_scheme/dinner_party_scheme_2.png"" class=""exp-image"">
                    <div class=""question-area""></div> 
                </div>","null","","","","","","","","","","","",""
"","","","","","html-button-response","167","566289","0.0-167.0","059CFA9B63DD4F2A896E14D75DACB6BF","019cfc81-2684-75e7-aa88-fb572255f379","019cfc7b-6c7b-7b1b-afe7-acad8efc6711","","1259","
                <div class=""stimulus-container"">
                    <img src=""images/schematic_sequence/dinner_party_scheme/dinner_party_scheme_2.png"" class=""exp-image"">
                    <div class=""question-area"">
                        <p style=""font-size: 20px; font-weight: bold; margin: 0;"">Is there a person in this image?</p>
                    </div>
                </div>","0","main_experiment_trial","2","dinner_party_scheme","schematic_sequence","chronological","","","","","","",""
"","","","","","html-keyboard-response","168","571291","0.0-168.0","059CFA9B63DD4F2A896E14D75DACB6BF","019cfc81-2684-75e7-aa88-fb572255f379","019cfc7b-6c7b-7b1b-afe7-acad8efc6711","","null","
                <div class=""stimulus-container"">
                    <img src=""images/schematic_sequence/dinner_party_scheme/dinner_party_scheme_3.png"" class=""exp-image"">
                    <div class=""question-area""></div> 
                </div>","null","","","","","","","","","","","",""
"","","","","","html-button-response","169","574294","0.0-169.0","059CFA9B63DD4F2A896E14D75DACB6BF","019cfc81-2684-75e7-aa88-fb572255f379","019cfc7b-6c7b-7b1b-afe7-acad8efc6711","","null","
                <div class=""stimulus-container"">
                    <img src=""images/schematic_sequence/dinner_party_scheme/dinner_party_scheme_3.png"" class=""exp-image"">
                    <div class=""question-area"">
                        <p style=""font-size: 20px; font-weight: bold; margin: 0;"">Is there a person in this image?</p>
                    </div>
                </div>","null","main_experiment_trial","3","dinner_party_scheme","schematic_sequence","chronological","","","","","","",""
"","","","","","html-keyboard-response","170","579296","0.0-170.0","059CFA9B63DD4F2A896E14D75DACB6BF","019cfc81-2684-75e7-aa88-fb572255f379","019cfc7b-6c7b-7b1b-afe7-acad8efc6711","","null","
                <div class=""stimulus-container"">
                    <img src=""images/schematic_sequence/dinner_party_scheme/dinner_party_scheme_4.png"" class=""exp-image"">
                    <div class=""question-area""></div> 
                </div>","null","","","","","","","","","","","",""
"","","","","","html-button-response","171","582298","0.0-171.0","059CFA9B63DD4F2A896E14D75DACB6BF","019cfc81-2684-75e7-aa88-fb572255f379","019cfc7b-6c7b-7b1b-afe7-acad8efc6711","","null","
                <div class=""stimulus-container"">
                    <img src=""images/schematic_sequence/dinner_party_scheme/dinner_party_scheme_4.png"" class=""exp-image"">
                    <div class=""question-area"">
                        <p style=""font-size: 20px; font-weight: bold; margin: 0;"">Is there a person in this image?</p>
                    </div>
                </div>","null","main_experiment_trial","4","dinner_party_scheme","schematic_sequence","chronological","","","","","","",""
"","","","","","html-keyboard-response","172","587300","0.0-172.0","059CFA9B63DD4F2A896E14D75DACB6BF","019cfc81-2684-75e7-aa88-fb572255f379","019cfc7b-6c7b-7b1b-afe7-acad8efc6711","","null","
                <div class=""stimulus-container"">
                    <img src=""images/schematic_sequence/dinner_party_scheme/dinner_party_scheme_5.png"" class=""exp-image"">
                    <div class=""question-area""></div> 
                </div>","null","","","","","","","","","","","",""
"","","","","","html-button-response","173","588123","0.0-173.0","059CFA9B63DD4F2A896E14D75DACB6BF","019cfc81-2684-75e7-aa88-fb572255f379","019cfc7b-6c7b-7b1b-afe7-acad8efc6711","","820","
                <div class=""stimulus-container"">
                    <img src=""images/schematic_sequence/dinner_party_scheme/dinner_party_scheme_5.png"" class=""exp-image"">
                    <div class=""question-area"">
                        <p style=""font-size: 20px; font-weight: bold; margin: 0;"">Is there a person in this image?</p>
                    </div>
                </div>","0","main_experiment_trial","5","dinner_party_scheme","schematic_sequence","chronological","","","","","","",""
"","","","","","html-keyboard-response","174","593124","0.0-174.0","059CFA9B63DD4F2A896E14D75DACB6BF","019cfc81-2684-75e7-aa88-fb572255f379","019cfc7b-6c7b-7b1b-afe7-acad8efc6711","","null","
                <div class=""stimulus-container"">
                    <img src=""images/schematic_sequence/dinner_party_scheme/dinner_party_scheme_6.png"" class=""exp-image"">
                    <div class=""question-area""></div> 
                </div>","null","","","","","","","","","","","",""
"","","","","","html-button-response","175","596127","0.0-175.0","059CFA9B63DD4F2A896E14D75DACB6BF","019cfc81-2684-75e7-aa88-fb572255f379","019cfc7b-6c7b-7b1b-afe7-acad8efc6711","","null","
                <div class=""stimulus-container"">
                    <img src=""images/schematic_sequence/dinner_party_scheme/dinner_party_scheme_6.png"" class=""exp-image"">
                    <div class=""question-area"">
                        <p style=""font-size: 20px; font-weight: bold; margin: 0;"">Is there a person in this image?</p>
                    </div>
                </div>","null","main_experiment_trial","6","dinner_party_scheme","schematic_sequence","chronological","","","","","","",""
"","","","","","html-keyboard-response","176","601128","0.0-176.0","059CFA9B63DD4F2A896E14D75DACB6BF","019cfc81-2684-75e7-aa88-fb572255f379","019cfc7b-6c7b-7b1b-afe7-acad8efc6711","","null","
                <div class=""stimulus-container"">
                    <img src=""images/schematic_sequence/dinner_party_scheme/dinner_party_scheme_7.png"" class=""exp-image"">
                    <div class=""question-area""></div> 
                </div>","null","","","","","","","","","","","",""
"","","","","","html-button-response","177","603479","0.0-177.0","059CFA9B63DD4F2A896E14D75DACB6BF","019cfc81-2684-75e7-aa88-fb572255f379","019cfc7b-6c7b-7b1b-afe7-acad8efc6711","","2349","
                <div class=""stimulus-container"">
                    <img src=""images/schematic_sequence/dinner_party_scheme/dinner_party_scheme_7.png"" class=""exp-image"">
                    <div class=""question-area"">
                        <p style=""font-size: 20px; font-weight: bold; margin: 0;"">Is there a person in this image?</p>
