"success","timeout","failed_images","failed_audio","failed_video","trial_type","trial_index","time_elapsed","internal_node_id","subject_id","study_id","session_id","view_history","rt","stimulus","response","task","image_index","folder","sequence_type","valuable_image_index","reward_type","chosen_image_index","target_X","correct_choice"
"true","false","[]","[]","[]","preload","0","9158","0.0-0.0","219A4550C0C34176B71D31A8754BF06B","019cf7cb-da52-7fc9-a7c9-90e62970d72d","019cf7bd-52b9-7f96-9138-a5960b400b31","","","","","","","","","","","","",""
"","","","","","instructions","1","11840","0.0-1.0","219A4550C0C34176B71D31A8754BF06B","019cf7cb-da52-7fc9-a7c9-90e62970d72d","019cf7bd-52b9-7f96-9138-a5960b400b31","[{""page_index"":0,""viewing_time"":2682}]","2682","","","","","","","","","","",""
"","","","","","instructions","2","14536","0.0-2.0","219A4550C0C34176B71D31A8754BF06B","019cf7cb-da52-7fc9-a7c9-90e62970d72d","019cf7bd-52b9-7f96-9138-a5960b400b31","[{""page_index"":0,""viewing_time"":2696}]","2696","","","","","","","","","","",""
"true","","","","","fullscreen","3","17122","0.0-3.0","219A4550C0C34176B71D31A8754BF06B","019cf7cb-da52-7fc9-a7c9-90e62970d72d","019cf7bd-52b9-7f96-9138-a5960b400b31","","1583","","","","","","","","","","",""
"","","","","","instructions","4","21960","0.0-4.0","219A4550C0C34176B71D31A8754BF06B","019cf7cb-da52-7fc9-a7c9-90e62970d72d","019cf7bd-52b9-7f96-9138-a5960b400b31","[{""page_index"":0,""viewing_time"":4838}]","4838","","","","","","","","","","",""
"","","","","","instructions","5","24728","0.0-5.0","219A4550C0C34176B71D31A8754BF06B","019cf7cb-da52-7fc9-a7c9-90e62970d72d","019cf7bd-52b9-7f96-9138-a5960b400b31","[{""page_index"":0,""viewing_time"":2768}]","2768","","","","","","","","","","",""
"","","","","","html-keyboard-response","6","28730","0.0-6.0","219A4550C0C34176B71D31A8754BF06B","019cf7cb-da52-7fc9-a7c9-90e62970d72d","019cf7bd-52b9-7f96-9138-a5960b400b31","","null","
                <div class=""stimulus-container"">
                    <img src=""images/instructions/movie_1.png"" class=""exp-image"">
                    <div class=""question-area""></div> 
                </div>","null","","","","","","","","",""
"","","","","","html-button-response","7","30704","0.0-7.0","219A4550C0C34176B71D31A8754BF06B","019cf7cb-da52-7fc9-a7c9-90e62970d72d","019cf7bd-52b9-7f96-9138-a5960b400b31","","1973","
                <div class=""stimulus-container"">
                    <img src=""images/instructions/movie_1.png"" class=""exp-image"">
                    <div class=""question-area"">
                        <p style=""font-size: 20px; font-weight: bold; margin: 0;"">Was there a person in this image?</p>
                    </div>
                </div>","0","example_question","1","","","","","","",""
"","","","","","html-keyboard-response","8","34711","0.0-8.0","219A4550C0C34176B71D31A8754BF06B","019cf7cb-da52-7fc9-a7c9-90e62970d72d","019cf7bd-52b9-7f96-9138-a5960b400b31","","null","
                <div class=""stimulus-container"">
                    <img src=""images/instructions/movie_2.png"" class=""exp-image"">
                    <div class=""question-area""></div> 
                </div>","null","","","","","","","","",""
"","","","","","html-button-response","9","35888","0.0-9.0","219A4550C0C34176B71D31A8754BF06B","019cf7cb-da52-7fc9-a7c9-90e62970d72d","019cf7bd-52b9-7f96-9138-a5960b400b31","","1177","
                <div class=""stimulus-container"">
                    <img src=""images/instructions/movie_2.png"" class=""exp-image"">
                    <div class=""question-area"">
                        <p style=""font-size: 20px; font-weight: bold; margin: 0;"">Was there a person in this image?</p>
                    </div>
                </div>","1","example_question","2","","","","","","",""
"","","","","","html-keyboard-response","10","39894","0.0-10.0","219A4550C0C34176B71D31A8754BF06B","019cf7cb-da52-7fc9-a7c9-90e62970d72d","019cf7bd-52b9-7f96-9138-a5960b400b31","","null","
                <div class=""stimulus-container"">
                    <img src=""images/instructions/movie_3.png"" class=""exp-image"">
                    <div class=""question-area""></div> 
                </div>","null","","","","","","","","",""
"","","","","","html-button-response","11","41368","0.0-11.0","219A4550C0C34176B71D31A8754BF06B","019cf7cb-da52-7fc9-a7c9-90e62970d72d","019cf7bd-52b9-7f96-9138-a5960b400b31","","1472","
                <div class=""stimulus-container"">
                    <img src=""images/instructions/movie_3.png"" class=""exp-image"">
                    <div class=""question-area"">
                        <p style=""font-size: 20px; font-weight: bold; margin: 0;"">Was there a person in this image?</p>
                    </div>
                </div>","0","example_question","3","","","","","","",""
"","","","","","html-keyboard-response","12","45375","0.0-12.0","219A4550C0C34176B71D31A8754BF06B","019cf7cb-da52-7fc9-a7c9-90e62970d72d","019cf7bd-52b9-7f96-9138-a5960b400b31","","null","
                <div class=""stimulus-container"">
                    <img src=""images/instructions/movie_4.png"" class=""exp-image"">
                    <div class=""question-area""></div> 
                </div>","null","","","","","","","","",""
"","","","","","html-button-response","13","46064","0.0-13.0","219A4550C0C34176B71D31A8754BF06B","019cf7cb-da52-7fc9-a7c9-90e62970d72d","019cf7bd-52b9-7f96-9138-a5960b400b31","","687","
                <div class=""stimulus-container"">
                    <img src=""images/instructions/movie_4.png"" class=""exp-image"">
                    <div class=""question-area"">
                        <p style=""font-size: 20px; font-weight: bold; margin: 0;"">Was there a person in this image?</p>
                    </div>
                </div>","0","example_question","4","","","","","","",""
"","","","","","instructions","14","47240","0.0-14.0","219A4550C0C34176B71D31A8754BF06B","019cf7cb-da52-7fc9-a7c9-90e62970d72d","019cf7bd-52b9-7f96-9138-a5960b400b31","[{""page_index"":0,""viewing_time"":1176}]","1176","","","","","","","","","","",""
"","","","","","instructions","15","50569","0.0-15.0","219A4550C0C34176B71D31A8754BF06B","019cf7cb-da52-7fc9-a7c9-90e62970d72d","019cf7bd-52b9-7f96-9138-a5960b400b31","[{""page_index"":0,""viewing_time"":3328}]","3328","","","","","","","","","","",""
"","","","","","html-keyboard-response","16","51579","0.0-16.0","219A4550C0C34176B71D31A8754BF06B","019cf7cb-da52-7fc9-a7c9-90e62970d72d","019cf7bd-52b9-7f96-9138-a5960b400b31","","null","<div style=""background-color: white; width: 100vw; height: 100vh;""></div>","null","","","","","","","","",""
"","","","","","html-keyboard-response","17","56586","0.0-17.0","219A4550C0C34176B71D31A8754BF06B","019cf7cb-da52-7fc9-a7c9-90e62970d72d","019cf7bd-52b9-7f96-9138-a5960b400b31","","null","
                <div class=""stimulus-container"">
                    <img src=""images/semantic_sequence/exploring_nature_semantic/exploring_nature_semantic_1.png"" class=""exp-image"">
                    <div class=""question-area""></div> 
                </div>","null","","","","","","","","",""
"","","","","","html-button-response","18","57647","0.0-18.0","219A4550C0C34176B71D31A8754BF06B","019cf7cb-da52-7fc9-a7c9-90e62970d72d","019cf7bd-52b9-7f96-9138-a5960b400b31","","1060","
                <div class=""stimulus-container"">
                    <img src=""images/semantic_sequence/exploring_nature_semantic/exploring_nature_semantic_1.png"" class=""exp-image"">
                    <div class=""question-area"">
                        <p style=""font-size: 20px; font-weight: bold; margin: 0;"">Is there a person in this image?</p>
                    </div>
                </div>","0","main_experiment_trial","1","exploring_nature_semantic","semantic_sequence","","","","",""
"","","","","","html-keyboard-response","19","62651","0.0-19.0","219A4550C0C34176B71D31A8754BF06B","019cf7cb-da52-7fc9-a7c9-90e62970d72d","019cf7bd-52b9-7f96-9138-a5960b400b31","","null","
                <div class=""stimulus-container"">
                    <img src=""images/semantic_sequence/exploring_nature_semantic/exploring_nature_semantic_2.png"" class=""exp-image"">
                    <div class=""question-area""></div> 
                </div>","null","","","","","","","","",""
"","","","","","html-button-response","20","63175","0.0-20.0","219A4550C0C34176B71D31A8754BF06B","019cf7cb-da52-7fc9-a7c9-90e62970d72d","019cf7bd-52b9-7f96-9138-a5960b400b31","","523","
                <div class=""stimulus-container"">
                    <img src=""images/semantic_sequence/exploring_nature_semantic/exploring_nature_semantic_2.png"" class=""exp-image"">
                    <div class=""question-area"">
                        <p style=""font-size: 20px; font-weight: bold; margin: 0;"">Is there a person in this image?</p>
                    </div>
                </div>","0","main_experiment_trial","2","exploring_nature_semantic","semantic_sequence","","","","",""
"","","","","","html-keyboard-response","21","68177","0.0-21.0","219A4550C0C34176B71D31A8754BF06B","019cf7cb-da52-7fc9-a7c9-90e62970d72d","019cf7bd-52b9-7f96-9138-a5960b400b31","","null","
                <div class=""stimulus-container"">
                    <img src=""images/semantic_sequence/exploring_nature_semantic/exploring_nature_semantic_3.png"" class=""exp-image"">
                    <div class=""question-area""></div> 
                </div>","null","","","","","","","","",""
"","","","","","html-button-response","22","69224","0.0-22.0","219A4550C0C34176B71D31A8754BF06B","019cf7cb-da52-7fc9-a7c9-90e62970d72d","019cf7bd-52b9-7f96-9138-a5960b400b31","","1048","
                <div class=""stimulus-container"">
                    <img src=""images/semantic_sequence/exploring_nature_semantic/exploring_nature_semantic_3.png"" class=""exp-image"">
                    <div class=""question-area"">
                        <p style=""font-size: 20px; font-weight: bold; margin: 0;"">Is there a person in this image?</p>
                    </div>
                </div>","0","main_experiment_trial","3","exploring_nature_semantic","semantic_sequence","","","","",""
"","","","","","html-keyboard-response","23","74241","0.0-23.0","219A4550C0C34176B71D31A8754BF06B","019cf7cb-da52-7fc9-a7c9-90e62970d72d","019cf7bd-52b9-7f96-9138-a5960b400b31","","null","
                <div class=""stimulus-container"">
                    <img src=""images/semantic_sequence/exploring_nature_semantic/exploring_nature_semantic_4.png"" class=""exp-image"">
                    <div class=""question-area""></div> 
                </div>","null","","","","","","","","",""
"","","","","","html-button-response","24","75464","0.0-24.0","219A4550C0C34176B71D31A8754BF06B","019cf7cb-da52-7fc9-a7c9-90e62970d72d","019cf7bd-52b9-7f96-9138-a5960b400b31","","1222","
                <div class=""stimulus-container"">
                    <img src=""images/semantic_sequence/exploring_nature_semantic/exploring_nature_semantic_4.png"" class=""exp-image"">
                    <div class=""question-area"">
                        <p style=""font-size: 20px; font-weight: bold; margin: 0;"">Is there a person in this image?</p>
                    </div>
                </div>","0","main_experiment_trial","4","exploring_nature_semantic","semantic_sequence","","","","",""
"","","","","","html-keyboard-response","25","80477","0.0-25.0","219A4550C0C34176B71D31A8754BF06B","019cf7cb-da52-7fc9-a7c9-90e62970d72d","019cf7bd-52b9-7f96-9138-a5960b400b31","","null","
                <div class=""stimulus-container"">
                    <img src=""images/semantic_sequence/exploring_nature_semantic/exploring_nature_semantic_5.png"" class=""exp-image"">
                    <div class=""question-area""></div> 
                </div>","null","","","","","","","","",""
"","","","","","html-button-response","26","83485","0.0-26.0","219A4550C0C34176B71D31A8754BF06B","019cf7cb-da52-7fc9-a7c9-90e62970d72d","019cf7bd-52b9-7f96-9138-a5960b400b31","","null","
                <div class=""stimulus-container"">
                    <img src=""images/semantic_sequence/exploring_nature_semantic/exploring_nature_semantic_5.png"" class=""exp-image"">
                    <div class=""question-area"">
                        <p style=""font-size: 20px; font-weight: bold; margin: 0;"">Is there a person in this image?</p>
                    </div>
                </div>","null","main_experiment_trial","5","exploring_nature_semantic","semantic_sequence","","","","",""
"","","","","","html-keyboard-response","27","88497","0.0-27.0","219A4550C0C34176B71D31A8754BF06B","019cf7cb-da52-7fc9-a7c9-90e62970d72d","019cf7bd-52b9-7f96-9138-a5960b400b31","","null","
                <div class=""stimulus-container"">
                    <img src=""images/semantic_sequence/exploring_nature_semantic/exploring_nature_semantic_6.png"" class=""exp-image"">
                    <div class=""question-area""></div> 
                </div>","null","","","","","","","","",""
"","","","","","html-button-response","28","89576","0.0-28.0","219A4550C0C34176B71D31A8754BF06B","019cf7cb-da52-7fc9-a7c9-90e62970d72d","019cf7bd-52b9-7f96-9138-a5960b400b31","","1078","
                <div class=""stimulus-container"">
                    <img src=""images/semantic_sequence/exploring_nature_semantic/exploring_nature_semantic_6.png"" class=""exp-image"">
                    <div class=""question-area"">
                        <p style=""font-size: 20px; font-weight: bold; margin: 0;"">Is there a person in this image?</p>
                    </div>
                </div>","0","main_experiment_trial","6","exploring_nature_semantic","semantic_sequence","","","","",""
"","","","","","html-keyboard-response","29","94580","0.0-29.0","219A4550C0C34176B71D31A8754BF06B","019cf7cb-da52-7fc9-a7c9-90e62970d72d","019cf7bd-52b9-7f96-9138-a5960b400b31","","null","
                <div class=""stimulus-container"">
                    <img src=""images/semantic_sequence/exploring_nature_semantic/exploring_nature_semantic_7.png"" class=""exp-image"">
                    <div class=""question-area""></div> 
                </div>","null","","","","","","","","",""
"","","","","","html-button-response","30","95223","0.0-30.0","219A4550C0C34176B71D31A8754BF06B","019cf7cb-da52-7fc9-a7c9-90e62970d72d","019cf7bd-52b9-7f96-9138-a5960b400b31","","643","
                <div class=""stimulus-container"">
                    <img src=""images/semantic_sequence/exploring_nature_semantic/exploring_nature_semantic_7.png"" class=""exp-image"">
                    <div class=""question-area"">
                        <p style=""font-size: 20px; font-weight: bold; margin: 0;"">Is there a person in this image?</p>
                    </div>
                </div>","0","main_experiment_trial","7","exploring_nature_semantic","semantic_sequence","","","","",""
"","","","","","html-keyboard-response","31","100232","0.0-31.0","219A4550C0C34176B71D31A8754BF06B","019cf7cb-da52-7fc9-a7c9-90e62970d72d","019cf7bd-52b9-7f96-9138-a5960b400b31","","null","
                <div class=""stimulus-container"">
                    <img src=""images/semantic_sequence/exploring_nature_semantic/exploring_nature_semantic_8.png"" class=""exp-image"">
                    <div class=""question-area""></div> 
                </div>","null","","","","","","","","",""
"","","","","","html-button-response","32","101008","0.0-32.0","219A4550C0C34176B71D31A8754BF06B","019cf7cb-da52-7fc9-a7c9-90e62970d72d","019cf7bd-52b9-7f96-9138-a5960b400b31","","774","
                <div class=""stimulus-container"">
                    <img src=""images/semantic_sequence/exploring_nature_semantic/exploring_nature_semantic_8.png"" class=""exp-image"">
                    <div class=""question-area"">
                        <p style=""font-size: 20px; font-weight: bold; margin: 0;"">Is there a person in this image?</p>
                    </div>
                </div>","0","main_experiment_trial","8","exploring_nature_semantic","semantic_sequence","","","","",""
"","","","","","html-keyboard-response","33","106012","0.0-33.0","219A4550C0C34176B71D31A8754BF06B","019cf7cb-da52-7fc9-a7c9-90e62970d72d","019cf7bd-52b9-7f96-9138-a5960b400b31","","null","
                <div class=""stimulus-container"">
                    <img src=""images/semantic_sequence/exploring_nature_semantic/exploring_nature_semantic_9.png"" class=""exp-image"">
                    <div class=""question-area""></div> 
                </div>","null","","","","","","","","",""
"","","","","","html-button-response","34","106936","0.0-34.0","219A4550C0C34176B71D31A8754BF06B","019cf7cb-da52-7fc9-a7c9-90e62970d72d","019cf7bd-52b9-7f96-9138-a5960b400b31","","923","
                <div class=""stimulus-container"">
                    <img src=""images/semantic_sequence/exploring_nature_semantic/exploring_nature_semantic_9.png"" class=""exp-image"">
                    <div class=""question-area"">
                        <p style=""font-size: 20px; font-weight: bold; margin: 0;"">Is there a person in this image?</p>
                    </div>
                </div>","0","main_experiment_trial","9","exploring_nature_semantic","semantic_sequence","","","","",""
"","","","","","html-keyboard-response","35","111942","0.0-35.0","219A4550C0C34176B71D31A8754BF06B","019cf7cb-da52-7fc9-a7c9-90e62970d72d","019cf7bd-52b9-7f96-9138-a5960b400b31","","null","
                <div class=""stimulus-container"">
                    <img src=""images/semantic_sequence/exploring_nature_semantic/exploring_nature_semantic_ten.png"" class=""exp-image"">
                    <div class=""question-area""></div> 
                </div>","null","","","","","","","","",""
"","","","","","html-button-response","36","112792","0.0-36.0","219A4550C0C34176B71D31A8754BF06B","019cf7cb-da52-7fc9-a7c9-90e62970d72d","019cf7bd-52b9-7f96-9138-a5960b400b31","","848","
                <div class=""stimulus-container"">
                    <img src=""images/semantic_sequence/exploring_nature_semantic/exploring_nature_semantic_ten.png"" class=""exp-image"">
                    <div class=""question-area"">
                        <p style=""font-size: 20px; font-weight: bold; margin: 0;"">Is there a person in this image?</p>
                    </div>
                </div>","0","main_experiment_trial","ten","exploring_nature_semantic","semantic_sequence","","","","",""
"","","","","","html-keyboard-response","37","113801","0.0-37.0","219A4550C0C34176B71D31A8754BF06B","019cf7cb-da52-7fc9-a7c9-90e62970d72d","019cf7bd-52b9-7f96-9138-a5960b400b31","","null","<div style=""background-color: white; width: 100vw; height: 100vh;""></div>","null","","","","","","","","",""
"","","","","","html-keyboard-response","38","118817","0.0-38.0","219A4550C0C34176B71D31A8754BF06B","019cf7cb-da52-7fc9-a7c9-90e62970d72d","019cf7bd-52b9-7f96-9138-a5960b400b31","","null","
                <div class=""stimulus-container"">
                    <img src=""images/schematic_sequence/interview_scheme/interview_scheme_1.png"" class=""exp-image"">
                    <div class=""question-area""></div> 
                </div>","null","","","","","","","","",""
"","","","","","html-button-response","39","119583","0.0-39.0","219A4550C0C34176B71D31A8754BF06B","019cf7cb-da52-7fc9-a7c9-90e62970d72d","019cf7bd-52b9-7f96-9138-a5960b400b31","","765","
                <div class=""stimulus-container"">
                    <img src=""images/schematic_sequence/interview_scheme/interview_scheme_1.png"" class=""exp-image"">
                    <div class=""question-area"">
                        <p style=""font-size: 20px; font-weight: bold; margin: 0;"">Is there a person in this image?</p>
                    </div>
                </div>","1","main_experiment_trial","1","interview_scheme","schematic_sequence","","","","",""
"","","","","","html-keyboard-response","40","124595","0.0-40.0","219A4550C0C34176B71D31A8754BF06B","019cf7cb-da52-7fc9-a7c9-90e62970d72d","019cf7bd-52b9-7f96-9138-a5960b400b31","","null","
                <div class=""stimulus-container"">
                    <img src=""images/schematic_sequence/interview_scheme/interview_scheme_2.png"" class=""exp-image"">
                    <div class=""question-area""></div> 
                </div>","null","","","","","","","","",""
"","","","","","html-button-response","41","126744","0.0-41.0","219A4550C0C34176B71D31A8754BF06B","019cf7cb-da52-7fc9-a7c9-90e62970d72d","019cf7bd-52b9-7f96-9138-a5960b400b31","","2148","
                <div class=""stimulus-container"">
                    <img src=""images/schematic_sequence/interview_scheme/interview_scheme_2.png"" class=""exp-image"">
                    <div class=""question-area"">
                        <p style=""font-size: 20px; font-weight: bold; margin: 0;"">Is there a person in this image?</p>
                    </div>
                </div>","1","main_experiment_trial","2","interview_scheme","schematic_sequence","","","","",""
"","","","","","html-keyboard-response","42","131750","0.0-42.0","219A4550C0C34176B71D31A8754BF06B","019cf7cb-da52-7fc9-a7c9-90e62970d72d","019cf7bd-52b9-7f96-9138-a5960b400b31","","null","
                <div class=""stimulus-container"">
                    <img src=""images/schematic_sequence/interview_scheme/interview_scheme_3.png"" class=""exp-image"">
                    <div class=""question-area""></div> 
                </div>","null","","","","","","","","",""
"","","","","","html-button-response","43","133248","0.0-43.0","219A4550C0C34176B71D31A8754BF06B","019cf7cb-da52-7fc9-a7c9-90e62970d72d","019cf7bd-52b9-7f96-9138-a5960b400b31","","1497","
                <div class=""stimulus-container"">
                    <img src=""images/schematic_sequence/interview_scheme/interview_scheme_3.png"" class=""exp-image"">
                    <div class=""question-area"">
                        <p style=""font-size: 20px; font-weight: bold; margin: 0;"">Is there a person in this image?</p>
                    </div>
                </div>","1","main_experiment_trial","3","interview_scheme","schematic_sequence","","","","",""
"","","","","","html-keyboard-response","44","138254","0.0-44.0","219A4550C0C34176B71D31A8754BF06B","019cf7cb-da52-7fc9-a7c9-90e62970d72d","019cf7bd-52b9-7f96-9138-a5960b400b31","","null","
                <div class=""stimulus-container"">
                    <img src=""images/schematic_sequence/interview_scheme/interview_scheme_4.png"" class=""exp-image"">
                    <div class=""question-area""></div> 
                </div>","null","","","","","","","","",""
"","","","","","html-button-response","45","139232","0.0-45.0","219A4550C0C34176B71D31A8754BF06B","019cf7cb-da52-7fc9-a7c9-90e62970d72d","019cf7bd-52b9-7f96-9138-a5960b400b31","","976","
                <div class=""stimulus-container"">
                    <img src=""images/schematic_sequence/interview_scheme/interview_scheme_4.png"" class=""exp-image"">
                    <div class=""question-area"">
                        <p style=""font-size: 20px; font-weight: bold; margin: 0;"">Is there a person in this image?</p>
                    </div>
                </div>","1","main_experiment_trial","4","interview_scheme","schematic_sequence","","","","",""
"","","","","","html-keyboard-response","46","144245","0.0-46.0","219A4550C0C34176B71D31A8754BF06B","019cf7cb-da52-7fc9-a7c9-90e62970d72d","019cf7bd-52b9-7f96-9138-a5960b400b31","","null","
                <div class=""stimulus-container"">
                    <img src=""images/schematic_sequence/interview_scheme/interview_scheme_5.png"" class=""exp-image"">
                    <div class=""question-area""></div> 
                </div>","null","","","","","","","","",""
"","","","","","html-button-response","47","145624","0.0-47.0","219A4550C0C34176B71D31A8754BF06B","019cf7cb-da52-7fc9-a7c9-90e62970d72d","019cf7bd-52b9-7f96-9138-a5960b400b31","","1377","
                <div class=""stimulus-container"">
                    <img src=""images/schematic_sequence/interview_scheme/interview_scheme_5.png"" class=""exp-image"">
                    <div class=""question-area"">
                        <p style=""font-size: 20px; font-weight: bold; margin: 0;"">Is there a person in this image?</p>
                    </div>
                </div>","0","main_experiment_trial","5","interview_scheme","schematic_sequence","","","","",""
"","","","","","html-keyboard-response","48","150626","0.0-48.0","219A4550C0C34176B71D31A8754BF06B","019cf7cb-da52-7fc9-a7c9-90e62970d72d","019cf7bd-52b9-7f96-9138-a5960b400b31","","null","
                <div class=""stimulus-container"">
                    <img src=""images/schematic_sequence/interview_scheme/interview_scheme_6.png"" class=""exp-image"">
                    <div class=""question-area""></div> 
                </div>","null","","","","","","","","",""
"","","","","","html-button-response","49","151672","0.0-49.0","219A4550C0C34176B71D31A8754BF06B","019cf7cb-da52-7fc9-a7c9-90e62970d72d","019cf7bd-52b9-7f96-9138-a5960b400b31","","1045","
                <div class=""stimulus-container"">
                    <img src=""images/schematic_sequence/interview_scheme/interview_scheme_6.png"" class=""exp-image"">
                    <div class=""question-area"">
                        <p style=""font-size: 20px; font-weight: bold; margin: 0;"">Is there a person in this image?</p>
                    </div>
                </div>","0","main_experiment_trial","6","interview_scheme","schematic_sequence","","","","",""
"","","","","","html-keyboard-response","50","156681","0.0-50.0","219A4550C0C34176B71D31A8754BF06B","019cf7cb-da52-7fc9-a7c9-90e62970d72d","019cf7bd-52b9-7f96-9138-a5960b400b31","","null","
                <div class=""stimulus-container"">
                    <img src=""images/schematic_sequence/interview_scheme/interview_scheme_7.png"" class=""exp-image"">
                    <div class=""question-area""></div> 
                </div>","null","","","","","","","","",""
"","","","","","html-button-response","51","158752","0.0-51.0","219A4550C0C34176B71D31A8754BF06B","019cf7cb-da52-7fc9-a7c9-90e62970d72d","019cf7bd-52b9-7f96-9138-a5960b400b31","","2069","
                <div class=""stimulus-container"">
                    <img src=""images/schematic_sequence/interview_scheme/interview_scheme_7.png"" class=""exp-image"">
                    <div class=""question-area"">
                        <p style=""font-size: 20px; font-weight: bold; margin: 0;"">Is there a person in this image?</p>
                    </div>
                </div>","0","main_experiment_trial","7","interview_scheme","schematic_sequence","","","","",""
"","","","","","html-keyboard-response","52","163756","0.0-52.0","219A4550C0C34176B71D31A8754BF06B","019cf7cb-da52-7fc9-a7c9-90e62970d72d","019cf7bd-52b9-7f96-9138-a5960b400b31","","null","
                <div class=""stimulus-container"">
                    <img src=""images/schematic_sequence/interview_scheme/interview_scheme_8.png"" class=""exp-image"">
                    <div class=""question-area""></div> 
                </div>","null","","","","","","","","",""
"","","","","","html-button-response","53","164831","0.0-53.0","219A4550C0C34176B71D31A8754BF06B","019cf7cb-da52-7fc9-a7c9-90e62970d72d","019cf7bd-52b9-7f96-9138-a5960b400b31","","1074","
                <div class=""stimulus-container"">
                    <img src=""images/schematic_sequence/interview_scheme/interview_scheme_8.png"" class=""exp-image"">
                    <div class=""question-area"">
                        <p style=""font-size: 20px; font-weight: bold; margin: 0;"">Is there a person in this image?</p>
                    </div>
                </div>","0","main_experiment_trial","8","interview_scheme","schematic_sequence","","","","",""
"","","","","","html-keyboard-response","54","169838","0.0-54.0","219A4550C0C34176B71D31A8754BF06B","019cf7cb-da52-7fc9-a7c9-90e62970d72d","019cf7bd-52b9-7f96-9138-a5960b400b31","","null","
                <div class=""stimulus-container"">
                    <img src=""images/schematic_sequence/interview_scheme/interview_scheme_9.png"" class=""exp-image"">
                    <div class=""question-area""></div> 
                </div>","null","","","","","","","","",""
"","","","","","html-button-response","55","170904","0.0-55.0","219A4550C0C34176B71D31A8754BF06B","019cf7cb-da52-7fc9-a7c9-90e62970d72d","019cf7bd-52b9-7f96-9138-a5960b400b31","","1065","
                <div class=""stimulus-container"">
                    <img src=""images/schematic_sequence/interview_scheme/interview_scheme_9.png"" class=""exp-image"">
                    <div class=""question-area"">
                        <p style=""font-size: 20px; font-weight: bold; margin: 0;"">Is there a person in this image?</p>
                    </div>
                </div>","0","main_experiment_trial","9","interview_scheme","schematic_sequence","","","","",""
"","","","","","html-keyboard-response","56","175912","0.0-56.0","219A4550C0C34176B71D31A8754BF06B","019cf7cb-da52-7fc9-a7c9-90e62970d72d","019cf7bd-52b9-7f96-9138-a5960b400b31","","null","
                <div class=""stimulus-container"">
                    <img src=""images/schematic_sequence/interview_scheme/interview_scheme_ten.png"" class=""exp-image"">
                    <div class=""question-area""></div> 
                </div>","null","","","","","","","","",""
"","","","","","html-button-response","57","178712","0.0-57.0","219A4550C0C34176B71D31A8754BF06B","019cf7cb-da52-7fc9-a7c9-90e62970d72d","019cf7bd-52b9-7f96-9138-a5960b400b31","","2800","
                <div class=""stimulus-container"">
                    <img src=""images/schematic_sequence/interview_scheme/interview_scheme_ten.png"" class=""exp-image"">
                    <div class=""question-area"">
                        <p style=""font-size: 20px; font-weight: bold; margin: 0;"">Is there a person in this image?</p>
                    </div>
                </div>","0","main_experiment_trial","ten","interview_scheme","schematic_sequence","","","","",""
"","","","","","html-keyboard-response","58","179714","0.0-58.0","219A4550C0C34176B71D31A8754BF06B","019cf7cb-da52-7fc9-a7c9-90e62970d72d","019cf7bd-52b9-7f96-9138-a5960b400b31","","null","<div style=""background-color: white; width: 100vw; height: 100vh;""></div>","null","","","","","","","","",""
"","","","","","html-keyboard-response","59","184728","0.0-59.0","219A4550C0C34176B71D31A8754BF06B","019cf7cb-da52-7fc9-a7c9-90e62970d72d","019cf7bd-52b9-7f96-9138-a5960b400b31","","null","
                <div class=""stimulus-container"">
                    <img src=""images/schematic_sequence/dinner_party_scheme/dinner_party_scheme_1.png"" class=""exp-image"">
                    <div class=""question-area""></div> 
                </div>","null","","","","","","","","",""
"","","","","","html-button-response","60","186992","0.0-60.0","219A4550C0C34176B71D31A8754BF06B","019cf7cb-da52-7fc9-a7c9-90e62970d72d","019cf7bd-52b9-7f96-9138-a5960b400b31","","2262","
                <div class=""stimulus-container"">
                    <img src=""images/schematic_sequence/dinner_party_scheme/dinner_party_scheme_1.png"" class=""exp-image"">
                    <div class=""question-area"">
                        <p style=""font-size: 20px; font-weight: bold; margin: 0;"">Is there a person in this image?</p>
                    </div>
                </div>","1","main_experiment_trial","1","dinner_party_scheme","schematic_sequence","","","","",""
"","","","","","html-keyboard-response","61","191996","0.0-61.0","219A4550C0C34176B71D31A8754BF06B","019cf7cb-da52-7fc9-a7c9-90e62970d72d","019cf7bd-52b9-7f96-9138-a5960b400b31","","null","
                <div class=""stimulus-container"">
                    <img src=""images/schematic_sequence/dinner_party_scheme/dinner_party_scheme_2.png"" class=""exp-image"">
                    <div class=""question-area""></div> 
                </div>","null","","","","","","","","",""
"","","","","","html-button-response","62","192560","0.0-62.0","219A4550C0C34176B71D31A8754BF06B","019cf7cb-da52-7fc9-a7c9-90e62970d72d","019cf7bd-52b9-7f96-9138-a5960b400b31","","562","
                <div class=""stimulus-container"">
                    <img src=""images/schematic_sequence/dinner_party_scheme/dinner_party_scheme_2.png"" class=""exp-image"">
                    <div class=""question-area"">
                        <p style=""font-size: 20px; font-weight: bold; margin: 0;"">Is there a person in this image?</p>
                    </div>
                </div>","1","main_experiment_trial","2","dinner_party_scheme","schematic_sequence","","","","",""
"","","","","","html-keyboard-response","63","197571","0.0-63.0","219A4550C0C34176B71D31A8754BF06B","019cf7cb-da52-7fc9-a7c9-90e62970d72d","019cf7bd-52b9-7f96-9138-a5960b400b31","","null","
                <div class=""stimulus-container"">
                    <img src=""images/schematic_sequence/dinner_party_scheme/dinner_party_scheme_3.png"" class=""exp-image"">
                    <div class=""question-area""></div> 
                </div>","null","","","","","","","","",""
"","","","","","html-button-response","64","200448","0.0-64.0","219A4550C0C34176B71D31A8754BF06B","019cf7cb-da52-7fc9-a7c9-90e62970d72d","019cf7bd-52b9-7f96-9138-a5960b400b31","","2876","
                <div class=""stimulus-container"">
                    <img src=""images/schematic_sequence/dinner_party_scheme/dinner_party_scheme_3.png"" class=""exp-image"">
                    <div class=""question-area"">
                        <p style=""font-size: 20px; font-weight: bold; margin: 0;"">Is there a person in this image?</p>
                    </div>
                </div>","0","main_experiment_trial","3","dinner_party_scheme","schematic_sequence","","","","",""
"","","","","","html-keyboard-response","65","205458","0.0-65.0","219A4550C0C34176B71D31A8754BF06B","019cf7cb-da52-7fc9-a7c9-90e62970d72d","019cf7bd-52b9-7f96-9138-a5960b400b31","","null","
                <div class=""stimulus-container"">
                    <img src=""images/schematic_sequence/dinner_party_scheme/dinner_party_scheme_4.png"" class=""exp-image"">
                    <div class=""question-area""></div> 
                </div>","null","","","","","","","","",""
"","","","","","html-button-response","66","206527","0.0-66.0","219A4550C0C34176B71D31A8754BF06B","019cf7cb-da52-7fc9-a7c9-90e62970d72d","019cf7bd-52b9-7f96-9138-a5960b400b31","","1068","
                <div class=""stimulus-container"">
                    <img src=""images/schematic_sequence/dinner_party_scheme/dinner_party_scheme_4.png"" class=""exp-image"">
                    <div class=""question-area"">
                        <p style=""font-size: 20px; font-weight: bold; margin: 0;"">Is there a person in this image?</p>
                    </div>
                </div>","0","main_experiment_trial","4","dinner_party_scheme","schematic_sequence","","","","",""
"","","","","","html-keyboard-response","67","211534","0.0-67.0","219A4550C0C34176B71D31A8754BF06B","019cf7cb-da52-7fc9-a7c9-90e62970d72d","019cf7bd-52b9-7f96-9138-a5960b400b31","","null","
                <div class=""stimulus-container"">
                    <img src=""images/schematic_sequence/dinner_party_scheme/dinner_party_scheme_5.png"" class=""exp-image"">
                    <div class=""question-area""></div> 
                </div>","null","","","","","","","","",""
"","","","","","html-button-response","68","212304","0.0-68.0","219A4550C0C34176B71D31A8754BF06B","019cf7cb-da52-7fc9-a7c9-90e62970d72d","019cf7bd-52b9-7f96-9138-a5960b400b31","","769","
                <div class=""stimulus-container"">
                    <img src=""images/schematic_sequence/dinner_party_scheme/dinner_party_scheme_5.png"" class=""exp-image"">
                    <div class=""question-area"">
                        <p style=""font-size: 20px; font-weight: bold; margin: 0;"">Is there a person in this image?</p>
                    </div>
                </div>","0","main_experiment_trial","5","dinner_party_scheme","schematic_sequence","","","","",""
"","","","","","html-keyboard-response","69","217310","0.0-69.0","219A4550C0C34176B71D31A8754BF06B","019cf7cb-da52-7fc9-a7c9-90e62970d72d","019cf7bd-52b9-7f96-9138-a5960b400b31","","null","
                <div class=""stimulus-container"">
                    <img src=""images/schematic_sequence/dinner_party_scheme/dinner_party_scheme_6.png"" class=""exp-image"">
                    <div class=""question-area""></div> 
                </div>","null","","","","","","","","",""
"","","","","","html-button-response","70","218808","0.0-70.0","219A4550C0C34176B71D31A8754BF06B","019cf7cb-da52-7fc9-a7c9-90e62970d72d","019cf7bd-52b9-7f96-9138-a5960b400b31","","1497","
                <div class=""stimulus-container"">
                    <img src=""images/schematic_sequence/dinner_party_scheme/dinner_party_scheme_6.png"" class=""exp-image"">
                    <div class=""question-area"">
                        <p style=""font-size: 20px; font-weight: bold; margin: 0;"">Is there a person in this image?</p>
                    </div>
                </div>","0","main_experiment_trial","6","dinner_party_scheme","schematic_sequence","","","","",""
"","","","","","html-keyboard-response","71","223819","0.0-71.0","219A4550C0C34176B71D31A8754BF06B","019cf7cb-da52-7fc9-a7c9-90e62970d72d","019cf7bd-52b9-7f96-9138-a5960b400b31","","null","
                <div class=""stimulus-container"">
                    <img src=""images/schematic_sequence/dinner_party_scheme/dinner_party_scheme_7.png"" class=""exp-image"">
                    <div class=""question-area""></div> 
                </div>","null","","","","","","","","",""
"","","","","","html-button-response","72","225480","0.0-72.0","219A4550C0C34176B71D31A8754BF06B","019cf7cb-da52-7fc9-a7c9-90e62970d72d","019cf7bd-52b9-7f96-9138-a5960b400b31","","1660","
                <div class=""stimulus-container"">
                    <img src=""images/schematic_sequence/dinner_party_scheme/dinner_party_scheme_7.png"" class=""exp-image"">
                    <div class=""question-area"">
                        <p style=""font-size: 20px; font-weight: bold; margin: 0;"">Is there a person in this image?</p>
                    </div>
                </div>","0","main_experiment_trial","7","dinner_party_scheme","schematic_sequence","","","","",""
"","","","","","html-keyboard-response","73","230493","0.0-73.0","219A4550C0C34176B71D31A8754BF06B","019cf7cb-da52-7fc9-a7c9-90e62970d72d","019cf7bd-52b9-7f96-9138-a5960b400b31","","null","
                <div class=""stimulus-container"">
                    <img src=""images/schematic_sequence/dinner_party_scheme/dinner_party_scheme_8.png"" class=""exp-image"">
                    <div class=""question-area""></div> 
                </div>","null","","","","","","","","",""
"","","","","","html-button-response","74","233495","0.0-74.0","219A4550C0C34176B71D31A8754BF06B","019cf7cb-da52-7fc9-a7c9-90e62970d72d","019cf7bd-52b9-7f96-9138-a5960b400b31","","null","
                <div class=""stimulus-container"">
                    <img src=""images/schematic_sequence/dinner_party_scheme/dinner_party_scheme_8.png"" class=""exp-image"">
                    <div class=""question-area"">
                        <p style=""font-size: 20px; font-weight: bold; margin: 0;"">Is there a person in this image?</p>
                    </div>
                </div>","null","main_experiment_trial","8","dinner_party_scheme","schematic_sequence","","","","",""
"","","","","","html-keyboard-response","75","238508","0.0-75.0","219A4550C0C34176B71D31A8754BF06B","019cf7cb-da52-7fc9-a7c9-90e62970d72d","019cf7bd-52b9-7f96-9138-a5960b400b31","","null","
                <div class=""stimulus-container"">
                    <img src=""images/schematic_sequence/dinner_party_scheme/dinner_party_scheme_9.png"" class=""exp-image"">
                    <div class=""question-area""></div> 
                </div>","null","","","","","","","","",""
"","","","","","html-button-response","76","239167","0.0-76.0","219A4550C0C34176B71D31A8754BF06B","019cf7cb-da52-7fc9-a7c9-90e62970d72d","019cf7bd-52b9-7f96-9138-a5960b400b31","","658","
                <div class=""stimulus-container"">
                    <img src=""images/schematic_sequence/dinner_party_scheme/dinner_party_scheme_9.png"" class=""exp-image"">
                    <div class=""question-area"">
                        <p style=""font-size: 20px; font-weight: bold; margin: 0;"">Is there a person in this image?</p>
                    </div>
                </div>","0","main_experiment_trial","9","dinner_party_scheme","schematic_sequence","","","","",""
"","","","","","html-keyboard-response","77","244183","0.0-77.0","219A4550C0C34176B71D31A8754BF06B","019cf7cb-da52-7fc9-a7c9-90e62970d72d","019cf7bd-52b9-7f96-9138-a5960b400b31","","null","
                <div class=""stimulus-container"">
                    <img src=""images/schematic_sequence/dinner_party_scheme/dinner_party_scheme_ten.png"" class=""exp-image"">
                    <div class=""question-area""></div> 
                </div>","null","","","","","","","","",""
"","","","","","html-button-response","78","245424","0.0-78.0","219A4550C0C34176B71D31A8754BF06B","019cf7cb-da52-7fc9-a7c9-90e62970d72d","019cf7bd-52b9-7f96-9138-a5960b400b31","","1240","
                <div class=""stimulus-container"">
                    <img src=""images/schematic_sequence/dinner_party_scheme/dinner_party_scheme_ten.png"" class=""exp-image"">
                    <div class=""question-area"">
                        <p style=""font-size: 20px; font-weight: bold; margin: 0;"">Is there a person in this image?</p>
                    </div>
                </div>","0","main_experiment_trial","ten","dinner_party_scheme","schematic_sequence","","","","",""
"","","","","","html-keyboard-response","79","246436","0.0-79.0","219A4550C0C34176B71D31A8754BF06B","019cf7cb-da52-7fc9-a7c9-90e62970d72d","019cf7bd-52b9-7f96-9138-a5960b400b31","","null","<div style=""background-color: white; width: 100vw; height: 100vh;""></div>","null","","","","","","","","",""
"","","","","","html-keyboard-response","80","251438","0.0-80.0","219A4550C0C34176B71D31A8754BF06B","019cf7cb-da52-7fc9-a7c9-90e62970d72d","019cf7bd-52b9-7f96-9138-a5960b400b31","","null","
                <div class=""stimulus-container"">
                    <img src=""images/semantic_sequence/visiting_cities_semantic/visiting_cities_semantic_1.png"" class=""exp-image"">
                    <div class=""question-area""></div> 
                </div>","null","","","","","","","","",""
"","","","","","html-button-response","81","253672","0.0-81.0","219A4550C0C34176B71D31A8754BF06B","019cf7cb-da52-7fc9-a7c9-90e62970d72d","019cf7bd-52b9-7f96-9138-a5960b400b31","","2232","
                <div class=""stimulus-container"">
                    <img src=""images/semantic_sequence/visiting_cities_semantic/visiting_cities_semantic_1.png"" class=""exp-image"">
                    <div class=""question-area"">
                        <p style=""font-size: 20px; font-weight: bold; margin: 0;"">Is there a person in this image?</p>
                    </div>
                </div>","1","main_experiment_trial","1","visiting_cities_semantic","semantic_sequence","","","","",""
"","","","","","html-keyboard-response","82","258675","0.0-82.0","219A4550C0C34176B71D31A8754BF06B","019cf7cb-da52-7fc9-a7c9-90e62970d72d","019cf7bd-52b9-7f96-9138-a5960b400b31","","null","
                <div class=""stimulus-container"">
                    <img src=""images/semantic_sequence/visiting_cities_semantic/visiting_cities_semantic_2.png"" class=""exp-image"">
                    <div class=""question-area""></div> 
                </div>","null","","","","","","","","",""
"","","","","","html-button-response","83","259688","0.0-83.0","219A4550C0C34176B71D31A8754BF06B","019cf7cb-da52-7fc9-a7c9-90e62970d72d","019cf7bd-52b9-7f96-9138-a5960b400b31","","1011","
                <div class=""stimulus-container"">
                    <img src=""images/semantic_sequence/visiting_cities_semantic/visiting_cities_semantic_2.png"" class=""exp-image"">
                    <div class=""question-area"">
                        <p style=""font-size: 20px; font-weight: bold; margin: 0;"">Is there a person in this image?</p>
                    </div>
                </div>","1","main_experiment_trial","2","visiting_cities_semantic","semantic_sequence","","","","",""
"","","","","","html-keyboard-response","84","264700","0.0-84.0","219A4550C0C34176B71D31A8754BF06B","019cf7cb-da52-7fc9-a7c9-90e62970d72d","019cf7bd-52b9-7f96-9138-a5960b400b31","","null","
                <div class=""stimulus-container"">
                    <img src=""images/semantic_sequence/visiting_cities_semantic/visiting_cities_semantic_3.png"" class=""exp-image"">
                    <div class=""question-area""></div> 
                </div>","null","","","","","","","","",""
"","","","","","html-button-response","85","266175","0.0-85.0","219A4550C0C34176B71D31A8754BF06B","019cf7cb-da52-7fc9-a7c9-90e62970d72d","019cf7bd-52b9-7f96-9138-a5960b400b31","","1474","
                <div class=""stimulus-container"">
                    <img src=""images/semantic_sequence/visiting_cities_semantic/visiting_cities_semantic_3.png"" class=""exp-image"">
                    <div class=""question-area"">
                        <p style=""font-size: 20px; font-weight: bold; margin: 0;"">Is there a person in this image?</p>
                    </div>
                </div>","1","main_experiment_trial","3","visiting_cities_semantic","semantic_sequence","","","","",""
"","","","","","html-keyboard-response","86","271181","0.0-86.0","219A4550C0C34176B71D31A8754BF06B","019cf7cb-da52-7fc9-a7c9-90e62970d72d","019cf7bd-52b9-7f96-9138-a5960b400b31","","null","
                <div class=""stimulus-container"">
                    <img src=""images/semantic_sequence/visiting_cities_semantic/visiting_cities_semantic_4.png"" class=""exp-image"">
                    <div class=""question-area""></div> 
                </div>","null","","","","","","","","",""
"","","","","","html-button-response","87","273415","0.0-87.0","219A4550C0C34176B71D31A8754BF06B","019cf7cb-da52-7fc9-a7c9-90e62970d72d","019cf7bd-52b9-7f96-9138-a5960b400b31","","2234","
                <div class=""stimulus-container"">
                    <img src=""images/semantic_sequence/visiting_cities_semantic/visiting_cities_semantic_4.png"" class=""exp-image"">
                    <div class=""question-area"">
                        <p style=""font-size: 20px; font-weight: bold; margin: 0;"">Is there a person in this image?</p>
                    </div>
                </div>","1","main_experiment_trial","4","visiting_cities_semantic","semantic_sequence","","","","",""
"","","","","","html-keyboard-response","88","278421","0.0-88.0","219A4550C0C34176B71D31A8754BF06B","019cf7cb-da52-7fc9-a7c9-90e62970d72d","019cf7bd-52b9-7f96-9138-a5960b400b31","","null","
                <div class=""stimulus-container"">
                    <img src=""images/semantic_sequence/visiting_cities_semantic/visiting_cities_semantic_5.png"" class=""exp-image"">
                    <div class=""question-area""></div> 
                </div>","null","","","","","","","","",""
"","","","","","html-button-response","89","279920","0.0-89.0","219A4550C0C34176B71D31A8754BF06B","019cf7cb-da52-7fc9-a7c9-90e62970d72d","019cf7bd-52b9-7f96-9138-a5960b400b31","","1497","
                <div class=""stimulus-container"">
                    <img src=""images/semantic_sequence/visiting_cities_semantic/visiting_cities_semantic_5.png"" class=""exp-image"">
                    <div class=""question-area"">
                        <p style=""font-size: 20px; font-weight: bold; margin: 0;"">Is there a person in this image?</p>
                    </div>
                </div>","1","main_experiment_trial","5","visiting_cities_semantic","semantic_sequence","","","","",""
"","","","","","html-keyboard-response","90","284929","0.0-90.0","219A4550C0C34176B71D31A8754BF06B","019cf7cb-da52-7fc9-a7c9-90e62970d72d","019cf7bd-52b9-7f96-9138-a5960b400b31","","null","
                <div class=""stimulus-container"">
                    <img src=""images/semantic_sequence/visiting_cities_semantic/visiting_cities_semantic_6.png"" class=""exp-image"">
                    <div class=""question-area""></div> 
                </div>","null","","","","","","","","",""
"","","","","","html-button-response","91","286040","0.0-91.0","219A4550C0C34176B71D31A8754BF06B","019cf7cb-da52-7fc9-a7c9-90e62970d72d","019cf7bd-52b9-7f96-9138-a5960b400b31","","1108","
                <div class=""stimulus-container"">
                    <img src=""images/semantic_sequence/visiting_cities_semantic/visiting_cities_semantic_6.png"" class=""exp-image"">
                    <div class=""question-area"">
                        <p style=""font-size: 20px; font-weight: bold; margin: 0;"">Is there a person in this image?</p>
                    </div>
                </div>","1","main_experiment_trial","6","visiting_cities_semantic","semantic_sequence","","","","",""
"","","","","","html-keyboard-response","92","291043","0.0-92.0","219A4550C0C34176B71D31A8754BF06B","019cf7cb-da52-7fc9-a7c9-90e62970d72d","019cf7bd-52b9-7f96-9138-a5960b400b31","","null","
                <div class=""stimulus-container"">
                    <img src=""images/semantic_sequence/visiting_cities_semantic/visiting_cities_semantic_7.png"" class=""exp-image"">
                    <div class=""question-area""></div> 
                </div>","null","","","","","","","","",""
"","","","","","html-button-response","93","293136","0.0-93.0","219A4550C0C34176B71D31A8754BF06B","019cf7cb-da52-7fc9-a7c9-90e62970d72d","019cf7bd-52b9-7f96-9138-a5960b400b31","","2092","
                <div class=""stimulus-container"">
                    <img src=""images/semantic_sequence/visiting_cities_semantic/visiting_cities_semantic_7.png"" class=""exp-image"">
                    <div class=""question-area"">
                        <p style=""font-size: 20px; font-weight: bold; margin: 0;"">Is there a person in this image?</p>
                    </div>
                </div>","1","main_experiment_trial","7","visiting_cities_semantic","semantic_sequence","","","","",""
"","","","","","html-keyboard-response","94","298149","0.0-94.0","219A4550C0C34176B71D31A8754BF06B","019cf7cb-da52-7fc9-a7c9-90e62970d72d","019cf7bd-52b9-7f96-9138-a5960b400b31","","null","
                <div class=""stimulus-container"">
                    <img src=""images/semantic_sequence/visiting_cities_semantic/visiting_cities_semantic_8.png"" class=""exp-image"">
                    <div class=""question-area""></div> 
                </div>","null","","","","","","","","",""
"","","","","","html-button-response","95","299696","0.0-95.0","219A4550C0C34176B71D31A8754BF06B","019cf7cb-da52-7fc9-a7c9-90e62970d72d","019cf7bd-52b9-7f96-9138-a5960b400b31","","1546","
                <div class=""stimulus-container"">
                    <img src=""images/semantic_sequence/visiting_cities_semantic/visiting_cities_semantic_8.png"" class=""exp-image"">
                    <div class=""question-area"">
                        <p style=""font-size: 20px; font-weight: bold; margin: 0;"">Is there a person in this image?</p>
                    </div>
                </div>","1","main_experiment_trial","8","visiting_cities_semantic","semantic_sequence","","","","",""
"","","","","","html-keyboard-response","96","304706","0.0-96.0","219A4550C0C34176B71D31A8754BF06B","019cf7cb-da52-7fc9-a7c9-90e62970d72d","019cf7bd-52b9-7f96-9138-a5960b400b31","","null","
                <div class=""stimulus-container"">
                    <img src=""images/semantic_sequence/visiting_cities_semantic/visiting_cities_semantic_9.png"" class=""exp-image"">
                    <div class=""question-area""></div> 
                </div>","null","","","","","","","","",""
"","","","","","html-button-response","97","307722","0.0-97.0","219A4550C0C34176B71D31A8754BF06B","019cf7cb-da52-7fc9-a7c9-90e62970d72d","019cf7bd-52b9-7f96-9138-a5960b400b31","","null","
                <div class=""stimulus-container"">
                    <img src=""images/semantic_sequence/visiting_cities_semantic/visiting_cities_semantic_9.png"" class=""exp-image"">
                    <div class=""question-area"">
                        <p style=""font-size: 20px; font-weight: bold; margin: 0;"">Is there a person in this image?</p>
                    </div>
                </div>","null","main_experiment_trial","9","visiting_cities_semantic","semantic_sequence","","","","",""
"","","","","","html-keyboard-response","98","312733","0.0-98.0","219A4550C0C34176B71D31A8754BF06B","019cf7cb-da52-7fc9-a7c9-90e62970d72d","019cf7bd-52b9-7f96-9138-a5960b400b31","","null","
                <div class=""stimulus-container"">
                    <img src=""images/semantic_sequence/visiting_cities_semantic/visiting_cities_semantic_ten.png"" class=""exp-image"">
                    <div class=""question-area""></div> 
                </div>","null","","","","","","","","",""
"","","","","","html-button-response","99","315696","0.0-99.0","219A4550C0C34176B71D31A8754BF06B","019cf7cb-da52-7fc9-a7c9-90e62970d72d","019cf7bd-52b9-7f96-9138-a5960b400b31","","2963","
                <div class=""stimulus-container"">
                    <img src=""images/semantic_sequence/visiting_cities_semantic/visiting_cities_semantic_ten.png"" class=""exp-image"">
                    <div class=""question-area"">
                        <p style=""font-size: 20px; font-weight: bold; margin: 0;"">Is there a person in this image?</p>
                    </div>
                </div>","1","main_experiment_trial","ten","visiting_cities_semantic","semantic_sequence","","","","",""
"","","","","","html-keyboard-response","100","316709","0.0-100.0","219A4550C0C34176B71D31A8754BF06B","019cf7cb-da52-7fc9-a7c9-90e62970d72d","019cf7bd-52b9-7f96-9138-a5960b400b31","","null","<div style=""background-color: white; width: 100vw; height: 100vh;""></div>","null","","","","","","","","",""
"","","","","","html-keyboard-response","101","321718","0.0-101.0","219A4550C0C34176B71D31A8754BF06B","019cf7cb-da52-7fc9-a7c9-90e62970d72d","019cf7bd-52b9-7f96-9138-a5960b400b31","","null","
                <div class=""stimulus-container"">
                    <img src=""images/schematic_sequence/supermarket_scheme/supermarket_scheme_1.png"" class=""exp-image"">
                    <div class=""question-area""></div> 
                </div>","null","","","","","","","","",""
"","","","","","html-button-response","102","324088","0.0-102.0","219A4550C0C34176B71D31A8754BF06B","019cf7cb-da52-7fc9-a7c9-90e62970d72d","019cf7bd-52b9-7f96-9138-a5960b400b31","","2369","
                <div class=""stimulus-container"">
                    <img src=""images/schematic_sequence/supermarket_scheme/supermarket_scheme_1.png"" class=""exp-image"">
                    <div class=""question-area"">
                        <p style=""font-size: 20px; font-weight: bold; margin: 0;"">Is there a person in this image?</p>
                    </div>
                </div>","1","main_experiment_trial","1","supermarket_scheme","schematic_sequence","","","","",""
"","","","","","html-keyboard-response","103","329101","0.0-103.0","219A4550C0C34176B71D31A8754BF06B","019cf7cb-da52-7fc9-a7c9-90e62970d72d","019cf7bd-52b9-7f96-9138-a5960b400b31","","null","
                <div class=""stimulus-container"">
                    <img src=""images/schematic_sequence/supermarket_scheme/supermarket_scheme_2.png"" class=""exp-image"">
                    <div class=""question-area""></div> 
                </div>","null","","","","","","","","",""
"","","","","","html-button-response","104","330129","0.0-104.0","219A4550C0C34176B71D31A8754BF06B","019cf7cb-da52-7fc9-a7c9-90e62970d72d","019cf7bd-52b9-7f96-9138-a5960b400b31","","1027","
                <div class=""stimulus-container"">
                    <img src=""images/schematic_sequence/supermarket_scheme/supermarket_scheme_2.png"" class=""exp-image"">
                    <div class=""question-area"">
                        <p style=""font-size: 20px; font-weight: bold; margin: 0;"">Is there a person in this image?</p>
                    </div>
                </div>","1","main_experiment_trial","2","supermarket_scheme","schematic_sequence","","","","",""
"","","","","","html-keyboard-response","105","335142","0.0-105.0","219A4550C0C34176B71D31A8754BF06B","019cf7cb-da52-7fc9-a7c9-90e62970d72d","019cf7bd-52b9-7f96-9138-a5960b400b31","","null","
                <div class=""stimulus-container"">
                    <img src=""images/schematic_sequence/supermarket_scheme/supermarket_scheme_3.png"" class=""exp-image"">
                    <div class=""question-area""></div> 
                </div>","null","","","","","","","","",""
"","","","","","html-button-response","106","336383","0.0-106.0","219A4550C0C34176B71D31A8754BF06B","019cf7cb-da52-7fc9-a7c9-90e62970d72d","019cf7bd-52b9-7f96-9138-a5960b400b31","","1241","
                <div class=""stimulus-container"">
                    <img src=""images/schematic_sequence/supermarket_scheme/supermarket_scheme_3.png"" class=""exp-image"">
                    <div class=""question-area"">
                        <p style=""font-size: 20px; font-weight: bold; margin: 0;"">Is there a person in this image?</p>
                    </div>
                </div>","1","main_experiment_trial","3","supermarket_scheme","schematic_sequence","","","","",""
"","","","","","html-keyboard-response","107","341397","0.0-107.0","219A4550C0C34176B71D31A8754BF06B","019cf7cb-da52-7fc9-a7c9-90e62970d72d","019cf7bd-52b9-7f96-9138-a5960b400b31","","null","
                <div class=""stimulus-container"">
                    <img src=""images/schematic_sequence/supermarket_scheme/supermarket_scheme_4.png"" class=""exp-image"">
                    <div class=""question-area""></div> 
                </div>","null","","","","","","","","",""
"","","","","","html-button-response","108","342784","0.0-108.0","219A4550C0C34176B71D31A8754BF06B","019cf7cb-da52-7fc9-a7c9-90e62970d72d","019cf7bd-52b9-7f96-9138-a5960b400b31","","1385","
                <div class=""stimulus-container"">
                    <img src=""images/schematic_sequence/supermarket_scheme/supermarket_scheme_4.png"" class=""exp-image"">
                    <div class=""question-area"">
                        <p style=""font-size: 20px; font-weight: bold; margin: 0;"">Is there a person in this image?</p>
                    </div>
                </div>","0","main_experiment_trial","4","supermarket_scheme","schematic_sequence","","","","",""
"","","","","","html-keyboard-response","109","347796","0.0-109.0","219A4550C0C34176B71D31A8754BF06B","019cf7cb-da52-7fc9-a7c9-90e62970d72d","019cf7bd-52b9-7f96-9138-a5960b400b31","","null","
                <div class=""stimulus-container"">
                    <img src=""images/schematic_sequence/supermarket_scheme/supermarket_scheme_5.png"" class=""exp-image"">
                    <div class=""question-area""></div> 
                </div>","null","","","","","","","","",""
"","","","","","html-button-response","110","348904","0.0-110.0","219A4550C0C34176B71D31A8754BF06B","019cf7cb-da52-7fc9-a7c9-90e62970d72d","019cf7bd-52b9-7f96-9138-a5960b400b31","","1107","
                <div class=""stimulus-container"">
                    <img src=""images/schematic_sequence/supermarket_scheme/supermarket_scheme_5.png"" class=""exp-image"">
                    <div class=""question-area"">
                        <p style=""font-size: 20px; font-weight: bold; margin: 0;"">Is there a person in this image?</p>
                    </div>
                </div>","1","main_experiment_trial","5","supermarket_scheme","schematic_sequence","","","","",""
"","","","","","html-keyboard-response","111","353909","0.0-111.0","219A4550C0C34176B71D31A8754BF06B","019cf7cb-da52-7fc9-a7c9-90e62970d72d","019cf7bd-52b9-7f96-9138-a5960b400b31","","null","
                <div class=""stimulus-container"">
                    <img src=""images/schematic_sequence/supermarket_scheme/supermarket_scheme_6.png"" class=""exp-image"">
                    <div class=""question-area""></div> 
                </div>","null","","","","","","","","",""
"","","","","","html-button-response","112","355080","0.0-112.0","219A4550C0C34176B71D31A8754BF06B","019cf7cb-da52-7fc9-a7c9-90e62970d72d","019cf7bd-52b9-7f96-9138-a5960b400b31","","1169","
                <div class=""stimulus-container"">
                    <img src=""images/schematic_sequence/supermarket_scheme/supermarket_scheme_6.png"" class=""exp-image"">
                    <div class=""question-area"">
                        <p style=""font-size: 20px; font-weight: bold; margin: 0;"">Is there a person in this image?</p>
                    </div>
                </div>","0","main_experiment_trial","6","supermarket_scheme","schematic_sequence","","","","",""
"","","","","","html-keyboard-response","113","360085","0.0-113.0","219A4550C0C34176B71D31A8754BF06B","019cf7cb-da52-7fc9-a7c9-90e62970d72d","019cf7bd-52b9-7f96-9138-a5960b400b31","","null","
                <div class=""stimulus-container"">
                    <img src=""images/schematic_sequence/supermarket_scheme/supermarket_scheme_7.png"" class=""exp-image"">
                    <div class=""question-area""></div> 
                </div>","null","","","","","","","","",""
"","","","","","html-button-response","114","360880","0.0-114.0","219A4550C0C34176B71D31A8754BF06B","019cf7cb-da52-7fc9-a7c9-90e62970d72d","019cf7bd-52b9-7f96-9138-a5960b400b31","","795","
                <div class=""stimulus-container"">
                    <img src=""images/schematic_sequence/supermarket_scheme/supermarket_scheme_7.png"" class=""exp-image"">
                    <div class=""question-area"">
                        <p style=""font-size: 20px; font-weight: bold; margin: 0;"">Is there a person in this image?</p>
                    </div>
                </div>","0","main_experiment_trial","7","supermarket_scheme","schematic_sequence","","","","",""
"","","","","","html-keyboard-response","115","365894","0.0-115.0","219A4550C0C34176B71D31A8754BF06B","019cf7cb-da52-7fc9-a7c9-90e62970d72d","019cf7bd-52b9-7f96-9138-a5960b400b31","","null","
                <div class=""stimulus-container"">
                    <img src=""images/schematic_sequence/supermarket_scheme/supermarket_scheme_8.png"" class=""exp-image"">
                    <div class=""question-area""></div> 
                </div>","null","","","","","","","","",""
"","","","","","html-button-response","116","367584","0.0-116.0","219A4550C0C34176B71D31A8754BF06B","019cf7cb-da52-7fc9-a7c9-90e62970d72d","019cf7bd-52b9-7f96-9138-a5960b400b31","","1689","
                <div class=""stimulus-container"">
                    <img src=""images/schematic_sequence/supermarket_scheme/supermarket_scheme_8.png"" class=""exp-image"">
                    <div class=""question-area"">
                        <p style=""font-size: 20px; font-weight: bold; margin: 0;"">Is there a person in this image?</p>
                    </div>
                </div>","0","main_experiment_trial","8","supermarket_scheme","schematic_sequence","","","","",""
"","","","","","html-keyboard-response","117","372587","0.0-117.0","219A4550C0C34176B71D31A8754BF06B","019cf7cb-da52-7fc9-a7c9-90e62970d72d","019cf7bd-52b9-7f96-9138-a5960b400b31","","null","
                <div class=""stimulus-container"">
                    <img src=""images/schematic_sequence/supermarket_scheme/supermarket_scheme_9.png"" class=""exp-image"">
                    <div class=""question-area""></div> 
                </div>","null","","","","","","","","",""
"","","","","","html-button-response","118","374336","0.0-118.0","219A4550C0C34176B71D31A8754BF06B","019cf7cb-da52-7fc9-a7c9-90e62970d72d","019cf7bd-52b9-7f96-9138-a5960b400b31","","1748","
                <div class=""stimulus-container"">
                    <img src=""images/schematic_sequence/supermarket_scheme/supermarket_scheme_9.png"" class=""exp-image"">
                    <div class=""question-area"">
                        <p style=""font-size: 20px; font-weight: bold; margin: 0;"">Is there a person in this image?</p>
                    </div>
                </div>","0","main_experiment_trial","9","supermarket_scheme","schematic_sequence","","","","",""
"","","","","","html-keyboard-response","119","379352","0.0-119.0","219A4550C0C34176B71D31A8754BF06B","019cf7cb-da52-7fc9-a7c9-90e62970d72d","019cf7bd-52b9-7f96-9138-a5960b400b31","","null","
                <div class=""stimulus-container"">
                    <img src=""images/schematic_sequence/supermarket_scheme/supermarket_scheme_ten.png"" class=""exp-image"">
                    <div class=""question-area""></div> 
                </div>","null","","","","","","","","",""
"","","","","","html-button-response","120","380488","0.0-120.0","219A4550C0C34176B71D31A8754BF06B","019cf7cb-da52-7fc9-a7c9-90e62970d72d","019cf7bd-52b9-7f96-9138-a5960b400b31","","1135","
                <div class=""stimulus-container"">
                    <img src=""images/schematic_sequence/supermarket_scheme/supermarket_scheme_ten.png"" class=""exp-image"">
                    <div class=""question-area"">
                        <p style=""font-size: 20px; font-weight: bold; margin: 0;"">Is there a person in this image?</p>
                    </div>
                </div>","1","main_experiment_trial","ten","supermarket_scheme","schematic_sequence","","","","",""
"","","","","","html-keyboard-response","121","381489","0.0-121.0","219A4550C0C34176B71D31A8754BF06B","019cf7cb-da52-7fc9-a7c9-90e62970d72d","019cf7bd-52b9-7f96-9138-a5960b400b31","","null","<div style=""background-color: white; width: 100vw; height: 100vh;""></div>","null","","","","","","","","",""
"","","","","","html-keyboard-response","122","386498","0.0-122.0","219A4550C0C34176B71D31A8754BF06B","019cf7cb-da52-7fc9-a7c9-90e62970d72d","019cf7bd-52b9-7f96-9138-a5960b400b31","","null","
                <div class=""stimulus-container"">
                    <img src=""images/semantic_sequence/using_technology_semantic/using_technology_semantic_1.png"" class=""exp-image"">
                    <div class=""question-area""></div> 
                </div>","null","","","","","","","","",""
"","","","","","html-button-response","123","387447","0.0-123.0","219A4550C0C34176B71D31A8754BF06B","019cf7cb-da52-7fc9-a7c9-90e62970d72d","019cf7bd-52b9-7f96-9138-a5960b400b31","","947","
                <div class=""stimulus-container"">
                    <img src=""images/semantic_sequence/using_technology_semantic/using_technology_semantic_1.png"" class=""exp-image"">
                    <div class=""question-area"">
                        <p style=""font-size: 20px; font-weight: bold; margin: 0;"">Is there a person in this image?</p>
                    </div>
                </div>","0","main_experiment_trial","1","using_technology_semantic","semantic_sequence","","","","",""
"","","","","","html-keyboard-response","124","392449","0.0-124.0","219A4550C0C34176B71D31A8754BF06B","019cf7cb-da52-7fc9-a7c9-90e62970d72d","019cf7bd-52b9-7f96-9138-a5960b400b31","","null","
                <div class=""stimulus-container"">
                    <img src=""images/semantic_sequence/using_technology_semantic/using_technology_semantic_2.png"" class=""exp-image"">
                    <div class=""question-area""></div> 
                </div>","null","","","","","","","","",""
"","","","","","html-button-response","125","393272","0.0-125.0","219A4550C0C34176B71D31A8754BF06B","019cf7cb-da52-7fc9-a7c9-90e62970d72d","019cf7bd-52b9-7f96-9138-a5960b400b31","","822","
                <div class=""stimulus-container"">
                    <img src=""images/semantic_sequence/using_technology_semantic/using_technology_semantic_2.png"" class=""exp-image"">
                    <div class=""question-area"">
                        <p style=""font-size: 20px; font-weight: bold; margin: 0;"">Is there a person in this image?</p>
                    </div>
                </div>","0","main_experiment_trial","2","using_technology_semantic","semantic_sequence","","","","",""
"","","","","","html-keyboard-response","126","398277","0.0-126.0","219A4550C0C34176B71D31A8754BF06B","019cf7cb-da52-7fc9-a7c9-90e62970d72d","019cf7bd-52b9-7f96-9138-a5960b400b31","","null","
                <div class=""stimulus-container"">
                    <img src=""images/semantic_sequence/using_technology_semantic/using_technology_semantic_3.png"" class=""exp-image"">
                    <div class=""question-area""></div> 
                </div>","null","","","","","","","","",""
"","","","","","html-button-response","127","399535","0.0-127.0","219A4550C0C34176B71D31A8754BF06B","019cf7cb-da52-7fc9-a7c9-90e62970d72d","019cf7bd-52b9-7f96-9138-a5960b400b31","","1256","
                <div class=""stimulus-container"">
                    <img src=""images/semantic_sequence/using_technology_semantic/using_technology_semantic_3.png"" class=""exp-image"">
                    <div class=""question-area"">
                        <p style=""font-size: 20px; font-weight: bold; margin: 0;"">Is there a person in this image?</p>
                    </div>
                </div>","0","main_experiment_trial","3","using_technology_semantic","semantic_sequence","","","","",""
"","","","","","html-keyboard-response","128","404549","0.0-128.0","219A4550C0C34176B71D31A8754BF06B","019cf7cb-da52-7fc9-a7c9-90e62970d72d","019cf7bd-52b9-7f96-9138-a5960b400b31","","null","
                <div class=""stimulus-container"">
                    <img src=""images/semantic_sequence/using_technology_semantic/using_technology_semantic_4.png"" class=""exp-image"">
                    <div class=""question-area""></div> 
                </div>","null","","","","","","","","",""
"","","","","","html-button-response","129","405999","0.0-129.0","219A4550C0C34176B71D31A8754BF06B","019cf7cb-da52-7fc9-a7c9-90e62970d72d","019cf7bd-52b9-7f96-9138-a5960b400b31","","1449","
                <div class=""stimulus-container"">
                    <img src=""images/semantic_sequence/using_technology_semantic/using_technology_semantic_4.png"" class=""exp-image"">
                    <div class=""question-area"">
                        <p style=""font-size: 20px; font-weight: bold; margin: 0;"">Is there a person in this image?</p>
                    </div>
                </div>","0","main_experiment_trial","4","using_technology_semantic","semantic_sequence","","","","",""
"","","","","","html-keyboard-response","130","411005","0.0-130.0","219A4550C0C34176B71D31A8754BF06B","019cf7cb-da52-7fc9-a7c9-90e62970d72d","019cf7bd-52b9-7f96-9138-a5960b400b31","","null","
                <div class=""stimulus-container"">
                    <img src=""images/semantic_sequence/using_technology_semantic/using_technology_semantic_5.png"" class=""exp-image"">
                    <div class=""question-area""></div> 
                </div>","null","","","","","","","","",""
"","","","","","html-button-response","131","412592","0.0-131.0","219A4550C0C34176B71D31A8754BF06B","019cf7cb-da52-7fc9-a7c9-90e62970d72d","019cf7bd-52b9-7f96-9138-a5960b400b31","","1585","
                <div class=""stimulus-container"">
                    <img src=""images/semantic_sequence/using_technology_semantic/using_technology_semantic_5.png"" class=""exp-image"">
                    <div class=""question-area"">
                        <p style=""font-size: 20px; font-weight: bold; margin: 0;"">Is there a person in this image?</p>
                    </div>
                </div>","0","main_experiment_trial","5","using_technology_semantic","semantic_sequence","","","","",""
"","","","","","html-keyboard-response","132","417599","0.0-132.0","219A4550C0C34176B71D31A8754BF06B","019cf7cb-da52-7fc9-a7c9-90e62970d72d","019cf7bd-52b9-7f96-9138-a5960b400b31","","null","
                <div class=""stimulus-container"">
                    <img src=""images/semantic_sequence/using_technology_semantic/using_technology_semantic_6.png"" class=""exp-image"">
                    <div class=""question-area""></div> 
                </div>","null","","","","","","","","",""
"","","","","","html-button-response","133","418560","0.0-133.0","219A4550C0C34176B71D31A8754BF06B","019cf7cb-da52-7fc9-a7c9-90e62970d72d","019cf7bd-52b9-7f96-9138-a5960b400b31","","959","
                <div class=""stimulus-container"">
                    <img src=""images/semantic_sequence/using_technology_semantic/using_technology_semantic_6.png"" class=""exp-image"">
                    <div class=""question-area"">
                        <p style=""font-size: 20px; font-weight: bold; margin: 0;"">Is there a person in this image?</p>
                    </div>
                </div>","0","main_experiment_trial","6","using_technology_semantic","semantic_sequence","","","","",""
"","","","","","html-keyboard-response","134","423573","0.0-134.0","219A4550C0C34176B71D31A8754BF06B","019cf7cb-da52-7fc9-a7c9-90e62970d72d","019cf7bd-52b9-7f96-9138-a5960b400b31","","null","
                <div class=""stimulus-container"">
                    <img src=""images/semantic_sequence/using_technology_semantic/using_technology_semantic_7.png"" class=""exp-image"">
                    <div class=""question-area""></div> 
                </div>","null","","","","","","","","",""
"","","","","","html-button-response","135","424375","0.0-135.0","219A4550C0C34176B71D31A8754BF06B","019cf7cb-da52-7fc9-a7c9-90e62970d72d","019cf7bd-52b9-7f96-9138-a5960b400b31","","801","
                <div class=""stimulus-container"">
                    <img src=""images/semantic_sequence/using_technology_semantic/using_technology_semantic_7.png"" class=""exp-image"">
                    <div class=""question-area"">
                        <p style=""font-size: 20px; font-weight: bold; margin: 0;"">Is there a person in this image?</p>
                    </div>
                </div>","0","main_experiment_trial","7","using_technology_semantic","semantic_sequence","","","","",""
"","","","","","html-keyboard-response","136","429388","0.0-136.0","219A4550C0C34176B71D31A8754BF06B","019cf7cb-da52-7fc9-a7c9-90e62970d72d","019cf7bd-52b9-7f96-9138-a5960b400b31","","null","
                <div class=""stimulus-container"">
                    <img src=""images/semantic_sequence/using_technology_semantic/using_technology_semantic_8.png"" class=""exp-image"">
                    <div class=""question-area""></div> 
                </div>","null","","","","","","","","",""
"","","","","","html-button-response","137","430352","0.0-137.0","219A4550C0C34176B71D31A8754BF06B","019cf7cb-da52-7fc9-a7c9-90e62970d72d","019cf7bd-52b9-7f96-9138-a5960b400b31","","963","
                <div class=""stimulus-container"">
                    <img src=""images/semantic_sequence/using_technology_semantic/using_technology_semantic_8.png"" class=""exp-image"">
                    <div class=""question-area"">
                        <p style=""font-size: 20px; font-weight: bold; margin: 0;"">Is there a person in this image?</p>
                    </div>
                </div>","0","main_experiment_trial","8","using_technology_semantic","semantic_sequence","","","","",""
"","","","","","html-keyboard-response","138","435363","0.0-138.0","219A4550C0C34176B71D31A8754BF06B","019cf7cb-da52-7fc9-a7c9-90e62970d72d","019cf7bd-52b9-7f96-9138-a5960b400b31","","null","
                <div class=""stimulus-container"">
                    <img src=""images/semantic_sequence/using_technology_semantic/using_technology_semantic_9.png"" class=""exp-image"">
                    <div class=""question-area""></div> 
                </div>","null","","","","","","","","",""
"","","","","","html-button-response","139","438373","0.0-139.0","219A4550C0C34176B71D31A8754BF06B","019cf7cb-da52-7fc9-a7c9-90e62970d72d","019cf7bd-52b9-7f96-9138-a5960b400b31","","null","
                <div class=""stimulus-container"">
                    <img src=""images/semantic_sequence/using_technology_semantic/using_technology_semantic_9.png"" class=""exp-image"">
                    <div class=""question-area"">
                        <p style=""font-size: 20px; font-weight: bold; margin: 0;"">Is there a person in this image?</p>
                    </div>
                </div>","null","main_experiment_trial","9","using_technology_semantic","semantic_sequence","","","","",""
"","","","","","html-keyboard-response","140","443386","0.0-140.0","219A4550C0C34176B71D31A8754BF06B","019cf7cb-da52-7fc9-a7c9-90e62970d72d","019cf7bd-52b9-7f96-9138-a5960b400b31","","null","
                <div class=""stimulus-container"">
                    <img src=""images/semantic_sequence/using_technology_semantic/using_technology_semantic_ten.png"" class=""exp-image"">
                    <div class=""question-area""></div> 
                </div>","null","","","","","","","","",""
"","","","","","html-button-response","141","443936","0.0-141.0","219A4550C0C34176B71D31A8754BF06B","019cf7cb-da52-7fc9-a7c9-90e62970d72d","019cf7bd-52b9-7f96-9138-a5960b400b31","","548","
                <div class=""stimulus-container"">
                    <img src=""images/semantic_sequence/using_technology_semantic/using_technology_semantic_ten.png"" class=""exp-image"">
                    <div class=""question-area"">
                        <p style=""font-size: 20px; font-weight: bold; margin: 0;"">Is there a person in this image?</p>
                    </div>
                </div>","0","main_experiment_trial","ten","using_technology_semantic","semantic_sequence","","","","",""
"","","","","","html-keyboard-response","142","444945","0.0-142.0","219A4550C0C34176B71D31A8754BF06B","019cf7cb-da52-7fc9-a7c9-90e62970d72d","019cf7bd-52b9-7f96-9138-a5960b400b31","","null","<div style=""background-color: white; width: 100vw; height: 100vh;""></div>","null","","","","","","","","",""
"","","","","","html-keyboard-response","143","449952","0.0-143.0","219A4550C0C34176B71D31A8754BF06B","019cf7cb-da52-7fc9-a7c9-90e62970d72d","019cf7bd-52b9-7f96-9138-a5960b400b31","","null","
                <div class=""stimulus-container"">
                    <img src=""images/semantic_sequence/maintaining_a_car_semantic/maintaining_a_car_semantic_1.png"" class=""exp-image"">
                    <div class=""question-area""></div> 
                </div>","null","","","","","","","","",""
"","","","","","html-button-response","144","452959","0.0-144.0","219A4550C0C34176B71D31A8754BF06B","019cf7cb-da52-7fc9-a7c9-90e62970d72d","019cf7bd-52b9-7f96-9138-a5960b400b31","","null","
                <div class=""stimulus-container"">
                    <img src=""images/semantic_sequence/maintaining_a_car_semantic/maintaining_a_car_semantic_1.png"" class=""exp-image"">
                    <div class=""question-area"">
                        <p style=""font-size: 20px; font-weight: bold; margin: 0;"">Is there a person in this image?</p>
                    </div>
                </div>","null","main_experiment_trial","1","maintaining_a_car_semantic","semantic_sequence","","","","",""
"","","","","","html-keyboard-response","145","457971","0.0-145.0","219A4550C0C34176B71D31A8754BF06B","019cf7cb-da52-7fc9-a7c9-90e62970d72d","019cf7bd-52b9-7f96-9138-a5960b400b31","","null","
                <div class=""stimulus-container"">
                    <img src=""images/semantic_sequence/maintaining_a_car_semantic/maintaining_a_car_semantic_2.png"" class=""exp-image"">
                    <div class=""question-area""></div> 
                </div>","null","","","","","","","","",""
"","","","","","html-button-response","146","460111","0.0-146.0","219A4550C0C34176B71D31A8754BF06B","019cf7cb-da52-7fc9-a7c9-90e62970d72d","019cf7bd-52b9-7f96-9138-a5960b400b31","","2139","
                <div class=""stimulus-container"">
                    <img src=""images/semantic_sequence/maintaining_a_car_semantic/maintaining_a_car_semantic_2.png"" class=""exp-image"">
                    <div class=""question-area"">
                        <p style=""font-size: 20px; font-weight: bold; margin: 0;"">Is there a person in this image?</p>
                    </div>
                </div>","0","main_experiment_trial","2","maintaining_a_car_semantic","semantic_sequence","","","","",""
"","","","","","html-keyboard-response","147","465119","0.0-147.0","219A4550C0C34176B71D31A8754BF06B","019cf7cb-da52-7fc9-a7c9-90e62970d72d","019cf7bd-52b9-7f96-9138-a5960b400b31","","null","
                <div class=""stimulus-container"">
                    <img src=""images/semantic_sequence/maintaining_a_car_semantic/maintaining_a_car_semantic_3.png"" class=""exp-image"">
                    <div class=""question-area""></div> 
                </div>","null","","","","","","","","",""
"","","","","","html-button-response","148","466152","0.0-148.0","219A4550C0C34176B71D31A8754BF06B","019cf7cb-da52-7fc9-a7c9-90e62970d72d","019cf7bd-52b9-7f96-9138-a5960b400b31","","1031","
                <div class=""stimulus-container"">
                    <img src=""images/semantic_sequence/maintaining_a_car_semantic/maintaining_a_car_semantic_3.png"" class=""exp-image"">
                    <div class=""question-area"">
                        <p style=""font-size: 20px; font-weight: bold; margin: 0;"">Is there a person in this image?</p>
                    </div>
                </div>","0","main_experiment_trial","3","maintaining_a_car_semantic","semantic_sequence","","","","",""
"","","","","","html-keyboard-response","149","471156","0.0-149.0","219A4550C0C34176B71D31A8754BF06B","019cf7cb-da52-7fc9-a7c9-90e62970d72d","019cf7bd-52b9-7f96-9138-a5960b400b31","","null","
                <div class=""stimulus-container"">
                    <img src=""images/semantic_sequence/maintaining_a_car_semantic/maintaining_a_car_semantic_4.png"" class=""exp-image"">
                    <div class=""question-area""></div> 
                </div>","null","","","","","","","","",""
"","","","","","html-button-response","150","472457","0.0-150.0","219A4550C0C34176B71D31A8754BF06B","019cf7cb-da52-7fc9-a7c9-90e62970d72d","019cf7bd-52b9-7f96-9138-a5960b400b31","","1299","
                <div class=""stimulus-container"">
                    <img src=""images/semantic_sequence/maintaining_a_car_semantic/maintaining_a_car_semantic_4.png"" class=""exp-image"">
                    <div class=""question-area"">
                        <p style=""font-size: 20px; font-weight: bold; margin: 0;"">Is there a person in this image?</p>
                    </div>
                </div>","0","main_experiment_trial","4","maintaining_a_car_semantic","semantic_sequence","","","","",""
"","","","","","html-keyboard-response","151","477466","0.0-151.0","219A4550C0C34176B71D31A8754BF06B","019cf7cb-da52-7fc9-a7c9-90e62970d72d","019cf7bd-52b9-7f96-9138-a5960b400b31","","null","
                <div class=""stimulus-container"">
                    <img src=""images/semantic_sequence/maintaining_a_car_semantic/maintaining_a_car_semantic_5.png"" class=""exp-image"">
                    <div class=""question-area""></div> 
                </div>","null","","","","","","","","",""
"","","","","","html-button-response","152","480408","0.0-152.0","219A4550C0C34176B71D31A8754BF06B","019cf7cb-da52-7fc9-a7c9-90e62970d72d","019cf7bd-52b9-7f96-9138-a5960b400b31","","2941","
                <div class=""stimulus-container"">
                    <img src=""images/semantic_sequence/maintaining_a_car_semantic/maintaining_a_car_semantic_5.png"" class=""exp-image"">
                    <div class=""question-area"">
                        <p style=""font-size: 20px; font-weight: bold; margin: 0;"">Is there a person in this image?</p>
                    </div>
                </div>","0","main_experiment_trial","5","maintaining_a_car_semantic","semantic_sequence","","","","",""
"","","","","","html-keyboard-response","153","485416","0.0-153.0","219A4550C0C34176B71D31A8754BF06B","019cf7cb-da52-7fc9-a7c9-90e62970d72d","019cf7bd-52b9-7f96-9138-a5960b400b31","","null","
                <div class=""stimulus-container"">
                    <img src=""images/semantic_sequence/maintaining_a_car_semantic/maintaining_a_car_semantic_6.png"" class=""exp-image"">
                    <div class=""question-area""></div> 
                </div>","null","","","","","","","","",""
"","","","","","html-button-response","154","488311","0.0-154.0","219A4550C0C34176B71D31A8754BF06B","019cf7cb-da52-7fc9-a7c9-90e62970d72d","019cf7bd-52b9-7f96-9138-a5960b400b31","","2895","
                <div class=""stimulus-container"">
                    <img src=""images/semantic_sequence/maintaining_a_car_semantic/maintaining_a_car_semantic_6.png"" class=""exp-image"">
                    <div class=""question-area"">
                        <p style=""font-size: 20px; font-weight: bold; margin: 0;"">Is there a person in this image?</p>
                    </div>
                </div>","0","main_experiment_trial","6","maintaining_a_car_semantic","semantic_sequence","","","","",""
"","","","","","html-keyboard-response","155","493324","0.0-155.0","219A4550C0C34176B71D31A8754BF06B","019cf7cb-da52-7fc9-a7c9-90e62970d72d","019cf7bd-52b9-7f96-9138-a5960b400b31","","null","
                <div class=""stimulus-container"">
                    <img src=""images/semantic_sequence/maintaining_a_car_semantic/maintaining_a_car_semantic_7.png"" class=""exp-image"">
                    <div class=""question-area""></div> 
                </div>","null","","","","","","","","",""
"","","","","","html-button-response","156","496341","0.0-156.0","219A4550C0C34176B71D31A8754BF06B","019cf7cb-da52-7fc9-a7c9-90e62970d72d","019cf7bd-52b9-7f96-9138-a5960b400b31","","null","
                <div class=""stimulus-container"">
                    <img src=""images/semantic_sequence/maintaining_a_car_semantic/maintaining_a_car_semantic_7.png"" class=""exp-image"">
                    <div class=""question-area"">
                        <p style=""font-size: 20px; font-weight: bold; margin: 0;"">Is there a person in this image?</p>
                    </div>
                </div>","null","main_experiment_trial","7","maintaining_a_car_semantic","semantic_sequence","","","","",""
"","","","","","html-keyboard-response","157","501356","0.0-157.0","219A4550C0C34176B71D31A8754BF06B","019cf7cb-da52-7fc9-a7c9-90e62970d72d","019cf7bd-52b9-7f96-9138-a5960b400b31","","null","
                <div class=""stimulus-container"">
                    <img src=""images/semantic_sequence/maintaining_a_car_semantic/maintaining_a_car_semantic_8.png"" class=""exp-image"">
                    <div class=""question-area""></div> 
                </div>","null","","","","","","","","",""
"","","","","","html-button-response","158","502128","0.0-158.0","219A4550C0C34176B71D31A8754BF06B","019cf7cb-da52-7fc9-a7c9-90e62970d72d","019cf7bd-52b9-7f96-9138-a5960b400b31","","770","
                <div class=""stimulus-container"">
                    <img src=""images/semantic_sequence/maintaining_a_car_semantic/maintaining_a_car_semantic_8.png"" class=""exp-image"">
                    <div class=""question-area"">
                        <p style=""font-size: 20px; font-weight: bold; margin: 0;"">Is there a person in this image?</p>
                    </div>
                </div>","0","main_experiment_trial","8","maintaining_a_car_semantic","semantic_sequence","","","","",""
"","","","","","html-keyboard-response","159","507135","0.0-159.0","219A4550C0C34176B71D31A8754BF06B","019cf7cb-da52-7fc9-a7c9-90e62970d72d","019cf7bd-52b9-7f96-9138-a5960b400b31","","null","
                <div class=""stimulus-container"">
                    <img src=""images/semantic_sequence/maintaining_a_car_semantic/maintaining_a_car_semantic_9.png"" class=""exp-image"">
                    <div class=""question-area""></div> 
                </div>","null","","","","","","","","",""
"","","","","","html-button-response","160","509071","0.0-160.0","219A4550C0C34176B71D31A8754BF06B","019cf7cb-da52-7fc9-a7c9-90e62970d72d","019cf7bd-52b9-7f96-9138-a5960b400b31","","1935","
                <div class=""stimulus-container"">
                    <img src=""images/semantic_sequence/maintaining_a_car_semantic/maintaining_a_car_semantic_9.png"" class=""exp-image"">
                    <div class=""question-area"">
                        <p style=""font-size: 20px; font-weight: bold; margin: 0;"">Is there a person in this image?</p>
                    </div>
                </div>","0","main_experiment_trial","9","maintaining_a_car_semantic","semantic_sequence","","","","",""
"","","","","","html-keyboard-response","161","514085","0.0-161.0","219A4550C0C34176B71D31A8754BF06B","019cf7cb-da52-7fc9-a7c9-90e62970d72d","019cf7bd-52b9-7f96-9138-a5960b400b31","","null","
                <div class=""stimulus-container"">
                    <img src=""images/semantic_sequence/maintaining_a_car_semantic/maintaining_a_car_semantic_ten.png"" class=""exp-image"">
                    <div class=""question-area""></div> 
                </div>","null","","","","","","","","",""
"","","","","","html-button-response","162","515119","0.0-162.0","219A4550C0C34176B71D31A8754BF06B","019cf7cb-da52-7fc9-a7c9-90e62970d72d","019cf7bd-52b9-7f96-9138-a5960b400b31","","1033","
                <div class=""stimulus-container"">
                    <img src=""images/semantic_sequence/maintaining_a_car_semantic/maintaining_a_car_semantic_ten.png"" class=""exp-image"">
                    <div class=""question-area"">
                        <p style=""font-size: 20px; font-weight: bold; margin: 0;"">Is there a person in this image?</p>
                    </div>
                </div>","0","main_experiment_trial","ten","maintaining_a_car_semantic","semantic_sequence","","","","",""
"","","","","","html-keyboard-response","163","516121","0.0-163.0","219A4550C0C34176B71D31A8754BF06B","019cf7cb-da52-7fc9-a7c9-90e62970d72d","019cf7bd-52b9-7f96-9138-a5960b400b31","","null","<div style=""background-color: white; width: 100vw; height: 100vh;""></div>","null","","","","","","","","",""
"","","","","","html-keyboard-response","164","521122","0.0-164.0","219A4550C0C34176B71D31A8754BF06B","019cf7cb-da52-7fc9-a7c9-90e62970d72d","019cf7bd-52b9-7f96-9138-a5960b400b31","","null","
                <div class=""stimulus-container"">
                    <img src=""images/schematic_sequence/hotel_scheme/hotel_scheme_1.png"" class=""exp-image"">
                    <div class=""question-area""></div> 
                </div>","null","","","","","","","","",""
"","","","","","html-button-response","165","522496","0.0-165.0","219A4550C0C34176B71D31A8754BF06B","019cf7cb-da52-7fc9-a7c9-90e62970d72d","019cf7bd-52b9-7f96-9138-a5960b400b31","","1373","
                <div class=""stimulus-container"">
                    <img src=""images/schematic_sequence/hotel_scheme/hotel_scheme_1.png"" class=""exp-image"">
                    <div class=""question-area"">
                        <p style=""font-size: 20px; font-weight: bold; margin: 0;"">Is there a person in this image?</p>
                    </div>
                </div>","1","main_experiment_trial","1","hotel_scheme","schematic_sequence","","","","",""
"","","","","","html-keyboard-response","166","527503","0.0-166.0","219A4550C0C34176B71D31A8754BF06B","019cf7cb-da52-7fc9-a7c9-90e62970d72d","019cf7bd-52b9-7f96-9138-a5960b400b31","","null","
                <div class=""stimulus-container"">
                    <img src=""images/schematic_sequence/hotel_scheme/hotel_scheme_2.png"" class=""exp-image"">
                    <div class=""question-area""></div> 
                </div>","null","","","","","","","","",""
"","","","","","html-button-response","167","528968","0.0-167.0","219A4550C0C34176B71D31A8754BF06B","019cf7cb-da52-7fc9-a7c9-90e62970d72d","019cf7bd-52b9-7f96-9138-a5960b400b31","","1463","
                <div class=""stimulus-container"">
                    <img src=""images/schematic_sequence/hotel_scheme/hotel_scheme_2.png"" class=""exp-image"">
                    <div class=""question-area"">
                        <p style=""font-size: 20px; font-weight: bold; margin: 0;"">Is there a person in this image?</p>
                    </div>
                </div>","0","main_experiment_trial","2","hotel_scheme","schematic_sequence","","","","",""
"","","","","","html-keyboard-response","168","533976","0.0-168.0","219A4550C0C34176B71D31A8754BF06B","019cf7cb-da52-7fc9-a7c9-90e62970d72d","019cf7bd-52b9-7f96-9138-a5960b400b31","","null","
                <div class=""stimulus-container"">
                    <img src=""images/schematic_sequence/hotel_scheme/hotel_scheme_3.png"" class=""exp-image"">
                    <div class=""question-area""></div> 
                </div>","null","","","","","","","","",""
"","","","","","html-button-response","169","535607","0.0-169.0","219A4550C0C34176B71D31A8754BF06B","019cf7cb-da52-7fc9-a7c9-90e62970d72d","019cf7bd-52b9-7f96-9138-a5960b400b31","","1630","
                <div class=""stimulus-container"">
                    <img src=""images/schematic_sequence/hotel_scheme/hotel_scheme_3.png"" class=""exp-image"">
                    <div class=""question-area"">
                        <p style=""font-size: 20px; font-weight: bold; margin: 0;"">Is there a person in this image?</p>
                    </div>
                </div>","0","main_experiment_trial","3","hotel_scheme","schematic_sequence","","","","",""
"","","","","","html-keyboard-response","170","540617","0.0-170.0","219A4550C0C34176B71D31A8754BF06B","019cf7cb-da52-7fc9-a7c9-90e62970d72d","019cf7bd-52b9-7f96-9138-a5960b400b31","","null","
                <div class=""stimulus-container"">
                    <img src=""images/schematic_sequence/hotel_scheme/hotel_scheme_4.png"" class=""exp-image"">
                    <div class=""question-area""></div> 
                </div>","null","","","","","","","","",""
"","","","","","html-button-response","171","541319","0.0-171.0","219A4550C0C34176B71D31A8754BF06B","019cf7cb-da52-7fc9-a7c9-90e62970d72d","019cf7bd-52b9-7f96-9138-a5960b400b31","","700","
                <div class=""stimulus-container"">
                    <img src=""images/schematic_sequence/hotel_scheme/hotel_scheme_4.png"" class=""exp-image"">
                    <div class=""question-area"">
                        <p style=""font-size: 20px; font-weight: bold; margin: 0;"">Is there a person in this image?</p>
                    </div>
                </div>","1","main_experiment_trial","4","hotel_scheme","schematic_sequence","","","","",""
"","","","","","html-keyboard-response","172","546329","0.0-172.0","219A4550C0C34176B71D31A8754BF06B","019cf7cb-da52-7fc9-a7c9-90e62970d72d","019cf7bd-52b9-7f96-9138-a5960b400b31","","null","
                <div class=""stimulus-container"">
                    <img src=""images/schematic_sequence/hotel_scheme/hotel_scheme_5.png"" class=""exp-image"">
                    <div class=""question-area""></div> 
                </div>","null","","","","","","","","",""
"","","","","","html-button-response","173","547415","0.0-173.0","219A4550C0C34176B71D31A8754BF06B","019cf7cb-da52-7fc9-a7c9-90e62970d72d","019cf7bd-52b9-7f96-9138-a5960b400b31","","1085","
                <div class=""stimulus-container"">
                    <img src=""images/schematic_sequence/hotel_scheme/hotel_scheme_5.png"" class=""exp-image"">
                    <div class=""question-area"">
                        <p style=""font-size: 20px; font-weight: bold; margin: 0;"">Is there a person in this image?</p>
                    </div>
                </div>","0","main_experiment_trial","5","hotel_scheme","schematic_sequence","","","","",""
"","","","","","html-keyboard-response","174","552429","0.0-174.0","219A4550C0C34176B71D31A8754BF06B","019cf7cb-da52-7fc9-a7c9-90e62970d72d","019cf7bd-52b9-7f96-9138-a5960b400b31","","null","
                <div class=""stimulus-container"">
                    <img src=""images/schematic_sequence/hotel_scheme/hotel_scheme_6.png"" class=""exp-image"">
                    <div class=""question-area""></div> 
                </div>","null","","","","","","","","",""
"","","","","","html-button-response","175","553263","0.0-175.0","219A4550C0C34176B71D31A8754BF06B","019cf7cb-da52-7fc9-a7c9-90e62970d72d","019cf7bd-52b9-7f96-9138-a5960b400b31","","833","
                <div class=""stimulus-container"">
                    <img src=""images/schematic_sequence/hotel_scheme/hotel_scheme_6.png"" class=""exp-image"">
                    <div class=""question-area"">
                        <p style=""font-size: 20px; font-weight: bold; margin: 0;"">Is there a person in this image?</p>
                    </div>
                </div>","0","main_experiment_trial","6","hotel_scheme","schematic_sequence","","","","",""
"","","","","","html-keyboard-response","176","558274","0.0-176.0","219A4550C0C34176B71D31A8754BF06B","019cf7cb-da52-7fc9-a7c9-90e62970d72d","019cf7bd-52b9-7f96-9138-a5960b400b31","","null","
                <div class=""stimulus-container"">
                    <img src=""images/schematic_sequence/hotel_scheme/hotel_scheme_7.png"" class=""exp-image"">
                    <div class=""question-area""></div> 
                </div>","null","","","","","","","","",""
"","","","","","html-button-response","177","559304","0.0-177.0","219A4550C0C34176B71D31A8754BF06B","019cf7cb-da52-7fc9-a7c9-90e62970d72d","019cf7bd-52b9-7f96-9138-a5960b400b31","","1029","
                <div class=""stimulus-container"">
                    <img src=""images/schematic_sequence/hotel_scheme/hotel_scheme_7.png"" class=""exp-image"">
                    <div class=""question-area"">
                        <p style=""font-size: 20px; font-weight: bold; margin: 0;"">Is there a person in this image?</p>
                    </div>
                </div>","0","main_experiment_trial","7","hotel_scheme","schematic_sequence","","","","",""
"","","","","","html-keyboard-response","178","564309","0.0-178.0","219A4550C0C34176B71D31A8754BF06B","019cf7cb-da52-7fc9-a7c9-90e62970d72d","019cf7bd-52b9-7f96-9138-a5960b400b31","","null","
                <div class=""stimulus-container"">
                    <img src=""images/schematic_sequence/hotel_scheme/hotel_scheme_8.png"" class=""exp-image"">
                    <div class=""question-area""></div> 
                </div>","null","","","","","","","","",""
"","","","","","html-button-response","179","565233","0.0-179.0","219A4550C0C34176B71D31A8754BF06B","019cf7cb-da52-7fc9-a7c9-90e62970d72d","019cf7bd-52b9-7f96-9138-a5960b400b31","","923","
                <div class=""stimulus-container"">
                    <img src=""images/schematic_sequence/hotel_scheme/hotel_scheme_8.png"" class=""exp-image"">
                    <div class=""question-area"">
