"success","timeout","failed_images","failed_audio","failed_video","trial_type","trial_index","time_elapsed","internal_node_id","subject_id","study_id","session_id","view_history","rt","stimulus","response","task","image_index","folder","sequence_type","valuable_image_index","reward_type","chosen_image_index","correct_choice"
"true","false","[]","[]","[]","preload","0","3000","0.0-0.0","E5134A68096144F19CAEF4DE46BEBF10","019cee78-c717-7429-88a0-5d9c4cc4f993","019cee5f-9f1f-7e58-80c1-9ba679249cc3","","","","","","","","","","","",""
"","","","","","instructions","1","5107","0.0-1.0","E5134A68096144F19CAEF4DE46BEBF10","019cee78-c717-7429-88a0-5d9c4cc4f993","019cee5f-9f1f-7e58-80c1-9ba679249cc3","[{""page_index"":0,""viewing_time"":2106}]","2107","","","","","","","","","",""
"","","","","","instructions","2","9912","0.0-2.0","E5134A68096144F19CAEF4DE46BEBF10","019cee78-c717-7429-88a0-5d9c4cc4f993","019cee5f-9f1f-7e58-80c1-9ba679249cc3","[{""page_index"":0,""viewing_time"":4804}]","4804","","","","","","","","","",""
"true","","","","","fullscreen","3","12660","0.0-3.0","E5134A68096144F19CAEF4DE46BEBF10","019cee78-c717-7429-88a0-5d9c4cc4f993","019cee5f-9f1f-7e58-80c1-9ba679249cc3","","1745","","","","","","","","","",""
"","","","","","instructions","4","15812","0.0-4.0","E5134A68096144F19CAEF4DE46BEBF10","019cee78-c717-7429-88a0-5d9c4cc4f993","019cee5f-9f1f-7e58-80c1-9ba679249cc3","[{""page_index"":0,""viewing_time"":3151}]","3151","","","","","","","","","",""
"","","","","","instructions","5","16759","0.0-5.0","E5134A68096144F19CAEF4DE46BEBF10","019cee78-c717-7429-88a0-5d9c4cc4f993","019cee5f-9f1f-7e58-80c1-9ba679249cc3","[{""page_index"":0,""viewing_time"":945}]","946","","","","","","","","","",""
"","","","","","html-keyboard-response","6","20762","0.0-6.0","E5134A68096144F19CAEF4DE46BEBF10","019cee78-c717-7429-88a0-5d9c4cc4f993","019cee5f-9f1f-7e58-80c1-9ba679249cc3","","null","
                <div class=""stimulus-container"">
                    <img src=""images/instructions/movie_1.png"" class=""exp-image"">
                    <div class=""question-area""></div> 
                </div>","null","","","","","","","",""
"","","","","","html-button-response","7","23867","0.0-7.0","E5134A68096144F19CAEF4DE46BEBF10","019cee78-c717-7429-88a0-5d9c4cc4f993","019cee5f-9f1f-7e58-80c1-9ba679249cc3","","null","
                <div class=""stimulus-container"">
                    <img src=""images/instructions/movie_1.png"" class=""exp-image"">
                    <div class=""question-area"">
                        <p style=""font-size: 20px; font-weight: bold; margin: 0;"">Was there a person in this image?</p>
                    </div>
                </div>","null","example_question","1","","","","","",""
"","","","","","html-keyboard-response","8","27869","0.0-8.0","E5134A68096144F19CAEF4DE46BEBF10","019cee78-c717-7429-88a0-5d9c4cc4f993","019cee5f-9f1f-7e58-80c1-9ba679249cc3","","null","
                <div class=""stimulus-container"">
                    <img src=""images/instructions/movie_2.png"" class=""exp-image"">
                    <div class=""question-area""></div> 
                </div>","null","","","","","","","",""
"","","","","","html-button-response","9","30871","0.0-9.0","E5134A68096144F19CAEF4DE46BEBF10","019cee78-c717-7429-88a0-5d9c4cc4f993","019cee5f-9f1f-7e58-80c1-9ba679249cc3","","null","
                <div class=""stimulus-container"">
                    <img src=""images/instructions/movie_2.png"" class=""exp-image"">
                    <div class=""question-area"">
                        <p style=""font-size: 20px; font-weight: bold; margin: 0;"">Was there a person in this image?</p>
                    </div>
                </div>","null","example_question","2","","","","","",""
"","","","","","html-keyboard-response","10","34874","0.0-10.0","E5134A68096144F19CAEF4DE46BEBF10","019cee78-c717-7429-88a0-5d9c4cc4f993","019cee5f-9f1f-7e58-80c1-9ba679249cc3","","null","
                <div class=""stimulus-container"">
                    <img src=""images/instructions/movie_3.png"" class=""exp-image"">
                    <div class=""question-area""></div> 
                </div>","null","","","","","","","",""
"","","","","","html-button-response","11","37876","0.0-11.0","E5134A68096144F19CAEF4DE46BEBF10","019cee78-c717-7429-88a0-5d9c4cc4f993","019cee5f-9f1f-7e58-80c1-9ba679249cc3","","null","
                <div class=""stimulus-container"">
                    <img src=""images/instructions/movie_3.png"" class=""exp-image"">
                    <div class=""question-area"">
                        <p style=""font-size: 20px; font-weight: bold; margin: 0;"">Was there a person in this image?</p>
                    </div>
                </div>","null","example_question","3","","","","","",""
"","","","","","html-keyboard-response","12","41880","0.0-12.0","E5134A68096144F19CAEF4DE46BEBF10","019cee78-c717-7429-88a0-5d9c4cc4f993","019cee5f-9f1f-7e58-80c1-9ba679249cc3","","null","
                <div class=""stimulus-container"">
                    <img src=""images/instructions/movie_4.png"" class=""exp-image"">
                    <div class=""question-area""></div> 
                </div>","null","","","","","","","",""
"","","","","","html-button-response","13","43513","0.0-13.0","E5134A68096144F19CAEF4DE46BEBF10","019cee78-c717-7429-88a0-5d9c4cc4f993","019cee5f-9f1f-7e58-80c1-9ba679249cc3","","1631","
                <div class=""stimulus-container"">
                    <img src=""images/instructions/movie_4.png"" class=""exp-image"">
                    <div class=""question-area"">
                        <p style=""font-size: 20px; font-weight: bold; margin: 0;"">Was there a person in this image?</p>
                    </div>
                </div>","0","example_question","4","","","","","",""
"","","","","","instructions","14","45882","0.0-14.0","E5134A68096144F19CAEF4DE46BEBF10","019cee78-c717-7429-88a0-5d9c4cc4f993","019cee5f-9f1f-7e58-80c1-9ba679249cc3","[{""page_index"":0,""viewing_time"":2369}]","2369","","","","","","","","","",""
"","","","","","instructions","15","53529","0.0-15.0","E5134A68096144F19CAEF4DE46BEBF10","019cee78-c717-7429-88a0-5d9c4cc4f993","019cee5f-9f1f-7e58-80c1-9ba679249cc3","[{""page_index"":0,""viewing_time"":7646}]","7646","","","","","","","","","",""
"","","","","","html-keyboard-response","16","54532","0.0-16.0","E5134A68096144F19CAEF4DE46BEBF10","019cee78-c717-7429-88a0-5d9c4cc4f993","019cee5f-9f1f-7e58-80c1-9ba679249cc3","","null","<div style=""background-color: white; width: 100vw; height: 100vh;""></div>","null","","","","","","","",""
"","","","","","html-keyboard-response","17","59535","0.0-17.0","E5134A68096144F19CAEF4DE46BEBF10","019cee78-c717-7429-88a0-5d9c4cc4f993","019cee5f-9f1f-7e58-80c1-9ba679249cc3","","null","
                <div class=""stimulus-container"">
                    <img src=""images/causal_sequence/dog_causal/dog_causal_1.png"" class=""exp-image"">
                    <div class=""question-area""></div> 
                </div>","null","","","","","","","",""
"","","","","","html-button-response","18","60741","0.0-18.0","E5134A68096144F19CAEF4DE46BEBF10","019cee78-c717-7429-88a0-5d9c4cc4f993","019cee5f-9f1f-7e58-80c1-9ba679249cc3","","1204","
                <div class=""stimulus-container"">
                    <img src=""images/causal_sequence/dog_causal/dog_causal_1.png"" class=""exp-image"">
                    <div class=""question-area"">
                        <p style=""font-size: 20px; font-weight: bold; margin: 0;"">Is there a person in this image?</p>
                    </div>
                </div>","0","main_experiment_trial","1","dog_causal","causal_sequence","","","",""
"","","","","","html-keyboard-response","19","65743","0.0-19.0","E5134A68096144F19CAEF4DE46BEBF10","019cee78-c717-7429-88a0-5d9c4cc4f993","019cee5f-9f1f-7e58-80c1-9ba679249cc3","","null","
                <div class=""stimulus-container"">
                    <img src=""images/causal_sequence/dog_causal/dog_causal_2.png"" class=""exp-image"">
                    <div class=""question-area""></div> 
                </div>","null","","","","","","","",""
"","","","","","html-button-response","20","67983","0.0-20.0","E5134A68096144F19CAEF4DE46BEBF10","019cee78-c717-7429-88a0-5d9c4cc4f993","019cee5f-9f1f-7e58-80c1-9ba679249cc3","","2238","
                <div class=""stimulus-container"">
                    <img src=""images/causal_sequence/dog_causal/dog_causal_2.png"" class=""exp-image"">
                    <div class=""question-area"">
                        <p style=""font-size: 20px; font-weight: bold; margin: 0;"">Is there a person in this image?</p>
                    </div>
                </div>","0","main_experiment_trial","2","dog_causal","causal_sequence","","","",""
"","","","","","html-keyboard-response","21","72986","0.0-21.0","E5134A68096144F19CAEF4DE46BEBF10","019cee78-c717-7429-88a0-5d9c4cc4f993","019cee5f-9f1f-7e58-80c1-9ba679249cc3","","null","
                <div class=""stimulus-container"">
                    <img src=""images/causal_sequence/dog_causal/dog_causal_3.png"" class=""exp-image"">
                    <div class=""question-area""></div> 
                </div>","null","","","","","","","",""
"","","","","","html-button-response","22","75068","0.0-22.0","E5134A68096144F19CAEF4DE46BEBF10","019cee78-c717-7429-88a0-5d9c4cc4f993","019cee5f-9f1f-7e58-80c1-9ba679249cc3","","2081","
                <div class=""stimulus-container"">
                    <img src=""images/causal_sequence/dog_causal/dog_causal_3.png"" class=""exp-image"">
                    <div class=""question-area"">
                        <p style=""font-size: 20px; font-weight: bold; margin: 0;"">Is there a person in this image?</p>
                    </div>
                </div>","0","main_experiment_trial","3","dog_causal","causal_sequence","","","",""
"","","","","","html-keyboard-response","23","80070","0.0-23.0","E5134A68096144F19CAEF4DE46BEBF10","019cee78-c717-7429-88a0-5d9c4cc4f993","019cee5f-9f1f-7e58-80c1-9ba679249cc3","","null","
                <div class=""stimulus-container"">
                    <img src=""images/causal_sequence/dog_causal/dog_causal_4.png"" class=""exp-image"">
                    <div class=""question-area""></div> 
                </div>","null","","","","","","","",""
"","","","","","html-button-response","24","82924","0.0-24.0","E5134A68096144F19CAEF4DE46BEBF10","019cee78-c717-7429-88a0-5d9c4cc4f993","019cee5f-9f1f-7e58-80c1-9ba679249cc3","","2853","
                <div class=""stimulus-container"">
                    <img src=""images/causal_sequence/dog_causal/dog_causal_4.png"" class=""exp-image"">
                    <div class=""question-area"">
                        <p style=""font-size: 20px; font-weight: bold; margin: 0;"">Is there a person in this image?</p>
                    </div>
                </div>","0","main_experiment_trial","4","dog_causal","causal_sequence","","","",""
"","","","","","html-keyboard-response","25","87927","0.0-25.0","E5134A68096144F19CAEF4DE46BEBF10","019cee78-c717-7429-88a0-5d9c4cc4f993","019cee5f-9f1f-7e58-80c1-9ba679249cc3","","null","
                <div class=""stimulus-container"">
                    <img src=""images/causal_sequence/dog_causal/dog_causal_5.png"" class=""exp-image"">
                    <div class=""question-area""></div> 
                </div>","null","","","","","","","",""
"","","","","","html-button-response","26","90929","0.0-26.0","E5134A68096144F19CAEF4DE46BEBF10","019cee78-c717-7429-88a0-5d9c4cc4f993","019cee5f-9f1f-7e58-80c1-9ba679249cc3","","null","
                <div class=""stimulus-container"">
                    <img src=""images/causal_sequence/dog_causal/dog_causal_5.png"" class=""exp-image"">
                    <div class=""question-area"">
                        <p style=""font-size: 20px; font-weight: bold; margin: 0;"">Is there a person in this image?</p>
                    </div>
                </div>","null","main_experiment_trial","5","dog_causal","causal_sequence","","","",""
"","","","","","html-keyboard-response","27","95932","0.0-27.0","E5134A68096144F19CAEF4DE46BEBF10","019cee78-c717-7429-88a0-5d9c4cc4f993","019cee5f-9f1f-7e58-80c1-9ba679249cc3","","null","
                <div class=""stimulus-container"">
                    <img src=""images/causal_sequence/dog_causal/dog_causal_6.png"" class=""exp-image"">
                    <div class=""question-area""></div> 
                </div>","null","","","","","","","",""
"","","","","","html-button-response","28","96157","0.0-28.0","E5134A68096144F19CAEF4DE46BEBF10","019cee78-c717-7429-88a0-5d9c4cc4f993","019cee5f-9f1f-7e58-80c1-9ba679249cc3","","224","
                <div class=""stimulus-container"">
                    <img src=""images/causal_sequence/dog_causal/dog_causal_6.png"" class=""exp-image"">
                    <div class=""question-area"">
                        <p style=""font-size: 20px; font-weight: bold; margin: 0;"">Is there a person in this image?</p>
                    </div>
                </div>","0","main_experiment_trial","6","dog_causal","causal_sequence","","","",""
"","","","","","html-keyboard-response","29","101160","0.0-29.0","E5134A68096144F19CAEF4DE46BEBF10","019cee78-c717-7429-88a0-5d9c4cc4f993","019cee5f-9f1f-7e58-80c1-9ba679249cc3","","null","
                <div class=""stimulus-container"">
                    <img src=""images/causal_sequence/dog_causal/dog_causal_7.png"" class=""exp-image"">
                    <div class=""question-area""></div> 
                </div>","null","","","","","","","",""
"","","","","","html-button-response","30","102229","0.0-30.0","E5134A68096144F19CAEF4DE46BEBF10","019cee78-c717-7429-88a0-5d9c4cc4f993","019cee5f-9f1f-7e58-80c1-9ba679249cc3","","1068","
                <div class=""stimulus-container"">
                    <img src=""images/causal_sequence/dog_causal/dog_causal_7.png"" class=""exp-image"">
                    <div class=""question-area"">
                        <p style=""font-size: 20px; font-weight: bold; margin: 0;"">Is there a person in this image?</p>
                    </div>
                </div>","0","main_experiment_trial","7","dog_causal","causal_sequence","","","",""
"","","","","","html-keyboard-response","31","107231","0.0-31.0","E5134A68096144F19CAEF4DE46BEBF10","019cee78-c717-7429-88a0-5d9c4cc4f993","019cee5f-9f1f-7e58-80c1-9ba679249cc3","","null","
                <div class=""stimulus-container"">
                    <img src=""images/causal_sequence/dog_causal/dog_causal_8.png"" class=""exp-image"">
                    <div class=""question-area""></div> 
                </div>","null","","","","","","","",""
"","","","","","html-button-response","32","108759","0.0-32.0","E5134A68096144F19CAEF4DE46BEBF10","019cee78-c717-7429-88a0-5d9c4cc4f993","019cee5f-9f1f-7e58-80c1-9ba679249cc3","","1526","
                <div class=""stimulus-container"">
                    <img src=""images/causal_sequence/dog_causal/dog_causal_8.png"" class=""exp-image"">
                    <div class=""question-area"">
                        <p style=""font-size: 20px; font-weight: bold; margin: 0;"">Is there a person in this image?</p>
                    </div>
                </div>","0","main_experiment_trial","8","dog_causal","causal_sequence","","","",""
"","","","","","html-keyboard-response","33","113761","0.0-33.0","E5134A68096144F19CAEF4DE46BEBF10","019cee78-c717-7429-88a0-5d9c4cc4f993","019cee5f-9f1f-7e58-80c1-9ba679249cc3","","null","
                <div class=""stimulus-container"">
                    <img src=""images/causal_sequence/dog_causal/dog_causal_9.png"" class=""exp-image"">
                    <div class=""question-area""></div> 
                </div>","null","","","","","","","",""
"","","","","","html-button-response","34","115125","0.0-34.0","E5134A68096144F19CAEF4DE46BEBF10","019cee78-c717-7429-88a0-5d9c4cc4f993","019cee5f-9f1f-7e58-80c1-9ba679249cc3","","1363","
                <div class=""stimulus-container"">
                    <img src=""images/causal_sequence/dog_causal/dog_causal_9.png"" class=""exp-image"">
                    <div class=""question-area"">
                        <p style=""font-size: 20px; font-weight: bold; margin: 0;"">Is there a person in this image?</p>
                    </div>
                </div>","0","main_experiment_trial","9","dog_causal","causal_sequence","","","",""
"","","","","","html-keyboard-response","35","120128","0.0-35.0","E5134A68096144F19CAEF4DE46BEBF10","019cee78-c717-7429-88a0-5d9c4cc4f993","019cee5f-9f1f-7e58-80c1-9ba679249cc3","","null","
                <div class=""stimulus-container"">
                    <img src=""images/causal_sequence/dog_causal/dog_causal_ten.png"" class=""exp-image"">
                    <div class=""question-area""></div> 
                </div>","null","","","","","","","",""
"","","","","","html-button-response","36","122128","0.0-36.0","E5134A68096144F19CAEF4DE46BEBF10","019cee78-c717-7429-88a0-5d9c4cc4f993","019cee5f-9f1f-7e58-80c1-9ba679249cc3","","1998","
                <div class=""stimulus-container"">
                    <img src=""images/causal_sequence/dog_causal/dog_causal_ten.png"" class=""exp-image"">
                    <div class=""question-area"">
                        <p style=""font-size: 20px; font-weight: bold; margin: 0;"">Is there a person in this image?</p>
                    </div>
                </div>","0","main_experiment_trial","ten","dog_causal","causal_sequence","","","",""
"","","","","","html-keyboard-response","37","123129","0.0-37.0","E5134A68096144F19CAEF4DE46BEBF10","019cee78-c717-7429-88a0-5d9c4cc4f993","019cee5f-9f1f-7e58-80c1-9ba679249cc3","","null","<div style=""background-color: white; width: 100vw; height: 100vh;""></div>","null","","","","","","","",""
"","","","","","html-keyboard-response","38","128131","0.0-38.0","E5134A68096144F19CAEF4DE46BEBF10","019cee78-c717-7429-88a0-5d9c4cc4f993","019cee5f-9f1f-7e58-80c1-9ba679249cc3","","null","
                <div class=""stimulus-container"">
                    <img src=""images/causal_sequence/the_performance_causal/the_performance_causal_1.png"" class=""exp-image"">
                    <div class=""question-area""></div> 
                </div>","null","","","","","","","",""
"","","","","","html-button-response","39","129016","0.0-39.0","E5134A68096144F19CAEF4DE46BEBF10","019cee78-c717-7429-88a0-5d9c4cc4f993","019cee5f-9f1f-7e58-80c1-9ba679249cc3","","884","
                <div class=""stimulus-container"">
                    <img src=""images/causal_sequence/the_performance_causal/the_performance_causal_1.png"" class=""exp-image"">
                    <div class=""question-area"">
                        <p style=""font-size: 20px; font-weight: bold; margin: 0;"">Is there a person in this image?</p>
                    </div>
                </div>","0","main_experiment_trial","1","the_performance_causal","causal_sequence","","","",""
"","","","","","html-keyboard-response","40","134019","0.0-40.0","E5134A68096144F19CAEF4DE46BEBF10","019cee78-c717-7429-88a0-5d9c4cc4f993","019cee5f-9f1f-7e58-80c1-9ba679249cc3","","null","
                <div class=""stimulus-container"">
                    <img src=""images/causal_sequence/the_performance_causal/the_performance_causal_2.png"" class=""exp-image"">
                    <div class=""question-area""></div> 
                </div>","null","","","","","","","",""
"","","","","","html-button-response","41","136453","0.0-41.0","E5134A68096144F19CAEF4DE46BEBF10","019cee78-c717-7429-88a0-5d9c4cc4f993","019cee5f-9f1f-7e58-80c1-9ba679249cc3","","2433","
                <div class=""stimulus-container"">
                    <img src=""images/causal_sequence/the_performance_causal/the_performance_causal_2.png"" class=""exp-image"">
                    <div class=""question-area"">
                        <p style=""font-size: 20px; font-weight: bold; margin: 0;"">Is there a person in this image?</p>
                    </div>
                </div>","0","main_experiment_trial","2","the_performance_causal","causal_sequence","","","",""
"","","","","","html-keyboard-response","42","141456","0.0-42.0","E5134A68096144F19CAEF4DE46BEBF10","019cee78-c717-7429-88a0-5d9c4cc4f993","019cee5f-9f1f-7e58-80c1-9ba679249cc3","","null","
                <div class=""stimulus-container"">
                    <img src=""images/causal_sequence/the_performance_causal/the_performance_causal_3.png"" class=""exp-image"">
                    <div class=""question-area""></div> 
                </div>","null","","","","","","","",""
"","","","","","html-button-response","43","142168","0.0-43.0","E5134A68096144F19CAEF4DE46BEBF10","019cee78-c717-7429-88a0-5d9c4cc4f993","019cee5f-9f1f-7e58-80c1-9ba679249cc3","","709","
                <div class=""stimulus-container"">
                    <img src=""images/causal_sequence/the_performance_causal/the_performance_causal_3.png"" class=""exp-image"">
                    <div class=""question-area"">
                        <p style=""font-size: 20px; font-weight: bold; margin: 0;"">Is there a person in this image?</p>
                    </div>
                </div>","0","main_experiment_trial","3","the_performance_causal","causal_sequence","","","",""
"","","","","","html-keyboard-response","44","147170","0.0-44.0","E5134A68096144F19CAEF4DE46BEBF10","019cee78-c717-7429-88a0-5d9c4cc4f993","019cee5f-9f1f-7e58-80c1-9ba679249cc3","","null","
                <div class=""stimulus-container"">
                    <img src=""images/causal_sequence/the_performance_causal/the_performance_causal_4.png"" class=""exp-image"">
                    <div class=""question-area""></div> 
                </div>","null","","","","","","","",""
"","","","","","html-button-response","45","148051","0.0-45.0","E5134A68096144F19CAEF4DE46BEBF10","019cee78-c717-7429-88a0-5d9c4cc4f993","019cee5f-9f1f-7e58-80c1-9ba679249cc3","","880","
                <div class=""stimulus-container"">
                    <img src=""images/causal_sequence/the_performance_causal/the_performance_causal_4.png"" class=""exp-image"">
                    <div class=""question-area"">
                        <p style=""font-size: 20px; font-weight: bold; margin: 0;"">Is there a person in this image?</p>
                    </div>
                </div>","0","main_experiment_trial","4","the_performance_causal","causal_sequence","","","",""
"","","","","","html-keyboard-response","46","153054","0.0-46.0","E5134A68096144F19CAEF4DE46BEBF10","019cee78-c717-7429-88a0-5d9c4cc4f993","019cee5f-9f1f-7e58-80c1-9ba679249cc3","","null","
                <div class=""stimulus-container"">
                    <img src=""images/causal_sequence/the_performance_causal/the_performance_causal_5.png"" class=""exp-image"">
                    <div class=""question-area""></div> 
                </div>","null","","","","","","","",""
"","","","","","html-button-response","47","155061","0.0-47.0","E5134A68096144F19CAEF4DE46BEBF10","019cee78-c717-7429-88a0-5d9c4cc4f993","019cee5f-9f1f-7e58-80c1-9ba679249cc3","","2005","
                <div class=""stimulus-container"">
                    <img src=""images/causal_sequence/the_performance_causal/the_performance_causal_5.png"" class=""exp-image"">
                    <div class=""question-area"">
                        <p style=""font-size: 20px; font-weight: bold; margin: 0;"">Is there a person in this image?</p>
                    </div>
                </div>","0","main_experiment_trial","5","the_performance_causal","causal_sequence","","","",""
"","","","","","html-keyboard-response","48","160063","0.0-48.0","E5134A68096144F19CAEF4DE46BEBF10","019cee78-c717-7429-88a0-5d9c4cc4f993","019cee5f-9f1f-7e58-80c1-9ba679249cc3","","null","
                <div class=""stimulus-container"">
                    <img src=""images/causal_sequence/the_performance_causal/the_performance_causal_6.png"" class=""exp-image"">
                    <div class=""question-area""></div> 
                </div>","null","","","","","","","",""
"","","","","","html-button-response","49","162019","0.0-49.0","E5134A68096144F19CAEF4DE46BEBF10","019cee78-c717-7429-88a0-5d9c4cc4f993","019cee5f-9f1f-7e58-80c1-9ba679249cc3","","1954","
                <div class=""stimulus-container"">
                    <img src=""images/causal_sequence/the_performance_causal/the_performance_causal_6.png"" class=""exp-image"">
                    <div class=""question-area"">
                        <p style=""font-size: 20px; font-weight: bold; margin: 0;"">Is there a person in this image?</p>
                    </div>
                </div>","0","main_experiment_trial","6","the_performance_causal","causal_sequence","","","",""
"","","","","","html-keyboard-response","50","167022","0.0-50.0","E5134A68096144F19CAEF4DE46BEBF10","019cee78-c717-7429-88a0-5d9c4cc4f993","019cee5f-9f1f-7e58-80c1-9ba679249cc3","","null","
                <div class=""stimulus-container"">
                    <img src=""images/causal_sequence/the_performance_causal/the_performance_causal_7.png"" class=""exp-image"">
                    <div class=""question-area""></div> 
                </div>","null","","","","","","","",""
"","","","","","html-button-response","51","169591","0.0-51.0","E5134A68096144F19CAEF4DE46BEBF10","019cee78-c717-7429-88a0-5d9c4cc4f993","019cee5f-9f1f-7e58-80c1-9ba679249cc3","","2568","
                <div class=""stimulus-container"">
                    <img src=""images/causal_sequence/the_performance_causal/the_performance_causal_7.png"" class=""exp-image"">
                    <div class=""question-area"">
                        <p style=""font-size: 20px; font-weight: bold; margin: 0;"">Is there a person in this image?</p>
                    </div>
                </div>","0","main_experiment_trial","7","the_performance_causal","causal_sequence","","","",""
"","","","","","html-keyboard-response","52","174594","0.0-52.0","E5134A68096144F19CAEF4DE46BEBF10","019cee78-c717-7429-88a0-5d9c4cc4f993","019cee5f-9f1f-7e58-80c1-9ba679249cc3","","null","
                <div class=""stimulus-container"">
                    <img src=""images/causal_sequence/the_performance_causal/the_performance_causal_8.png"" class=""exp-image"">
                    <div class=""question-area""></div> 
                </div>","null","","","","","","","",""
"","","","","","html-button-response","53","176015","0.0-53.0","E5134A68096144F19CAEF4DE46BEBF10","019cee78-c717-7429-88a0-5d9c4cc4f993","019cee5f-9f1f-7e58-80c1-9ba679249cc3","","1420","
                <div class=""stimulus-container"">
                    <img src=""images/causal_sequence/the_performance_causal/the_performance_causal_8.png"" class=""exp-image"">
                    <div class=""question-area"">
                        <p style=""font-size: 20px; font-weight: bold; margin: 0;"">Is there a person in this image?</p>
                    </div>
                </div>","0","main_experiment_trial","8","the_performance_causal","causal_sequence","","","",""
"","","","","","html-keyboard-response","54","181018","0.0-54.0","E5134A68096144F19CAEF4DE46BEBF10","019cee78-c717-7429-88a0-5d9c4cc4f993","019cee5f-9f1f-7e58-80c1-9ba679249cc3","","null","
                <div class=""stimulus-container"">
                    <img src=""images/causal_sequence/the_performance_causal/the_performance_causal_9.png"" class=""exp-image"">
                    <div class=""question-area""></div> 
                </div>","null","","","","","","","",""
"","","","","","html-button-response","55","183558","0.0-55.0","E5134A68096144F19CAEF4DE46BEBF10","019cee78-c717-7429-88a0-5d9c4cc4f993","019cee5f-9f1f-7e58-80c1-9ba679249cc3","","2538","
                <div class=""stimulus-container"">
                    <img src=""images/causal_sequence/the_performance_causal/the_performance_causal_9.png"" class=""exp-image"">
                    <div class=""question-area"">
                        <p style=""font-size: 20px; font-weight: bold; margin: 0;"">Is there a person in this image?</p>
                    </div>
                </div>","0","main_experiment_trial","9","the_performance_causal","causal_sequence","","","",""
"","","","","","html-keyboard-response","56","188560","0.0-56.0","E5134A68096144F19CAEF4DE46BEBF10","019cee78-c717-7429-88a0-5d9c4cc4f993","019cee5f-9f1f-7e58-80c1-9ba679249cc3","","null","
                <div class=""stimulus-container"">
                    <img src=""images/causal_sequence/the_performance_causal/the_performance_causal_ten.png"" class=""exp-image"">
                    <div class=""question-area""></div> 
                </div>","null","","","","","","","",""
"","","","","","html-button-response","57","191181","0.0-57.0","E5134A68096144F19CAEF4DE46BEBF10","019cee78-c717-7429-88a0-5d9c4cc4f993","019cee5f-9f1f-7e58-80c1-9ba679249cc3","","2620","
                <div class=""stimulus-container"">
                    <img src=""images/causal_sequence/the_performance_causal/the_performance_causal_ten.png"" class=""exp-image"">
                    <div class=""question-area"">
                        <p style=""font-size: 20px; font-weight: bold; margin: 0;"">Is there a person in this image?</p>
                    </div>
                </div>","0","main_experiment_trial","ten","the_performance_causal","causal_sequence","","","",""
"","","","","","html-keyboard-response","58","192183","0.0-58.0","E5134A68096144F19CAEF4DE46BEBF10","019cee78-c717-7429-88a0-5d9c4cc4f993","019cee5f-9f1f-7e58-80c1-9ba679249cc3","","null","<div style=""background-color: white; width: 100vw; height: 100vh;""></div>","null","","","","","","","",""
"","","","","","html-keyboard-response","59","197185","0.0-59.0","E5134A68096144F19CAEF4DE46BEBF10","019cee78-c717-7429-88a0-5d9c4cc4f993","019cee5f-9f1f-7e58-80c1-9ba679249cc3","","null","
                <div class=""stimulus-container"">
                    <img src=""images/causal_sequence/coin_causal/coin_causal_1.png"" class=""exp-image"">
                    <div class=""question-area""></div> 
                </div>","null","","","","","","","",""
"","","","","","html-button-response","60","198537","0.0-60.0","E5134A68096144F19CAEF4DE46BEBF10","019cee78-c717-7429-88a0-5d9c4cc4f993","019cee5f-9f1f-7e58-80c1-9ba679249cc3","","1350","
                <div class=""stimulus-container"">
                    <img src=""images/causal_sequence/coin_causal/coin_causal_1.png"" class=""exp-image"">
                    <div class=""question-area"">
                        <p style=""font-size: 20px; font-weight: bold; margin: 0;"">Is there a person in this image?</p>
                    </div>
                </div>","0","main_experiment_trial","1","coin_causal","causal_sequence","","","",""
"","","","","","html-keyboard-response","61","203540","0.0-61.0","E5134A68096144F19CAEF4DE46BEBF10","019cee78-c717-7429-88a0-5d9c4cc4f993","019cee5f-9f1f-7e58-80c1-9ba679249cc3","","null","
                <div class=""stimulus-container"">
                    <img src=""images/causal_sequence/coin_causal/coin_causal_2.png"" class=""exp-image"">
                    <div class=""question-area""></div> 
                </div>","null","","","","","","","",""
"","","","","","html-button-response","62","204473","0.0-62.0","E5134A68096144F19CAEF4DE46BEBF10","019cee78-c717-7429-88a0-5d9c4cc4f993","019cee5f-9f1f-7e58-80c1-9ba679249cc3","","932","
                <div class=""stimulus-container"">
                    <img src=""images/causal_sequence/coin_causal/coin_causal_2.png"" class=""exp-image"">
                    <div class=""question-area"">
                        <p style=""font-size: 20px; font-weight: bold; margin: 0;"">Is there a person in this image?</p>
                    </div>
                </div>","0","main_experiment_trial","2","coin_causal","causal_sequence","","","",""
"","","","","","html-keyboard-response","63","209477","0.0-63.0","E5134A68096144F19CAEF4DE46BEBF10","019cee78-c717-7429-88a0-5d9c4cc4f993","019cee5f-9f1f-7e58-80c1-9ba679249cc3","","null","
                <div class=""stimulus-container"">
                    <img src=""images/causal_sequence/coin_causal/coin_causal_3.png"" class=""exp-image"">
                    <div class=""question-area""></div> 
                </div>","null","","","","","","","",""
"","","","","","html-button-response","64","210607","0.0-64.0","E5134A68096144F19CAEF4DE46BEBF10","019cee78-c717-7429-88a0-5d9c4cc4f993","019cee5f-9f1f-7e58-80c1-9ba679249cc3","","1129","
                <div class=""stimulus-container"">
                    <img src=""images/causal_sequence/coin_causal/coin_causal_3.png"" class=""exp-image"">
                    <div class=""question-area"">
                        <p style=""font-size: 20px; font-weight: bold; margin: 0;"">Is there a person in this image?</p>
                    </div>
                </div>","0","main_experiment_trial","3","coin_causal","causal_sequence","","","",""
"","","","","","html-keyboard-response","65","215611","0.0-65.0","E5134A68096144F19CAEF4DE46BEBF10","019cee78-c717-7429-88a0-5d9c4cc4f993","019cee5f-9f1f-7e58-80c1-9ba679249cc3","","null","
                <div class=""stimulus-container"">
                    <img src=""images/causal_sequence/coin_causal/coin_causal_4.png"" class=""exp-image"">
                    <div class=""question-area""></div> 
                </div>","null","","","","","","","",""
"","","","","","html-button-response","66","218134","0.0-66.0","E5134A68096144F19CAEF4DE46BEBF10","019cee78-c717-7429-88a0-5d9c4cc4f993","019cee5f-9f1f-7e58-80c1-9ba679249cc3","","2522","
                <div class=""stimulus-container"">
                    <img src=""images/causal_sequence/coin_causal/coin_causal_4.png"" class=""exp-image"">
                    <div class=""question-area"">
                        <p style=""font-size: 20px; font-weight: bold; margin: 0;"">Is there a person in this image?</p>
                    </div>
                </div>","0","main_experiment_trial","4","coin_causal","causal_sequence","","","",""
"","","","","","html-keyboard-response","67","223136","0.0-67.0","E5134A68096144F19CAEF4DE46BEBF10","019cee78-c717-7429-88a0-5d9c4cc4f993","019cee5f-9f1f-7e58-80c1-9ba679249cc3","","null","
                <div class=""stimulus-container"">
                    <img src=""images/causal_sequence/coin_causal/coin_causal_5.png"" class=""exp-image"">
                    <div class=""question-area""></div> 
                </div>","null","","","","","","","",""
"","","","","","html-button-response","68","225076","0.0-68.0","E5134A68096144F19CAEF4DE46BEBF10","019cee78-c717-7429-88a0-5d9c4cc4f993","019cee5f-9f1f-7e58-80c1-9ba679249cc3","","1939","
                <div class=""stimulus-container"">
                    <img src=""images/causal_sequence/coin_causal/coin_causal_5.png"" class=""exp-image"">
                    <div class=""question-area"">
                        <p style=""font-size: 20px; font-weight: bold; margin: 0;"">Is there a person in this image?</p>
                    </div>
                </div>","0","main_experiment_trial","5","coin_causal","causal_sequence","","","",""
"","","","","","html-keyboard-response","69","230078","0.0-69.0","E5134A68096144F19CAEF4DE46BEBF10","019cee78-c717-7429-88a0-5d9c4cc4f993","019cee5f-9f1f-7e58-80c1-9ba679249cc3","","null","
                <div class=""stimulus-container"">
                    <img src=""images/causal_sequence/coin_causal/coin_causal_6.png"" class=""exp-image"">
                    <div class=""question-area""></div> 
                </div>","null","","","","","","","",""
"","","","","","html-button-response","70","233081","0.0-70.0","E5134A68096144F19CAEF4DE46BEBF10","019cee78-c717-7429-88a0-5d9c4cc4f993","019cee5f-9f1f-7e58-80c1-9ba679249cc3","","null","
                <div class=""stimulus-container"">
                    <img src=""images/causal_sequence/coin_causal/coin_causal_6.png"" class=""exp-image"">
                    <div class=""question-area"">
                        <p style=""font-size: 20px; font-weight: bold; margin: 0;"">Is there a person in this image?</p>
                    </div>
                </div>","null","main_experiment_trial","6","coin_causal","causal_sequence","","","",""
"","","","","","html-keyboard-response","71","238083","0.0-71.0","E5134A68096144F19CAEF4DE46BEBF10","019cee78-c717-7429-88a0-5d9c4cc4f993","019cee5f-9f1f-7e58-80c1-9ba679249cc3","","null","
                <div class=""stimulus-container"">
                    <img src=""images/causal_sequence/coin_causal/coin_causal_7.png"" class=""exp-image"">
                    <div class=""question-area""></div> 
                </div>","null","","","","","","","",""
"","","","","","html-button-response","72","240152","0.0-72.0","E5134A68096144F19CAEF4DE46BEBF10","019cee78-c717-7429-88a0-5d9c4cc4f993","019cee5f-9f1f-7e58-80c1-9ba679249cc3","","2066","
                <div class=""stimulus-container"">
                    <img src=""images/causal_sequence/coin_causal/coin_causal_7.png"" class=""exp-image"">
                    <div class=""question-area"">
                        <p style=""font-size: 20px; font-weight: bold; margin: 0;"">Is there a person in this image?</p>
                    </div>
                </div>","1","main_experiment_trial","7","coin_causal","causal_sequence","","","",""
"","","","","","html-keyboard-response","73","245155","0.0-73.0","E5134A68096144F19CAEF4DE46BEBF10","019cee78-c717-7429-88a0-5d9c4cc4f993","019cee5f-9f1f-7e58-80c1-9ba679249cc3","","null","
                <div class=""stimulus-container"">
                    <img src=""images/causal_sequence/coin_causal/coin_causal_8.png"" class=""exp-image"">
                    <div class=""question-area""></div> 
                </div>","null","","","","","","","",""
"","","","","","html-button-response","74","248158","0.0-74.0","E5134A68096144F19CAEF4DE46BEBF10","019cee78-c717-7429-88a0-5d9c4cc4f993","019cee5f-9f1f-7e58-80c1-9ba679249cc3","","null","
                <div class=""stimulus-container"">
                    <img src=""images/causal_sequence/coin_causal/coin_causal_8.png"" class=""exp-image"">
                    <div class=""question-area"">
                        <p style=""font-size: 20px; font-weight: bold; margin: 0;"">Is there a person in this image?</p>
                    </div>
                </div>","null","main_experiment_trial","8","coin_causal","causal_sequence","","","",""
"","","","","","html-keyboard-response","75","253160","0.0-75.0","E5134A68096144F19CAEF4DE46BEBF10","019cee78-c717-7429-88a0-5d9c4cc4f993","019cee5f-9f1f-7e58-80c1-9ba679249cc3","","null","
                <div class=""stimulus-container"">
                    <img src=""images/causal_sequence/coin_causal/coin_causal_9.png"" class=""exp-image"">
                    <div class=""question-area""></div> 
                </div>","null","","","","","","","",""
"","","","","","html-button-response","76","255792","0.0-76.0","E5134A68096144F19CAEF4DE46BEBF10","019cee78-c717-7429-88a0-5d9c4cc4f993","019cee5f-9f1f-7e58-80c1-9ba679249cc3","","2630","
                <div class=""stimulus-container"">
                    <img src=""images/causal_sequence/coin_causal/coin_causal_9.png"" class=""exp-image"">
                    <div class=""question-area"">
                        <p style=""font-size: 20px; font-weight: bold; margin: 0;"">Is there a person in this image?</p>
                    </div>
                </div>","0","main_experiment_trial","9","coin_causal","causal_sequence","","","",""
"","","","","","html-keyboard-response","77","260795","0.0-77.0","E5134A68096144F19CAEF4DE46BEBF10","019cee78-c717-7429-88a0-5d9c4cc4f993","019cee5f-9f1f-7e58-80c1-9ba679249cc3","","null","
                <div class=""stimulus-container"">
                    <img src=""images/causal_sequence/coin_causal/coin_causal_ten.png"" class=""exp-image"">
                    <div class=""question-area""></div> 
                </div>","null","","","","","","","",""
"","","","","","html-button-response","78","263798","0.0-78.0","E5134A68096144F19CAEF4DE46BEBF10","019cee78-c717-7429-88a0-5d9c4cc4f993","019cee5f-9f1f-7e58-80c1-9ba679249cc3","","null","
                <div class=""stimulus-container"">
                    <img src=""images/causal_sequence/coin_causal/coin_causal_ten.png"" class=""exp-image"">
                    <div class=""question-area"">
                        <p style=""font-size: 20px; font-weight: bold; margin: 0;"">Is there a person in this image?</p>
                    </div>
                </div>","null","main_experiment_trial","ten","coin_causal","causal_sequence","","","",""
"","","","","","html-keyboard-response","79","264800","0.0-79.0","E5134A68096144F19CAEF4DE46BEBF10","019cee78-c717-7429-88a0-5d9c4cc4f993","019cee5f-9f1f-7e58-80c1-9ba679249cc3","","null","<div style=""background-color: white; width: 100vw; height: 100vh;""></div>","null","","","","","","","",""
"","","","","","html-keyboard-response","80","269802","0.0-80.0","E5134A68096144F19CAEF4DE46BEBF10","019cee78-c717-7429-88a0-5d9c4cc4f993","019cee5f-9f1f-7e58-80c1-9ba679249cc3","","null","
                <div class=""stimulus-container"">
                    <img src=""images/schematic_sequence/interview_scheme/interview_scheme_1.png"" class=""exp-image"">
                    <div class=""question-area""></div> 
                </div>","null","","","","","","","",""
"","","","","","html-button-response","81","272806","0.0-81.0","E5134A68096144F19CAEF4DE46BEBF10","019cee78-c717-7429-88a0-5d9c4cc4f993","019cee5f-9f1f-7e58-80c1-9ba679249cc3","","null","
                <div class=""stimulus-container"">
                    <img src=""images/schematic_sequence/interview_scheme/interview_scheme_1.png"" class=""exp-image"">
                    <div class=""question-area"">
                        <p style=""font-size: 20px; font-weight: bold; margin: 0;"">Is there a person in this image?</p>
                    </div>
                </div>","null","main_experiment_trial","1","interview_scheme","schematic_sequence","","","",""
"","","","","","html-keyboard-response","82","277808","0.0-82.0","E5134A68096144F19CAEF4DE46BEBF10","019cee78-c717-7429-88a0-5d9c4cc4f993","019cee5f-9f1f-7e58-80c1-9ba679249cc3","","null","
                <div class=""stimulus-container"">
                    <img src=""images/schematic_sequence/interview_scheme/interview_scheme_2.png"" class=""exp-image"">
                    <div class=""question-area""></div> 
                </div>","null","","","","","","","",""
"","","","","","html-button-response","83","279803","0.0-83.0","E5134A68096144F19CAEF4DE46BEBF10","019cee78-c717-7429-88a0-5d9c4cc4f993","019cee5f-9f1f-7e58-80c1-9ba679249cc3","","1993","
                <div class=""stimulus-container"">
                    <img src=""images/schematic_sequence/interview_scheme/interview_scheme_2.png"" class=""exp-image"">
                    <div class=""question-area"">
                        <p style=""font-size: 20px; font-weight: bold; margin: 0;"">Is there a person in this image?</p>
                    </div>
                </div>","1","main_experiment_trial","2","interview_scheme","schematic_sequence","","","",""
"","","","","","html-keyboard-response","84","284806","0.0-84.0","E5134A68096144F19CAEF4DE46BEBF10","019cee78-c717-7429-88a0-5d9c4cc4f993","019cee5f-9f1f-7e58-80c1-9ba679249cc3","","null","
                <div class=""stimulus-container"">
                    <img src=""images/schematic_sequence/interview_scheme/interview_scheme_3.png"" class=""exp-image"">
                    <div class=""question-area""></div> 
                </div>","null","","","","","","","",""
"","","","","","html-button-response","85","285164","0.0-85.0","E5134A68096144F19CAEF4DE46BEBF10","019cee78-c717-7429-88a0-5d9c4cc4f993","019cee5f-9f1f-7e58-80c1-9ba679249cc3","","357","
                <div class=""stimulus-container"">
                    <img src=""images/schematic_sequence/interview_scheme/interview_scheme_3.png"" class=""exp-image"">
                    <div class=""question-area"">
                        <p style=""font-size: 20px; font-weight: bold; margin: 0;"">Is there a person in this image?</p>
                    </div>
                </div>","1","main_experiment_trial","3","interview_scheme","schematic_sequence","","","",""
"","","","","","html-keyboard-response","86","290167","0.0-86.0","E5134A68096144F19CAEF4DE46BEBF10","019cee78-c717-7429-88a0-5d9c4cc4f993","019cee5f-9f1f-7e58-80c1-9ba679249cc3","","null","
                <div class=""stimulus-container"">
                    <img src=""images/schematic_sequence/interview_scheme/interview_scheme_4.png"" class=""exp-image"">
                    <div class=""question-area""></div> 
                </div>","null","","","","","","","",""
"","","","","","html-button-response","87","292161","0.0-87.0","E5134A68096144F19CAEF4DE46BEBF10","019cee78-c717-7429-88a0-5d9c4cc4f993","019cee5f-9f1f-7e58-80c1-9ba679249cc3","","1992","
                <div class=""stimulus-container"">
                    <img src=""images/schematic_sequence/interview_scheme/interview_scheme_4.png"" class=""exp-image"">
                    <div class=""question-area"">
                        <p style=""font-size: 20px; font-weight: bold; margin: 0;"">Is there a person in this image?</p>
                    </div>
                </div>","1","main_experiment_trial","4","interview_scheme","schematic_sequence","","","",""
"","","","","","html-keyboard-response","88","297163","0.0-88.0","E5134A68096144F19CAEF4DE46BEBF10","019cee78-c717-7429-88a0-5d9c4cc4f993","019cee5f-9f1f-7e58-80c1-9ba679249cc3","","null","
                <div class=""stimulus-container"">
                    <img src=""images/schematic_sequence/interview_scheme/interview_scheme_5.png"" class=""exp-image"">
                    <div class=""question-area""></div> 
                </div>","null","","","","","","","",""
"","","","","","html-button-response","89","297632","0.0-89.0","E5134A68096144F19CAEF4DE46BEBF10","019cee78-c717-7429-88a0-5d9c4cc4f993","019cee5f-9f1f-7e58-80c1-9ba679249cc3","","467","
                <div class=""stimulus-container"">
                    <img src=""images/schematic_sequence/interview_scheme/interview_scheme_5.png"" class=""exp-image"">
                    <div class=""question-area"">
                        <p style=""font-size: 20px; font-weight: bold; margin: 0;"">Is there a person in this image?</p>
                    </div>
                </div>","0","main_experiment_trial","5","interview_scheme","schematic_sequence","","","",""
"","","","","","html-keyboard-response","90","302634","0.0-90.0","E5134A68096144F19CAEF4DE46BEBF10","019cee78-c717-7429-88a0-5d9c4cc4f993","019cee5f-9f1f-7e58-80c1-9ba679249cc3","","null","
                <div class=""stimulus-container"">
                    <img src=""images/schematic_sequence/interview_scheme/interview_scheme_6.png"" class=""exp-image"">
                    <div class=""question-area""></div> 
                </div>","null","","","","","","","",""
"","","","","","html-button-response","91","305334","0.0-91.0","E5134A68096144F19CAEF4DE46BEBF10","019cee78-c717-7429-88a0-5d9c4cc4f993","019cee5f-9f1f-7e58-80c1-9ba679249cc3","","2698","
                <div class=""stimulus-container"">
                    <img src=""images/schematic_sequence/interview_scheme/interview_scheme_6.png"" class=""exp-image"">
                    <div class=""question-area"">
                        <p style=""font-size: 20px; font-weight: bold; margin: 0;"">Is there a person in this image?</p>
                    </div>
                </div>","0","main_experiment_trial","6","interview_scheme","schematic_sequence","","","",""
"","","","","","html-keyboard-response","92","310337","0.0-92.0","E5134A68096144F19CAEF4DE46BEBF10","019cee78-c717-7429-88a0-5d9c4cc4f993","019cee5f-9f1f-7e58-80c1-9ba679249cc3","","null","
                <div class=""stimulus-container"">
                    <img src=""images/schematic_sequence/interview_scheme/interview_scheme_7.png"" class=""exp-image"">
                    <div class=""question-area""></div> 
                </div>","null","","","","","","","",""
"","","","","","html-button-response","93","313340","0.0-93.0","E5134A68096144F19CAEF4DE46BEBF10","019cee78-c717-7429-88a0-5d9c4cc4f993","019cee5f-9f1f-7e58-80c1-9ba679249cc3","","null","
                <div class=""stimulus-container"">
                    <img src=""images/schematic_sequence/interview_scheme/interview_scheme_7.png"" class=""exp-image"">
                    <div class=""question-area"">
                        <p style=""font-size: 20px; font-weight: bold; margin: 0;"">Is there a person in this image?</p>
                    </div>
                </div>","null","main_experiment_trial","7","interview_scheme","schematic_sequence","","","",""
"","","","","","html-keyboard-response","94","318343","0.0-94.0","E5134A68096144F19CAEF4DE46BEBF10","019cee78-c717-7429-88a0-5d9c4cc4f993","019cee5f-9f1f-7e58-80c1-9ba679249cc3","","null","
                <div class=""stimulus-container"">
                    <img src=""images/schematic_sequence/interview_scheme/interview_scheme_8.png"" class=""exp-image"">
                    <div class=""question-area""></div> 
                </div>","null","","","","","","","",""
"","","","","","html-button-response","95","321346","0.0-95.0","E5134A68096144F19CAEF4DE46BEBF10","019cee78-c717-7429-88a0-5d9c4cc4f993","019cee5f-9f1f-7e58-80c1-9ba679249cc3","","null","
                <div class=""stimulus-container"">
                    <img src=""images/schematic_sequence/interview_scheme/interview_scheme_8.png"" class=""exp-image"">
                    <div class=""question-area"">
                        <p style=""font-size: 20px; font-weight: bold; margin: 0;"">Is there a person in this image?</p>
                    </div>
                </div>","null","main_experiment_trial","8","interview_scheme","schematic_sequence","","","",""
"","","","","","html-keyboard-response","96","326349","0.0-96.0","E5134A68096144F19CAEF4DE46BEBF10","019cee78-c717-7429-88a0-5d9c4cc4f993","019cee5f-9f1f-7e58-80c1-9ba679249cc3","","null","
                <div class=""stimulus-container"">
                    <img src=""images/schematic_sequence/interview_scheme/interview_scheme_9.png"" class=""exp-image"">
                    <div class=""question-area""></div> 
                </div>","null","","","","","","","",""
"","","","","","html-button-response","97","327170","0.0-97.0","E5134A68096144F19CAEF4DE46BEBF10","019cee78-c717-7429-88a0-5d9c4cc4f993","019cee5f-9f1f-7e58-80c1-9ba679249cc3","","820","
                <div class=""stimulus-container"">
                    <img src=""images/schematic_sequence/interview_scheme/interview_scheme_9.png"" class=""exp-image"">
                    <div class=""question-area"">
                        <p style=""font-size: 20px; font-weight: bold; margin: 0;"">Is there a person in this image?</p>
                    </div>
                </div>","0","main_experiment_trial","9","interview_scheme","schematic_sequence","","","",""
"","","","","","html-keyboard-response","98","332174","0.0-98.0","E5134A68096144F19CAEF4DE46BEBF10","019cee78-c717-7429-88a0-5d9c4cc4f993","019cee5f-9f1f-7e58-80c1-9ba679249cc3","","null","
                <div class=""stimulus-container"">
                    <img src=""images/schematic_sequence/interview_scheme/interview_scheme_ten.png"" class=""exp-image"">
                    <div class=""question-area""></div> 
                </div>","null","","","","","","","",""
"","","","","","html-button-response","99","333632","0.0-99.0","E5134A68096144F19CAEF4DE46BEBF10","019cee78-c717-7429-88a0-5d9c4cc4f993","019cee5f-9f1f-7e58-80c1-9ba679249cc3","","1457","
                <div class=""stimulus-container"">
                    <img src=""images/schematic_sequence/interview_scheme/interview_scheme_ten.png"" class=""exp-image"">
                    <div class=""question-area"">
                        <p style=""font-size: 20px; font-weight: bold; margin: 0;"">Is there a person in this image?</p>
                    </div>
                </div>","0","main_experiment_trial","ten","interview_scheme","schematic_sequence","","","",""
"","","","","","html-keyboard-response","100","334635","0.0-100.0","E5134A68096144F19CAEF4DE46BEBF10","019cee78-c717-7429-88a0-5d9c4cc4f993","019cee5f-9f1f-7e58-80c1-9ba679249cc3","","null","<div style=""background-color: white; width: 100vw; height: 100vh;""></div>","null","","","","","","","",""
"","","","","","html-keyboard-response","101","339638","0.0-101.0","E5134A68096144F19CAEF4DE46BEBF10","019cee78-c717-7429-88a0-5d9c4cc4f993","019cee5f-9f1f-7e58-80c1-9ba679249cc3","","null","
                <div class=""stimulus-container"">
                    <img src=""images/schematic_sequence/flight_scheme/flight_scheme_1.png"" class=""exp-image"">
                    <div class=""question-area""></div> 
                </div>","null","","","","","","","",""
"","","","","","html-button-response","102","340665","0.0-102.0","E5134A68096144F19CAEF4DE46BEBF10","019cee78-c717-7429-88a0-5d9c4cc4f993","019cee5f-9f1f-7e58-80c1-9ba679249cc3","","1025","
                <div class=""stimulus-container"">
                    <img src=""images/schematic_sequence/flight_scheme/flight_scheme_1.png"" class=""exp-image"">
                    <div class=""question-area"">
                        <p style=""font-size: 20px; font-weight: bold; margin: 0;"">Is there a person in this image?</p>
                    </div>
                </div>","0","main_experiment_trial","1","flight_scheme","schematic_sequence","","","",""
"","","","","","html-keyboard-response","103","345667","0.0-103.0","E5134A68096144F19CAEF4DE46BEBF10","019cee78-c717-7429-88a0-5d9c4cc4f993","019cee5f-9f1f-7e58-80c1-9ba679249cc3","","null","
                <div class=""stimulus-container"">
                    <img src=""images/schematic_sequence/flight_scheme/flight_scheme_2.png"" class=""exp-image"">
                    <div class=""question-area""></div> 
                </div>","null","","","","","","","",""
"","","","","","html-button-response","104","347249","0.0-104.0","E5134A68096144F19CAEF4DE46BEBF10","019cee78-c717-7429-88a0-5d9c4cc4f993","019cee5f-9f1f-7e58-80c1-9ba679249cc3","","1580","
                <div class=""stimulus-container"">
                    <img src=""images/schematic_sequence/flight_scheme/flight_scheme_2.png"" class=""exp-image"">
                    <div class=""question-area"">
                        <p style=""font-size: 20px; font-weight: bold; margin: 0;"">Is there a person in this image?</p>
                    </div>
                </div>","0","main_experiment_trial","2","flight_scheme","schematic_sequence","","","",""
"","","","","","html-keyboard-response","105","352251","0.0-105.0","E5134A68096144F19CAEF4DE46BEBF10","019cee78-c717-7429-88a0-5d9c4cc4f993","019cee5f-9f1f-7e58-80c1-9ba679249cc3","","null","
                <div class=""stimulus-container"">
                    <img src=""images/schematic_sequence/flight_scheme/flight_scheme_3.png"" class=""exp-image"">
                    <div class=""question-area""></div> 
                </div>","null","","","","","","","",""
"","","","","","html-button-response","106","355239","0.0-106.0","E5134A68096144F19CAEF4DE46BEBF10","019cee78-c717-7429-88a0-5d9c4cc4f993","019cee5f-9f1f-7e58-80c1-9ba679249cc3","","2986","
                <div class=""stimulus-container"">
                    <img src=""images/schematic_sequence/flight_scheme/flight_scheme_3.png"" class=""exp-image"">
                    <div class=""question-area"">
                        <p style=""font-size: 20px; font-weight: bold; margin: 0;"">Is there a person in this image?</p>
                    </div>
                </div>","0","main_experiment_trial","3","flight_scheme","schematic_sequence","","","",""
"","","","","","html-keyboard-response","107","360242","0.0-107.0","E5134A68096144F19CAEF4DE46BEBF10","019cee78-c717-7429-88a0-5d9c4cc4f993","019cee5f-9f1f-7e58-80c1-9ba679249cc3","","null","
                <div class=""stimulus-container"">
                    <img src=""images/schematic_sequence/flight_scheme/flight_scheme_4.png"" class=""exp-image"">
                    <div class=""question-area""></div> 
                </div>","null","","","","","","","",""
"","","","","","html-button-response","108","360863","0.0-108.0","E5134A68096144F19CAEF4DE46BEBF10","019cee78-c717-7429-88a0-5d9c4cc4f993","019cee5f-9f1f-7e58-80c1-9ba679249cc3","","619","
                <div class=""stimulus-container"">
                    <img src=""images/schematic_sequence/flight_scheme/flight_scheme_4.png"" class=""exp-image"">
                    <div class=""question-area"">
                        <p style=""font-size: 20px; font-weight: bold; margin: 0;"">Is there a person in this image?</p>
                    </div>
                </div>","0","main_experiment_trial","4","flight_scheme","schematic_sequence","","","",""
"","","","","","html-keyboard-response","109","365865","0.0-109.0","E5134A68096144F19CAEF4DE46BEBF10","019cee78-c717-7429-88a0-5d9c4cc4f993","019cee5f-9f1f-7e58-80c1-9ba679249cc3","","null","
                <div class=""stimulus-container"">
                    <img src=""images/schematic_sequence/flight_scheme/flight_scheme_5.png"" class=""exp-image"">
                    <div class=""question-area""></div> 
                </div>","null","","","","","","","",""
"","","","","","html-button-response","110","368209","0.0-110.0","E5134A68096144F19CAEF4DE46BEBF10","019cee78-c717-7429-88a0-5d9c4cc4f993","019cee5f-9f1f-7e58-80c1-9ba679249cc3","","2342","
                <div class=""stimulus-container"">
                    <img src=""images/schematic_sequence/flight_scheme/flight_scheme_5.png"" class=""exp-image"">
                    <div class=""question-area"">
                        <p style=""font-size: 20px; font-weight: bold; margin: 0;"">Is there a person in this image?</p>
                    </div>
                </div>","0","main_experiment_trial","5","flight_scheme","schematic_sequence","","","",""
"","","","","","html-keyboard-response","111","373212","0.0-111.0","E5134A68096144F19CAEF4DE46BEBF10","019cee78-c717-7429-88a0-5d9c4cc4f993","019cee5f-9f1f-7e58-80c1-9ba679249cc3","","null","
                <div class=""stimulus-container"">
                    <img src=""images/schematic_sequence/flight_scheme/flight_scheme_6.png"" class=""exp-image"">
                    <div class=""question-area""></div> 
                </div>","null","","","","","","","",""
"","","","","","html-button-response","112","373749","0.0-112.0","E5134A68096144F19CAEF4DE46BEBF10","019cee78-c717-7429-88a0-5d9c4cc4f993","019cee5f-9f1f-7e58-80c1-9ba679249cc3","","535","
                <div class=""stimulus-container"">
                    <img src=""images/schematic_sequence/flight_scheme/flight_scheme_6.png"" class=""exp-image"">
                    <div class=""question-area"">
                        <p style=""font-size: 20px; font-weight: bold; margin: 0;"">Is there a person in this image?</p>
                    </div>
                </div>","1","main_experiment_trial","6","flight_scheme","schematic_sequence","","","",""
"","","","","","html-keyboard-response","113","378752","0.0-113.0","E5134A68096144F19CAEF4DE46BEBF10","019cee78-c717-7429-88a0-5d9c4cc4f993","019cee5f-9f1f-7e58-80c1-9ba679249cc3","","null","
                <div class=""stimulus-container"">
                    <img src=""images/schematic_sequence/flight_scheme/flight_scheme_7.png"" class=""exp-image"">
                    <div class=""question-area""></div> 
                </div>","null","","","","","","","",""
"","","","","","html-button-response","114","381755","0.0-114.0","E5134A68096144F19CAEF4DE46BEBF10","019cee78-c717-7429-88a0-5d9c4cc4f993","019cee5f-9f1f-7e58-80c1-9ba679249cc3","","null","
                <div class=""stimulus-container"">
                    <img src=""images/schematic_sequence/flight_scheme/flight_scheme_7.png"" class=""exp-image"">
                    <div class=""question-area"">
                        <p style=""font-size: 20px; font-weight: bold; margin: 0;"">Is there a person in this image?</p>
                    </div>
                </div>","null","main_experiment_trial","7","flight_scheme","schematic_sequence","","","",""
"","","","","","html-keyboard-response","115","386758","0.0-115.0","E5134A68096144F19CAEF4DE46BEBF10","019cee78-c717-7429-88a0-5d9c4cc4f993","019cee5f-9f1f-7e58-80c1-9ba679249cc3","","null","
                <div class=""stimulus-container"">
                    <img src=""images/schematic_sequence/flight_scheme/flight_scheme_8.png"" class=""exp-image"">
                    <div class=""question-area""></div> 
                </div>","null","","","","","","","",""
"","","","","","html-button-response","116","389760","0.0-116.0","E5134A68096144F19CAEF4DE46BEBF10","019cee78-c717-7429-88a0-5d9c4cc4f993","019cee5f-9f1f-7e58-80c1-9ba679249cc3","","null","
                <div class=""stimulus-container"">
                    <img src=""images/schematic_sequence/flight_scheme/flight_scheme_8.png"" class=""exp-image"">
                    <div class=""question-area"">
                        <p style=""font-size: 20px; font-weight: bold; margin: 0;"">Is there a person in this image?</p>
                    </div>
                </div>","null","main_experiment_trial","8","flight_scheme","schematic_sequence","","","",""
"","","","","","html-keyboard-response","117","394763","0.0-117.0","E5134A68096144F19CAEF4DE46BEBF10","019cee78-c717-7429-88a0-5d9c4cc4f993","019cee5f-9f1f-7e58-80c1-9ba679249cc3","","null","
                <div class=""stimulus-container"">
                    <img src=""images/schematic_sequence/flight_scheme/flight_scheme_9.png"" class=""exp-image"">
                    <div class=""question-area""></div> 
                </div>","null","","","","","","","",""
"","","","","","html-button-response","118","397766","0.0-118.0","E5134A68096144F19CAEF4DE46BEBF10","019cee78-c717-7429-88a0-5d9c4cc4f993","019cee5f-9f1f-7e58-80c1-9ba679249cc3","","null","
                <div class=""stimulus-container"">
                    <img src=""images/schematic_sequence/flight_scheme/flight_scheme_9.png"" class=""exp-image"">
                    <div class=""question-area"">
                        <p style=""font-size: 20px; font-weight: bold; margin: 0;"">Is there a person in this image?</p>
                    </div>
                </div>","null","main_experiment_trial","9","flight_scheme","schematic_sequence","","","",""
"","","","","","html-keyboard-response","119","402769","0.0-119.0","E5134A68096144F19CAEF4DE46BEBF10","019cee78-c717-7429-88a0-5d9c4cc4f993","019cee5f-9f1f-7e58-80c1-9ba679249cc3","","null","
                <div class=""stimulus-container"">
                    <img src=""images/schematic_sequence/flight_scheme/flight_scheme_ten.png"" class=""exp-image"">
                    <div class=""question-area""></div> 
                </div>","null","","","","","","","",""
"","","","","","html-button-response","120","403085","0.0-120.0","E5134A68096144F19CAEF4DE46BEBF10","019cee78-c717-7429-88a0-5d9c4cc4f993","019cee5f-9f1f-7e58-80c1-9ba679249cc3","","314","
                <div class=""stimulus-container"">
                    <img src=""images/schematic_sequence/flight_scheme/flight_scheme_ten.png"" class=""exp-image"">
                    <div class=""question-area"">
                        <p style=""font-size: 20px; font-weight: bold; margin: 0;"">Is there a person in this image?</p>
                    </div>
                </div>","1","main_experiment_trial","ten","flight_scheme","schematic_sequence","","","",""
"","","","","","html-keyboard-response","121","404088","0.0-121.0","E5134A68096144F19CAEF4DE46BEBF10","019cee78-c717-7429-88a0-5d9c4cc4f993","019cee5f-9f1f-7e58-80c1-9ba679249cc3","","null","<div style=""background-color: white; width: 100vw; height: 100vh;""></div>","null","","","","","","","",""
"","","","","","html-keyboard-response","122","409090","0.0-122.0","E5134A68096144F19CAEF4DE46BEBF10","019cee78-c717-7429-88a0-5d9c4cc4f993","019cee5f-9f1f-7e58-80c1-9ba679249cc3","","null","
                <div class=""stimulus-container"">
                    <img src=""images/causal_sequence/package_causal/package_causal_1.png"" class=""exp-image"">
                    <div class=""question-area""></div> 
                </div>","null","","","","","","","",""
"","","","","","html-button-response","123","411045","0.0-123.0","E5134A68096144F19CAEF4DE46BEBF10","019cee78-c717-7429-88a0-5d9c4cc4f993","019cee5f-9f1f-7e58-80c1-9ba679249cc3","","1953","
                <div class=""stimulus-container"">
                    <img src=""images/causal_sequence/package_causal/package_causal_1.png"" class=""exp-image"">
                    <div class=""question-area"">
                        <p style=""font-size: 20px; font-weight: bold; margin: 0;"">Is there a person in this image?</p>
                    </div>
                </div>","0","main_experiment_trial","1","package_causal","causal_sequence","","","",""
"","","","","","html-keyboard-response","124","416047","0.0-124.0","E5134A68096144F19CAEF4DE46BEBF10","019cee78-c717-7429-88a0-5d9c4cc4f993","019cee5f-9f1f-7e58-80c1-9ba679249cc3","","null","
                <div class=""stimulus-container"">
                    <img src=""images/causal_sequence/package_causal/package_causal_2.png"" class=""exp-image"">
                    <div class=""question-area""></div> 
                </div>","null","","","","","","","",""
"","","","","","html-button-response","125","419050","0.0-125.0","E5134A68096144F19CAEF4DE46BEBF10","019cee78-c717-7429-88a0-5d9c4cc4f993","019cee5f-9f1f-7e58-80c1-9ba679249cc3","","null","
                <div class=""stimulus-container"">
                    <img src=""images/causal_sequence/package_causal/package_causal_2.png"" class=""exp-image"">
                    <div class=""question-area"">
                        <p style=""font-size: 20px; font-weight: bold; margin: 0;"">Is there a person in this image?</p>
                    </div>
                </div>","null","main_experiment_trial","2","package_causal","causal_sequence","","","",""
"","","","","","html-keyboard-response","126","424053","0.0-126.0","E5134A68096144F19CAEF4DE46BEBF10","019cee78-c717-7429-88a0-5d9c4cc4f993","019cee5f-9f1f-7e58-80c1-9ba679249cc3","","null","
                <div class=""stimulus-container"">
                    <img src=""images/causal_sequence/package_causal/package_causal_3.png"" class=""exp-image"">
                    <div class=""question-area""></div> 
                </div>","null","","","","","","","",""
"","","","","","html-button-response","127","424475","0.0-127.0","E5134A68096144F19CAEF4DE46BEBF10","019cee78-c717-7429-88a0-5d9c4cc4f993","019cee5f-9f1f-7e58-80c1-9ba679249cc3","","421","
                <div class=""stimulus-container"">
                    <img src=""images/causal_sequence/package_causal/package_causal_3.png"" class=""exp-image"">
                    <div class=""question-area"">
                        <p style=""font-size: 20px; font-weight: bold; margin: 0;"">Is there a person in this image?</p>
                    </div>
                </div>","0","main_experiment_trial","3","package_causal","causal_sequence","","","",""
"","","","","","html-keyboard-response","128","429478","0.0-128.0","E5134A68096144F19CAEF4DE46BEBF10","019cee78-c717-7429-88a0-5d9c4cc4f993","019cee5f-9f1f-7e58-80c1-9ba679249cc3","","null","
                <div class=""stimulus-container"">
                    <img src=""images/causal_sequence/package_causal/package_causal_4.png"" class=""exp-image"">
                    <div class=""question-area""></div> 
                </div>","null","","","","","","","",""
"","","","","","html-button-response","129","432481","0.0-129.0","E5134A68096144F19CAEF4DE46BEBF10","019cee78-c717-7429-88a0-5d9c4cc4f993","019cee5f-9f1f-7e58-80c1-9ba679249cc3","","null","
                <div class=""stimulus-container"">
                    <img src=""images/causal_sequence/package_causal/package_causal_4.png"" class=""exp-image"">
                    <div class=""question-area"">
                        <p style=""font-size: 20px; font-weight: bold; margin: 0;"">Is there a person in this image?</p>
                    </div>
                </div>","null","main_experiment_trial","4","package_causal","causal_sequence","","","",""
"","","","","","html-keyboard-response","130","437483","0.0-130.0","E5134A68096144F19CAEF4DE46BEBF10","019cee78-c717-7429-88a0-5d9c4cc4f993","019cee5f-9f1f-7e58-80c1-9ba679249cc3","","null","
                <div class=""stimulus-container"">
                    <img src=""images/causal_sequence/package_causal/package_causal_5.png"" class=""exp-image"">
                    <div class=""question-area""></div> 
                </div>","null","","","","","","","",""
"","","","","","html-button-response","131","439295","0.0-131.0","E5134A68096144F19CAEF4DE46BEBF10","019cee78-c717-7429-88a0-5d9c4cc4f993","019cee5f-9f1f-7e58-80c1-9ba679249cc3","","1810","
                <div class=""stimulus-container"">
                    <img src=""images/causal_sequence/package_causal/package_causal_5.png"" class=""exp-image"">
                    <div class=""question-area"">
                        <p style=""font-size: 20px; font-weight: bold; margin: 0;"">Is there a person in this image?</p>
                    </div>
                </div>","0","main_experiment_trial","5","package_causal","causal_sequence","","","",""
"","","","","","html-keyboard-response","132","444299","0.0-132.0","E5134A68096144F19CAEF4DE46BEBF10","019cee78-c717-7429-88a0-5d9c4cc4f993","019cee5f-9f1f-7e58-80c1-9ba679249cc3","","null","
                <div class=""stimulus-container"">
                    <img src=""images/causal_sequence/package_causal/package_causal_6.png"" class=""exp-image"">
                    <div class=""question-area""></div> 
                </div>","null","","","","","","","",""
"","","","","","html-button-response","133","444589","0.0-133.0","E5134A68096144F19CAEF4DE46BEBF10","019cee78-c717-7429-88a0-5d9c4cc4f993","019cee5f-9f1f-7e58-80c1-9ba679249cc3","","289","
                <div class=""stimulus-container"">
                    <img src=""images/causal_sequence/package_causal/package_causal_6.png"" class=""exp-image"">
                    <div class=""question-area"">
                        <p style=""font-size: 20px; font-weight: bold; margin: 0;"">Is there a person in this image?</p>
                    </div>
                </div>","0","main_experiment_trial","6","package_causal","causal_sequence","","","",""
"","","","","","html-keyboard-response","134","449592","0.0-134.0","E5134A68096144F19CAEF4DE46BEBF10","019cee78-c717-7429-88a0-5d9c4cc4f993","019cee5f-9f1f-7e58-80c1-9ba679249cc3","","null","
                <div class=""stimulus-container"">
                    <img src=""images/causal_sequence/package_causal/package_causal_7.png"" class=""exp-image"">
                    <div class=""question-area""></div> 
                </div>","null","","","","","","","",""
"","","","","","html-button-response","135","452596","0.0-135.0","E5134A68096144F19CAEF4DE46BEBF10","019cee78-c717-7429-88a0-5d9c4cc4f993","019cee5f-9f1f-7e58-80c1-9ba679249cc3","","null","
                <div class=""stimulus-container"">
                    <img src=""images/causal_sequence/package_causal/package_causal_7.png"" class=""exp-image"">
                    <div class=""question-area"">
                        <p style=""font-size: 20px; font-weight: bold; margin: 0;"">Is there a person in this image?</p>
                    </div>
                </div>","null","main_experiment_trial","7","package_causal","causal_sequence","","","",""
"","","","","","html-keyboard-response","136","457598","0.0-136.0","E5134A68096144F19CAEF4DE46BEBF10","019cee78-c717-7429-88a0-5d9c4cc4f993","019cee5f-9f1f-7e58-80c1-9ba679249cc3","","null","
                <div class=""stimulus-container"">
                    <img src=""images/causal_sequence/package_causal/package_causal_8.png"" class=""exp-image"">
                    <div class=""question-area""></div> 
                </div>","null","","","","","","","",""
"","","","","","html-button-response","137","458833","0.0-137.0","E5134A68096144F19CAEF4DE46BEBF10","019cee78-c717-7429-88a0-5d9c4cc4f993","019cee5f-9f1f-7e58-80c1-9ba679249cc3","","1233","
                <div class=""stimulus-container"">
                    <img src=""images/causal_sequence/package_causal/package_causal_8.png"" class=""exp-image"">
                    <div class=""question-area"">
                        <p style=""font-size: 20px; font-weight: bold; margin: 0;"">Is there a person in this image?</p>
                    </div>
                </div>","0","main_experiment_trial","8","package_causal","causal_sequence","","","",""
"","","","","","html-keyboard-response","138","463836","0.0-138.0","E5134A68096144F19CAEF4DE46BEBF10","019cee78-c717-7429-88a0-5d9c4cc4f993","019cee5f-9f1f-7e58-80c1-9ba679249cc3","","null","
                <div class=""stimulus-container"">
                    <img src=""images/causal_sequence/package_causal/package_causal_9.png"" class=""exp-image"">
                    <div class=""question-area""></div> 
                </div>","null","","","","","","","",""
"","","","","","html-button-response","139","464313","0.0-139.0","E5134A68096144F19CAEF4DE46BEBF10","019cee78-c717-7429-88a0-5d9c4cc4f993","019cee5f-9f1f-7e58-80c1-9ba679249cc3","","476","
                <div class=""stimulus-container"">
                    <img src=""images/causal_sequence/package_causal/package_causal_9.png"" class=""exp-image"">
                    <div class=""question-area"">
                        <p style=""font-size: 20px; font-weight: bold; margin: 0;"">Is there a person in this image?</p>
                    </div>
                </div>","0","main_experiment_trial","9","package_causal","causal_sequence","","","",""
"","","","","","html-keyboard-response","140","469316","0.0-140.0","E5134A68096144F19CAEF4DE46BEBF10","019cee78-c717-7429-88a0-5d9c4cc4f993","019cee5f-9f1f-7e58-80c1-9ba679249cc3","","null","
                <div class=""stimulus-container"">
                    <img src=""images/causal_sequence/package_causal/package_causal_ten.png"" class=""exp-image"">
                    <div class=""question-area""></div> 
                </div>","null","","","","","","","",""
"","","","","","html-button-response","141","471411","0.0-141.0","E5134A68096144F19CAEF4DE46BEBF10","019cee78-c717-7429-88a0-5d9c4cc4f993","019cee5f-9f1f-7e58-80c1-9ba679249cc3","","2094","
                <div class=""stimulus-container"">
                    <img src=""images/causal_sequence/package_causal/package_causal_ten.png"" class=""exp-image"">
                    <div class=""question-area"">
                        <p style=""font-size: 20px; font-weight: bold; margin: 0;"">Is there a person in this image?</p>
                    </div>
                </div>","0","main_experiment_trial","ten","package_causal","causal_sequence","","","",""
"","","","","","html-keyboard-response","142","472413","0.0-142.0","E5134A68096144F19CAEF4DE46BEBF10","019cee78-c717-7429-88a0-5d9c4cc4f993","019cee5f-9f1f-7e58-80c1-9ba679249cc3","","null","<div style=""background-color: white; width: 100vw; height: 100vh;""></div>","null","","","","","","","",""
"","","","","","html-keyboard-response","143","477416","0.0-143.0","E5134A68096144F19CAEF4DE46BEBF10","019cee78-c717-7429-88a0-5d9c4cc4f993","019cee5f-9f1f-7e58-80c1-9ba679249cc3","","null","
                <div class=""stimulus-container"">
                    <img src=""images/schematic_sequence/hotel_scheme/hotel_scheme_1.png"" class=""exp-image"">
                    <div class=""question-area""></div> 
                </div>","null","","","","","","","",""
"","","","","","html-button-response","144","478878","0.0-144.0","E5134A68096144F19CAEF4DE46BEBF10","019cee78-c717-7429-88a0-5d9c4cc4f993","019cee5f-9f1f-7e58-80c1-9ba679249cc3","","1460","
                <div class=""stimulus-container"">
                    <img src=""images/schematic_sequence/hotel_scheme/hotel_scheme_1.png"" class=""exp-image"">
                    <div class=""question-area"">
                        <p style=""font-size: 20px; font-weight: bold; margin: 0;"">Is there a person in this image?</p>
                    </div>
                </div>","1","main_experiment_trial","1","hotel_scheme","schematic_sequence","","","",""
"","","","","","html-keyboard-response","145","483881","0.0-145.0","E5134A68096144F19CAEF4DE46BEBF10","019cee78-c717-7429-88a0-5d9c4cc4f993","019cee5f-9f1f-7e58-80c1-9ba679249cc3","","null","
                <div class=""stimulus-container"">
                    <img src=""images/schematic_sequence/hotel_scheme/hotel_scheme_2.png"" class=""exp-image"">
                    <div class=""question-area""></div> 
                </div>","null","","","","","","","",""
"","","","","","html-button-response","146","486884","0.0-146.0","E5134A68096144F19CAEF4DE46BEBF10","019cee78-c717-7429-88a0-5d9c4cc4f993","019cee5f-9f1f-7e58-80c1-9ba679249cc3","","null","
                <div class=""stimulus-container"">
                    <img src=""images/schematic_sequence/hotel_scheme/hotel_scheme_2.png"" class=""exp-image"">
                    <div class=""question-area"">
                        <p style=""font-size: 20px; font-weight: bold; margin: 0;"">Is there a person in this image?</p>
                    </div>
                </div>","null","main_experiment_trial","2","hotel_scheme","schematic_sequence","","","",""
"","","","","","html-keyboard-response","147","491887","0.0-147.0","E5134A68096144F19CAEF4DE46BEBF10","019cee78-c717-7429-88a0-5d9c4cc4f993","019cee5f-9f1f-7e58-80c1-9ba679249cc3","","null","
                <div class=""stimulus-container"">
                    <img src=""images/schematic_sequence/hotel_scheme/hotel_scheme_3.png"" class=""exp-image"">
                    <div class=""question-area""></div> 
                </div>","null","","","","","","","",""
"","","","","","html-button-response","148","494773","0.0-148.0","E5134A68096144F19CAEF4DE46BEBF10","019cee78-c717-7429-88a0-5d9c4cc4f993","019cee5f-9f1f-7e58-80c1-9ba679249cc3","","2885","
                <div class=""stimulus-container"">
                    <img src=""images/schematic_sequence/hotel_scheme/hotel_scheme_3.png"" class=""exp-image"">
                    <div class=""question-area"">
                        <p style=""font-size: 20px; font-weight: bold; margin: 0;"">Is there a person in this image?</p>
                    </div>
                </div>","0","main_experiment_trial","3","hotel_scheme","schematic_sequence","","","",""
"","","","","","html-keyboard-response","149","499776","0.0-149.0","E5134A68096144F19CAEF4DE46BEBF10","019cee78-c717-7429-88a0-5d9c4cc4f993","019cee5f-9f1f-7e58-80c1-9ba679249cc3","","null","
                <div class=""stimulus-container"">
                    <img src=""images/schematic_sequence/hotel_scheme/hotel_scheme_4.png"" class=""exp-image"">
                    <div class=""question-area""></div> 
                </div>","null","","","","","","","",""
"","","","","","html-button-response","150","500276","0.0-150.0","E5134A68096144F19CAEF4DE46BEBF10","019cee78-c717-7429-88a0-5d9c4cc4f993","019cee5f-9f1f-7e58-80c1-9ba679249cc3","","499","
                <div class=""stimulus-container"">
                    <img src=""images/schematic_sequence/hotel_scheme/hotel_scheme_4.png"" class=""exp-image"">
                    <div class=""question-area"">
                        <p style=""font-size: 20px; font-weight: bold; margin: 0;"">Is there a person in this image?</p>
                    </div>
                </div>","1","main_experiment_trial","4","hotel_scheme","schematic_sequence","","","",""
"","","","","","html-keyboard-response","151","505279","0.0-151.0","E5134A68096144F19CAEF4DE46BEBF10","019cee78-c717-7429-88a0-5d9c4cc4f993","019cee5f-9f1f-7e58-80c1-9ba679249cc3","","null","
                <div class=""stimulus-container"">
                    <img src=""images/schematic_sequence/hotel_scheme/hotel_scheme_5.png"" class=""exp-image"">
                    <div class=""question-area""></div> 
                </div>","null","","","","","","","",""
"","","","","","html-button-response","152","507375","0.0-152.0","E5134A68096144F19CAEF4DE46BEBF10","019cee78-c717-7429-88a0-5d9c4cc4f993","019cee5f-9f1f-7e58-80c1-9ba679249cc3","","2094","
                <div class=""stimulus-container"">
                    <img src=""images/schematic_sequence/hotel_scheme/hotel_scheme_5.png"" class=""exp-image"">
                    <div class=""question-area"">
                        <p style=""font-size: 20px; font-weight: bold; margin: 0;"">Is there a person in this image?</p>
                    </div>
                </div>","0","main_experiment_trial","5","hotel_scheme","schematic_sequence","","","",""
"","","","","","html-keyboard-response","153","512377","0.0-153.0","E5134A68096144F19CAEF4DE46BEBF10","019cee78-c717-7429-88a0-5d9c4cc4f993","019cee5f-9f1f-7e58-80c1-9ba679249cc3","","null","
                <div class=""stimulus-container"">
                    <img src=""images/schematic_sequence/hotel_scheme/hotel_scheme_6.png"" class=""exp-image"">
                    <div class=""question-area""></div> 
                </div>","null","","","","","","","",""
"","","","","","html-button-response","154","514856","0.0-154.0","E5134A68096144F19CAEF4DE46BEBF10","019cee78-c717-7429-88a0-5d9c4cc4f993","019cee5f-9f1f-7e58-80c1-9ba679249cc3","","2478","
                <div class=""stimulus-container"">
                    <img src=""images/schematic_sequence/hotel_scheme/hotel_scheme_6.png"" class=""exp-image"">
                    <div class=""question-area"">
                        <p style=""font-size: 20px; font-weight: bold; margin: 0;"">Is there a person in this image?</p>
                    </div>
                </div>","0","main_experiment_trial","6","hotel_scheme","schematic_sequence","","","",""
"","","","","","html-keyboard-response","155","519858","0.0-155.0","E5134A68096144F19CAEF4DE46BEBF10","019cee78-c717-7429-88a0-5d9c4cc4f993","019cee5f-9f1f-7e58-80c1-9ba679249cc3","","null","
                <div class=""stimulus-container"">
                    <img src=""images/schematic_sequence/hotel_scheme/hotel_scheme_7.png"" class=""exp-image"">
                    <div class=""question-area""></div> 
                </div>","null","","","","","","","",""
"","","","","","html-button-response","156","522861","0.0-156.0","E5134A68096144F19CAEF4DE46BEBF10","019cee78-c717-7429-88a0-5d9c4cc4f993","019cee5f-9f1f-7e58-80c1-9ba679249cc3","","null","
                <div class=""stimulus-container"">
                    <img src=""images/schematic_sequence/hotel_scheme/hotel_scheme_7.png"" class=""exp-image"">
                    <div class=""question-area"">
                        <p style=""font-size: 20px; font-weight: bold; margin: 0;"">Is there a person in this image?</p>
                    </div>
                </div>","null","main_experiment_trial","7","hotel_scheme","schematic_sequence","","","",""
"","","","","","html-keyboard-response","157","527863","0.0-157.0","E5134A68096144F19CAEF4DE46BEBF10","019cee78-c717-7429-88a0-5d9c4cc4f993","019cee5f-9f1f-7e58-80c1-9ba679249cc3","","null","
                <div class=""stimulus-container"">
                    <img src=""images/schematic_sequence/hotel_scheme/hotel_scheme_8.png"" class=""exp-image"">
                    <div class=""question-area""></div> 
                </div>","null","","","","","","","",""
"","","","","","html-button-response","158","529523","0.0-158.0","E5134A68096144F19CAEF4DE46BEBF10","019cee78-c717-7429-88a0-5d9c4cc4f993","019cee5f-9f1f-7e58-80c1-9ba679249cc3","","1659","
                <div class=""stimulus-container"">
                    <img src=""images/schematic_sequence/hotel_scheme/hotel_scheme_8.png"" class=""exp-image"">
                    <div class=""question-area"">
                        <p style=""font-size: 20px; font-weight: bold; margin: 0;"">Is there a person in this image?</p>
                    </div>
                </div>","0","main_experiment_trial","8","hotel_scheme","schematic_sequence","","","",""
"","","","","","html-keyboard-response","159","534526","0.0-159.0","E5134A68096144F19CAEF4DE46BEBF10","019cee78-c717-7429-88a0-5d9c4cc4f993","019cee5f-9f1f-7e58-80c1-9ba679249cc3","","null","
                <div class=""stimulus-container"">
                    <img src=""images/schematic_sequence/hotel_scheme/hotel_scheme_9.png"" class=""exp-image"">
                    <div class=""question-area""></div> 
                </div>","null","","","","","","","",""
"","","","","","html-button-response","160","536030","0.0-160.0","E5134A68096144F19CAEF4DE46BEBF10","019cee78-c717-7429-88a0-5d9c4cc4f993","019cee5f-9f1f-7e58-80c1-9ba679249cc3","","1503","
                <div class=""stimulus-container"">
                    <img src=""images/schematic_sequence/hotel_scheme/hotel_scheme_9.png"" class=""exp-image"">
                    <div class=""question-area"">
                        <p style=""font-size: 20px; font-weight: bold; margin: 0;"">Is there a person in this image?</p>
                    </div>
                </div>","0","main_experiment_trial","9","hotel_scheme","schematic_sequence","","","",""
"","","","","","html-keyboard-response","161","541032","0.0-161.0","E5134A68096144F19CAEF4DE46BEBF10","019cee78-c717-7429-88a0-5d9c4cc4f993","019cee5f-9f1f-7e58-80c1-9ba679249cc3","","null","
                <div class=""stimulus-container"">
                    <img src=""images/schematic_sequence/hotel_scheme/hotel_scheme_ten.png"" class=""exp-image"">
                    <div class=""question-area""></div> 
                </div>","null","","","","","","","",""
"","","","","","html-button-response","162","541599","0.0-162.0","E5134A68096144F19CAEF4DE46BEBF10","019cee78-c717-7429-88a0-5d9c4cc4f993","019cee5f-9f1f-7e58-80c1-9ba679249cc3","","566","
                <div class=""stimulus-container"">
                    <img src=""images/schematic_sequence/hotel_scheme/hotel_scheme_ten.png"" class=""exp-image"">
                    <div class=""question-area"">
                        <p style=""font-size: 20px; font-weight: bold; margin: 0;"">Is there a person in this image?</p>
                    </div>
                </div>","0","main_experiment_trial","ten","hotel_scheme","schematic_sequence","","","",""
"","","","","","html-keyboard-response","163","542602","0.0-163.0","E5134A68096144F19CAEF4DE46BEBF10","019cee78-c717-7429-88a0-5d9c4cc4f993","019cee5f-9f1f-7e58-80c1-9ba679249cc3","","null","<div style=""background-color: white; width: 100vw; height: 100vh;""></div>","null","","","","","","","",""
"","","","","","html-keyboard-response","164","547605","0.0-164.0","E5134A68096144F19CAEF4DE46BEBF10","019cee78-c717-7429-88a0-5d9c4cc4f993","019cee5f-9f1f-7e58-80c1-9ba679249cc3","","null","
                <div class=""stimulus-container"">
                    <img src=""images/causal_sequence/saving_a_cat_causal/saving_a_cat_causal_1.png"" class=""exp-image"">
                    <div class=""question-area""></div> 
                </div>","null","","","","","","","",""
"","","","","","html-button-response","165","549127","0.0-165.0","E5134A68096144F19CAEF4DE46BEBF10","019cee78-c717-7429-88a0-5d9c4cc4f993","019cee5f-9f1f-7e58-80c1-9ba679249cc3","","1521","
                <div class=""stimulus-container"">
                    <img src=""images/causal_sequence/saving_a_cat_causal/saving_a_cat_causal_1.png"" class=""exp-image"">
                    <div class=""question-area"">
                        <p style=""font-size: 20px; font-weight: bold; margin: 0;"">Is there a person in this image?</p>
                    </div>
                </div>","0","main_experiment_trial","1","saving_a_cat_causal","causal_sequence","","","",""
"","","","","","html-keyboard-response","166","554130","0.0-166.0","E5134A68096144F19CAEF4DE46BEBF10","019cee78-c717-7429-88a0-5d9c4cc4f993","019cee5f-9f1f-7e58-80c1-9ba679249cc3","","null","
                <div class=""stimulus-container"">
                    <img src=""images/causal_sequence/saving_a_cat_causal/saving_a_cat_causal_2.png"" class=""exp-image"">
                    <div class=""question-area""></div> 
                </div>","null","","","","","","","",""
"","","","","","html-button-response","167","556557","0.0-167.0","E5134A68096144F19CAEF4DE46BEBF10","019cee78-c717-7429-88a0-5d9c4cc4f993","019cee5f-9f1f-7e58-80c1-9ba679249cc3","","2426","
                <div class=""stimulus-container"">
                    <img src=""images/causal_sequence/saving_a_cat_causal/saving_a_cat_causal_2.png"" class=""exp-image"">
                    <div class=""question-area"">
                        <p style=""font-size: 20px; font-weight: bold; margin: 0;"">Is there a person in this image?</p>
                    </div>
                </div>","1","main_experiment_trial","2","saving_a_cat_causal","causal_sequence","","","",""
"","","","","","html-keyboard-response","168","561560","0.0-168.0","E5134A68096144F19CAEF4DE46BEBF10","019cee78-c717-7429-88a0-5d9c4cc4f993","019cee5f-9f1f-7e58-80c1-9ba679249cc3","","null","
                <div class=""stimulus-container"">
                    <img src=""images/causal_sequence/saving_a_cat_causal/saving_a_cat_causal_3.png"" class=""exp-image"">
                    <div class=""question-area""></div> 
                </div>","null","","","","","","","",""
"","","","","","html-button-response","169","564563","0.0-169.0","E5134A68096144F19CAEF4DE46BEBF10","019cee78-c717-7429-88a0-5d9c4cc4f993","019cee5f-9f1f-7e58-80c1-9ba679249cc3","","null","
                <div class=""stimulus-container"">
                    <img src=""images/causal_sequence/saving_a_cat_causal/saving_a_cat_causal_3.png"" class=""exp-image"">
                    <div class=""question-area"">
                        <p style=""font-size: 20px; font-weight: bold; margin: 0;"">Is there a person in this image?</p>
                    </div>
                </div>","null","main_experiment_trial","3","saving_a_cat_causal","causal_sequence","","","",""
"","","","","","html-keyboard-response","170","569565","0.0-170.0","E5134A68096144F19CAEF4DE46BEBF10","019cee78-c717-7429-88a0-5d9c4cc4f993","019cee5f-9f1f-7e58-80c1-9ba679249cc3","","null","
                <div class=""stimulus-container"">
                    <img src=""images/causal_sequence/saving_a_cat_causal/saving_a_cat_causal_4.png"" class=""exp-image"">
                    <div class=""question-area""></div> 
                </div>","null","","","","","","","",""
"","","","","","html-button-response","171","570695","0.0-171.0","E5134A68096144F19CAEF4DE46BEBF10","019cee78-c717-7429-88a0-5d9c4cc4f993","019cee5f-9f1f-7e58-80c1-9ba679249cc3","","1128","
                <div class=""stimulus-container"">
                    <img src=""images/causal_sequence/saving_a_cat_causal/saving_a_cat_causal_4.png"" class=""exp-image"">
                    <div class=""question-area"">
                        <p style=""font-size: 20px; font-weight: bold; margin: 0;"">Is there a person in this image?</p>
                    </div>
                </div>","0","main_experiment_trial","4","saving_a_cat_causal","causal_sequence","","","",""
"","","","","","html-keyboard-response","172","575697","0.0-172.0","E5134A68096144F19CAEF4DE46BEBF10","019cee78-c717-7429-88a0-5d9c4cc4f993","019cee5f-9f1f-7e58-80c1-9ba679249cc3","","null","
                <div class=""stimulus-container"">
                    <img src=""images/causal_sequence/saving_a_cat_causal/saving_a_cat_causal_5.png"" class=""exp-image"">
                    <div class=""question-area""></div> 
                </div>","null","","","","","","","",""
"","","","","","html-button-response","173","578701","0.0-173.0","E5134A68096144F19CAEF4DE46BEBF10","019cee78-c717-7429-88a0-5d9c4cc4f993","019cee5f-9f1f-7e58-80c1-9ba679249cc3","","null","
                <div class=""stimulus-container"">
                    <img src=""images/causal_sequence/saving_a_cat_causal/saving_a_cat_causal_5.png"" class=""exp-image"">
                    <div class=""question-area"">
                        <p style=""font-size: 20px; font-weight: bold; margin: 0;"">Is there a person in this image?</p>
                    </div>
                </div>","null","main_experiment_trial","5","saving_a_cat_causal","causal_sequence","","","",""
"","","","","","html-keyboard-response","174","583703","0.0-174.0","E5134A68096144F19CAEF4DE46BEBF10","019cee78-c717-7429-88a0-5d9c4cc4f993","019cee5f-9f1f-7e58-80c1-9ba679249cc3","","null","
                <div class=""stimulus-container"">
                    <img src=""images/causal_sequence/saving_a_cat_causal/saving_a_cat_causal_6.png"" class=""exp-image"">
                    <div class=""question-area""></div> 
                </div>","null","","","","","","","",""
"","","","","","html-button-response","175","585225","0.0-175.0","E5134A68096144F19CAEF4DE46BEBF10","019cee78-c717-7429-88a0-5d9c4cc4f993","019cee5f-9f1f-7e58-80c1-9ba679249cc3","","1520","
                <div class=""stimulus-container"">
                    <img src=""images/causal_sequence/saving_a_cat_causal/saving_a_cat_causal_6.png"" class=""exp-image"">
                    <div class=""question-area"">
                        <p style=""font-size: 20px; font-weight: bold; margin: 0;"">Is there a person in this image?</p>
                    </div>
                </div>","1","main_experiment_trial","6","saving_a_cat_causal","causal_sequence","","","",""
"","","","","","html-keyboard-response","176","590227","0.0-176.0","E5134A68096144F19CAEF4DE46BEBF10","019cee78-c717-7429-88a0-5d9c4cc4f993","019cee5f-9f1f-7e58-80c1-9ba679249cc3","","null","
                <div class=""stimulus-container"">
                    <img src=""images/causal_sequence/saving_a_cat_causal/saving_a_cat_causal_7.png"" class=""exp-image"">
                    <div class=""question-area""></div> 
                </div>","null","","","","","","","",""
"","","","","","html-button-response","177","591273","0.0-177.0","E5134A68096144F19CAEF4DE46BEBF10","019cee78-c717-7429-88a0-5d9c4cc4f993","019cee5f-9f1f-7e58-80c1-9ba679249cc3","","1045","
                <div class=""stimulus-container"">
                    <img src=""images/causal_sequence/saving_a_cat_causal/saving_a_cat_causal_7.png"" class=""exp-image"">
                    <div class=""question-area"">
                        <p style=""font-size: 20px; font-weight: bold; margin: 0;"">Is there a person in this image?</p>
                    </div>
                </div>","0","main_experiment_trial","7","saving_a_cat_causal","causal_sequence","","","",""
"","","","","","html-keyboard-response","178","596276","0.0-178.0","E5134A68096144F19CAEF4DE46BEBF10","019cee78-c717-7429-88a0-5d9c4cc4f993","019cee5f-9f1f-7e58-80c1-9ba679249cc3","","null","
                <div class=""stimulus-container"">
                    <img src=""images/causal_sequence/saving_a_cat_causal/saving_a_cat_causal_8.png"" class=""exp-image"">
                    <div class=""question-area""></div> 
                </div>","null","","","","","","","",""
"","","","","","html-button-response","179","598532","0.0-179.0","E5134A68096144F19CAEF4DE46BEBF10","019cee78-c717-7429-88a0-5d9c4cc4f993","019cee5f-9f1f-7e58-80c1-9ba679249cc3","","2254","
                <div class=""stimulus-container"">
                    <img src=""images/causal_sequence/saving_a_cat_causal/saving_a_cat_causal_8.png"" class=""exp-image"">
                    <div class=""question-area"">
                        <p style=""font-size: 20px; font-weight: bold; margin: 0;"">Is there a person in this image?</p>
                    </div>
                </div>","0","main_experiment_trial","8","saving_a_cat_causal","causal_sequence","","","",""
"","","","","","html-keyboard-response","180","603535","0.0-180.0","E5134A68096144F19CAEF4DE46BEBF10","019cee78-c717-7429-88a0-5d9c4cc4f993","019cee5f-9f1f-7e58-80c1-9ba679249cc3","","null","
                <div class=""stimulus-container"">
                    <img src=""images/causal_sequence/saving_a_cat_causal/saving_a_cat_causal_9.png"" class=""exp-image"">
                    <div class=""question-area""></div> 
                </div>","null","","","","","","","",""
"","","","","","html-button-response","181","606537","0.0-181.0","E5134A68096144F19CAEF4DE46BEBF10","019cee78-c717-7429-88a0-5d9c4cc4f993","019cee5f-9f1f-7e58-80c1-9ba679249cc3","","null","
                <div class=""stimulus-container"">
                    <img src=""images/causal_sequence/saving_a_cat_causal/saving_a_cat_causal_9.png"" class=""exp-image"">
                    <div class=""question-area"">
                        <p style=""font-size: 20px; font-weight: bold; margin: 0;"">Is there a person in this image?</p>
                    </div>
                </div>","null","main_experiment_trial","9","saving_a_cat_causal","causal_sequence","","","",""
"","","","","","html-keyboard-response","182","611539","0.0-182.0","E5134A68096144F19CAEF4DE46BEBF10","019cee78-c717-7429-88a0-5d9c4cc4f993","019cee5f-9f1f-7e58-80c1-9ba679249cc3","","null","
                <div class=""stimulus-container"">
                    <img src=""images/causal_sequence/saving_a_cat_causal/saving_a_cat_causal_ten.png"" class=""exp-image"">
                    <div class=""question-area""></div> 
                </div>","null","","","","","","","",""
"","","","","","html-button-response","183","613452","0.0-183.0","E5134A68096144F19CAEF4DE46BEBF10","019cee78-c717-7429-88a0-5d9c4cc4f993","019cee5f-9f1f-7e58-80c1-9ba679249cc3","","1911","
                <div class=""stimulus-container"">
                    <img src=""images/causal_sequence/saving_a_cat_causal/saving_a_cat_causal_ten.png"" class=""exp-image"">
                    <div class=""question-area"">
                        <p style=""font-size: 20px; font-weight: bold; margin: 0;"">Is there a person in this image?</p>
                    </div>
                </div>","0","main_experiment_trial","ten","saving_a_cat_causal","causal_sequence","","","",""
"","","","","","html-keyboard-response","184","614453","0.0-184.0","E5134A68096144F19CAEF4DE46BEBF10","019cee78-c717-7429-88a0-5d9c4cc4f993","019cee5f-9f1f-7e58-80c1-9ba679249cc3","","null","<div style=""background-color: white; width: 100vw; height: 100vh;""></div>","null","","","","","","","",""
"","","","","","html-keyboard-response","185","619457","0.0-185.0","E5134A68096144F19CAEF4DE46BEBF10","019cee78-c717-7429-88a0-5d9c4cc4f993","019cee5f-9f1f-7e58-80c1-9ba679249cc3","","null","
                <div class=""stimulus-container"">
                    <img src=""images/schematic_sequence/supermarket_scheme/supermarket_scheme_1.png"" class=""exp-image"">
                    <div class=""question-area""></div> 
                </div>","null","","","","","","","",""
