"success","timeout","failed_images","failed_audio","failed_video","trial_type","trial_index","time_elapsed","internal_node_id","subject_id","study_id","session_id","view_history","rt","stimulus","response","task","image_index","folder","valuable_image_index","valuable_X","chosen_image_index","distance_from_X"
"false","false","[]","[]","[]","preload","0","50687","0.0-0.0","C071A4642828488FB10DE919F26077CD","019ce629-c389-78ab-94cf-b4110c2c592d","019ce621-c902-75a6-af36-962d82cab856","","","","","","","","","","",""
"","","","","","instructions","1","95120","0.0-1.0","C071A4642828488FB10DE919F26077CD","019ce629-c389-78ab-94cf-b4110c2c592d","019ce621-c902-75a6-af36-962d82cab856","[{""page_index"":0,""viewing_time"":44432}]","44432","","","","","","","","",""
"","","","","","instructions","2","101329","0.0-2.0","C071A4642828488FB10DE919F26077CD","019ce629-c389-78ab-94cf-b4110c2c592d","019ce621-c902-75a6-af36-962d82cab856","[{""page_index"":0,""viewing_time"":6208}]","6208","","","","","","","","",""
"true","","","","","fullscreen","3","110422","0.0-3.0","C071A4642828488FB10DE919F26077CD","019ce629-c389-78ab-94cf-b4110c2c592d","019ce621-c902-75a6-af36-962d82cab856","","8066","","","","","","","","",""
"","","","","","instructions","4","177036","0.0-4.0","C071A4642828488FB10DE919F26077CD","019ce629-c389-78ab-94cf-b4110c2c592d","019ce621-c902-75a6-af36-962d82cab856","[{""page_index"":0,""viewing_time"":66613}]","66613","","","","","","","","",""
"","","","","","instructions","5","192244","0.0-5.0","C071A4642828488FB10DE919F26077CD","019ce629-c389-78ab-94cf-b4110c2c592d","019ce621-c902-75a6-af36-962d82cab856","[{""page_index"":0,""viewing_time"":15207}]","15208","","","","","","","","",""
"","","","","","html-keyboard-response","6","196247","0.0-6.0","C071A4642828488FB10DE919F26077CD","019ce629-c389-78ab-94cf-b4110c2c592d","019ce621-c902-75a6-af36-962d82cab856","","null","
                <div class=""stimulus-container"">
                    <img src=""images/instructions/movie_1.png"" class=""exp-image"">
                    <div class=""question-area""></div> 
                </div>","null","","","","","","",""
"","","","","","html-button-response","7","199262","0.0-7.0","C071A4642828488FB10DE919F26077CD","019ce629-c389-78ab-94cf-b4110c2c592d","019ce621-c902-75a6-af36-962d82cab856","","null","
                <div class=""stimulus-container"">
                    <img src=""images/instructions/movie_1.png"" class=""exp-image"">
                    <div class=""question-area"">
                        <p style=""font-size: 20px; font-weight: bold; margin: 0;"">Was there a person in this image?</p>
                    </div>
                </div>","null","example_question","1","","","","",""
"","","","","","html-keyboard-response","8","203275","0.0-8.0","C071A4642828488FB10DE919F26077CD","019ce629-c389-78ab-94cf-b4110c2c592d","019ce621-c902-75a6-af36-962d82cab856","","null","
                <div class=""stimulus-container"">
                    <img src=""images/instructions/movie_2.png"" class=""exp-image"">
                    <div class=""question-area""></div> 
                </div>","null","","","","","","",""
"","","","","","html-button-response","9","204913","0.0-9.0","C071A4642828488FB10DE919F26077CD","019ce629-c389-78ab-94cf-b4110c2c592d","019ce621-c902-75a6-af36-962d82cab856","","1636","
                <div class=""stimulus-container"">
                    <img src=""images/instructions/movie_2.png"" class=""exp-image"">
                    <div class=""question-area"">
                        <p style=""font-size: 20px; font-weight: bold; margin: 0;"">Was there a person in this image?</p>
                    </div>
                </div>","0","example_question","2","","","","",""
"","","","","","html-keyboard-response","10","208922","0.0-10.0","C071A4642828488FB10DE919F26077CD","019ce629-c389-78ab-94cf-b4110c2c592d","019ce621-c902-75a6-af36-962d82cab856","","null","
                <div class=""stimulus-container"">
                    <img src=""images/instructions/movie_3.png"" class=""exp-image"">
                    <div class=""question-area""></div> 
                </div>","null","","","","","","",""
"","","","","","html-button-response","11","210568","0.0-11.0","C071A4642828488FB10DE919F26077CD","019ce629-c389-78ab-94cf-b4110c2c592d","019ce621-c902-75a6-af36-962d82cab856","","1645","
                <div class=""stimulus-container"">
                    <img src=""images/instructions/movie_3.png"" class=""exp-image"">
                    <div class=""question-area"">
                        <p style=""font-size: 20px; font-weight: bold; margin: 0;"">Was there a person in this image?</p>
                    </div>
                </div>","0","example_question","3","","","","",""
"","","","","","html-keyboard-response","12","214584","0.0-12.0","C071A4642828488FB10DE919F26077CD","019ce629-c389-78ab-94cf-b4110c2c592d","019ce621-c902-75a6-af36-962d82cab856","","null","
                <div class=""stimulus-container"">
                    <img src=""images/instructions/movie_4.png"" class=""exp-image"">
                    <div class=""question-area""></div> 
                </div>","null","","","","","","",""
"","","","","","html-button-response","13","216514","0.0-13.0","C071A4642828488FB10DE919F26077CD","019ce629-c389-78ab-94cf-b4110c2c592d","019ce621-c902-75a6-af36-962d82cab856","","1928","
                <div class=""stimulus-container"">
                    <img src=""images/instructions/movie_4.png"" class=""exp-image"">
                    <div class=""question-area"">
                        <p style=""font-size: 20px; font-weight: bold; margin: 0;"">Was there a person in this image?</p>
                    </div>
                </div>","0","example_question","4","","","","",""
"","","","","","instructions","14","221550","0.0-14.0","C071A4642828488FB10DE919F26077CD","019ce629-c389-78ab-94cf-b4110c2c592d","019ce621-c902-75a6-af36-962d82cab856","[{""page_index"":0,""viewing_time"":5036}]","5036","","","","","","","","",""
"","","","","","html-keyboard-response","15","222565","0.0-15.0","C071A4642828488FB10DE919F26077CD","019ce629-c389-78ab-94cf-b4110c2c592d","019ce621-c902-75a6-af36-962d82cab856","","null","<div style=""background-color: gray; width: 100vw; height: 100vh;""></div>","null","","","","","","",""
"","","","","","html-keyboard-response","16","227577","0.0-16.0","C071A4642828488FB10DE919F26077CD","019ce629-c389-78ab-94cf-b4110c2c592d","019ce621-c902-75a6-af36-962d82cab856","","null","
                    <div class=""stimulus-container"">
                        <img src=""images/causal_sequence/package_causal/package_causal_1.png"" class=""exp-image"">
                        <div class=""question-area""></div> 
                    </div>","null","","","","","","",""
"","","","","","html-button-response","17","230581","0.0-17.0","C071A4642828488FB10DE919F26077CD","019ce629-c389-78ab-94cf-b4110c2c592d","019ce621-c902-75a6-af36-962d82cab856","","null","
                    <div class=""stimulus-container"">
                        <img src=""images/causal_sequence/package_causal/package_causal_1.png"" class=""exp-image"">
                        <div class=""question-area"">
                            <p style=""font-size: 20px; font-weight: bold; margin: 0;"">Is there a person in this image?</p>
                        </div>
                    </div>","null","main_causal_task","1","package_causal","","","",""
"","","","","","html-keyboard-response","18","235585","0.0-18.0","C071A4642828488FB10DE919F26077CD","019ce629-c389-78ab-94cf-b4110c2c592d","019ce621-c902-75a6-af36-962d82cab856","","null","
                    <div class=""stimulus-container"">
                        <img src=""images/causal_sequence/package_causal/package_causal_2.png"" class=""exp-image"">
                        <div class=""question-area""></div> 
                    </div>","null","","","","","","",""
"","","","","","html-button-response","19","236601","0.0-19.0","C071A4642828488FB10DE919F26077CD","019ce629-c389-78ab-94cf-b4110c2c592d","019ce621-c902-75a6-af36-962d82cab856","","1014","
                    <div class=""stimulus-container"">
                        <img src=""images/causal_sequence/package_causal/package_causal_2.png"" class=""exp-image"">
                        <div class=""question-area"">
                            <p style=""font-size: 20px; font-weight: bold; margin: 0;"">Is there a person in this image?</p>
                        </div>
                    </div>","1","main_causal_task","2","package_causal","","","",""
"","","","","","html-keyboard-response","20","241619","0.0-20.0","C071A4642828488FB10DE919F26077CD","019ce629-c389-78ab-94cf-b4110c2c592d","019ce621-c902-75a6-af36-962d82cab856","","null","
                    <div class=""stimulus-container"">
                        <img src=""images/causal_sequence/package_causal/package_causal_3.png"" class=""exp-image"">
                        <div class=""question-area""></div> 
                    </div>","null","","","","","","",""
"","","","","","html-button-response","21","243104","0.0-21.0","C071A4642828488FB10DE919F26077CD","019ce629-c389-78ab-94cf-b4110c2c592d","019ce621-c902-75a6-af36-962d82cab856","","1480","
                    <div class=""stimulus-container"">
                        <img src=""images/causal_sequence/package_causal/package_causal_3.png"" class=""exp-image"">
                        <div class=""question-area"">
                            <p style=""font-size: 20px; font-weight: bold; margin: 0;"">Is there a person in this image?</p>
                        </div>
                    </div>","0","main_causal_task","3","package_causal","","","",""
"","","","","","html-keyboard-response","22","248112","0.0-22.0","C071A4642828488FB10DE919F26077CD","019ce629-c389-78ab-94cf-b4110c2c592d","019ce621-c902-75a6-af36-962d82cab856","","null","
                    <div class=""stimulus-container"">
                        <img src=""images/causal_sequence/package_causal/package_causal_4.png"" class=""exp-image"">
                        <div class=""question-area""></div> 
                    </div>","null","","","","","","",""
"","","","","","html-button-response","23","248975","0.0-23.0","C071A4642828488FB10DE919F26077CD","019ce629-c389-78ab-94cf-b4110c2c592d","019ce621-c902-75a6-af36-962d82cab856","","861","
                    <div class=""stimulus-container"">
                        <img src=""images/causal_sequence/package_causal/package_causal_4.png"" class=""exp-image"">
                        <div class=""question-area"">
                            <p style=""font-size: 20px; font-weight: bold; margin: 0;"">Is there a person in this image?</p>
                        </div>
                    </div>","1","main_causal_task","4","package_causal","","","",""
"","","","","","html-keyboard-response","24","253980","0.0-24.0","C071A4642828488FB10DE919F26077CD","019ce629-c389-78ab-94cf-b4110c2c592d","019ce621-c902-75a6-af36-962d82cab856","","null","
                    <div class=""stimulus-container"">
                        <img src=""images/causal_sequence/package_causal/package_causal_5.png"" class=""exp-image"">
                        <div class=""question-area""></div> 
                    </div>","null","","","","","","",""
"","","","","","html-button-response","25","255495","0.0-25.0","C071A4642828488FB10DE919F26077CD","019ce629-c389-78ab-94cf-b4110c2c592d","019ce621-c902-75a6-af36-962d82cab856","","1514","
                    <div class=""stimulus-container"">
                        <img src=""images/causal_sequence/package_causal/package_causal_5.png"" class=""exp-image"">
                        <div class=""question-area"">
                            <p style=""font-size: 20px; font-weight: bold; margin: 0;"">Is there a person in this image?</p>
                        </div>
                    </div>","0","main_causal_task","5","package_causal","","","",""
"","","","","","html-keyboard-response","26","260501","0.0-26.0","C071A4642828488FB10DE919F26077CD","019ce629-c389-78ab-94cf-b4110c2c592d","019ce621-c902-75a6-af36-962d82cab856","","null","
                    <div class=""stimulus-container"">
                        <img src=""images/causal_sequence/package_causal/package_causal_6.png"" class=""exp-image"">
                        <div class=""question-area""></div> 
                    </div>","null","","","","","","",""
"","","","","","html-button-response","27","261479","0.0-27.0","C071A4642828488FB10DE919F26077CD","019ce629-c389-78ab-94cf-b4110c2c592d","019ce621-c902-75a6-af36-962d82cab856","","977","
                    <div class=""stimulus-container"">
                        <img src=""images/causal_sequence/package_causal/package_causal_6.png"" class=""exp-image"">
                        <div class=""question-area"">
                            <p style=""font-size: 20px; font-weight: bold; margin: 0;"">Is there a person in this image?</p>
                        </div>
                    </div>","0","main_causal_task","6","package_causal","","","",""
"","","","","","html-keyboard-response","28","266485","0.0-28.0","C071A4642828488FB10DE919F26077CD","019ce629-c389-78ab-94cf-b4110c2c592d","019ce621-c902-75a6-af36-962d82cab856","","null","
                    <div class=""stimulus-container"">
                        <img src=""images/causal_sequence/package_causal/package_causal_7.png"" class=""exp-image"">
                        <div class=""question-area""></div> 
                    </div>","null","","","","","","",""
"","","","","","html-button-response","29","267447","0.0-29.0","C071A4642828488FB10DE919F26077CD","019ce629-c389-78ab-94cf-b4110c2c592d","019ce621-c902-75a6-af36-962d82cab856","","961","
                    <div class=""stimulus-container"">
                        <img src=""images/causal_sequence/package_causal/package_causal_7.png"" class=""exp-image"">
                        <div class=""question-area"">
                            <p style=""font-size: 20px; font-weight: bold; margin: 0;"">Is there a person in this image?</p>
                        </div>
                    </div>","0","main_causal_task","7","package_causal","","","",""
"","","","","","html-keyboard-response","30","272451","0.0-30.0","C071A4642828488FB10DE919F26077CD","019ce629-c389-78ab-94cf-b4110c2c592d","019ce621-c902-75a6-af36-962d82cab856","","null","
                    <div class=""stimulus-container"">
                        <img src=""images/causal_sequence/package_causal/package_causal_8.png"" class=""exp-image"">
                        <div class=""question-area""></div> 
                    </div>","null","","","","","","",""
"","","","","","html-button-response","31","273389","0.0-31.0","C071A4642828488FB10DE919F26077CD","019ce629-c389-78ab-94cf-b4110c2c592d","019ce621-c902-75a6-af36-962d82cab856","","937","
                    <div class=""stimulus-container"">
                        <img src=""images/causal_sequence/package_causal/package_causal_8.png"" class=""exp-image"">
                        <div class=""question-area"">
                            <p style=""font-size: 20px; font-weight: bold; margin: 0;"">Is there a person in this image?</p>
                        </div>
                    </div>","0","main_causal_task","8","package_causal","","","",""
"","","","","","html-keyboard-response","32","278398","0.0-32.0","C071A4642828488FB10DE919F26077CD","019ce629-c389-78ab-94cf-b4110c2c592d","019ce621-c902-75a6-af36-962d82cab856","","null","
                    <div class=""stimulus-container"">
                        <img src=""images/causal_sequence/package_causal/package_causal_9.png"" class=""exp-image"">
                        <div class=""question-area""></div> 
                    </div>","null","","","","","","",""
"","","","","","html-button-response","33","279176","0.0-33.0","C071A4642828488FB10DE919F26077CD","019ce629-c389-78ab-94cf-b4110c2c592d","019ce621-c902-75a6-af36-962d82cab856","","777","
                    <div class=""stimulus-container"">
                        <img src=""images/causal_sequence/package_causal/package_causal_9.png"" class=""exp-image"">
                        <div class=""question-area"">
                            <p style=""font-size: 20px; font-weight: bold; margin: 0;"">Is there a person in this image?</p>
                        </div>
                    </div>","0","main_causal_task","9","package_causal","","","",""
"","","","","","html-keyboard-response","34","280181","0.0-34.0","C071A4642828488FB10DE919F26077CD","019ce629-c389-78ab-94cf-b4110c2c592d","019ce621-c902-75a6-af36-962d82cab856","","null","<div style=""background-color: gray; width: 100vw; height: 100vh;""></div>","null","","","","","","",""
"","","","","","html-keyboard-response","35","285191","0.0-35.0","C071A4642828488FB10DE919F26077CD","019ce629-c389-78ab-94cf-b4110c2c592d","019ce621-c902-75a6-af36-962d82cab856","","null","
                    <div class=""stimulus-container"">
                        <img src=""images/causal_sequence/museum_causal/museum_causal_1.png"" class=""exp-image"">
                        <div class=""question-area""></div> 
                    </div>","null","","","","","","",""
"","","","","","html-button-response","36","286332","0.0-36.0","C071A4642828488FB10DE919F26077CD","019ce629-c389-78ab-94cf-b4110c2c592d","019ce621-c902-75a6-af36-962d82cab856","","1139","
                    <div class=""stimulus-container"">
                        <img src=""images/causal_sequence/museum_causal/museum_causal_1.png"" class=""exp-image"">
                        <div class=""question-area"">
                            <p style=""font-size: 20px; font-weight: bold; margin: 0;"">Is there a person in this image?</p>
                        </div>
                    </div>","0","main_causal_task","1","museum_causal","","","",""
"","","","","","html-keyboard-response","37","291333","0.0-37.0","C071A4642828488FB10DE919F26077CD","019ce629-c389-78ab-94cf-b4110c2c592d","019ce621-c902-75a6-af36-962d82cab856","","null","
                    <div class=""stimulus-container"">
                        <img src=""images/causal_sequence/museum_causal/museum_causal_2.png"" class=""exp-image"">
                        <div class=""question-area""></div> 
                    </div>","null","","","","","","",""
"","","","","","html-button-response","38","293384","0.0-38.0","C071A4642828488FB10DE919F26077CD","019ce629-c389-78ab-94cf-b4110c2c592d","019ce621-c902-75a6-af36-962d82cab856","","2050","
                    <div class=""stimulus-container"">
                        <img src=""images/causal_sequence/museum_causal/museum_causal_2.png"" class=""exp-image"">
                        <div class=""question-area"">
                            <p style=""font-size: 20px; font-weight: bold; margin: 0;"">Is there a person in this image?</p>
                        </div>
                    </div>","1","main_causal_task","2","museum_causal","","","",""
"","","","","","html-keyboard-response","39","298399","0.0-39.0","C071A4642828488FB10DE919F26077CD","019ce629-c389-78ab-94cf-b4110c2c592d","019ce621-c902-75a6-af36-962d82cab856","","null","
                    <div class=""stimulus-container"">
                        <img src=""images/causal_sequence/museum_causal/museum_causal_3.png"" class=""exp-image"">
                        <div class=""question-area""></div> 
                    </div>","null","","","","","","",""
"","","","","","html-button-response","40","299737","0.0-40.0","C071A4642828488FB10DE919F26077CD","019ce629-c389-78ab-94cf-b4110c2c592d","019ce621-c902-75a6-af36-962d82cab856","","1337","
                    <div class=""stimulus-container"">
                        <img src=""images/causal_sequence/museum_causal/museum_causal_3.png"" class=""exp-image"">
                        <div class=""question-area"">
                            <p style=""font-size: 20px; font-weight: bold; margin: 0;"">Is there a person in this image?</p>
                        </div>
                    </div>","0","main_causal_task","3","museum_causal","","","",""
"","","","","","html-keyboard-response","41","304751","0.0-41.0","C071A4642828488FB10DE919F26077CD","019ce629-c389-78ab-94cf-b4110c2c592d","019ce621-c902-75a6-af36-962d82cab856","","null","
                    <div class=""stimulus-container"">
                        <img src=""images/causal_sequence/museum_causal/museum_causal_4.png"" class=""exp-image"">
                        <div class=""question-area""></div> 
                    </div>","null","","","","","","",""
"","","","","","html-button-response","42","306158","0.0-42.0","C071A4642828488FB10DE919F26077CD","019ce629-c389-78ab-94cf-b4110c2c592d","019ce621-c902-75a6-af36-962d82cab856","","1406","
                    <div class=""stimulus-container"">
                        <img src=""images/causal_sequence/museum_causal/museum_causal_4.png"" class=""exp-image"">
                        <div class=""question-area"">
                            <p style=""font-size: 20px; font-weight: bold; margin: 0;"">Is there a person in this image?</p>
                        </div>
                    </div>","1","main_causal_task","4","museum_causal","","","",""
"","","","","","html-keyboard-response","43","311166","0.0-43.0","C071A4642828488FB10DE919F26077CD","019ce629-c389-78ab-94cf-b4110c2c592d","019ce621-c902-75a6-af36-962d82cab856","","null","
                    <div class=""stimulus-container"">
                        <img src=""images/causal_sequence/museum_causal/museum_causal_5.png"" class=""exp-image"">
                        <div class=""question-area""></div> 
                    </div>","null","","","","","","",""
"","","","","","html-button-response","44","312676","0.0-44.0","C071A4642828488FB10DE919F26077CD","019ce629-c389-78ab-94cf-b4110c2c592d","019ce621-c902-75a6-af36-962d82cab856","","1509","
                    <div class=""stimulus-container"">
                        <img src=""images/causal_sequence/museum_causal/museum_causal_5.png"" class=""exp-image"">
                        <div class=""question-area"">
                            <p style=""font-size: 20px; font-weight: bold; margin: 0;"">Is there a person in this image?</p>
                        </div>
                    </div>","1","main_causal_task","5","museum_causal","","","",""
"","","","","","html-keyboard-response","45","317692","0.0-45.0","C071A4642828488FB10DE919F26077CD","019ce629-c389-78ab-94cf-b4110c2c592d","019ce621-c902-75a6-af36-962d82cab856","","null","
                    <div class=""stimulus-container"">
                        <img src=""images/causal_sequence/museum_causal/museum_causal_6.png"" class=""exp-image"">
                        <div class=""question-area""></div> 
                    </div>","null","","","","","","",""
"","","","","","html-button-response","46","319164","0.0-46.0","C071A4642828488FB10DE919F26077CD","019ce629-c389-78ab-94cf-b4110c2c592d","019ce621-c902-75a6-af36-962d82cab856","","1470","
                    <div class=""stimulus-container"">
                        <img src=""images/causal_sequence/museum_causal/museum_causal_6.png"" class=""exp-image"">
                        <div class=""question-area"">
                            <p style=""font-size: 20px; font-weight: bold; margin: 0;"">Is there a person in this image?</p>
                        </div>
                    </div>","0","main_causal_task","6","museum_causal","","","",""
"","","","","","html-keyboard-response","47","324170","0.0-47.0","C071A4642828488FB10DE919F26077CD","019ce629-c389-78ab-94cf-b4110c2c592d","019ce621-c902-75a6-af36-962d82cab856","","null","
                    <div class=""stimulus-container"">
                        <img src=""images/causal_sequence/museum_causal/museum_causal_7.png"" class=""exp-image"">
                        <div class=""question-area""></div> 
                    </div>","null","","","","","","",""
"","","","","","html-button-response","48","325126","0.0-48.0","C071A4642828488FB10DE919F26077CD","019ce629-c389-78ab-94cf-b4110c2c592d","019ce621-c902-75a6-af36-962d82cab856","","955","
                    <div class=""stimulus-container"">
                        <img src=""images/causal_sequence/museum_causal/museum_causal_7.png"" class=""exp-image"">
                        <div class=""question-area"">
                            <p style=""font-size: 20px; font-weight: bold; margin: 0;"">Is there a person in this image?</p>
                        </div>
                    </div>","1","main_causal_task","7","museum_causal","","","",""
"","","","","","html-keyboard-response","49","330132","0.0-49.0","C071A4642828488FB10DE919F26077CD","019ce629-c389-78ab-94cf-b4110c2c592d","019ce621-c902-75a6-af36-962d82cab856","","null","
                    <div class=""stimulus-container"">
                        <img src=""images/causal_sequence/museum_causal/museum_causal_8.png"" class=""exp-image"">
                        <div class=""question-area""></div> 
                    </div>","null","","","","","","",""
"","","","","","html-button-response","50","331260","0.0-50.0","C071A4642828488FB10DE919F26077CD","019ce629-c389-78ab-94cf-b4110c2c592d","019ce621-c902-75a6-af36-962d82cab856","","1126","
                    <div class=""stimulus-container"">
                        <img src=""images/causal_sequence/museum_causal/museum_causal_8.png"" class=""exp-image"">
                        <div class=""question-area"">
                            <p style=""font-size: 20px; font-weight: bold; margin: 0;"">Is there a person in this image?</p>
                        </div>
                    </div>","0","main_causal_task","8","museum_causal","","","",""
"","","","","","html-keyboard-response","51","336272","0.0-51.0","C071A4642828488FB10DE919F26077CD","019ce629-c389-78ab-94cf-b4110c2c592d","019ce621-c902-75a6-af36-962d82cab856","","null","
                    <div class=""stimulus-container"">
                        <img src=""images/causal_sequence/museum_causal/museum_causal_9.png"" class=""exp-image"">
                        <div class=""question-area""></div> 
                    </div>","null","","","","","","",""
"","","","","","html-button-response","52","337117","0.0-52.0","C071A4642828488FB10DE919F26077CD","019ce629-c389-78ab-94cf-b4110c2c592d","019ce621-c902-75a6-af36-962d82cab856","","843","
                    <div class=""stimulus-container"">
                        <img src=""images/causal_sequence/museum_causal/museum_causal_9.png"" class=""exp-image"">
                        <div class=""question-area"">
                            <p style=""font-size: 20px; font-weight: bold; margin: 0;"">Is there a person in this image?</p>
                        </div>
                    </div>","1","main_causal_task","9","museum_causal","","","",""
"","","","","","html-keyboard-response","53","338125","0.0-53.0","C071A4642828488FB10DE919F26077CD","019ce629-c389-78ab-94cf-b4110c2c592d","019ce621-c902-75a6-af36-962d82cab856","","null","<div style=""background-color: gray; width: 100vw; height: 100vh;""></div>","null","","","","","","",""
"","","","","","html-keyboard-response","54","343135","0.0-54.0","C071A4642828488FB10DE919F26077CD","019ce629-c389-78ab-94cf-b4110c2c592d","019ce621-c902-75a6-af36-962d82cab856","","null","
                    <div class=""stimulus-container"">
                        <img src=""images/causal_sequence/the_performance_causal/the_performance_causal_1.png"" class=""exp-image"">
                        <div class=""question-area""></div> 
                    </div>","null","","","","","","",""
"","","","","","html-button-response","55","344342","0.0-55.0","C071A4642828488FB10DE919F26077CD","019ce629-c389-78ab-94cf-b4110c2c592d","019ce621-c902-75a6-af36-962d82cab856","","1204","
                    <div class=""stimulus-container"">
                        <img src=""images/causal_sequence/the_performance_causal/the_performance_causal_1.png"" class=""exp-image"">
                        <div class=""question-area"">
                            <p style=""font-size: 20px; font-weight: bold; margin: 0;"">Is there a person in this image?</p>
                        </div>
                    </div>","0","main_causal_task","1","the_performance_causal","","","",""
"","","","","","html-keyboard-response","56","349349","0.0-56.0","C071A4642828488FB10DE919F26077CD","019ce629-c389-78ab-94cf-b4110c2c592d","019ce621-c902-75a6-af36-962d82cab856","","null","
                    <div class=""stimulus-container"">
                        <img src=""images/causal_sequence/the_performance_causal/the_performance_causal_2.png"" class=""exp-image"">
                        <div class=""question-area""></div> 
                    </div>","null","","","","","","",""
"","","","","","html-button-response","57","350244","0.0-57.0","C071A4642828488FB10DE919F26077CD","019ce629-c389-78ab-94cf-b4110c2c592d","019ce621-c902-75a6-af36-962d82cab856","","894","
                    <div class=""stimulus-container"">
                        <img src=""images/causal_sequence/the_performance_causal/the_performance_causal_2.png"" class=""exp-image"">
                        <div class=""question-area"">
                            <p style=""font-size: 20px; font-weight: bold; margin: 0;"">Is there a person in this image?</p>
                        </div>
                    </div>","0","main_causal_task","2","the_performance_causal","","","",""
"","","","","","html-keyboard-response","58","355257","0.0-58.0","C071A4642828488FB10DE919F26077CD","019ce629-c389-78ab-94cf-b4110c2c592d","019ce621-c902-75a6-af36-962d82cab856","","null","
                    <div class=""stimulus-container"">
                        <img src=""images/causal_sequence/the_performance_causal/the_performance_causal_3.png"" class=""exp-image"">
                        <div class=""question-area""></div> 
                    </div>","null","","","","","","",""
"","","","","","html-button-response","59","356032","0.0-59.0","C071A4642828488FB10DE919F26077CD","019ce629-c389-78ab-94cf-b4110c2c592d","019ce621-c902-75a6-af36-962d82cab856","","774","
                    <div class=""stimulus-container"">
                        <img src=""images/causal_sequence/the_performance_causal/the_performance_causal_3.png"" class=""exp-image"">
                        <div class=""question-area"">
                            <p style=""font-size: 20px; font-weight: bold; margin: 0;"">Is there a person in this image?</p>
                        </div>
                    </div>","0","main_causal_task","3","the_performance_causal","","","",""
"","","","","","html-keyboard-response","60","361045","0.0-60.0","C071A4642828488FB10DE919F26077CD","019ce629-c389-78ab-94cf-b4110c2c592d","019ce621-c902-75a6-af36-962d82cab856","","null","
                    <div class=""stimulus-container"">
                        <img src=""images/causal_sequence/the_performance_causal/the_performance_causal_4.png"" class=""exp-image"">
                        <div class=""question-area""></div> 
                    </div>","null","","","","","","",""
"","","","","","html-button-response","61","362041","0.0-61.0","C071A4642828488FB10DE919F26077CD","019ce629-c389-78ab-94cf-b4110c2c592d","019ce621-c902-75a6-af36-962d82cab856","","994","
                    <div class=""stimulus-container"">
                        <img src=""images/causal_sequence/the_performance_causal/the_performance_causal_4.png"" class=""exp-image"">
                        <div class=""question-area"">
                            <p style=""font-size: 20px; font-weight: bold; margin: 0;"">Is there a person in this image?</p>
                        </div>
                    </div>","0","main_causal_task","4","the_performance_causal","","","",""
"","","","","","html-keyboard-response","62","367047","0.0-62.0","C071A4642828488FB10DE919F26077CD","019ce629-c389-78ab-94cf-b4110c2c592d","019ce621-c902-75a6-af36-962d82cab856","","null","
                    <div class=""stimulus-container"">
                        <img src=""images/causal_sequence/the_performance_causal/the_performance_causal_5.png"" class=""exp-image"">
                        <div class=""question-area""></div> 
                    </div>","null","","","","","","",""
"","","","","","html-button-response","63","367708","0.0-63.0","C071A4642828488FB10DE919F26077CD","019ce629-c389-78ab-94cf-b4110c2c592d","019ce621-c902-75a6-af36-962d82cab856","","660","
                    <div class=""stimulus-container"">
                        <img src=""images/causal_sequence/the_performance_causal/the_performance_causal_5.png"" class=""exp-image"">
                        <div class=""question-area"">
                            <p style=""font-size: 20px; font-weight: bold; margin: 0;"">Is there a person in this image?</p>
                        </div>
                    </div>","0","main_causal_task","5","the_performance_causal","","","",""
"","","","","","html-keyboard-response","64","372722","0.0-64.0","C071A4642828488FB10DE919F26077CD","019ce629-c389-78ab-94cf-b4110c2c592d","019ce621-c902-75a6-af36-962d82cab856","","null","
                    <div class=""stimulus-container"">
                        <img src=""images/causal_sequence/the_performance_causal/the_performance_causal_6.png"" class=""exp-image"">
                        <div class=""question-area""></div> 
                    </div>","null","","","","","","",""
"","","","","","html-button-response","65","374177","0.0-65.0","C071A4642828488FB10DE919F26077CD","019ce629-c389-78ab-94cf-b4110c2c592d","019ce621-c902-75a6-af36-962d82cab856","","1453","
                    <div class=""stimulus-container"">
                        <img src=""images/causal_sequence/the_performance_causal/the_performance_causal_6.png"" class=""exp-image"">
                        <div class=""question-area"">
                            <p style=""font-size: 20px; font-weight: bold; margin: 0;"">Is there a person in this image?</p>
                        </div>
                    </div>","0","main_causal_task","6","the_performance_causal","","","",""
"","","","","","html-keyboard-response","66","379182","0.0-66.0","C071A4642828488FB10DE919F26077CD","019ce629-c389-78ab-94cf-b4110c2c592d","019ce621-c902-75a6-af36-962d82cab856","","null","
                    <div class=""stimulus-container"">
                        <img src=""images/causal_sequence/the_performance_causal/the_performance_causal_7.png"" class=""exp-image"">
                        <div class=""question-area""></div> 
                    </div>","null","","","","","","",""
"","","","","","html-button-response","67","379961","0.0-67.0","C071A4642828488FB10DE919F26077CD","019ce629-c389-78ab-94cf-b4110c2c592d","019ce621-c902-75a6-af36-962d82cab856","","777","
                    <div class=""stimulus-container"">
                        <img src=""images/causal_sequence/the_performance_causal/the_performance_causal_7.png"" class=""exp-image"">
                        <div class=""question-area"">
                            <p style=""font-size: 20px; font-weight: bold; margin: 0;"">Is there a person in this image?</p>
                        </div>
                    </div>","0","main_causal_task","7","the_performance_causal","","","",""
"","","","","","html-keyboard-response","68","384978","0.0-68.0","C071A4642828488FB10DE919F26077CD","019ce629-c389-78ab-94cf-b4110c2c592d","019ce621-c902-75a6-af36-962d82cab856","","null","
                    <div class=""stimulus-container"">
                        <img src=""images/causal_sequence/the_performance_causal/the_performance_causal_8.png"" class=""exp-image"">
                        <div class=""question-area""></div> 
                    </div>","null","","","","","","",""
"","","","","","html-button-response","69","385902","0.0-69.0","C071A4642828488FB10DE919F26077CD","019ce629-c389-78ab-94cf-b4110c2c592d","019ce621-c902-75a6-af36-962d82cab856","","923","
                    <div class=""stimulus-container"">
                        <img src=""images/causal_sequence/the_performance_causal/the_performance_causal_8.png"" class=""exp-image"">
                        <div class=""question-area"">
                            <p style=""font-size: 20px; font-weight: bold; margin: 0;"">Is there a person in this image?</p>
                        </div>
                    </div>","0","main_causal_task","8","the_performance_causal","","","",""
"","","","","","html-keyboard-response","70","390903","0.0-70.0","C071A4642828488FB10DE919F26077CD","019ce629-c389-78ab-94cf-b4110c2c592d","019ce621-c902-75a6-af36-962d82cab856","","null","
                    <div class=""stimulus-container"">
                        <img src=""images/causal_sequence/the_performance_causal/the_performance_causal_9.png"" class=""exp-image"">
                        <div class=""question-area""></div> 
                    </div>","null","","","","","","",""
"","","","","","html-button-response","71","391766","0.0-71.0","C071A4642828488FB10DE919F26077CD","019ce629-c389-78ab-94cf-b4110c2c592d","019ce621-c902-75a6-af36-962d82cab856","","862","
                    <div class=""stimulus-container"">
                        <img src=""images/causal_sequence/the_performance_causal/the_performance_causal_9.png"" class=""exp-image"">
                        <div class=""question-area"">
                            <p style=""font-size: 20px; font-weight: bold; margin: 0;"">Is there a person in this image?</p>
                        </div>
                    </div>","0","main_causal_task","9","the_performance_causal","","","",""
"","","","","","html-keyboard-response","72","392773","0.0-72.0","C071A4642828488FB10DE919F26077CD","019ce629-c389-78ab-94cf-b4110c2c592d","019ce621-c902-75a6-af36-962d82cab856","","null","<div style=""background-color: gray; width: 100vw; height: 100vh;""></div>","null","","","","","","",""
"","","","","","html-keyboard-response","73","397776","0.0-73.0","C071A4642828488FB10DE919F26077CD","019ce629-c389-78ab-94cf-b4110c2c592d","019ce621-c902-75a6-af36-962d82cab856","","null","
                    <div class=""stimulus-container"">
                        <img src=""images/causal_sequence/coin_causal/coin_causal_1.png"" class=""exp-image"">
                        <div class=""question-area""></div> 
                    </div>","null","","","","","","",""
"","","","","","html-button-response","74","398818","0.0-74.0","C071A4642828488FB10DE919F26077CD","019ce629-c389-78ab-94cf-b4110c2c592d","019ce621-c902-75a6-af36-962d82cab856","","1040","
                    <div class=""stimulus-container"">
                        <img src=""images/causal_sequence/coin_causal/coin_causal_1.png"" class=""exp-image"">
                        <div class=""question-area"">
                            <p style=""font-size: 20px; font-weight: bold; margin: 0;"">Is there a person in this image?</p>
                        </div>
                    </div>","0","main_causal_task","1","coin_causal","","","",""
"","","","","","html-keyboard-response","75","403820","0.0-75.0","C071A4642828488FB10DE919F26077CD","019ce629-c389-78ab-94cf-b4110c2c592d","019ce621-c902-75a6-af36-962d82cab856","","null","
                    <div class=""stimulus-container"">
                        <img src=""images/causal_sequence/coin_causal/coin_causal_2.png"" class=""exp-image"">
                        <div class=""question-area""></div> 
                    </div>","null","","","","","","",""
"","","","","","html-button-response","76","404523","0.0-76.0","C071A4642828488FB10DE919F26077CD","019ce629-c389-78ab-94cf-b4110c2c592d","019ce621-c902-75a6-af36-962d82cab856","","702","
                    <div class=""stimulus-container"">
                        <img src=""images/causal_sequence/coin_causal/coin_causal_2.png"" class=""exp-image"">
                        <div class=""question-area"">
                            <p style=""font-size: 20px; font-weight: bold; margin: 0;"">Is there a person in this image?</p>
                        </div>
                    </div>","0","main_causal_task","2","coin_causal","","","",""
"","","","","","html-keyboard-response","77","409525","0.0-77.0","C071A4642828488FB10DE919F26077CD","019ce629-c389-78ab-94cf-b4110c2c592d","019ce621-c902-75a6-af36-962d82cab856","","null","
                    <div class=""stimulus-container"">
                        <img src=""images/causal_sequence/coin_causal/coin_causal_3.png"" class=""exp-image"">
                        <div class=""question-area""></div> 
                    </div>","null","","","","","","",""
"","","","","","html-button-response","78","410922","0.0-78.0","C071A4642828488FB10DE919F26077CD","019ce629-c389-78ab-94cf-b4110c2c592d","019ce621-c902-75a6-af36-962d82cab856","","1396","
                    <div class=""stimulus-container"">
                        <img src=""images/causal_sequence/coin_causal/coin_causal_3.png"" class=""exp-image"">
                        <div class=""question-area"">
                            <p style=""font-size: 20px; font-weight: bold; margin: 0;"">Is there a person in this image?</p>
                        </div>
                    </div>","0","main_causal_task","3","coin_causal","","","",""
"","","","","","html-keyboard-response","79","415923","0.0-79.0","C071A4642828488FB10DE919F26077CD","019ce629-c389-78ab-94cf-b4110c2c592d","019ce621-c902-75a6-af36-962d82cab856","","null","
                    <div class=""stimulus-container"">
                        <img src=""images/causal_sequence/coin_causal/coin_causal_4.png"" class=""exp-image"">
                        <div class=""question-area""></div> 
                    </div>","null","","","","","","",""
"","","","","","html-button-response","80","417034","0.0-80.0","C071A4642828488FB10DE919F26077CD","019ce629-c389-78ab-94cf-b4110c2c592d","019ce621-c902-75a6-af36-962d82cab856","","1109","
                    <div class=""stimulus-container"">
                        <img src=""images/causal_sequence/coin_causal/coin_causal_4.png"" class=""exp-image"">
                        <div class=""question-area"">
                            <p style=""font-size: 20px; font-weight: bold; margin: 0;"">Is there a person in this image?</p>
                        </div>
                    </div>","0","main_causal_task","4","coin_causal","","","",""
"","","","","","html-keyboard-response","81","422041","0.0-81.0","C071A4642828488FB10DE919F26077CD","019ce629-c389-78ab-94cf-b4110c2c592d","019ce621-c902-75a6-af36-962d82cab856","","null","
                    <div class=""stimulus-container"">
                        <img src=""images/causal_sequence/coin_causal/coin_causal_5.png"" class=""exp-image"">
                        <div class=""question-area""></div> 
                    </div>","null","","","","","","",""
"","","","","","html-button-response","82","422950","0.0-82.0","C071A4642828488FB10DE919F26077CD","019ce629-c389-78ab-94cf-b4110c2c592d","019ce621-c902-75a6-af36-962d82cab856","","907","
                    <div class=""stimulus-container"">
                        <img src=""images/causal_sequence/coin_causal/coin_causal_5.png"" class=""exp-image"">
                        <div class=""question-area"">
                            <p style=""font-size: 20px; font-weight: bold; margin: 0;"">Is there a person in this image?</p>
                        </div>
                    </div>","0","main_causal_task","5","coin_causal","","","",""
"","","","","","html-keyboard-response","83","427959","0.0-83.0","C071A4642828488FB10DE919F26077CD","019ce629-c389-78ab-94cf-b4110c2c592d","019ce621-c902-75a6-af36-962d82cab856","","null","
                    <div class=""stimulus-container"">
                        <img src=""images/causal_sequence/coin_causal/coin_causal_6.png"" class=""exp-image"">
                        <div class=""question-area""></div> 
                    </div>","null","","","","","","",""
"","","","","","html-button-response","84","429153","0.0-84.0","C071A4642828488FB10DE919F26077CD","019ce629-c389-78ab-94cf-b4110c2c592d","019ce621-c902-75a6-af36-962d82cab856","","1192","
                    <div class=""stimulus-container"">
                        <img src=""images/causal_sequence/coin_causal/coin_causal_6.png"" class=""exp-image"">
                        <div class=""question-area"">
                            <p style=""font-size: 20px; font-weight: bold; margin: 0;"">Is there a person in this image?</p>
                        </div>
                    </div>","0","main_causal_task","6","coin_causal","","","",""
"","","","","","html-keyboard-response","85","434164","0.0-85.0","C071A4642828488FB10DE919F26077CD","019ce629-c389-78ab-94cf-b4110c2c592d","019ce621-c902-75a6-af36-962d82cab856","","null","
                    <div class=""stimulus-container"">
                        <img src=""images/causal_sequence/coin_causal/coin_causal_7.png"" class=""exp-image"">
                        <div class=""question-area""></div> 
                    </div>","null","","","","","","",""
"","","","","","html-button-response","86","435107","0.0-86.0","C071A4642828488FB10DE919F26077CD","019ce629-c389-78ab-94cf-b4110c2c592d","019ce621-c902-75a6-af36-962d82cab856","","941","
                    <div class=""stimulus-container"">
                        <img src=""images/causal_sequence/coin_causal/coin_causal_7.png"" class=""exp-image"">
                        <div class=""question-area"">
                            <p style=""font-size: 20px; font-weight: bold; margin: 0;"">Is there a person in this image?</p>
                        </div>
                    </div>","1","main_causal_task","7","coin_causal","","","",""
"","","","","","html-keyboard-response","87","440120","0.0-87.0","C071A4642828488FB10DE919F26077CD","019ce629-c389-78ab-94cf-b4110c2c592d","019ce621-c902-75a6-af36-962d82cab856","","null","
                    <div class=""stimulus-container"">
                        <img src=""images/causal_sequence/coin_causal/coin_causal_8.png"" class=""exp-image"">
                        <div class=""question-area""></div> 
                    </div>","null","","","","","","",""
"","","","","","html-button-response","88","441160","0.0-88.0","C071A4642828488FB10DE919F26077CD","019ce629-c389-78ab-94cf-b4110c2c592d","019ce621-c902-75a6-af36-962d82cab856","","1039","
                    <div class=""stimulus-container"">
                        <img src=""images/causal_sequence/coin_causal/coin_causal_8.png"" class=""exp-image"">
                        <div class=""question-area"">
                            <p style=""font-size: 20px; font-weight: bold; margin: 0;"">Is there a person in this image?</p>
                        </div>
                    </div>","1","main_causal_task","8","coin_causal","","","",""
"","","","","","html-keyboard-response","89","446169","0.0-89.0","C071A4642828488FB10DE919F26077CD","019ce629-c389-78ab-94cf-b4110c2c592d","019ce621-c902-75a6-af36-962d82cab856","","null","
                    <div class=""stimulus-container"">
                        <img src=""images/causal_sequence/coin_causal/coin_causal_9.png"" class=""exp-image"">
                        <div class=""question-area""></div> 
                    </div>","null","","","","","","",""
"","","","","","html-button-response","90","447189","0.0-90.0","C071A4642828488FB10DE919F26077CD","019ce629-c389-78ab-94cf-b4110c2c592d","019ce621-c902-75a6-af36-962d82cab856","","1018","
                    <div class=""stimulus-container"">
                        <img src=""images/causal_sequence/coin_causal/coin_causal_9.png"" class=""exp-image"">
                        <div class=""question-area"">
                            <p style=""font-size: 20px; font-weight: bold; margin: 0;"">Is there a person in this image?</p>
                        </div>
                    </div>","0","main_causal_task","9","coin_causal","","","",""
"","","","","","html-keyboard-response","91","448200","0.0-91.0","C071A4642828488FB10DE919F26077CD","019ce629-c389-78ab-94cf-b4110c2c592d","019ce621-c902-75a6-af36-962d82cab856","","null","<div style=""background-color: gray; width: 100vw; height: 100vh;""></div>","null","","","","","","",""
"","","","","","html-keyboard-response","92","453208","0.0-92.0","C071A4642828488FB10DE919F26077CD","019ce629-c389-78ab-94cf-b4110c2c592d","019ce621-c902-75a6-af36-962d82cab856","","null","
                    <div class=""stimulus-container"">
                        <img src=""images/causal_sequence/dog_causal/dog_causal_1.png"" class=""exp-image"">
                        <div class=""question-area""></div> 
                    </div>","null","","","","","","",""
"","","","","","html-button-response","93","454106","0.0-93.0","C071A4642828488FB10DE919F26077CD","019ce629-c389-78ab-94cf-b4110c2c592d","019ce621-c902-75a6-af36-962d82cab856","","897","
                    <div class=""stimulus-container"">
                        <img src=""images/causal_sequence/dog_causal/dog_causal_1.png"" class=""exp-image"">
                        <div class=""question-area"">
                            <p style=""font-size: 20px; font-weight: bold; margin: 0;"">Is there a person in this image?</p>
                        </div>
                    </div>","0","main_causal_task","1","dog_causal","","","",""
"","","","","","html-keyboard-response","94","459114","0.0-94.0","C071A4642828488FB10DE919F26077CD","019ce629-c389-78ab-94cf-b4110c2c592d","019ce621-c902-75a6-af36-962d82cab856","","null","
                    <div class=""stimulus-container"">
                        <img src=""images/causal_sequence/dog_causal/dog_causal_2.png"" class=""exp-image"">
                        <div class=""question-area""></div> 
                    </div>","null","","","","","","",""
"","","","","","html-button-response","95","459827","0.0-95.0","C071A4642828488FB10DE919F26077CD","019ce629-c389-78ab-94cf-b4110c2c592d","019ce621-c902-75a6-af36-962d82cab856","","712","
                    <div class=""stimulus-container"">
                        <img src=""images/causal_sequence/dog_causal/dog_causal_2.png"" class=""exp-image"">
                        <div class=""question-area"">
                            <p style=""font-size: 20px; font-weight: bold; margin: 0;"">Is there a person in this image?</p>
                        </div>
                    </div>","0","main_causal_task","2","dog_causal","","","",""
"","","","","","html-keyboard-response","96","464838","0.0-96.0","C071A4642828488FB10DE919F26077CD","019ce629-c389-78ab-94cf-b4110c2c592d","019ce621-c902-75a6-af36-962d82cab856","","null","
                    <div class=""stimulus-container"">
                        <img src=""images/causal_sequence/dog_causal/dog_causal_3.png"" class=""exp-image"">
                        <div class=""question-area""></div> 
                    </div>","null","","","","","","",""
"","","","","","html-button-response","97","465593","0.0-97.0","C071A4642828488FB10DE919F26077CD","019ce629-c389-78ab-94cf-b4110c2c592d","019ce621-c902-75a6-af36-962d82cab856","","753","
                    <div class=""stimulus-container"">
                        <img src=""images/causal_sequence/dog_causal/dog_causal_3.png"" class=""exp-image"">
                        <div class=""question-area"">
                            <p style=""font-size: 20px; font-weight: bold; margin: 0;"">Is there a person in this image?</p>
                        </div>
                    </div>","0","main_causal_task","3","dog_causal","","","",""
"","","","","","html-keyboard-response","98","470610","0.0-98.0","C071A4642828488FB10DE919F26077CD","019ce629-c389-78ab-94cf-b4110c2c592d","019ce621-c902-75a6-af36-962d82cab856","","null","
                    <div class=""stimulus-container"">
                        <img src=""images/causal_sequence/dog_causal/dog_causal_4.png"" class=""exp-image"">
                        <div class=""question-area""></div> 
                    </div>","null","","","","","","",""
"","","","","","html-button-response","99","473623","0.0-99.0","C071A4642828488FB10DE919F26077CD","019ce629-c389-78ab-94cf-b4110c2c592d","019ce621-c902-75a6-af36-962d82cab856","","null","
                    <div class=""stimulus-container"">
                        <img src=""images/causal_sequence/dog_causal/dog_causal_4.png"" class=""exp-image"">
                        <div class=""question-area"">
                            <p style=""font-size: 20px; font-weight: bold; margin: 0;"">Is there a person in this image?</p>
                        </div>
                    </div>","null","main_causal_task","4","dog_causal","","","",""
"","","","","","html-keyboard-response","100","478633","0.0-100.0","C071A4642828488FB10DE919F26077CD","019ce629-c389-78ab-94cf-b4110c2c592d","019ce621-c902-75a6-af36-962d82cab856","","null","
                    <div class=""stimulus-container"">
                        <img src=""images/causal_sequence/dog_causal/dog_causal_5.png"" class=""exp-image"">
                        <div class=""question-area""></div> 
                    </div>","null","","","","","","",""
"","","","","","html-button-response","101","479743","0.0-101.0","C071A4642828488FB10DE919F26077CD","019ce629-c389-78ab-94cf-b4110c2c592d","019ce621-c902-75a6-af36-962d82cab856","","1109","
                    <div class=""stimulus-container"">
                        <img src=""images/causal_sequence/dog_causal/dog_causal_5.png"" class=""exp-image"">
                        <div class=""question-area"">
                            <p style=""font-size: 20px; font-weight: bold; margin: 0;"">Is there a person in this image?</p>
                        </div>
                    </div>","0","main_causal_task","5","dog_causal","","","",""
"","","","","","html-keyboard-response","102","484757","0.0-102.0","C071A4642828488FB10DE919F26077CD","019ce629-c389-78ab-94cf-b4110c2c592d","019ce621-c902-75a6-af36-962d82cab856","","null","
                    <div class=""stimulus-container"">
                        <img src=""images/causal_sequence/dog_causal/dog_causal_6.png"" class=""exp-image"">
                        <div class=""question-area""></div> 
                    </div>","null","","","","","","",""
"","","","","","html-button-response","103","485441","0.0-103.0","C071A4642828488FB10DE919F26077CD","019ce629-c389-78ab-94cf-b4110c2c592d","019ce621-c902-75a6-af36-962d82cab856","","683","
                    <div class=""stimulus-container"">
                        <img src=""images/causal_sequence/dog_causal/dog_causal_6.png"" class=""exp-image"">
                        <div class=""question-area"">
                            <p style=""font-size: 20px; font-weight: bold; margin: 0;"">Is there a person in this image?</p>
                        </div>
                    </div>","0","main_causal_task","6","dog_causal","","","",""
"","","","","","html-keyboard-response","104","490445","0.0-104.0","C071A4642828488FB10DE919F26077CD","019ce629-c389-78ab-94cf-b4110c2c592d","019ce621-c902-75a6-af36-962d82cab856","","null","
                    <div class=""stimulus-container"">
                        <img src=""images/causal_sequence/dog_causal/dog_causal_7.png"" class=""exp-image"">
                        <div class=""question-area""></div> 
                    </div>","null","","","","","","",""
"","","","","","html-button-response","105","491072","0.0-105.0","C071A4642828488FB10DE919F26077CD","019ce629-c389-78ab-94cf-b4110c2c592d","019ce621-c902-75a6-af36-962d82cab856","","626","
                    <div class=""stimulus-container"">
                        <img src=""images/causal_sequence/dog_causal/dog_causal_7.png"" class=""exp-image"">
                        <div class=""question-area"">
                            <p style=""font-size: 20px; font-weight: bold; margin: 0;"">Is there a person in this image?</p>
                        </div>
                    </div>","0","main_causal_task","7","dog_causal","","","",""
"","","","","","html-keyboard-response","106","496083","0.0-106.0","C071A4642828488FB10DE919F26077CD","019ce629-c389-78ab-94cf-b4110c2c592d","019ce621-c902-75a6-af36-962d82cab856","","null","
                    <div class=""stimulus-container"">
                        <img src=""images/causal_sequence/dog_causal/dog_causal_8.png"" class=""exp-image"">
                        <div class=""question-area""></div> 
                    </div>","null","","","","","","",""
"","","","","","html-button-response","107","496900","0.0-107.0","C071A4642828488FB10DE919F26077CD","019ce629-c389-78ab-94cf-b4110c2c592d","019ce621-c902-75a6-af36-962d82cab856","","816","
                    <div class=""stimulus-container"">
                        <img src=""images/causal_sequence/dog_causal/dog_causal_8.png"" class=""exp-image"">
                        <div class=""question-area"">
                            <p style=""font-size: 20px; font-weight: bold; margin: 0;"">Is there a person in this image?</p>
                        </div>
                    </div>","0","main_causal_task","8","dog_causal","","","",""
"","","","","","html-keyboard-response","108","501905","0.0-108.0","C071A4642828488FB10DE919F26077CD","019ce629-c389-78ab-94cf-b4110c2c592d","019ce621-c902-75a6-af36-962d82cab856","","null","
                    <div class=""stimulus-container"">
                        <img src=""images/causal_sequence/dog_causal/dog_causal_9.png"" class=""exp-image"">
                        <div class=""question-area""></div> 
                    </div>","null","","","","","","",""
"","","","","","html-button-response","109","502531","0.0-109.0","C071A4642828488FB10DE919F26077CD","019ce629-c389-78ab-94cf-b4110c2c592d","019ce621-c902-75a6-af36-962d82cab856","","625","
                    <div class=""stimulus-container"">
                        <img src=""images/causal_sequence/dog_causal/dog_causal_9.png"" class=""exp-image"">
                        <div class=""question-area"">
                            <p style=""font-size: 20px; font-weight: bold; margin: 0;"">Is there a person in this image?</p>
                        </div>
                    </div>","0","main_causal_task","9","dog_causal","","","",""
"","","","","","html-keyboard-response","110","503544","0.0-110.0","C071A4642828488FB10DE919F26077CD","019ce629-c389-78ab-94cf-b4110c2c592d","019ce621-c902-75a6-af36-962d82cab856","","null","<div style=""background-color: gray; width: 100vw; height: 100vh;""></div>","null","","","","","","",""
"","","","","","html-keyboard-response","111","508557","0.0-111.0","C071A4642828488FB10DE919F26077CD","019ce629-c389-78ab-94cf-b4110c2c592d","019ce621-c902-75a6-af36-962d82cab856","","null","
                    <div class=""stimulus-container"">
                        <img src=""images/causal_sequence/saving_a_cat_causal/saving_a_cat_causal_1.png"" class=""exp-image"">
                        <div class=""question-area""></div> 
                    </div>","null","","","","","","",""
"","","","","","html-button-response","112","509491","0.0-112.0","C071A4642828488FB10DE919F26077CD","019ce629-c389-78ab-94cf-b4110c2c592d","019ce621-c902-75a6-af36-962d82cab856","","932","
                    <div class=""stimulus-container"">
                        <img src=""images/causal_sequence/saving_a_cat_causal/saving_a_cat_causal_1.png"" class=""exp-image"">
                        <div class=""question-area"">
                            <p style=""font-size: 20px; font-weight: bold; margin: 0;"">Is there a person in this image?</p>
                        </div>
                    </div>","0","main_causal_task","1","saving_a_cat_causal","","","",""
"","","","","","html-keyboard-response","113","514494","0.0-113.0","C071A4642828488FB10DE919F26077CD","019ce629-c389-78ab-94cf-b4110c2c592d","019ce621-c902-75a6-af36-962d82cab856","","null","
                    <div class=""stimulus-container"">
                        <img src=""images/causal_sequence/saving_a_cat_causal/saving_a_cat_causal_2.png"" class=""exp-image"">
                        <div class=""question-area""></div> 
                    </div>","null","","","","","","",""
"","","","","","html-button-response","114","516003","0.0-114.0","C071A4642828488FB10DE919F26077CD","019ce629-c389-78ab-94cf-b4110c2c592d","019ce621-c902-75a6-af36-962d82cab856","","1507","
                    <div class=""stimulus-container"">
                        <img src=""images/causal_sequence/saving_a_cat_causal/saving_a_cat_causal_2.png"" class=""exp-image"">
                        <div class=""question-area"">
                            <p style=""font-size: 20px; font-weight: bold; margin: 0;"">Is there a person in this image?</p>
                        </div>
                    </div>","1","main_causal_task","2","saving_a_cat_causal","","","",""
"","","","","","html-keyboard-response","115","521016","0.0-115.0","C071A4642828488FB10DE919F26077CD","019ce629-c389-78ab-94cf-b4110c2c592d","019ce621-c902-75a6-af36-962d82cab856","","null","
                    <div class=""stimulus-container"">
                        <img src=""images/causal_sequence/saving_a_cat_causal/saving_a_cat_causal_3.png"" class=""exp-image"">
                        <div class=""question-area""></div> 
                    </div>","null","","","","","","",""
"","","","","","html-button-response","116","521813","0.0-116.0","C071A4642828488FB10DE919F26077CD","019ce629-c389-78ab-94cf-b4110c2c592d","019ce621-c902-75a6-af36-962d82cab856","","796","
                    <div class=""stimulus-container"">
                        <img src=""images/causal_sequence/saving_a_cat_causal/saving_a_cat_causal_3.png"" class=""exp-image"">
                        <div class=""question-area"">
                            <p style=""font-size: 20px; font-weight: bold; margin: 0;"">Is there a person in this image?</p>
                        </div>
                    </div>","1","main_causal_task","3","saving_a_cat_causal","","","",""
"","","","","","html-keyboard-response","117","526818","0.0-117.0","C071A4642828488FB10DE919F26077CD","019ce629-c389-78ab-94cf-b4110c2c592d","019ce621-c902-75a6-af36-962d82cab856","","null","
                    <div class=""stimulus-container"">
                        <img src=""images/causal_sequence/saving_a_cat_causal/saving_a_cat_causal_4.png"" class=""exp-image"">
                        <div class=""question-area""></div> 
                    </div>","null","","","","","","",""
"","","","","","html-button-response","118","528300","0.0-118.0","C071A4642828488FB10DE919F26077CD","019ce629-c389-78ab-94cf-b4110c2c592d","019ce621-c902-75a6-af36-962d82cab856","","1480","
                    <div class=""stimulus-container"">
                        <img src=""images/causal_sequence/saving_a_cat_causal/saving_a_cat_causal_4.png"" class=""exp-image"">
                        <div class=""question-area"">
                            <p style=""font-size: 20px; font-weight: bold; margin: 0;"">Is there a person in this image?</p>
                        </div>
                    </div>","0","main_causal_task","4","saving_a_cat_causal","","","",""
"","","","","","html-keyboard-response","119","533314","0.0-119.0","C071A4642828488FB10DE919F26077CD","019ce629-c389-78ab-94cf-b4110c2c592d","019ce621-c902-75a6-af36-962d82cab856","","null","
                    <div class=""stimulus-container"">
                        <img src=""images/causal_sequence/saving_a_cat_causal/saving_a_cat_causal_5.png"" class=""exp-image"">
                        <div class=""question-area""></div> 
                    </div>","null","","","","","","",""
"","","","","","html-button-response","120","533835","0.0-120.0","C071A4642828488FB10DE919F26077CD","019ce629-c389-78ab-94cf-b4110c2c592d","019ce621-c902-75a6-af36-962d82cab856","","519","
                    <div class=""stimulus-container"">
                        <img src=""images/causal_sequence/saving_a_cat_causal/saving_a_cat_causal_5.png"" class=""exp-image"">
                        <div class=""question-area"">
                            <p style=""font-size: 20px; font-weight: bold; margin: 0;"">Is there a person in this image?</p>
                        </div>
                    </div>","0","main_causal_task","5","saving_a_cat_causal","","","",""
"","","","","","html-keyboard-response","121","538842","0.0-121.0","C071A4642828488FB10DE919F26077CD","019ce629-c389-78ab-94cf-b4110c2c592d","019ce621-c902-75a6-af36-962d82cab856","","null","
                    <div class=""stimulus-container"">
                        <img src=""images/causal_sequence/saving_a_cat_causal/saving_a_cat_causal_6.png"" class=""exp-image"">
                        <div class=""question-area""></div> 
                    </div>","null","","","","","","",""
"","","","","","html-button-response","122","539612","0.0-122.0","C071A4642828488FB10DE919F26077CD","019ce629-c389-78ab-94cf-b4110c2c592d","019ce621-c902-75a6-af36-962d82cab856","","768","
                    <div class=""stimulus-container"">
                        <img src=""images/causal_sequence/saving_a_cat_causal/saving_a_cat_causal_6.png"" class=""exp-image"">
                        <div class=""question-area"">
                            <p style=""font-size: 20px; font-weight: bold; margin: 0;"">Is there a person in this image?</p>
                        </div>
                    </div>","0","main_causal_task","6","saving_a_cat_causal","","","",""
"","","","","","html-keyboard-response","123","544625","0.0-123.0","C071A4642828488FB10DE919F26077CD","019ce629-c389-78ab-94cf-b4110c2c592d","019ce621-c902-75a6-af36-962d82cab856","","null","
                    <div class=""stimulus-container"">
                        <img src=""images/causal_sequence/saving_a_cat_causal/saving_a_cat_causal_7.png"" class=""exp-image"">
                        <div class=""question-area""></div> 
                    </div>","null","","","","","","",""
"","","","","","html-button-response","124","545300","0.0-124.0","C071A4642828488FB10DE919F26077CD","019ce629-c389-78ab-94cf-b4110c2c592d","019ce621-c902-75a6-af36-962d82cab856","","673","
                    <div class=""stimulus-container"">
                        <img src=""images/causal_sequence/saving_a_cat_causal/saving_a_cat_causal_7.png"" class=""exp-image"">
                        <div class=""question-area"">
                            <p style=""font-size: 20px; font-weight: bold; margin: 0;"">Is there a person in this image?</p>
                        </div>
                    </div>","0","main_causal_task","7","saving_a_cat_causal","","","",""
"","","","","","html-keyboard-response","125","550315","0.0-125.0","C071A4642828488FB10DE919F26077CD","019ce629-c389-78ab-94cf-b4110c2c592d","019ce621-c902-75a6-af36-962d82cab856","","null","
                    <div class=""stimulus-container"">
                        <img src=""images/causal_sequence/saving_a_cat_causal/saving_a_cat_causal_8.png"" class=""exp-image"">
                        <div class=""question-area""></div> 
                    </div>","null","","","","","","",""
"","","","","","html-button-response","126","550907","0.0-126.0","C071A4642828488FB10DE919F26077CD","019ce629-c389-78ab-94cf-b4110c2c592d","019ce621-c902-75a6-af36-962d82cab856","","591","
                    <div class=""stimulus-container"">
                        <img src=""images/causal_sequence/saving_a_cat_causal/saving_a_cat_causal_8.png"" class=""exp-image"">
                        <div class=""question-area"">
                            <p style=""font-size: 20px; font-weight: bold; margin: 0;"">Is there a person in this image?</p>
                        </div>
                    </div>","0","main_causal_task","8","saving_a_cat_causal","","","",""
"","","","","","html-keyboard-response","127","555910","0.0-127.0","C071A4642828488FB10DE919F26077CD","019ce629-c389-78ab-94cf-b4110c2c592d","019ce621-c902-75a6-af36-962d82cab856","","null","
                    <div class=""stimulus-container"">
                        <img src=""images/causal_sequence/saving_a_cat_causal/saving_a_cat_causal_9.png"" class=""exp-image"">
                        <div class=""question-area""></div> 
                    </div>","null","","","","","","",""
"","","","","","html-button-response","128","556729","0.0-128.0","C071A4642828488FB10DE919F26077CD","019ce629-c389-78ab-94cf-b4110c2c592d","019ce621-c902-75a6-af36-962d82cab856","","815","
                    <div class=""stimulus-container"">
                        <img src=""images/causal_sequence/saving_a_cat_causal/saving_a_cat_causal_9.png"" class=""exp-image"">
                        <div class=""question-area"">
                            <p style=""font-size: 20px; font-weight: bold; margin: 0;"">Is there a person in this image?</p>
                        </div>
                    </div>","0","main_causal_task","9","saving_a_cat_causal","","","",""
"","","","","","instructions","129","560778","0.0-129.0","C071A4642828488FB10DE919F26077CD","019ce629-c389-78ab-94cf-b4110c2c592d","019ce621-c902-75a6-af36-962d82cab856","[{""page_index"":0,""viewing_time"":4049}]","4049","","","","","","","","",""
"","","","","","instructions","130","576333","0.0-130.0","C071A4642828488FB10DE919F26077CD","019ce629-c389-78ab-94cf-b4110c2c592d","019ce621-c902-75a6-af36-962d82cab856","[{""page_index"":0,""viewing_time"":15555}]","15555","","","","","","","","",""
"","","","","","html-keyboard-response","131","577334","0.0-131.0","C071A4642828488FB10DE919F26077CD","019ce629-c389-78ab-94cf-b4110c2c592d","019ce621-c902-75a6-af36-962d82cab856","","null","
        <div class=""stimulus-container"" style=""display: flex; align-items: center; justify-content: center; gap: 30px;"">
            <img src=""images/instructions/movie_1.png"" class=""exp-image"">
            <div style=""font-size: 40px; font-weight: bold; color: green; border: 5px solid green; padding: 25px; border-radius: 15px; background-color: #f0fff0;"">
                WORTH<br>$1
            </div>
        </div>
        <div class=""question-area""></div>","null","","","","","","",""
"","","","","","html-button-response","132","578657","0.0-132.0","C071A4642828488FB10DE919F26077CD","019ce629-c389-78ab-94cf-b4110c2c592d","019ce621-c902-75a6-af36-962d82cab856","","1322","
        <div class=""stimulus-container"" style=""display: flex; align-items: center; justify-content: center; gap: 30px;"">
            <img src=""images/instructions/movie_1.png"" class=""exp-image"">
            <div style=""font-size: 40px; font-weight: bold; color: green; border: 5px solid green; padding: 25px; border-radius: 15px; background-color: #f0fff0;"">
                WORTH<br>$1
            </div>
        </div>
        <div class=""question-area"">
            <p style=""font-size: 20px; font-weight: bold; margin: 0;"">Was there a person in this image?</p>
        </div>","0","","","","","","",""
"","","","","","instructions","133","583739","0.0-133.0","C071A4642828488FB10DE919F26077CD","019ce629-c389-78ab-94cf-b4110c2c592d","019ce621-c902-75a6-af36-962d82cab856","[{""page_index"":0,""viewing_time"":5081}]","5081","","","","","","","","",""
"","","","","","html-keyboard-response","134","593741","0.0-134.0","C071A4642828488FB10DE919F26077CD","019ce629-c389-78ab-94cf-b4110c2c592d","019ce621-c902-75a6-af36-962d82cab856","","null","
            <div class=""stimulus-container"" style=""display: flex; align-items: center; justify-content: center; gap: 30px;"">
                <img src=""images/causal_sequence/package_causal/package_causal_7.png"" class=""exp-image"">
                <div style=""font-size: 40px; font-weight: bold; color: green; border: 5px solid green; padding: 25px; border-radius: 15px; background-color: #f0fff0;"">
                    WORTH<br>$1
                </div>
            </div>
            <div class=""question-area""></div>","null","","","","","","",""
"","","","","","html-button-response","135","595061","0.0-135.0","C071A4642828488FB10DE919F26077CD","019ce629-c389-78ab-94cf-b4110c2c592d","019ce621-c902-75a6-af36-962d82cab856","","1319","
            <div class=""stimulus-container"" style=""display: flex; align-items: center; justify-content: center; gap: 30px;"">
                <img src=""images/causal_sequence/package_causal/package_causal_7.png"" class=""exp-image"">
                <div style=""font-size: 40px; font-weight: bold; color: green; border: 5px solid green; padding: 25px; border-radius: 15px; background-color: #f0fff0;"">
                    WORTH<br>$1
                </div>
            </div>
            <div class=""question-area"">
                <p style=""font-size: 20px; font-weight: bold; margin: 0;"">Was there a person in this image?</p>
            </div>","1","part2_value_learning","","package_causal","7","","",""
"","","","","","html-keyboard-response","136","605066","0.0-136.0","C071A4642828488FB10DE919F26077CD","019ce629-c389-78ab-94cf-b4110c2c592d","019ce621-c902-75a6-af36-962d82cab856","","null","
            <div class=""stimulus-container"" style=""display: flex; align-items: center; justify-content: center; gap: 30px;"">
                <img src=""images/causal_sequence/dog_causal/dog_causal_6.png"" class=""exp-image"">
                <div style=""font-size: 40px; font-weight: bold; color: green; border: 5px solid green; padding: 25px; border-radius: 15px; background-color: #f0fff0;"">
                    WORTH<br>$1
                </div>
            </div>
            <div class=""question-area""></div>","null","","","","","","",""
"","","","","","html-button-response","137","606368","0.0-137.0","C071A4642828488FB10DE919F26077CD","019ce629-c389-78ab-94cf-b4110c2c592d","019ce621-c902-75a6-af36-962d82cab856","","1301","
            <div class=""stimulus-container"" style=""display: flex; align-items: center; justify-content: center; gap: 30px;"">
                <img src=""images/causal_sequence/dog_causal/dog_causal_6.png"" class=""exp-image"">
                <div style=""font-size: 40px; font-weight: bold; color: green; border: 5px solid green; padding: 25px; border-radius: 15px; background-color: #f0fff0;"">
                    WORTH<br>$1
                </div>
            </div>
            <div class=""question-area"">
                <p style=""font-size: 20px; font-weight: bold; margin: 0;"">Was there a person in this image?</p>
            </div>","0","part2_value_learning","","dog_causal","6","","",""
"","","","","","html-keyboard-response","138","616382","0.0-138.0","C071A4642828488FB10DE919F26077CD","019ce629-c389-78ab-94cf-b4110c2c592d","019ce621-c902-75a6-af36-962d82cab856","","null","
            <div class=""stimulus-container"" style=""display: flex; align-items: center; justify-content: center; gap: 30px;"">
                <img src=""images/causal_sequence/saving_a_cat_causal/saving_a_cat_causal_6.png"" class=""exp-image"">
                <div style=""font-size: 40px; font-weight: bold; color: green; border: 5px solid green; padding: 25px; border-radius: 15px; background-color: #f0fff0;"">
                    WORTH<br>$1
                </div>
            </div>
            <div class=""question-area""></div>","null","","","","","","",""
"","","","","","html-button-response","139","617743","0.0-139.0","C071A4642828488FB10DE919F26077CD","019ce629-c389-78ab-94cf-b4110c2c592d","019ce621-c902-75a6-af36-962d82cab856","","1359","
            <div class=""stimulus-container"" style=""display: flex; align-items: center; justify-content: center; gap: 30px;"">
                <img src=""images/causal_sequence/saving_a_cat_causal/saving_a_cat_causal_6.png"" class=""exp-image"">
                <div style=""font-size: 40px; font-weight: bold; color: green; border: 5px solid green; padding: 25px; border-radius: 15px; background-color: #f0fff0;"">
                    WORTH<br>$1
                </div>
            </div>
            <div class=""question-area"">
                <p style=""font-size: 20px; font-weight: bold; margin: 0;"">Was there a person in this image?</p>
            </div>","0","part2_value_learning","","saving_a_cat_causal","6","","",""
"","","","","","html-keyboard-response","140","627751","0.0-140.0","C071A4642828488FB10DE919F26077CD","019ce629-c389-78ab-94cf-b4110c2c592d","019ce621-c902-75a6-af36-962d82cab856","","null","
            <div class=""stimulus-container"" style=""display: flex; align-items: center; justify-content: center; gap: 30px;"">
                <img src=""images/causal_sequence/coin_causal/coin_causal_7.png"" class=""exp-image"">
                <div style=""font-size: 40px; font-weight: bold; color: green; border: 5px solid green; padding: 25px; border-radius: 15px; background-color: #f0fff0;"">
                    WORTH<br>$1
                </div>
            </div>
            <div class=""question-area""></div>","null","","","","","","",""
"","","","","","html-button-response","141","628892","0.0-141.0","C071A4642828488FB10DE919F26077CD","019ce629-c389-78ab-94cf-b4110c2c592d","019ce621-c902-75a6-af36-962d82cab856","","1139","
            <div class=""stimulus-container"" style=""display: flex; align-items: center; justify-content: center; gap: 30px;"">
                <img src=""images/causal_sequence/coin_causal/coin_causal_7.png"" class=""exp-image"">
                <div style=""font-size: 40px; font-weight: bold; color: green; border: 5px solid green; padding: 25px; border-radius: 15px; background-color: #f0fff0;"">
                    WORTH<br>$1
                </div>
            </div>
            <div class=""question-area"">
                <p style=""font-size: 20px; font-weight: bold; margin: 0;"">Was there a person in this image?</p>
            </div>","0","part2_value_learning","","coin_causal","7","","",""
"","","","","","html-keyboard-response","142","638896","0.0-142.0","C071A4642828488FB10DE919F26077CD","019ce629-c389-78ab-94cf-b4110c2c592d","019ce621-c902-75a6-af36-962d82cab856","","null","
            <div class=""stimulus-container"" style=""display: flex; align-items: center; justify-content: center; gap: 30px;"">
                <img src=""images/causal_sequence/museum_causal/museum_causal_5.png"" class=""exp-image"">
                <div style=""font-size: 40px; font-weight: bold; color: green; border: 5px solid green; padding: 25px; border-radius: 15px; background-color: #f0fff0;"">
                    WORTH<br>$1
                </div>
            </div>
            <div class=""question-area""></div>","null","","","","","","",""
"","","","","","html-button-response","143","640086","0.0-143.0","C071A4642828488FB10DE919F26077CD","019ce629-c389-78ab-94cf-b4110c2c592d","019ce621-c902-75a6-af36-962d82cab856","","1189","
            <div class=""stimulus-container"" style=""display: flex; align-items: center; justify-content: center; gap: 30px;"">
                <img src=""images/causal_sequence/museum_causal/museum_causal_5.png"" class=""exp-image"">
                <div style=""font-size: 40px; font-weight: bold; color: green; border: 5px solid green; padding: 25px; border-radius: 15px; background-color: #f0fff0;"">
                    WORTH<br>$1
                </div>
            </div>
            <div class=""question-area"">
                <p style=""font-size: 20px; font-weight: bold; margin: 0;"">Was there a person in this image?</p>
            </div>","0","part2_value_learning","","museum_causal","5","","",""
"","","","","","html-keyboard-response","144","650097","0.0-144.0","C071A4642828488FB10DE919F26077CD","019ce629-c389-78ab-94cf-b4110c2c592d","019ce621-c902-75a6-af36-962d82cab856","","null","
            <div class=""stimulus-container"" style=""display: flex; align-items: center; justify-content: center; gap: 30px;"">
                <img src=""images/causal_sequence/the_performance_causal/the_performance_causal_3.png"" class=""exp-image"">
                <div style=""font-size: 40px; font-weight: bold; color: green; border: 5px solid green; padding: 25px; border-radius: 15px; background-color: #f0fff0;"">
                    WORTH<br>$1
                </div>
            </div>
            <div class=""question-area""></div>","null","","","","","","",""
"","","","","","html-button-response","145","652093","0.0-145.0","C071A4642828488FB10DE919F26077CD","019ce629-c389-78ab-94cf-b4110c2c592d","019ce621-c902-75a6-af36-962d82cab856","","1996","
            <div class=""stimulus-container"" style=""display: flex; align-items: center; justify-content: center; gap: 30px;"">
                <img src=""images/causal_sequence/the_performance_causal/the_performance_causal_3.png"" class=""exp-image"">
                <div style=""font-size: 40px; font-weight: bold; color: green; border: 5px solid green; padding: 25px; border-radius: 15px; background-color: #f0fff0;"">
                    WORTH<br>$1
                </div>
            </div>
            <div class=""question-area"">
                <p style=""font-size: 20px; font-weight: bold; margin: 0;"">Was there a person in this image?</p>
            </div>","0","part2_value_learning","","the_performance_causal","3","","",""
"","","","","","instructions","146","654898","0.0-146.0","C071A4642828488FB10DE919F26077CD","019ce629-c389-78ab-94cf-b4110c2c592d","019ce621-c902-75a6-af36-962d82cab856","[{""page_index"":0,""viewing_time"":2804}]","2804","","","","","","","","",""
"","","","","","instructions","147","659095","0.0-147.0","C071A4642828488FB10DE919F26077CD","019ce629-c389-78ab-94cf-b4110c2c592d","019ce621-c902-75a6-af36-962d82cab856","[{""page_index"":0,""viewing_time"":4197}]","4197","","","","","","","","",""
"","","","","","html-keyboard-response","148","669111","0.0-148.0-0.0","C071A4642828488FB10DE919F26077CD","019ce629-c389-78ab-94cf-b4110c2c592d","019ce621-c902-75a6-af36-962d82cab856","","null","
                        <div style=""font-family: Arial; margin-bottom: 20px;""><h3>Which image is more valuable?</h3></div>
                        <div class=""stimulus-container"" style=""display: flex; width: 1100px; justify-content: center; gap: 50px;"">
                            <img src=""images/causal_sequence/saving_a_cat_causal/saving_a_cat_causal_7.png"" class=""exp-image"">
                            <img src=""images/causal_sequence/saving_a_cat_causal/saving_a_cat_causal_5.png"" class=""exp-image"">
                        </div>","null","","","","","","",""
"","","","","","html-button-response","149","671121","0.0-148.0-1.0","C071A4642828488FB10DE919F26077CD","019ce629-c389-78ab-94cf-b4110c2c592d","019ce621-c902-75a6-af36-962d82cab856","","2008","
                        <div style=""font-family: Arial; margin-bottom: 20px;""><h3>Which image is more valuable?</h3></div>
                        <div class=""stimulus-container"" style=""display: flex; width: 1100px; justify-content: center; gap: 50px;"">
                            <img src=""images/causal_sequence/saving_a_cat_causal/saving_a_cat_causal_7.png"" class=""exp-image"">
                            <img src=""images/causal_sequence/saving_a_cat_causal/saving_a_cat_causal_5.png"" class=""exp-image"">
                        </div>","0","part3_final_choice","","saving_a_cat_causal","","6","7","1"
"","","","","","html-keyboard-response","150","681131","0.0-149.0-0.0","C071A4642828488FB10DE919F26077CD","019ce629-c389-78ab-94cf-b4110c2c592d","019ce621-c902-75a6-af36-962d82cab856","","null","
                        <div style=""font-family: Arial; margin-bottom: 20px;""><h3>Which image is more valuable?</h3></div>
                        <div class=""stimulus-container"" style=""display: flex; width: 1100px; justify-content: center; gap: 50px;"">
                            <img src=""images/causal_sequence/the_performance_causal/the_performance_causal_2.png"" class=""exp-image"">
                            <img src=""images/causal_sequence/the_performance_causal/the_performance_causal_4.png"" class=""exp-image"">
                        </div>","null","","","","","","",""
"","","","","","html-button-response","151","682383","0.0-149.0-1.0","C071A4642828488FB10DE919F26077CD","019ce629-c389-78ab-94cf-b4110c2c592d","019ce621-c902-75a6-af36-962d82cab856","","1250","
                        <div style=""font-family: Arial; margin-bottom: 20px;""><h3>Which image is more valuable?</h3></div>
                        <div class=""stimulus-container"" style=""display: flex; width: 1100px; justify-content: center; gap: 50px;"">
                            <img src=""images/causal_sequence/the_performance_causal/the_performance_causal_2.png"" class=""exp-image"">
                            <img src=""images/causal_sequence/the_performance_causal/the_performance_causal_4.png"" class=""exp-image"">
                        </div>","1","part3_final_choice","","the_performance_causal","","3","4","1"
"","","","","","html-keyboard-response","152","692391","0.0-150.0-0.0","C071A4642828488FB10DE919F26077CD","019ce629-c389-78ab-94cf-b4110c2c592d","019ce621-c902-75a6-af36-962d82cab856","","null","
                        <div style=""font-family: Arial; margin-bottom: 20px;""><h3>Which image is more valuable?</h3></div>
                        <div class=""stimulus-container"" style=""display: flex; width: 1100px; justify-content: center; gap: 50px;"">
                            <img src=""images/causal_sequence/dog_causal/dog_causal_5.png"" class=""exp-image"">
                            <img src=""images/causal_sequence/dog_causal/dog_causal_7.png"" class=""exp-image"">
                        </div>","null","","","","","","",""
"","","","","","html-button-response","153","694760","0.0-150.0-1.0","C071A4642828488FB10DE919F26077CD","019ce629-c389-78ab-94cf-b4110c2c592d","019ce621-c902-75a6-af36-962d82cab856","","2367","
                        <div style=""font-family: Arial; margin-bottom: 20px;""><h3>Which image is more valuable?</h3></div>
                        <div class=""stimulus-container"" style=""display: flex; width: 1100px; justify-content: center; gap: 50px;"">
                            <img src=""images/causal_sequence/dog_causal/dog_causal_5.png"" class=""exp-image"">
                            <img src=""images/causal_sequence/dog_causal/dog_causal_7.png"" class=""exp-image"">
                        </div>","1","part3_final_choice","","dog_causal","","6","7","1"
"","","","","","html-keyboard-response","154","704770","0.0-151.0-0.0","C071A4642828488FB10DE919F26077CD","019ce629-c389-78ab-94cf-b4110c2c592d","019ce621-c902-75a6-af36-962d82cab856","","null","
                        <div style=""font-family: Arial; margin-bottom: 20px;""><h3>Which image is more valuable?</h3></div>
                        <div class=""stimulus-container"" style=""display: flex; width: 1100px; justify-content: center; gap: 50px;"">
                            <img src=""images/causal_sequence/museum_causal/museum_causal_6.png"" class=""exp-image"">
                            <img src=""images/causal_sequence/museum_causal/museum_causal_4.png"" class=""exp-image"">
                        </div>","null","","","","","","",""
"","","","","","html-button-response","155","707245","0.0-151.0-1.0","C071A4642828488FB10DE919F26077CD","019ce629-c389-78ab-94cf-b4110c2c592d","019ce621-c902-75a6-af36-962d82cab856","","2473","
                        <div style=""font-family: Arial; margin-bottom: 20px;""><h3>Which image is more valuable?</h3></div>
                        <div class=""stimulus-container"" style=""display: flex; width: 1100px; justify-content: center; gap: 50px;"">
                            <img src=""images/causal_sequence/museum_causal/museum_causal_6.png"" class=""exp-image"">
                            <img src=""images/causal_sequence/museum_causal/museum_causal_4.png"" class=""exp-image"">
                        </div>","1","part3_final_choice","","museum_causal","","5","4","-1"
"","","","","","html-keyboard-response","156","717260","0.0-152.0-0.0","C071A4642828488FB10DE919F26077CD","019ce629-c389-78ab-94cf-b4110c2c592d","019ce621-c902-75a6-af36-962d82cab856","","null","
                        <div style=""font-family: Arial; margin-bottom: 20px;""><h3>Which image is more valuable?</h3></div>
                        <div class=""stimulus-container"" style=""display: flex; width: 1100px; justify-content: center; gap: 50px;"">
                            <img src=""images/causal_sequence/package_causal/package_causal_6.png"" class=""exp-image"">
                            <img src=""images/causal_sequence/package_causal/package_causal_8.png"" class=""exp-image"">
                        </div>","null","","","","","","",""
"","","","","","html-button-response","157","718356","0.0-152.0-1.0","C071A4642828488FB10DE919F26077CD","019ce629-c389-78ab-94cf-b4110c2c592d","019ce621-c902-75a6-af36-962d82cab856","","1096","
                        <div style=""font-family: Arial; margin-bottom: 20px;""><h3>Which image is more valuable?</h3></div>
                        <div class=""stimulus-container"" style=""display: flex; width: 1100px; justify-content: center; gap: 50px;"">
                            <img src=""images/causal_sequence/package_causal/package_causal_6.png"" class=""exp-image"">
                            <img src=""images/causal_sequence/package_causal/package_causal_8.png"" class=""exp-image"">
                        </div>","1","part3_final_choice","","package_causal","","7","8","1"
"","","","","","html-keyboard-response","158","728374","0.0-153.0-0.0","C071A4642828488FB10DE919F26077CD","019ce629-c389-78ab-94cf-b4110c2c592d","019ce621-c902-75a6-af36-962d82cab856","","null","
                        <div style=""font-family: Arial; margin-bottom: 20px;""><h3>Which image is more valuable?</h3></div>
                        <div class=""stimulus-container"" style=""display: flex; width: 1100px; justify-content: center; gap: 50px;"">
                            <img src=""images/causal_sequence/coin_causal/coin_causal_8.png"" class=""exp-image"">
                            <img src=""images/causal_sequence/coin_causal/coin_causal_6.png"" class=""exp-image"">
                        </div>","null","","","","","","",""
"","","","","","html-button-response","159","730017","0.0-153.0-1.0","C071A4642828488FB10DE919F26077CD","019ce629-c389-78ab-94cf-b4110c2c592d","019ce621-c902-75a6-af36-962d82cab856","","1641","
                        <div style=""font-family: Arial; margin-bottom: 20px;""><h3>Which image is more valuable?</h3></div>
                        <div class=""stimulus-container"" style=""display: flex; width: 1100px; justify-content: center; gap: 50px;"">
                            <img src=""images/causal_sequence/coin_causal/coin_causal_8.png"" class=""exp-image"">
                            <img src=""images/causal_sequence/coin_causal/coin_causal_6.png"" class=""exp-image"">
                        </div>","0","part3_final_choice","","coin_causal","","7","8","1"
"","","","","","survey-text","160","743161","0.0-154.0","C071A4642828488FB10DE919F26077CD","019ce629-c389-78ab-94cf-b4110c2c592d","019ce621-c902-75a6-af36-962d82cab856","","13136","","{""Q0"":""Male"",""Q1"":""35""}","","","","","","",""
"","","","","","instructions","161","754368","0.0-155.0","C071A4642828488FB10DE919F26077CD","019ce629-c389-78ab-94cf-b4110c2c592d","019ce621-c902-75a6-af36-962d82cab856","[{""page_index"":0,""viewing_time"":11207}]","11207","","","","","","","","",""
