"success","timeout","failed_images","failed_audio","failed_video","trial_type","trial_index","time_elapsed","internal_node_id","subject_id","study_id","session_id","view_history","rt","stimulus","response","task","image_index","folder","valuable_image_index","valuable_X","chosen_image_index","distance_from_X"
"false","false","[]","[]","[]","preload","0","1761","0.0-0.0","7A003B71CB9948489B4403837AC6CDC6","019ce67a-efaf-7570-890a-c28a8678f2d6","019ce643-47c6-74a0-b3d2-7bf5651ded46","","","","","","","","","","",""
"","","","","","instructions","1","380741","0.0-1.0","7A003B71CB9948489B4403837AC6CDC6","019ce67a-efaf-7570-890a-c28a8678f2d6","019ce643-47c6-74a0-b3d2-7bf5651ded46","[{""page_index"":0,""viewing_time"":378979}]","378980","","","","","","","","",""
"","","","","","instructions","2","383477","0.0-2.0","7A003B71CB9948489B4403837AC6CDC6","019ce67a-efaf-7570-890a-c28a8678f2d6","019ce643-47c6-74a0-b3d2-7bf5651ded46","[{""page_index"":0,""viewing_time"":2736}]","2736","","","","","","","","",""
"true","","","","","fullscreen","3","419056","0.0-3.0","7A003B71CB9948489B4403837AC6CDC6","019ce67a-efaf-7570-890a-c28a8678f2d6","019ce643-47c6-74a0-b3d2-7bf5651ded46","","34567","","","","","","","","",""
"","","","","","instructions","4","428567","0.0-4.0","7A003B71CB9948489B4403837AC6CDC6","019ce67a-efaf-7570-890a-c28a8678f2d6","019ce643-47c6-74a0-b3d2-7bf5651ded46","[{""page_index"":0,""viewing_time"":9510}]","9510","","","","","","","","",""
"","","","","","instructions","5","441229","0.0-5.0","7A003B71CB9948489B4403837AC6CDC6","019ce67a-efaf-7570-890a-c28a8678f2d6","019ce643-47c6-74a0-b3d2-7bf5651ded46","[{""page_index"":0,""viewing_time"":12661}]","12661","","","","","","","","",""
"","","","","","html-keyboard-response","6","445231","0.0-6.0","7A003B71CB9948489B4403837AC6CDC6","019ce67a-efaf-7570-890a-c28a8678f2d6","019ce643-47c6-74a0-b3d2-7bf5651ded46","","null","
                <div class=""stimulus-container"">
                    <img src=""images/instructions/movie_1.png"" class=""exp-image"">
                    <div class=""question-area""></div> 
                </div>","null","","","","","","",""
"","","","","","html-button-response","7","447126","0.0-7.0","7A003B71CB9948489B4403837AC6CDC6","019ce67a-efaf-7570-890a-c28a8678f2d6","019ce643-47c6-74a0-b3d2-7bf5651ded46","","1894","
                <div class=""stimulus-container"">
                    <img src=""images/instructions/movie_1.png"" class=""exp-image"">
                    <div class=""question-area"">
                        <p style=""font-size: 20px; font-weight: bold; margin: 0;"">Was there a person in this image?</p>
                    </div>
                </div>","0","example_question","1","","","","",""
"","","","","","html-keyboard-response","8","451202","0.0-8.0","7A003B71CB9948489B4403837AC6CDC6","019ce67a-efaf-7570-890a-c28a8678f2d6","019ce643-47c6-74a0-b3d2-7bf5651ded46","","null","
                <div class=""stimulus-container"">
                    <img src=""images/instructions/movie_2.png"" class=""exp-image"">
                    <div class=""question-area""></div> 
                </div>","null","","","","","","",""
"","","","","","html-button-response","9","452049","0.0-9.0","7A003B71CB9948489B4403837AC6CDC6","019ce67a-efaf-7570-890a-c28a8678f2d6","019ce643-47c6-74a0-b3d2-7bf5651ded46","","846","
                <div class=""stimulus-container"">
                    <img src=""images/instructions/movie_2.png"" class=""exp-image"">
                    <div class=""question-area"">
                        <p style=""font-size: 20px; font-weight: bold; margin: 0;"">Was there a person in this image?</p>
                    </div>
                </div>","1","example_question","2","","","","",""
"","","","","","html-keyboard-response","10","456068","0.0-10.0","7A003B71CB9948489B4403837AC6CDC6","019ce67a-efaf-7570-890a-c28a8678f2d6","019ce643-47c6-74a0-b3d2-7bf5651ded46","","null","
                <div class=""stimulus-container"">
                    <img src=""images/instructions/movie_3.png"" class=""exp-image"">
                    <div class=""question-area""></div> 
                </div>","null","","","","","","",""
"","","","","","html-button-response","11","456686","0.0-11.0","7A003B71CB9948489B4403837AC6CDC6","019ce67a-efaf-7570-890a-c28a8678f2d6","019ce643-47c6-74a0-b3d2-7bf5651ded46","","618","
                <div class=""stimulus-container"">
                    <img src=""images/instructions/movie_3.png"" class=""exp-image"">
                    <div class=""question-area"">
                        <p style=""font-size: 20px; font-weight: bold; margin: 0;"">Was there a person in this image?</p>
                    </div>
                </div>","0","example_question","3","","","","",""
"","","","","","html-keyboard-response","12","460739","0.0-12.0","7A003B71CB9948489B4403837AC6CDC6","019ce67a-efaf-7570-890a-c28a8678f2d6","019ce643-47c6-74a0-b3d2-7bf5651ded46","","null","
                <div class=""stimulus-container"">
                    <img src=""images/instructions/movie_4.png"" class=""exp-image"">
                    <div class=""question-area""></div> 
                </div>","null","","","","","","",""
"","","","","","html-button-response","13","461952","0.0-13.0","7A003B71CB9948489B4403837AC6CDC6","019ce67a-efaf-7570-890a-c28a8678f2d6","019ce643-47c6-74a0-b3d2-7bf5651ded46","","1213","
                <div class=""stimulus-container"">
                    <img src=""images/instructions/movie_4.png"" class=""exp-image"">
                    <div class=""question-area"">
                        <p style=""font-size: 20px; font-weight: bold; margin: 0;"">Was there a person in this image?</p>
                    </div>
                </div>","0","example_question","4","","","","",""
"","","","","","instructions","14","463796","0.0-14.0","7A003B71CB9948489B4403837AC6CDC6","019ce67a-efaf-7570-890a-c28a8678f2d6","019ce643-47c6-74a0-b3d2-7bf5651ded46","[{""page_index"":0,""viewing_time"":1844}]","1844","","","","","","","","",""
"","","","","","html-keyboard-response","15","464809","0.0-15.0","7A003B71CB9948489B4403837AC6CDC6","019ce67a-efaf-7570-890a-c28a8678f2d6","019ce643-47c6-74a0-b3d2-7bf5651ded46","","null","<div style=""background-color: gray; width: 100vw; height: 100vh;""></div>","null","","","","","","",""
"","","","","","html-keyboard-response","16","469816","0.0-16.0","7A003B71CB9948489B4403837AC6CDC6","019ce67a-efaf-7570-890a-c28a8678f2d6","019ce643-47c6-74a0-b3d2-7bf5651ded46","","null","
                    <div class=""stimulus-container"">
                        <img src=""images/causal_sequence/museum_causal/museum_causal_1.png"" class=""exp-image"">
                        <div class=""question-area""></div> 
                    </div>","null","","","","","","",""
"","","","","","html-button-response","17","470827","0.0-17.0","7A003B71CB9948489B4403837AC6CDC6","019ce67a-efaf-7570-890a-c28a8678f2d6","019ce643-47c6-74a0-b3d2-7bf5651ded46","","1009","
                    <div class=""stimulus-container"">
                        <img src=""images/causal_sequence/museum_causal/museum_causal_1.png"" class=""exp-image"">
                        <div class=""question-area"">
                            <p style=""font-size: 20px; font-weight: bold; margin: 0;"">Is there a person in this image?</p>
                        </div>
                    </div>","0","main_causal_task","1","museum_causal","","","",""
"","","","","","html-keyboard-response","18","475829","0.0-18.0","7A003B71CB9948489B4403837AC6CDC6","019ce67a-efaf-7570-890a-c28a8678f2d6","019ce643-47c6-74a0-b3d2-7bf5651ded46","","null","
                    <div class=""stimulus-container"">
                        <img src=""images/causal_sequence/museum_causal/museum_causal_2.png"" class=""exp-image"">
                        <div class=""question-area""></div> 
                    </div>","null","","","","","","",""
"","","","","","html-button-response","19","476445","0.0-19.0","7A003B71CB9948489B4403837AC6CDC6","019ce67a-efaf-7570-890a-c28a8678f2d6","019ce643-47c6-74a0-b3d2-7bf5651ded46","","615","
                    <div class=""stimulus-container"">
                        <img src=""images/causal_sequence/museum_causal/museum_causal_2.png"" class=""exp-image"">
                        <div class=""question-area"">
                            <p style=""font-size: 20px; font-weight: bold; margin: 0;"">Is there a person in this image?</p>
                        </div>
                    </div>","0","main_causal_task","2","museum_causal","","","",""
"","","","","","html-keyboard-response","20","481460","0.0-20.0","7A003B71CB9948489B4403837AC6CDC6","019ce67a-efaf-7570-890a-c28a8678f2d6","019ce643-47c6-74a0-b3d2-7bf5651ded46","","null","
                    <div class=""stimulus-container"">
                        <img src=""images/causal_sequence/museum_causal/museum_causal_3.png"" class=""exp-image"">
                        <div class=""question-area""></div> 
                    </div>","null","","","","","","",""
"","","","","","html-button-response","21","482085","0.0-21.0","7A003B71CB9948489B4403837AC6CDC6","019ce67a-efaf-7570-890a-c28a8678f2d6","019ce643-47c6-74a0-b3d2-7bf5651ded46","","625","
                    <div class=""stimulus-container"">
                        <img src=""images/causal_sequence/museum_causal/museum_causal_3.png"" class=""exp-image"">
                        <div class=""question-area"">
                            <p style=""font-size: 20px; font-weight: bold; margin: 0;"">Is there a person in this image?</p>
                        </div>
                    </div>","0","main_causal_task","3","museum_causal","","","",""
"","","","","","html-keyboard-response","22","487141","0.0-22.0","7A003B71CB9948489B4403837AC6CDC6","019ce67a-efaf-7570-890a-c28a8678f2d6","019ce643-47c6-74a0-b3d2-7bf5651ded46","","null","
                    <div class=""stimulus-container"">
                        <img src=""images/causal_sequence/museum_causal/museum_causal_4.png"" class=""exp-image"">
                        <div class=""question-area""></div> 
                    </div>","null","","","","","","",""
"","","","","","html-button-response","23","487970","0.0-23.0","7A003B71CB9948489B4403837AC6CDC6","019ce67a-efaf-7570-890a-c28a8678f2d6","019ce643-47c6-74a0-b3d2-7bf5651ded46","","829","
                    <div class=""stimulus-container"">
                        <img src=""images/causal_sequence/museum_causal/museum_causal_4.png"" class=""exp-image"">
                        <div class=""question-area"">
                            <p style=""font-size: 20px; font-weight: bold; margin: 0;"">Is there a person in this image?</p>
                        </div>
                    </div>","1","main_causal_task","4","museum_causal","","","",""
"","","","","","html-keyboard-response","24","492980","0.0-24.0","7A003B71CB9948489B4403837AC6CDC6","019ce67a-efaf-7570-890a-c28a8678f2d6","019ce643-47c6-74a0-b3d2-7bf5651ded46","","null","
                    <div class=""stimulus-container"">
                        <img src=""images/causal_sequence/museum_causal/museum_causal_5.png"" class=""exp-image"">
                        <div class=""question-area""></div> 
                    </div>","null","","","","","","",""
"","","","","","html-button-response","25","493531","0.0-25.0","7A003B71CB9948489B4403837AC6CDC6","019ce67a-efaf-7570-890a-c28a8678f2d6","019ce643-47c6-74a0-b3d2-7bf5651ded46","","550","
                    <div class=""stimulus-container"">
                        <img src=""images/causal_sequence/museum_causal/museum_causal_5.png"" class=""exp-image"">
                        <div class=""question-area"">
                            <p style=""font-size: 20px; font-weight: bold; margin: 0;"">Is there a person in this image?</p>
                        </div>
                    </div>","0","main_causal_task","5","museum_causal","","","",""
"","","","","","html-keyboard-response","26","498538","0.0-26.0","7A003B71CB9948489B4403837AC6CDC6","019ce67a-efaf-7570-890a-c28a8678f2d6","019ce643-47c6-74a0-b3d2-7bf5651ded46","","null","
                    <div class=""stimulus-container"">
                        <img src=""images/causal_sequence/museum_causal/museum_causal_6.png"" class=""exp-image"">
                        <div class=""question-area""></div> 
                    </div>","null","","","","","","",""
"","","","","","html-button-response","27","499144","0.0-27.0","7A003B71CB9948489B4403837AC6CDC6","019ce67a-efaf-7570-890a-c28a8678f2d6","019ce643-47c6-74a0-b3d2-7bf5651ded46","","606","
                    <div class=""stimulus-container"">
                        <img src=""images/causal_sequence/museum_causal/museum_causal_6.png"" class=""exp-image"">
                        <div class=""question-area"">
                            <p style=""font-size: 20px; font-weight: bold; margin: 0;"">Is there a person in this image?</p>
                        </div>
                    </div>","0","main_causal_task","6","museum_causal","","","",""
"","","","","","html-keyboard-response","28","504157","0.0-28.0","7A003B71CB9948489B4403837AC6CDC6","019ce67a-efaf-7570-890a-c28a8678f2d6","019ce643-47c6-74a0-b3d2-7bf5651ded46","","null","
                    <div class=""stimulus-container"">
                        <img src=""images/causal_sequence/museum_causal/museum_causal_7.png"" class=""exp-image"">
                        <div class=""question-area""></div> 
                    </div>","null","","","","","","",""
"","","","","","html-button-response","29","505955","0.0-29.0","7A003B71CB9948489B4403837AC6CDC6","019ce67a-efaf-7570-890a-c28a8678f2d6","019ce643-47c6-74a0-b3d2-7bf5651ded46","","1797","
                    <div class=""stimulus-container"">
                        <img src=""images/causal_sequence/museum_causal/museum_causal_7.png"" class=""exp-image"">
                        <div class=""question-area"">
                            <p style=""font-size: 20px; font-weight: bold; margin: 0;"">Is there a person in this image?</p>
                        </div>
                    </div>","1","main_causal_task","7","museum_causal","","","",""
"","","","","","html-keyboard-response","30","510974","0.0-30.0","7A003B71CB9948489B4403837AC6CDC6","019ce67a-efaf-7570-890a-c28a8678f2d6","019ce643-47c6-74a0-b3d2-7bf5651ded46","","null","
                    <div class=""stimulus-container"">
                        <img src=""images/causal_sequence/museum_causal/museum_causal_8.png"" class=""exp-image"">
                        <div class=""question-area""></div> 
                    </div>","null","","","","","","",""
"","","","","","html-button-response","31","512004","0.0-31.0","7A003B71CB9948489B4403837AC6CDC6","019ce67a-efaf-7570-890a-c28a8678f2d6","019ce643-47c6-74a0-b3d2-7bf5651ded46","","1030","
                    <div class=""stimulus-container"">
                        <img src=""images/causal_sequence/museum_causal/museum_causal_8.png"" class=""exp-image"">
                        <div class=""question-area"">
                            <p style=""font-size: 20px; font-weight: bold; margin: 0;"">Is there a person in this image?</p>
                        </div>
                    </div>","0","main_causal_task","8","museum_causal","","","",""
"","","","","","html-keyboard-response","32","517010","0.0-32.0","7A003B71CB9948489B4403837AC6CDC6","019ce67a-efaf-7570-890a-c28a8678f2d6","019ce643-47c6-74a0-b3d2-7bf5651ded46","","null","
                    <div class=""stimulus-container"">
                        <img src=""images/causal_sequence/museum_causal/museum_causal_9.png"" class=""exp-image"">
                        <div class=""question-area""></div> 
                    </div>","null","","","","","","",""
"","","","","","html-button-response","33","518066","0.0-33.0","7A003B71CB9948489B4403837AC6CDC6","019ce67a-efaf-7570-890a-c28a8678f2d6","019ce643-47c6-74a0-b3d2-7bf5651ded46","","1055","
                    <div class=""stimulus-container"">
                        <img src=""images/causal_sequence/museum_causal/museum_causal_9.png"" class=""exp-image"">
                        <div class=""question-area"">
                            <p style=""font-size: 20px; font-weight: bold; margin: 0;"">Is there a person in this image?</p>
                        </div>
                    </div>","0","main_causal_task","9","museum_causal","","","",""
"","","","","","html-keyboard-response","34","519079","0.0-34.0","7A003B71CB9948489B4403837AC6CDC6","019ce67a-efaf-7570-890a-c28a8678f2d6","019ce643-47c6-74a0-b3d2-7bf5651ded46","","null","<div style=""background-color: gray; width: 100vw; height: 100vh;""></div>","null","","","","","","",""
"","","","","","html-keyboard-response","35","524294","0.0-35.0","7A003B71CB9948489B4403837AC6CDC6","019ce67a-efaf-7570-890a-c28a8678f2d6","019ce643-47c6-74a0-b3d2-7bf5651ded46","","null","
                    <div class=""stimulus-container"">
                        <img src=""images/causal_sequence/saving_a_cat_causal/saving_a_cat_causal_1.png"" class=""exp-image"">
                        <div class=""question-area""></div> 
                    </div>","null","","","","","","",""
"","","","","","html-button-response","36","525835","0.0-36.0","7A003B71CB9948489B4403837AC6CDC6","019ce67a-efaf-7570-890a-c28a8678f2d6","019ce643-47c6-74a0-b3d2-7bf5651ded46","","1539","
                    <div class=""stimulus-container"">
                        <img src=""images/causal_sequence/saving_a_cat_causal/saving_a_cat_causal_1.png"" class=""exp-image"">
                        <div class=""question-area"">
                            <p style=""font-size: 20px; font-weight: bold; margin: 0;"">Is there a person in this image?</p>
                        </div>
                    </div>","0","main_causal_task","1","saving_a_cat_causal","","","",""
"","","","","","html-keyboard-response","37","531059","0.0-37.0","7A003B71CB9948489B4403837AC6CDC6","019ce67a-efaf-7570-890a-c28a8678f2d6","019ce643-47c6-74a0-b3d2-7bf5651ded46","","null","
                    <div class=""stimulus-container"">
                        <img src=""images/causal_sequence/saving_a_cat_causal/saving_a_cat_causal_2.png"" class=""exp-image"">
                        <div class=""question-area""></div> 
                    </div>","null","","","","","","",""
"","","","","","html-button-response","38","531520","0.0-38.0","7A003B71CB9948489B4403837AC6CDC6","019ce67a-efaf-7570-890a-c28a8678f2d6","019ce643-47c6-74a0-b3d2-7bf5651ded46","","460","
                    <div class=""stimulus-container"">
                        <img src=""images/causal_sequence/saving_a_cat_causal/saving_a_cat_causal_2.png"" class=""exp-image"">
                        <div class=""question-area"">
                            <p style=""font-size: 20px; font-weight: bold; margin: 0;"">Is there a person in this image?</p>
                        </div>
                    </div>","1","main_causal_task","2","saving_a_cat_causal","","","",""
"","","","","","html-keyboard-response","39","536522","0.0-39.0","7A003B71CB9948489B4403837AC6CDC6","019ce67a-efaf-7570-890a-c28a8678f2d6","019ce643-47c6-74a0-b3d2-7bf5651ded46","","null","
                    <div class=""stimulus-container"">
                        <img src=""images/causal_sequence/saving_a_cat_causal/saving_a_cat_causal_3.png"" class=""exp-image"">
                        <div class=""question-area""></div> 
                    </div>","null","","","","","","",""
"","","","","","html-button-response","40","536926","0.0-40.0","7A003B71CB9948489B4403837AC6CDC6","019ce67a-efaf-7570-890a-c28a8678f2d6","019ce643-47c6-74a0-b3d2-7bf5651ded46","","404","
                    <div class=""stimulus-container"">
                        <img src=""images/causal_sequence/saving_a_cat_causal/saving_a_cat_causal_3.png"" class=""exp-image"">
                        <div class=""question-area"">
                            <p style=""font-size: 20px; font-weight: bold; margin: 0;"">Is there a person in this image?</p>
                        </div>
                    </div>","1","main_causal_task","3","saving_a_cat_causal","","","",""
"","","","","","html-keyboard-response","41","541927","0.0-41.0","7A003B71CB9948489B4403837AC6CDC6","019ce67a-efaf-7570-890a-c28a8678f2d6","019ce643-47c6-74a0-b3d2-7bf5651ded46","","null","
                    <div class=""stimulus-container"">
                        <img src=""images/causal_sequence/saving_a_cat_causal/saving_a_cat_causal_4.png"" class=""exp-image"">
                        <div class=""question-area""></div> 
                    </div>","null","","","","","","",""
"","","","","","html-button-response","42","542336","0.0-42.0","7A003B71CB9948489B4403837AC6CDC6","019ce67a-efaf-7570-890a-c28a8678f2d6","019ce643-47c6-74a0-b3d2-7bf5651ded46","","408","
                    <div class=""stimulus-container"">
                        <img src=""images/causal_sequence/saving_a_cat_causal/saving_a_cat_causal_4.png"" class=""exp-image"">
                        <div class=""question-area"">
                            <p style=""font-size: 20px; font-weight: bold; margin: 0;"">Is there a person in this image?</p>
                        </div>
                    </div>","0","main_causal_task","4","saving_a_cat_causal","","","",""
"","","","","","html-keyboard-response","43","547345","0.0-43.0","7A003B71CB9948489B4403837AC6CDC6","019ce67a-efaf-7570-890a-c28a8678f2d6","019ce643-47c6-74a0-b3d2-7bf5651ded46","","null","
                    <div class=""stimulus-container"">
                        <img src=""images/causal_sequence/saving_a_cat_causal/saving_a_cat_causal_5.png"" class=""exp-image"">
                        <div class=""question-area""></div> 
                    </div>","null","","","","","","",""
"","","","","","html-button-response","44","547706","0.0-44.0","7A003B71CB9948489B4403837AC6CDC6","019ce67a-efaf-7570-890a-c28a8678f2d6","019ce643-47c6-74a0-b3d2-7bf5651ded46","","360","
                    <div class=""stimulus-container"">
                        <img src=""images/causal_sequence/saving_a_cat_causal/saving_a_cat_causal_5.png"" class=""exp-image"">
                        <div class=""question-area"">
                            <p style=""font-size: 20px; font-weight: bold; margin: 0;"">Is there a person in this image?</p>
                        </div>
                    </div>","0","main_causal_task","5","saving_a_cat_causal","","","",""
"","","","","","html-keyboard-response","45","552719","0.0-45.0","7A003B71CB9948489B4403837AC6CDC6","019ce67a-efaf-7570-890a-c28a8678f2d6","019ce643-47c6-74a0-b3d2-7bf5651ded46","","null","
                    <div class=""stimulus-container"">
                        <img src=""images/causal_sequence/saving_a_cat_causal/saving_a_cat_causal_6.png"" class=""exp-image"">
                        <div class=""question-area""></div> 
                    </div>","null","","","","","","",""
"","","","","","html-button-response","46","553091","0.0-46.0","7A003B71CB9948489B4403837AC6CDC6","019ce67a-efaf-7570-890a-c28a8678f2d6","019ce643-47c6-74a0-b3d2-7bf5651ded46","","373","
                    <div class=""stimulus-container"">
                        <img src=""images/causal_sequence/saving_a_cat_causal/saving_a_cat_causal_6.png"" class=""exp-image"">
                        <div class=""question-area"">
                            <p style=""font-size: 20px; font-weight: bold; margin: 0;"">Is there a person in this image?</p>
                        </div>
                    </div>","0","main_causal_task","6","saving_a_cat_causal","","","",""
"","","","","","html-keyboard-response","47","558414","0.0-47.0","7A003B71CB9948489B4403837AC6CDC6","019ce67a-efaf-7570-890a-c28a8678f2d6","019ce643-47c6-74a0-b3d2-7bf5651ded46","","null","
                    <div class=""stimulus-container"">
                        <img src=""images/causal_sequence/saving_a_cat_causal/saving_a_cat_causal_7.png"" class=""exp-image"">
                        <div class=""question-area""></div> 
                    </div>","null","","","","","","",""
"","","","","","html-button-response","48","559112","0.0-48.0","7A003B71CB9948489B4403837AC6CDC6","019ce67a-efaf-7570-890a-c28a8678f2d6","019ce643-47c6-74a0-b3d2-7bf5651ded46","","696","
                    <div class=""stimulus-container"">
                        <img src=""images/causal_sequence/saving_a_cat_causal/saving_a_cat_causal_7.png"" class=""exp-image"">
                        <div class=""question-area"">
                            <p style=""font-size: 20px; font-weight: bold; margin: 0;"">Is there a person in this image?</p>
                        </div>
                    </div>","0","main_causal_task","7","saving_a_cat_causal","","","",""
"","","","","","html-keyboard-response","49","564122","0.0-49.0","7A003B71CB9948489B4403837AC6CDC6","019ce67a-efaf-7570-890a-c28a8678f2d6","019ce643-47c6-74a0-b3d2-7bf5651ded46","","null","
                    <div class=""stimulus-container"">
                        <img src=""images/causal_sequence/saving_a_cat_causal/saving_a_cat_causal_8.png"" class=""exp-image"">
                        <div class=""question-area""></div> 
                    </div>","null","","","","","","",""
"","","","","","html-button-response","50","564641","0.0-50.0","7A003B71CB9948489B4403837AC6CDC6","019ce67a-efaf-7570-890a-c28a8678f2d6","019ce643-47c6-74a0-b3d2-7bf5651ded46","","519","
                    <div class=""stimulus-container"">
                        <img src=""images/causal_sequence/saving_a_cat_causal/saving_a_cat_causal_8.png"" class=""exp-image"">
                        <div class=""question-area"">
                            <p style=""font-size: 20px; font-weight: bold; margin: 0;"">Is there a person in this image?</p>
                        </div>
                    </div>","0","main_causal_task","8","saving_a_cat_causal","","","",""
"","","","","","html-keyboard-response","51","569649","0.0-51.0","7A003B71CB9948489B4403837AC6CDC6","019ce67a-efaf-7570-890a-c28a8678f2d6","019ce643-47c6-74a0-b3d2-7bf5651ded46","","null","
                    <div class=""stimulus-container"">
                        <img src=""images/causal_sequence/saving_a_cat_causal/saving_a_cat_causal_9.png"" class=""exp-image"">
                        <div class=""question-area""></div> 
                    </div>","null","","","","","","",""
"","","","","","html-button-response","52","570261","0.0-52.0","7A003B71CB9948489B4403837AC6CDC6","019ce67a-efaf-7570-890a-c28a8678f2d6","019ce643-47c6-74a0-b3d2-7bf5651ded46","","612","
                    <div class=""stimulus-container"">
                        <img src=""images/causal_sequence/saving_a_cat_causal/saving_a_cat_causal_9.png"" class=""exp-image"">
                        <div class=""question-area"">
                            <p style=""font-size: 20px; font-weight: bold; margin: 0;"">Is there a person in this image?</p>
                        </div>
                    </div>","0","main_causal_task","9","saving_a_cat_causal","","","",""
"","","","","","html-keyboard-response","53","571270","0.0-53.0","7A003B71CB9948489B4403837AC6CDC6","019ce67a-efaf-7570-890a-c28a8678f2d6","019ce643-47c6-74a0-b3d2-7bf5651ded46","","null","<div style=""background-color: gray; width: 100vw; height: 100vh;""></div>","null","","","","","","",""
"","","","","","html-keyboard-response","54","576494","0.0-54.0","7A003B71CB9948489B4403837AC6CDC6","019ce67a-efaf-7570-890a-c28a8678f2d6","019ce643-47c6-74a0-b3d2-7bf5651ded46","","null","
                    <div class=""stimulus-container"">
                        <img src=""images/causal_sequence/package_causal/package_causal_1.png"" class=""exp-image"">
                        <div class=""question-area""></div> 
                    </div>","null","","","","","","",""
"","","","","","html-button-response","55","577182","0.0-55.0","7A003B71CB9948489B4403837AC6CDC6","019ce67a-efaf-7570-890a-c28a8678f2d6","019ce643-47c6-74a0-b3d2-7bf5651ded46","","688","
                    <div class=""stimulus-container"">
                        <img src=""images/causal_sequence/package_causal/package_causal_1.png"" class=""exp-image"">
                        <div class=""question-area"">
                            <p style=""font-size: 20px; font-weight: bold; margin: 0;"">Is there a person in this image?</p>
                        </div>
                    </div>","0","main_causal_task","1","package_causal","","","",""
"","","","","","html-keyboard-response","56","582194","0.0-56.0","7A003B71CB9948489B4403837AC6CDC6","019ce67a-efaf-7570-890a-c28a8678f2d6","019ce643-47c6-74a0-b3d2-7bf5651ded46","","null","
                    <div class=""stimulus-container"">
                        <img src=""images/causal_sequence/package_causal/package_causal_2.png"" class=""exp-image"">
                        <div class=""question-area""></div> 
                    </div>","null","","","","","","",""
"","","","","","html-button-response","57","583380","0.0-57.0","7A003B71CB9948489B4403837AC6CDC6","019ce67a-efaf-7570-890a-c28a8678f2d6","019ce643-47c6-74a0-b3d2-7bf5651ded46","","1184","
                    <div class=""stimulus-container"">
                        <img src=""images/causal_sequence/package_causal/package_causal_2.png"" class=""exp-image"">
                        <div class=""question-area"">
                            <p style=""font-size: 20px; font-weight: bold; margin: 0;"">Is there a person in this image?</p>
                        </div>
                    </div>","0","main_causal_task","2","package_causal","","","",""
"","","","","","html-keyboard-response","58","588531","0.0-58.0","7A003B71CB9948489B4403837AC6CDC6","019ce67a-efaf-7570-890a-c28a8678f2d6","019ce643-47c6-74a0-b3d2-7bf5651ded46","","null","
                    <div class=""stimulus-container"">
                        <img src=""images/causal_sequence/package_causal/package_causal_3.png"" class=""exp-image"">
                        <div class=""question-area""></div> 
                    </div>","null","","","","","","",""
"","","","","","html-button-response","59","588938","0.0-59.0","7A003B71CB9948489B4403837AC6CDC6","019ce67a-efaf-7570-890a-c28a8678f2d6","019ce643-47c6-74a0-b3d2-7bf5651ded46","","407","
                    <div class=""stimulus-container"">
                        <img src=""images/causal_sequence/package_causal/package_causal_3.png"" class=""exp-image"">
                        <div class=""question-area"">
                            <p style=""font-size: 20px; font-weight: bold; margin: 0;"">Is there a person in this image?</p>
                        </div>
                    </div>","0","main_causal_task","3","package_causal","","","",""
"","","","","","html-keyboard-response","60","593946","0.0-60.0","7A003B71CB9948489B4403837AC6CDC6","019ce67a-efaf-7570-890a-c28a8678f2d6","019ce643-47c6-74a0-b3d2-7bf5651ded46","","null","
                    <div class=""stimulus-container"">
                        <img src=""images/causal_sequence/package_causal/package_causal_4.png"" class=""exp-image"">
                        <div class=""question-area""></div> 
                    </div>","null","","","","","","",""
"","","","","","html-button-response","61","594817","0.0-61.0","7A003B71CB9948489B4403837AC6CDC6","019ce67a-efaf-7570-890a-c28a8678f2d6","019ce643-47c6-74a0-b3d2-7bf5651ded46","","870","
                    <div class=""stimulus-container"">
                        <img src=""images/causal_sequence/package_causal/package_causal_4.png"" class=""exp-image"">
                        <div class=""question-area"">
                            <p style=""font-size: 20px; font-weight: bold; margin: 0;"">Is there a person in this image?</p>
                        </div>
                    </div>","1","main_causal_task","4","package_causal","","","",""
"","","","","","html-keyboard-response","62","600009","0.0-62.0","7A003B71CB9948489B4403837AC6CDC6","019ce67a-efaf-7570-890a-c28a8678f2d6","019ce643-47c6-74a0-b3d2-7bf5651ded46","","null","
                    <div class=""stimulus-container"">
                        <img src=""images/causal_sequence/package_causal/package_causal_5.png"" class=""exp-image"">
                        <div class=""question-area""></div> 
                    </div>","null","","","","","","",""
"","","","","","html-button-response","63","600431","0.0-63.0","7A003B71CB9948489B4403837AC6CDC6","019ce67a-efaf-7570-890a-c28a8678f2d6","019ce643-47c6-74a0-b3d2-7bf5651ded46","","421","
                    <div class=""stimulus-container"">
                        <img src=""images/causal_sequence/package_causal/package_causal_5.png"" class=""exp-image"">
                        <div class=""question-area"">
                            <p style=""font-size: 20px; font-weight: bold; margin: 0;"">Is there a person in this image?</p>
                        </div>
                    </div>","0","main_causal_task","5","package_causal","","","",""
"","","","","","html-keyboard-response","64","605437","0.0-64.0","7A003B71CB9948489B4403837AC6CDC6","019ce67a-efaf-7570-890a-c28a8678f2d6","019ce643-47c6-74a0-b3d2-7bf5651ded46","","null","
                    <div class=""stimulus-container"">
                        <img src=""images/causal_sequence/package_causal/package_causal_6.png"" class=""exp-image"">
                        <div class=""question-area""></div> 
                    </div>","null","","","","","","",""
"","","","","","html-button-response","65","608447","0.0-65.0","7A003B71CB9948489B4403837AC6CDC6","019ce67a-efaf-7570-890a-c28a8678f2d6","019ce643-47c6-74a0-b3d2-7bf5651ded46","","null","
                    <div class=""stimulus-container"">
                        <img src=""images/causal_sequence/package_causal/package_causal_6.png"" class=""exp-image"">
                        <div class=""question-area"">
                            <p style=""font-size: 20px; font-weight: bold; margin: 0;"">Is there a person in this image?</p>
                        </div>
                    </div>","null","main_causal_task","6","package_causal","","","",""
"","","","","","html-keyboard-response","66","613571","0.0-66.0","7A003B71CB9948489B4403837AC6CDC6","019ce67a-efaf-7570-890a-c28a8678f2d6","019ce643-47c6-74a0-b3d2-7bf5651ded46","","null","
                    <div class=""stimulus-container"">
                        <img src=""images/causal_sequence/package_causal/package_causal_7.png"" class=""exp-image"">
                        <div class=""question-area""></div> 
                    </div>","null","","","","","","",""
"","","","","","html-button-response","67","614001","0.0-67.0","7A003B71CB9948489B4403837AC6CDC6","019ce67a-efaf-7570-890a-c28a8678f2d6","019ce643-47c6-74a0-b3d2-7bf5651ded46","","430","
                    <div class=""stimulus-container"">
                        <img src=""images/causal_sequence/package_causal/package_causal_7.png"" class=""exp-image"">
                        <div class=""question-area"">
                            <p style=""font-size: 20px; font-weight: bold; margin: 0;"">Is there a person in this image?</p>
                        </div>
                    </div>","0","main_causal_task","7","package_causal","","","",""
"","","","","","html-keyboard-response","68","619009","0.0-68.0","7A003B71CB9948489B4403837AC6CDC6","019ce67a-efaf-7570-890a-c28a8678f2d6","019ce643-47c6-74a0-b3d2-7bf5651ded46","","null","
                    <div class=""stimulus-container"">
                        <img src=""images/causal_sequence/package_causal/package_causal_8.png"" class=""exp-image"">
                        <div class=""question-area""></div> 
                    </div>","null","","","","","","",""
"","","","","","html-button-response","69","619457","0.0-69.0","7A003B71CB9948489B4403837AC6CDC6","019ce67a-efaf-7570-890a-c28a8678f2d6","019ce643-47c6-74a0-b3d2-7bf5651ded46","","447","
                    <div class=""stimulus-container"">
                        <img src=""images/causal_sequence/package_causal/package_causal_8.png"" class=""exp-image"">
                        <div class=""question-area"">
                            <p style=""font-size: 20px; font-weight: bold; margin: 0;"">Is there a person in this image?</p>
                        </div>
                    </div>","0","main_causal_task","8","package_causal","","","",""
"","","","","","html-keyboard-response","70","624464","0.0-70.0","7A003B71CB9948489B4403837AC6CDC6","019ce67a-efaf-7570-890a-c28a8678f2d6","019ce643-47c6-74a0-b3d2-7bf5651ded46","","null","
                    <div class=""stimulus-container"">
                        <img src=""images/causal_sequence/package_causal/package_causal_9.png"" class=""exp-image"">
                        <div class=""question-area""></div> 
                    </div>","null","","","","","","",""
"","","","","","html-button-response","71","624863","0.0-71.0","7A003B71CB9948489B4403837AC6CDC6","019ce67a-efaf-7570-890a-c28a8678f2d6","019ce643-47c6-74a0-b3d2-7bf5651ded46","","398","
                    <div class=""stimulus-container"">
                        <img src=""images/causal_sequence/package_causal/package_causal_9.png"" class=""exp-image"">
                        <div class=""question-area"">
                            <p style=""font-size: 20px; font-weight: bold; margin: 0;"">Is there a person in this image?</p>
                        </div>
                    </div>","0","main_causal_task","9","package_causal","","","",""
"","","","","","html-keyboard-response","72","625874","0.0-72.0","7A003B71CB9948489B4403837AC6CDC6","019ce67a-efaf-7570-890a-c28a8678f2d6","019ce643-47c6-74a0-b3d2-7bf5651ded46","","null","<div style=""background-color: gray; width: 100vw; height: 100vh;""></div>","null","","","","","","",""
"","","","","","html-keyboard-response","73","630883","0.0-73.0","7A003B71CB9948489B4403837AC6CDC6","019ce67a-efaf-7570-890a-c28a8678f2d6","019ce643-47c6-74a0-b3d2-7bf5651ded46","","null","
                    <div class=""stimulus-container"">
                        <img src=""images/causal_sequence/dog_causal/dog_causal_1.png"" class=""exp-image"">
                        <div class=""question-area""></div> 
                    </div>","null","","","","","","",""
"","","","","","html-button-response","74","631887","0.0-74.0","7A003B71CB9948489B4403837AC6CDC6","019ce67a-efaf-7570-890a-c28a8678f2d6","019ce643-47c6-74a0-b3d2-7bf5651ded46","","1002","
                    <div class=""stimulus-container"">
                        <img src=""images/causal_sequence/dog_causal/dog_causal_1.png"" class=""exp-image"">
                        <div class=""question-area"">
                            <p style=""font-size: 20px; font-weight: bold; margin: 0;"">Is there a person in this image?</p>
                        </div>
                    </div>","0","main_causal_task","1","dog_causal","","","",""
"","","","","","html-keyboard-response","75","636891","0.0-75.0","7A003B71CB9948489B4403837AC6CDC6","019ce67a-efaf-7570-890a-c28a8678f2d6","019ce643-47c6-74a0-b3d2-7bf5651ded46","","null","
                    <div class=""stimulus-container"">
                        <img src=""images/causal_sequence/dog_causal/dog_causal_2.png"" class=""exp-image"">
                        <div class=""question-area""></div> 
                    </div>","null","","","","","","",""
"","","","","","html-button-response","76","637702","0.0-76.0","7A003B71CB9948489B4403837AC6CDC6","019ce67a-efaf-7570-890a-c28a8678f2d6","019ce643-47c6-74a0-b3d2-7bf5651ded46","","811","
                    <div class=""stimulus-container"">
                        <img src=""images/causal_sequence/dog_causal/dog_causal_2.png"" class=""exp-image"">
                        <div class=""question-area"">
                            <p style=""font-size: 20px; font-weight: bold; margin: 0;"">Is there a person in this image?</p>
                        </div>
                    </div>","0","main_causal_task","2","dog_causal","","","",""
"","","","","","html-keyboard-response","77","642713","0.0-77.0","7A003B71CB9948489B4403837AC6CDC6","019ce67a-efaf-7570-890a-c28a8678f2d6","019ce643-47c6-74a0-b3d2-7bf5651ded46","","null","
                    <div class=""stimulus-container"">
                        <img src=""images/causal_sequence/dog_causal/dog_causal_3.png"" class=""exp-image"">
                        <div class=""question-area""></div> 
                    </div>","null","","","","","","",""
"","","","","","html-button-response","78","644116","0.0-78.0","7A003B71CB9948489B4403837AC6CDC6","019ce67a-efaf-7570-890a-c28a8678f2d6","019ce643-47c6-74a0-b3d2-7bf5651ded46","","1402","
                    <div class=""stimulus-container"">
                        <img src=""images/causal_sequence/dog_causal/dog_causal_3.png"" class=""exp-image"">
                        <div class=""question-area"">
                            <p style=""font-size: 20px; font-weight: bold; margin: 0;"">Is there a person in this image?</p>
                        </div>
                    </div>","0","main_causal_task","3","dog_causal","","","",""
"","","","","","html-keyboard-response","79","649129","0.0-79.0","7A003B71CB9948489B4403837AC6CDC6","019ce67a-efaf-7570-890a-c28a8678f2d6","019ce643-47c6-74a0-b3d2-7bf5651ded46","","null","
                    <div class=""stimulus-container"">
                        <img src=""images/causal_sequence/dog_causal/dog_causal_4.png"" class=""exp-image"">
                        <div class=""question-area""></div> 
                    </div>","null","","","","","","",""
"","","","","","html-button-response","80","649790","0.0-80.0","7A003B71CB9948489B4403837AC6CDC6","019ce67a-efaf-7570-890a-c28a8678f2d6","019ce643-47c6-74a0-b3d2-7bf5651ded46","","660","
                    <div class=""stimulus-container"">
                        <img src=""images/causal_sequence/dog_causal/dog_causal_4.png"" class=""exp-image"">
                        <div class=""question-area"">
                            <p style=""font-size: 20px; font-weight: bold; margin: 0;"">Is there a person in this image?</p>
                        </div>
                    </div>","0","main_causal_task","4","dog_causal","","","",""
"","","","","","html-keyboard-response","81","654793","0.0-81.0","7A003B71CB9948489B4403837AC6CDC6","019ce67a-efaf-7570-890a-c28a8678f2d6","019ce643-47c6-74a0-b3d2-7bf5651ded46","","null","
                    <div class=""stimulus-container"">
                        <img src=""images/causal_sequence/dog_causal/dog_causal_5.png"" class=""exp-image"">
                        <div class=""question-area""></div> 
                    </div>","null","","","","","","",""
"","","","","","html-button-response","82","655174","0.0-82.0","7A003B71CB9948489B4403837AC6CDC6","019ce67a-efaf-7570-890a-c28a8678f2d6","019ce643-47c6-74a0-b3d2-7bf5651ded46","","381","
                    <div class=""stimulus-container"">
                        <img src=""images/causal_sequence/dog_causal/dog_causal_5.png"" class=""exp-image"">
                        <div class=""question-area"">
                            <p style=""font-size: 20px; font-weight: bold; margin: 0;"">Is there a person in this image?</p>
                        </div>
                    </div>","0","main_causal_task","5","dog_causal","","","",""
"","","","","","html-keyboard-response","83","660189","0.0-83.0","7A003B71CB9948489B4403837AC6CDC6","019ce67a-efaf-7570-890a-c28a8678f2d6","019ce643-47c6-74a0-b3d2-7bf5651ded46","","null","
                    <div class=""stimulus-container"">
                        <img src=""images/causal_sequence/dog_causal/dog_causal_6.png"" class=""exp-image"">
                        <div class=""question-area""></div> 
                    </div>","null","","","","","","",""
"","","","","","html-button-response","84","660535","0.0-84.0","7A003B71CB9948489B4403837AC6CDC6","019ce67a-efaf-7570-890a-c28a8678f2d6","019ce643-47c6-74a0-b3d2-7bf5651ded46","","345","
                    <div class=""stimulus-container"">
                        <img src=""images/causal_sequence/dog_causal/dog_causal_6.png"" class=""exp-image"">
                        <div class=""question-area"">
                            <p style=""font-size: 20px; font-weight: bold; margin: 0;"">Is there a person in this image?</p>
                        </div>
                    </div>","0","main_causal_task","6","dog_causal","","","",""
"","","","","","html-keyboard-response","85","665540","0.0-85.0","7A003B71CB9948489B4403837AC6CDC6","019ce67a-efaf-7570-890a-c28a8678f2d6","019ce643-47c6-74a0-b3d2-7bf5651ded46","","null","
                    <div class=""stimulus-container"">
                        <img src=""images/causal_sequence/dog_causal/dog_causal_7.png"" class=""exp-image"">
                        <div class=""question-area""></div> 
                    </div>","null","","","","","","",""
"","","","","","html-button-response","86","665957","0.0-86.0","7A003B71CB9948489B4403837AC6CDC6","019ce67a-efaf-7570-890a-c28a8678f2d6","019ce643-47c6-74a0-b3d2-7bf5651ded46","","417","
                    <div class=""stimulus-container"">
                        <img src=""images/causal_sequence/dog_causal/dog_causal_7.png"" class=""exp-image"">
                        <div class=""question-area"">
                            <p style=""font-size: 20px; font-weight: bold; margin: 0;"">Is there a person in this image?</p>
                        </div>
                    </div>","0","main_causal_task","7","dog_causal","","","",""
"","","","","","html-keyboard-response","87","670962","0.0-87.0","7A003B71CB9948489B4403837AC6CDC6","019ce67a-efaf-7570-890a-c28a8678f2d6","019ce643-47c6-74a0-b3d2-7bf5651ded46","","null","
                    <div class=""stimulus-container"">
                        <img src=""images/causal_sequence/dog_causal/dog_causal_8.png"" class=""exp-image"">
                        <div class=""question-area""></div> 
                    </div>","null","","","","","","",""
"","","","","","html-button-response","88","671894","0.0-88.0","7A003B71CB9948489B4403837AC6CDC6","019ce67a-efaf-7570-890a-c28a8678f2d6","019ce643-47c6-74a0-b3d2-7bf5651ded46","","931","
                    <div class=""stimulus-container"">
                        <img src=""images/causal_sequence/dog_causal/dog_causal_8.png"" class=""exp-image"">
                        <div class=""question-area"">
                            <p style=""font-size: 20px; font-weight: bold; margin: 0;"">Is there a person in this image?</p>
                        </div>
                    </div>","0","main_causal_task","8","dog_causal","","","",""
"","","","","","html-keyboard-response","89","676909","0.0-89.0","7A003B71CB9948489B4403837AC6CDC6","019ce67a-efaf-7570-890a-c28a8678f2d6","019ce643-47c6-74a0-b3d2-7bf5651ded46","","null","
                    <div class=""stimulus-container"">
                        <img src=""images/causal_sequence/dog_causal/dog_causal_9.png"" class=""exp-image"">
                        <div class=""question-area""></div> 
                    </div>","null","","","","","","",""
"","","","","","html-button-response","90","677471","0.0-90.0","7A003B71CB9948489B4403837AC6CDC6","019ce67a-efaf-7570-890a-c28a8678f2d6","019ce643-47c6-74a0-b3d2-7bf5651ded46","","561","
                    <div class=""stimulus-container"">
                        <img src=""images/causal_sequence/dog_causal/dog_causal_9.png"" class=""exp-image"">
                        <div class=""question-area"">
                            <p style=""font-size: 20px; font-weight: bold; margin: 0;"">Is there a person in this image?</p>
                        </div>
                    </div>","0","main_causal_task","9","dog_causal","","","",""
"","","","","","html-keyboard-response","91","678477","0.0-91.0","7A003B71CB9948489B4403837AC6CDC6","019ce67a-efaf-7570-890a-c28a8678f2d6","019ce643-47c6-74a0-b3d2-7bf5651ded46","","null","<div style=""background-color: gray; width: 100vw; height: 100vh;""></div>","null","","","","","","",""
"","","","","","html-keyboard-response","92","683486","0.0-92.0","7A003B71CB9948489B4403837AC6CDC6","019ce67a-efaf-7570-890a-c28a8678f2d6","019ce643-47c6-74a0-b3d2-7bf5651ded46","","null","
                    <div class=""stimulus-container"">
                        <img src=""images/causal_sequence/coin_causal/coin_causal_1.png"" class=""exp-image"">
                        <div class=""question-area""></div> 
                    </div>","null","","","","","","",""
"","","","","","html-button-response","93","683878","0.0-93.0","7A003B71CB9948489B4403837AC6CDC6","019ce67a-efaf-7570-890a-c28a8678f2d6","019ce643-47c6-74a0-b3d2-7bf5651ded46","","392","
                    <div class=""stimulus-container"">
                        <img src=""images/causal_sequence/coin_causal/coin_causal_1.png"" class=""exp-image"">
                        <div class=""question-area"">
                            <p style=""font-size: 20px; font-weight: bold; margin: 0;"">Is there a person in this image?</p>
                        </div>
                    </div>","0","main_causal_task","1","coin_causal","","","",""
"","","","","","html-keyboard-response","94","688886","0.0-94.0","7A003B71CB9948489B4403837AC6CDC6","019ce67a-efaf-7570-890a-c28a8678f2d6","019ce643-47c6-74a0-b3d2-7bf5651ded46","","null","
                    <div class=""stimulus-container"">
                        <img src=""images/causal_sequence/coin_causal/coin_causal_2.png"" class=""exp-image"">
                        <div class=""question-area""></div> 
                    </div>","null","","","","","","",""
"","","","","","html-button-response","95","689389","0.0-95.0","7A003B71CB9948489B4403837AC6CDC6","019ce67a-efaf-7570-890a-c28a8678f2d6","019ce643-47c6-74a0-b3d2-7bf5651ded46","","501","
                    <div class=""stimulus-container"">
                        <img src=""images/causal_sequence/coin_causal/coin_causal_2.png"" class=""exp-image"">
                        <div class=""question-area"">
                            <p style=""font-size: 20px; font-weight: bold; margin: 0;"">Is there a person in this image?</p>
                        </div>
                    </div>","0","main_causal_task","2","coin_causal","","","",""
"","","","","","html-keyboard-response","96","694843","0.0-96.0","7A003B71CB9948489B4403837AC6CDC6","019ce67a-efaf-7570-890a-c28a8678f2d6","019ce643-47c6-74a0-b3d2-7bf5651ded46","","null","
                    <div class=""stimulus-container"">
                        <img src=""images/causal_sequence/coin_causal/coin_causal_3.png"" class=""exp-image"">
                        <div class=""question-area""></div> 
                    </div>","null","","","","","","",""
"","","","","","html-button-response","97","695221","0.0-97.0","7A003B71CB9948489B4403837AC6CDC6","019ce67a-efaf-7570-890a-c28a8678f2d6","019ce643-47c6-74a0-b3d2-7bf5651ded46","","377","
                    <div class=""stimulus-container"">
                        <img src=""images/causal_sequence/coin_causal/coin_causal_3.png"" class=""exp-image"">
                        <div class=""question-area"">
                            <p style=""font-size: 20px; font-weight: bold; margin: 0;"">Is there a person in this image?</p>
                        </div>
                    </div>","0","main_causal_task","3","coin_causal","","","",""
"","","","","","html-keyboard-response","98","700222","0.0-98.0","7A003B71CB9948489B4403837AC6CDC6","019ce67a-efaf-7570-890a-c28a8678f2d6","019ce643-47c6-74a0-b3d2-7bf5651ded46","","null","
                    <div class=""stimulus-container"">
                        <img src=""images/causal_sequence/coin_causal/coin_causal_4.png"" class=""exp-image"">
                        <div class=""question-area""></div> 
                    </div>","null","","","","","","",""
"","","","","","html-button-response","99","701175","0.0-99.0","7A003B71CB9948489B4403837AC6CDC6","019ce67a-efaf-7570-890a-c28a8678f2d6","019ce643-47c6-74a0-b3d2-7bf5651ded46","","952","
                    <div class=""stimulus-container"">
                        <img src=""images/causal_sequence/coin_causal/coin_causal_4.png"" class=""exp-image"">
                        <div class=""question-area"">
                            <p style=""font-size: 20px; font-weight: bold; margin: 0;"">Is there a person in this image?</p>
                        </div>
                    </div>","0","main_causal_task","4","coin_causal","","","",""
"","","","","","html-keyboard-response","100","706179","0.0-100.0","7A003B71CB9948489B4403837AC6CDC6","019ce67a-efaf-7570-890a-c28a8678f2d6","019ce643-47c6-74a0-b3d2-7bf5651ded46","","null","
                    <div class=""stimulus-container"">
                        <img src=""images/causal_sequence/coin_causal/coin_causal_5.png"" class=""exp-image"">
                        <div class=""question-area""></div> 
                    </div>","null","","","","","","",""
"","","","","","html-button-response","101","706587","0.0-101.0","7A003B71CB9948489B4403837AC6CDC6","019ce67a-efaf-7570-890a-c28a8678f2d6","019ce643-47c6-74a0-b3d2-7bf5651ded46","","407","
                    <div class=""stimulus-container"">
                        <img src=""images/causal_sequence/coin_causal/coin_causal_5.png"" class=""exp-image"">
                        <div class=""question-area"">
                            <p style=""font-size: 20px; font-weight: bold; margin: 0;"">Is there a person in this image?</p>
                        </div>
                    </div>","0","main_causal_task","5","coin_causal","","","",""
"","","","","","html-keyboard-response","102","711595","0.0-102.0","7A003B71CB9948489B4403837AC6CDC6","019ce67a-efaf-7570-890a-c28a8678f2d6","019ce643-47c6-74a0-b3d2-7bf5651ded46","","null","
                    <div class=""stimulus-container"">
                        <img src=""images/causal_sequence/coin_causal/coin_causal_6.png"" class=""exp-image"">
                        <div class=""question-area""></div> 
                    </div>","null","","","","","","",""
"","","","","","html-button-response","103","711927","0.0-103.0","7A003B71CB9948489B4403837AC6CDC6","019ce67a-efaf-7570-890a-c28a8678f2d6","019ce643-47c6-74a0-b3d2-7bf5651ded46","","331","
                    <div class=""stimulus-container"">
                        <img src=""images/causal_sequence/coin_causal/coin_causal_6.png"" class=""exp-image"">
                        <div class=""question-area"">
                            <p style=""font-size: 20px; font-weight: bold; margin: 0;"">Is there a person in this image?</p>
                        </div>
                    </div>","0","main_causal_task","6","coin_causal","","","",""
"","","","","","html-keyboard-response","104","716941","0.0-104.0","7A003B71CB9948489B4403837AC6CDC6","019ce67a-efaf-7570-890a-c28a8678f2d6","019ce643-47c6-74a0-b3d2-7bf5651ded46","","null","
                    <div class=""stimulus-container"">
                        <img src=""images/causal_sequence/coin_causal/coin_causal_7.png"" class=""exp-image"">
                        <div class=""question-area""></div> 
                    </div>","null","","","","","","",""
"","","","","","html-button-response","105","717279","0.0-105.0","7A003B71CB9948489B4403837AC6CDC6","019ce67a-efaf-7570-890a-c28a8678f2d6","019ce643-47c6-74a0-b3d2-7bf5651ded46","","337","
                    <div class=""stimulus-container"">
                        <img src=""images/causal_sequence/coin_causal/coin_causal_7.png"" class=""exp-image"">
                        <div class=""question-area"">
                            <p style=""font-size: 20px; font-weight: bold; margin: 0;"">Is there a person in this image?</p>
                        </div>
                    </div>","0","main_causal_task","7","coin_causal","","","",""
"","","","","","html-keyboard-response","106","722283","0.0-106.0","7A003B71CB9948489B4403837AC6CDC6","019ce67a-efaf-7570-890a-c28a8678f2d6","019ce643-47c6-74a0-b3d2-7bf5651ded46","","null","
                    <div class=""stimulus-container"">
                        <img src=""images/causal_sequence/coin_causal/coin_causal_8.png"" class=""exp-image"">
                        <div class=""question-area""></div> 
                    </div>","null","","","","","","",""
"","","","","","html-button-response","107","722674","0.0-107.0","7A003B71CB9948489B4403837AC6CDC6","019ce67a-efaf-7570-890a-c28a8678f2d6","019ce643-47c6-74a0-b3d2-7bf5651ded46","","391","
                    <div class=""stimulus-container"">
                        <img src=""images/causal_sequence/coin_causal/coin_causal_8.png"" class=""exp-image"">
                        <div class=""question-area"">
                            <p style=""font-size: 20px; font-weight: bold; margin: 0;"">Is there a person in this image?</p>
                        </div>
                    </div>","0","main_causal_task","8","coin_causal","","","",""
"","","","","","html-keyboard-response","108","727678","0.0-108.0","7A003B71CB9948489B4403837AC6CDC6","019ce67a-efaf-7570-890a-c28a8678f2d6","019ce643-47c6-74a0-b3d2-7bf5651ded46","","null","
                    <div class=""stimulus-container"">
                        <img src=""images/causal_sequence/coin_causal/coin_causal_9.png"" class=""exp-image"">
                        <div class=""question-area""></div> 
                    </div>","null","","","","","","",""
"","","","","","html-button-response","109","728139","0.0-109.0","7A003B71CB9948489B4403837AC6CDC6","019ce67a-efaf-7570-890a-c28a8678f2d6","019ce643-47c6-74a0-b3d2-7bf5651ded46","","459","
                    <div class=""stimulus-container"">
                        <img src=""images/causal_sequence/coin_causal/coin_causal_9.png"" class=""exp-image"">
                        <div class=""question-area"">
                            <p style=""font-size: 20px; font-weight: bold; margin: 0;"">Is there a person in this image?</p>
                        </div>
                    </div>","0","main_causal_task","9","coin_causal","","","",""
"","","","","","html-keyboard-response","110","729148","0.0-110.0","7A003B71CB9948489B4403837AC6CDC6","019ce67a-efaf-7570-890a-c28a8678f2d6","019ce643-47c6-74a0-b3d2-7bf5651ded46","","null","<div style=""background-color: gray; width: 100vw; height: 100vh;""></div>","null","","","","","","",""
"","","","","","html-keyboard-response","111","734368","0.0-111.0","7A003B71CB9948489B4403837AC6CDC6","019ce67a-efaf-7570-890a-c28a8678f2d6","019ce643-47c6-74a0-b3d2-7bf5651ded46","","null","
                    <div class=""stimulus-container"">
                        <img src=""images/causal_sequence/the_performance_causal/the_performance_causal_1.png"" class=""exp-image"">
                        <div class=""question-area""></div> 
                    </div>","null","","","","","","",""
"","","","","","html-button-response","112","735106","0.0-112.0","7A003B71CB9948489B4403837AC6CDC6","019ce67a-efaf-7570-890a-c28a8678f2d6","019ce643-47c6-74a0-b3d2-7bf5651ded46","","737","
                    <div class=""stimulus-container"">
                        <img src=""images/causal_sequence/the_performance_causal/the_performance_causal_1.png"" class=""exp-image"">
                        <div class=""question-area"">
                            <p style=""font-size: 20px; font-weight: bold; margin: 0;"">Is there a person in this image?</p>
                        </div>
                    </div>","0","main_causal_task","1","the_performance_causal","","","",""
"","","","","","html-keyboard-response","113","740117","0.0-113.0","7A003B71CB9948489B4403837AC6CDC6","019ce67a-efaf-7570-890a-c28a8678f2d6","019ce643-47c6-74a0-b3d2-7bf5651ded46","","null","
                    <div class=""stimulus-container"">
                        <img src=""images/causal_sequence/the_performance_causal/the_performance_causal_2.png"" class=""exp-image"">
                        <div class=""question-area""></div> 
                    </div>","null","","","","","","",""
"","","","","","html-button-response","114","740538","0.0-114.0","7A003B71CB9948489B4403837AC6CDC6","019ce67a-efaf-7570-890a-c28a8678f2d6","019ce643-47c6-74a0-b3d2-7bf5651ded46","","422","
                    <div class=""stimulus-container"">
                        <img src=""images/causal_sequence/the_performance_causal/the_performance_causal_2.png"" class=""exp-image"">
                        <div class=""question-area"">
                            <p style=""font-size: 20px; font-weight: bold; margin: 0;"">Is there a person in this image?</p>
                        </div>
                    </div>","0","main_causal_task","2","the_performance_causal","","","",""
"","","","","","html-keyboard-response","115","745551","0.0-115.0","7A003B71CB9948489B4403837AC6CDC6","019ce67a-efaf-7570-890a-c28a8678f2d6","019ce643-47c6-74a0-b3d2-7bf5651ded46","","null","
                    <div class=""stimulus-container"">
                        <img src=""images/causal_sequence/the_performance_causal/the_performance_causal_3.png"" class=""exp-image"">
                        <div class=""question-area""></div> 
                    </div>","null","","","","","","",""
"","","","","","html-button-response","116","746128","0.0-116.0","7A003B71CB9948489B4403837AC6CDC6","019ce67a-efaf-7570-890a-c28a8678f2d6","019ce643-47c6-74a0-b3d2-7bf5651ded46","","577","
                    <div class=""stimulus-container"">
                        <img src=""images/causal_sequence/the_performance_causal/the_performance_causal_3.png"" class=""exp-image"">
                        <div class=""question-area"">
                            <p style=""font-size: 20px; font-weight: bold; margin: 0;"">Is there a person in this image?</p>
                        </div>
                    </div>","0","main_causal_task","3","the_performance_causal","","","",""
"","","","","","html-keyboard-response","117","751129","0.0-117.0","7A003B71CB9948489B4403837AC6CDC6","019ce67a-efaf-7570-890a-c28a8678f2d6","019ce643-47c6-74a0-b3d2-7bf5651ded46","","null","
                    <div class=""stimulus-container"">
                        <img src=""images/causal_sequence/the_performance_causal/the_performance_causal_4.png"" class=""exp-image"">
                        <div class=""question-area""></div> 
                    </div>","null","","","","","","",""
"","","","","","html-button-response","118","751702","0.0-118.0","7A003B71CB9948489B4403837AC6CDC6","019ce67a-efaf-7570-890a-c28a8678f2d6","019ce643-47c6-74a0-b3d2-7bf5651ded46","","571","
                    <div class=""stimulus-container"">
                        <img src=""images/causal_sequence/the_performance_causal/the_performance_causal_4.png"" class=""exp-image"">
                        <div class=""question-area"">
                            <p style=""font-size: 20px; font-weight: bold; margin: 0;"">Is there a person in this image?</p>
                        </div>
                    </div>","0","main_causal_task","4","the_performance_causal","","","",""
"","","","","","html-keyboard-response","119","756711","0.0-119.0","7A003B71CB9948489B4403837AC6CDC6","019ce67a-efaf-7570-890a-c28a8678f2d6","019ce643-47c6-74a0-b3d2-7bf5651ded46","","null","
                    <div class=""stimulus-container"">
                        <img src=""images/causal_sequence/the_performance_causal/the_performance_causal_5.png"" class=""exp-image"">
                        <div class=""question-area""></div> 
                    </div>","null","","","","","","",""
"","","","","","html-button-response","120","757483","0.0-120.0","7A003B71CB9948489B4403837AC6CDC6","019ce67a-efaf-7570-890a-c28a8678f2d6","019ce643-47c6-74a0-b3d2-7bf5651ded46","","771","
                    <div class=""stimulus-container"">
                        <img src=""images/causal_sequence/the_performance_causal/the_performance_causal_5.png"" class=""exp-image"">
                        <div class=""question-area"">
                            <p style=""font-size: 20px; font-weight: bold; margin: 0;"">Is there a person in this image?</p>
                        </div>
                    </div>","0","main_causal_task","5","the_performance_causal","","","",""
"","","","","","html-keyboard-response","121","762494","0.0-121.0","7A003B71CB9948489B4403837AC6CDC6","019ce67a-efaf-7570-890a-c28a8678f2d6","019ce643-47c6-74a0-b3d2-7bf5651ded46","","null","
                    <div class=""stimulus-container"">
                        <img src=""images/causal_sequence/the_performance_causal/the_performance_causal_6.png"" class=""exp-image"">
                        <div class=""question-area""></div> 
                    </div>","null","","","","","","",""
"","","","","","html-button-response","122","762840","0.0-122.0","7A003B71CB9948489B4403837AC6CDC6","019ce67a-efaf-7570-890a-c28a8678f2d6","019ce643-47c6-74a0-b3d2-7bf5651ded46","","346","
                    <div class=""stimulus-container"">
                        <img src=""images/causal_sequence/the_performance_causal/the_performance_causal_6.png"" class=""exp-image"">
                        <div class=""question-area"">
                            <p style=""font-size: 20px; font-weight: bold; margin: 0;"">Is there a person in this image?</p>
                        </div>
                    </div>","0","main_causal_task","6","the_performance_causal","","","",""
"","","","","","html-keyboard-response","123","767856","0.0-123.0","7A003B71CB9948489B4403837AC6CDC6","019ce67a-efaf-7570-890a-c28a8678f2d6","019ce643-47c6-74a0-b3d2-7bf5651ded46","","null","
                    <div class=""stimulus-container"">
                        <img src=""images/causal_sequence/the_performance_causal/the_performance_causal_7.png"" class=""exp-image"">
                        <div class=""question-area""></div> 
                    </div>","null","","","","","","",""
"","","","","","html-button-response","124","768732","0.0-124.0","7A003B71CB9948489B4403837AC6CDC6","019ce67a-efaf-7570-890a-c28a8678f2d6","019ce643-47c6-74a0-b3d2-7bf5651ded46","","876","
                    <div class=""stimulus-container"">
                        <img src=""images/causal_sequence/the_performance_causal/the_performance_causal_7.png"" class=""exp-image"">
                        <div class=""question-area"">
                            <p style=""font-size: 20px; font-weight: bold; margin: 0;"">Is there a person in this image?</p>
                        </div>
                    </div>","0","main_causal_task","7","the_performance_causal","","","",""
"","","","","","html-keyboard-response","125","773738","0.0-125.0","7A003B71CB9948489B4403837AC6CDC6","019ce67a-efaf-7570-890a-c28a8678f2d6","019ce643-47c6-74a0-b3d2-7bf5651ded46","","null","
                    <div class=""stimulus-container"">
                        <img src=""images/causal_sequence/the_performance_causal/the_performance_causal_8.png"" class=""exp-image"">
                        <div class=""question-area""></div> 
                    </div>","null","","","","","","",""
"","","","","","html-button-response","126","774199","0.0-126.0","7A003B71CB9948489B4403837AC6CDC6","019ce67a-efaf-7570-890a-c28a8678f2d6","019ce643-47c6-74a0-b3d2-7bf5651ded46","","461","
                    <div class=""stimulus-container"">
                        <img src=""images/causal_sequence/the_performance_causal/the_performance_causal_8.png"" class=""exp-image"">
                        <div class=""question-area"">
                            <p style=""font-size: 20px; font-weight: bold; margin: 0;"">Is there a person in this image?</p>
                        </div>
                    </div>","0","main_causal_task","8","the_performance_causal","","","",""
"","","","","","html-keyboard-response","127","779208","0.0-127.0","7A003B71CB9948489B4403837AC6CDC6","019ce67a-efaf-7570-890a-c28a8678f2d6","019ce643-47c6-74a0-b3d2-7bf5651ded46","","null","
                    <div class=""stimulus-container"">
                        <img src=""images/causal_sequence/the_performance_causal/the_performance_causal_9.png"" class=""exp-image"">
                        <div class=""question-area""></div> 
                    </div>","null","","","","","","",""
"","","","","","html-button-response","128","779584","0.0-128.0","7A003B71CB9948489B4403837AC6CDC6","019ce67a-efaf-7570-890a-c28a8678f2d6","019ce643-47c6-74a0-b3d2-7bf5651ded46","","375","
                    <div class=""stimulus-container"">
                        <img src=""images/causal_sequence/the_performance_causal/the_performance_causal_9.png"" class=""exp-image"">
                        <div class=""question-area"">
                            <p style=""font-size: 20px; font-weight: bold; margin: 0;"">Is there a person in this image?</p>
                        </div>
                    </div>","0","main_causal_task","9","the_performance_causal","","","",""
"","","","","","instructions","129","781647","0.0-129.0","7A003B71CB9948489B4403837AC6CDC6","019ce67a-efaf-7570-890a-c28a8678f2d6","019ce643-47c6-74a0-b3d2-7bf5651ded46","[{""page_index"":0,""viewing_time"":2062}]","2062","","","","","","","","",""
"","","","","","instructions","130","787119","0.0-130.0","7A003B71CB9948489B4403837AC6CDC6","019ce67a-efaf-7570-890a-c28a8678f2d6","019ce643-47c6-74a0-b3d2-7bf5651ded46","[{""page_index"":0,""viewing_time"":5472}]","5472","","","","","","","","",""
"","","","","","html-keyboard-response","131","788127","0.0-131.0","7A003B71CB9948489B4403837AC6CDC6","019ce67a-efaf-7570-890a-c28a8678f2d6","019ce643-47c6-74a0-b3d2-7bf5651ded46","","null","
        <div class=""stimulus-container"" style=""display: flex; align-items: center; justify-content: center; gap: 30px;"">
            <img src=""images/instructions/movie_1.png"" class=""exp-image"">
            <div style=""font-size: 40px; font-weight: bold; color: green; border: 5px solid green; padding: 25px; border-radius: 15px; background-color: #f0fff0;"">
                WORTH<br>$1
            </div>
        </div>
        <div class=""question-area""></div>","null","","","","","","",""
"","","","","","html-button-response","132","789387","0.0-132.0","7A003B71CB9948489B4403837AC6CDC6","019ce67a-efaf-7570-890a-c28a8678f2d6","019ce643-47c6-74a0-b3d2-7bf5651ded46","","1260","
        <div class=""stimulus-container"" style=""display: flex; align-items: center; justify-content: center; gap: 30px;"">
            <img src=""images/instructions/movie_1.png"" class=""exp-image"">
            <div style=""font-size: 40px; font-weight: bold; color: green; border: 5px solid green; padding: 25px; border-radius: 15px; background-color: #f0fff0;"">
                WORTH<br>$1
            </div>
        </div>
        <div class=""question-area"">
            <p style=""font-size: 20px; font-weight: bold; margin: 0;"">Was there a person in this image?</p>
        </div>","0","","","","","","",""
"","","","","","instructions","133","792006","0.0-133.0","7A003B71CB9948489B4403837AC6CDC6","019ce67a-efaf-7570-890a-c28a8678f2d6","019ce643-47c6-74a0-b3d2-7bf5651ded46","[{""page_index"":0,""viewing_time"":2618}]","2619","","","","","","","","",""
"","","","","","html-keyboard-response","134","802352","0.0-134.0","7A003B71CB9948489B4403837AC6CDC6","019ce67a-efaf-7570-890a-c28a8678f2d6","019ce643-47c6-74a0-b3d2-7bf5651ded46","","null","
            <div class=""stimulus-container"" style=""display: flex; align-items: center; justify-content: center; gap: 30px;"">
                <img src=""images/causal_sequence/coin_causal/coin_causal_7.png"" class=""exp-image"">
                <div style=""font-size: 40px; font-weight: bold; color: green; border: 5px solid green; padding: 25px; border-radius: 15px; background-color: #f0fff0;"">
                    WORTH<br>$1
                </div>
            </div>
            <div class=""question-area""></div>","null","","","","","","",""
"","","","","","html-button-response","135","803596","0.0-135.0","7A003B71CB9948489B4403837AC6CDC6","019ce67a-efaf-7570-890a-c28a8678f2d6","019ce643-47c6-74a0-b3d2-7bf5651ded46","","1244","
            <div class=""stimulus-container"" style=""display: flex; align-items: center; justify-content: center; gap: 30px;"">
                <img src=""images/causal_sequence/coin_causal/coin_causal_7.png"" class=""exp-image"">
                <div style=""font-size: 40px; font-weight: bold; color: green; border: 5px solid green; padding: 25px; border-radius: 15px; background-color: #f0fff0;"">
                    WORTH<br>$1
                </div>
            </div>
            <div class=""question-area"">
                <p style=""font-size: 20px; font-weight: bold; margin: 0;"">Was there a person in this image?</p>
            </div>","1","part2_value_learning","","coin_causal","7","","",""
"","","","","","html-keyboard-response","136","814356","0.0-136.0","7A003B71CB9948489B4403837AC6CDC6","019ce67a-efaf-7570-890a-c28a8678f2d6","019ce643-47c6-74a0-b3d2-7bf5651ded46","","null","
            <div class=""stimulus-container"" style=""display: flex; align-items: center; justify-content: center; gap: 30px;"">
                <img src=""images/causal_sequence/saving_a_cat_causal/saving_a_cat_causal_5.png"" class=""exp-image"">
                <div style=""font-size: 40px; font-weight: bold; color: green; border: 5px solid green; padding: 25px; border-radius: 15px; background-color: #f0fff0;"">
                    WORTH<br>$1
                </div>
            </div>
            <div class=""question-area""></div>","null","","","","","","",""
"","","","","","html-button-response","137","815386","0.0-137.0","7A003B71CB9948489B4403837AC6CDC6","019ce67a-efaf-7570-890a-c28a8678f2d6","019ce643-47c6-74a0-b3d2-7bf5651ded46","","1028","
            <div class=""stimulus-container"" style=""display: flex; align-items: center; justify-content: center; gap: 30px;"">
                <img src=""images/causal_sequence/saving_a_cat_causal/saving_a_cat_causal_5.png"" class=""exp-image"">
                <div style=""font-size: 40px; font-weight: bold; color: green; border: 5px solid green; padding: 25px; border-radius: 15px; background-color: #f0fff0;"">
                    WORTH<br>$1
                </div>
            </div>
            <div class=""question-area"">
                <p style=""font-size: 20px; font-weight: bold; margin: 0;"">Was there a person in this image?</p>
            </div>","0","part2_value_learning","","saving_a_cat_causal","5","","",""
"","","","","","html-keyboard-response","138","825879","0.0-138.0","7A003B71CB9948489B4403837AC6CDC6","019ce67a-efaf-7570-890a-c28a8678f2d6","019ce643-47c6-74a0-b3d2-7bf5651ded46","","null","
            <div class=""stimulus-container"" style=""display: flex; align-items: center; justify-content: center; gap: 30px;"">
                <img src=""images/causal_sequence/museum_causal/museum_causal_7.png"" class=""exp-image"">
                <div style=""font-size: 40px; font-weight: bold; color: green; border: 5px solid green; padding: 25px; border-radius: 15px; background-color: #f0fff0;"">
                    WORTH<br>$1
                </div>
            </div>
            <div class=""question-area""></div>","null","","","","","","",""
"","","","","","html-button-response","139","826828","0.0-139.0","7A003B71CB9948489B4403837AC6CDC6","019ce67a-efaf-7570-890a-c28a8678f2d6","019ce643-47c6-74a0-b3d2-7bf5651ded46","","948","
            <div class=""stimulus-container"" style=""display: flex; align-items: center; justify-content: center; gap: 30px;"">
                <img src=""images/causal_sequence/museum_causal/museum_causal_7.png"" class=""exp-image"">
                <div style=""font-size: 40px; font-weight: bold; color: green; border: 5px solid green; padding: 25px; border-radius: 15px; background-color: #f0fff0;"">
                    WORTH<br>$1
                </div>
            </div>
            <div class=""question-area"">
                <p style=""font-size: 20px; font-weight: bold; margin: 0;"">Was there a person in this image?</p>
            </div>","0","part2_value_learning","","museum_causal","7","","",""
"","","","","","html-keyboard-response","140","837532","0.0-140.0","7A003B71CB9948489B4403837AC6CDC6","019ce67a-efaf-7570-890a-c28a8678f2d6","019ce643-47c6-74a0-b3d2-7bf5651ded46","","null","
            <div class=""stimulus-container"" style=""display: flex; align-items: center; justify-content: center; gap: 30px;"">
                <img src=""images/causal_sequence/dog_causal/dog_causal_5.png"" class=""exp-image"">
                <div style=""font-size: 40px; font-weight: bold; color: green; border: 5px solid green; padding: 25px; border-radius: 15px; background-color: #f0fff0;"">
                    WORTH<br>$1
                </div>
            </div>
            <div class=""question-area""></div>","null","","","","","","",""
"","","","","","html-button-response","141","838483","0.0-141.0","7A003B71CB9948489B4403837AC6CDC6","019ce67a-efaf-7570-890a-c28a8678f2d6","019ce643-47c6-74a0-b3d2-7bf5651ded46","","951","
            <div class=""stimulus-container"" style=""display: flex; align-items: center; justify-content: center; gap: 30px;"">
                <img src=""images/causal_sequence/dog_causal/dog_causal_5.png"" class=""exp-image"">
                <div style=""font-size: 40px; font-weight: bold; color: green; border: 5px solid green; padding: 25px; border-radius: 15px; background-color: #f0fff0;"">
                    WORTH<br>$1
                </div>
            </div>
            <div class=""question-area"">
                <p style=""font-size: 20px; font-weight: bold; margin: 0;"">Was there a person in this image?</p>
            </div>","0","part2_value_learning","","dog_causal","5","","",""
"","","","","","html-keyboard-response","142","848498","0.0-142.0","7A003B71CB9948489B4403837AC6CDC6","019ce67a-efaf-7570-890a-c28a8678f2d6","019ce643-47c6-74a0-b3d2-7bf5651ded46","","null","
            <div class=""stimulus-container"" style=""display: flex; align-items: center; justify-content: center; gap: 30px;"">
                <img src=""images/causal_sequence/the_performance_causal/the_performance_causal_6.png"" class=""exp-image"">
                <div style=""font-size: 40px; font-weight: bold; color: green; border: 5px solid green; padding: 25px; border-radius: 15px; background-color: #f0fff0;"">
                    WORTH<br>$1
                </div>
            </div>
            <div class=""question-area""></div>","null","","","","","","",""
"","","","","","html-button-response","143","849202","0.0-143.0","7A003B71CB9948489B4403837AC6CDC6","019ce67a-efaf-7570-890a-c28a8678f2d6","019ce643-47c6-74a0-b3d2-7bf5651ded46","","704","
            <div class=""stimulus-container"" style=""display: flex; align-items: center; justify-content: center; gap: 30px;"">
                <img src=""images/causal_sequence/the_performance_causal/the_performance_causal_6.png"" class=""exp-image"">
                <div style=""font-size: 40px; font-weight: bold; color: green; border: 5px solid green; padding: 25px; border-radius: 15px; background-color: #f0fff0;"">
                    WORTH<br>$1
                </div>
            </div>
            <div class=""question-area"">
                <p style=""font-size: 20px; font-weight: bold; margin: 0;"">Was there a person in this image?</p>
            </div>","0","part2_value_learning","","the_performance_causal","6","","",""
"","","","","","html-keyboard-response","144","859207","0.0-144.0","7A003B71CB9948489B4403837AC6CDC6","019ce67a-efaf-7570-890a-c28a8678f2d6","019ce643-47c6-74a0-b3d2-7bf5651ded46","","null","
            <div class=""stimulus-container"" style=""display: flex; align-items: center; justify-content: center; gap: 30px;"">
                <img src=""images/causal_sequence/package_causal/package_causal_7.png"" class=""exp-image"">
                <div style=""font-size: 40px; font-weight: bold; color: green; border: 5px solid green; padding: 25px; border-radius: 15px; background-color: #f0fff0;"">
                    WORTH<br>$1
                </div>
            </div>
            <div class=""question-area""></div>","null","","","","","","",""
"","","","","","html-button-response","145","860345","0.0-145.0","7A003B71CB9948489B4403837AC6CDC6","019ce67a-efaf-7570-890a-c28a8678f2d6","019ce643-47c6-74a0-b3d2-7bf5651ded46","","1137","
            <div class=""stimulus-container"" style=""display: flex; align-items: center; justify-content: center; gap: 30px;"">
                <img src=""images/causal_sequence/package_causal/package_causal_7.png"" class=""exp-image"">
                <div style=""font-size: 40px; font-weight: bold; color: green; border: 5px solid green; padding: 25px; border-radius: 15px; background-color: #f0fff0;"">
                    WORTH<br>$1
                </div>
            </div>
            <div class=""question-area"">
                <p style=""font-size: 20px; font-weight: bold; margin: 0;"">Was there a person in this image?</p>
            </div>","0","part2_value_learning","","package_causal","7","","",""
"","","","","","instructions","146","864870","0.0-146.0","7A003B71CB9948489B4403837AC6CDC6","019ce67a-efaf-7570-890a-c28a8678f2d6","019ce643-47c6-74a0-b3d2-7bf5651ded46","[{""page_index"":0,""viewing_time"":4525}]","4525","","","","","","","","",""
"","","","","","instructions","147","866371","0.0-147.0","7A003B71CB9948489B4403837AC6CDC6","019ce67a-efaf-7570-890a-c28a8678f2d6","019ce643-47c6-74a0-b3d2-7bf5651ded46","[{""page_index"":0,""viewing_time"":1501}]","1501","","","","","","","","",""
"","","","","","html-keyboard-response","148","876386","0.0-148.0-0.0","7A003B71CB9948489B4403837AC6CDC6","019ce67a-efaf-7570-890a-c28a8678f2d6","019ce643-47c6-74a0-b3d2-7bf5651ded46","","null","
                        <div style=""font-family: Arial; margin-bottom: 20px;""><h3>Which image is more valuable?</h3></div>
                        <div class=""stimulus-container"" style=""display: flex; width: 1100px; justify-content: center; gap: 50px;"">
                            <img src=""images/causal_sequence/saving_a_cat_causal/saving_a_cat_causal_6.png"" class=""exp-image"">
                            <img src=""images/causal_sequence/saving_a_cat_causal/saving_a_cat_causal_4.png"" class=""exp-image"">
                        </div>","null","","","","","","",""
"","","","","","html-button-response","149","877493","0.0-148.0-1.0","7A003B71CB9948489B4403837AC6CDC6","019ce67a-efaf-7570-890a-c28a8678f2d6","019ce643-47c6-74a0-b3d2-7bf5651ded46","","1107","
                        <div style=""font-family: Arial; margin-bottom: 20px;""><h3>Which image is more valuable?</h3></div>
                        <div class=""stimulus-container"" style=""display: flex; width: 1100px; justify-content: center; gap: 50px;"">
                            <img src=""images/causal_sequence/saving_a_cat_causal/saving_a_cat_causal_6.png"" class=""exp-image"">
                            <img src=""images/causal_sequence/saving_a_cat_causal/saving_a_cat_causal_4.png"" class=""exp-image"">
                        </div>","1","part3_final_choice","","saving_a_cat_causal","","5","4","-1"
"","","","","","html-keyboard-response","150","887498","0.0-149.0-0.0","7A003B71CB9948489B4403837AC6CDC6","019ce67a-efaf-7570-890a-c28a8678f2d6","019ce643-47c6-74a0-b3d2-7bf5651ded46","","null","
                        <div style=""font-family: Arial; margin-bottom: 20px;""><h3>Which image is more valuable?</h3></div>
                        <div class=""stimulus-container"" style=""display: flex; width: 1100px; justify-content: center; gap: 50px;"">
                            <img src=""images/causal_sequence/package_causal/package_causal_6.png"" class=""exp-image"">
                            <img src=""images/causal_sequence/package_causal/package_causal_8.png"" class=""exp-image"">
                        </div>","null","","","","","","",""
"","","","","","html-button-response","151","890337","0.0-149.0-1.0","7A003B71CB9948489B4403837AC6CDC6","019ce67a-efaf-7570-890a-c28a8678f2d6","019ce643-47c6-74a0-b3d2-7bf5651ded46","","2838","
                        <div style=""font-family: Arial; margin-bottom: 20px;""><h3>Which image is more valuable?</h3></div>
                        <div class=""stimulus-container"" style=""display: flex; width: 1100px; justify-content: center; gap: 50px;"">
                            <img src=""images/causal_sequence/package_causal/package_causal_6.png"" class=""exp-image"">
                            <img src=""images/causal_sequence/package_causal/package_causal_8.png"" class=""exp-image"">
                        </div>","1","part3_final_choice","","package_causal","","7","8","1"
"","","","","","html-keyboard-response","152","900343","0.0-150.0-0.0","7A003B71CB9948489B4403837AC6CDC6","019ce67a-efaf-7570-890a-c28a8678f2d6","019ce643-47c6-74a0-b3d2-7bf5651ded46","","null","
                        <div style=""font-family: Arial; margin-bottom: 20px;""><h3>Which image is more valuable?</h3></div>
                        <div class=""stimulus-container"" style=""display: flex; width: 1100px; justify-content: center; gap: 50px;"">
                            <img src=""images/causal_sequence/coin_causal/coin_causal_8.png"" class=""exp-image"">
                            <img src=""images/causal_sequence/coin_causal/coin_causal_6.png"" class=""exp-image"">
                        </div>","null","","","","","","",""
"","","","","","html-button-response","153","900985","0.0-150.0-1.0","7A003B71CB9948489B4403837AC6CDC6","019ce67a-efaf-7570-890a-c28a8678f2d6","019ce643-47c6-74a0-b3d2-7bf5651ded46","","642","
                        <div style=""font-family: Arial; margin-bottom: 20px;""><h3>Which image is more valuable?</h3></div>
                        <div class=""stimulus-container"" style=""display: flex; width: 1100px; justify-content: center; gap: 50px;"">
                            <img src=""images/causal_sequence/coin_causal/coin_causal_8.png"" class=""exp-image"">
                            <img src=""images/causal_sequence/coin_causal/coin_causal_6.png"" class=""exp-image"">
                        </div>","1","part3_final_choice","","coin_causal","","7","6","-1"
"","","","","","html-keyboard-response","154","910994","0.0-151.0-0.0","7A003B71CB9948489B4403837AC6CDC6","019ce67a-efaf-7570-890a-c28a8678f2d6","019ce643-47c6-74a0-b3d2-7bf5651ded46","","null","
                        <div style=""font-family: Arial; margin-bottom: 20px;""><h3>Which image is more valuable?</h3></div>
                        <div class=""stimulus-container"" style=""display: flex; width: 1100px; justify-content: center; gap: 50px;"">
                            <img src=""images/causal_sequence/the_performance_causal/the_performance_causal_5.png"" class=""exp-image"">
                            <img src=""images/causal_sequence/the_performance_causal/the_performance_causal_7.png"" class=""exp-image"">
                        </div>","null","","","","","","",""
"","","","","","html-button-response","155","911909","0.0-151.0-1.0","7A003B71CB9948489B4403837AC6CDC6","019ce67a-efaf-7570-890a-c28a8678f2d6","019ce643-47c6-74a0-b3d2-7bf5651ded46","","914","
                        <div style=""font-family: Arial; margin-bottom: 20px;""><h3>Which image is more valuable?</h3></div>
                        <div class=""stimulus-container"" style=""display: flex; width: 1100px; justify-content: center; gap: 50px;"">
                            <img src=""images/causal_sequence/the_performance_causal/the_performance_causal_5.png"" class=""exp-image"">
                            <img src=""images/causal_sequence/the_performance_causal/the_performance_causal_7.png"" class=""exp-image"">
                        </div>","0","part3_final_choice","","the_performance_causal","","6","5","-1"
"","","","","","html-keyboard-response","156","921979","0.0-152.0-0.0","7A003B71CB9948489B4403837AC6CDC6","019ce67a-efaf-7570-890a-c28a8678f2d6","019ce643-47c6-74a0-b3d2-7bf5651ded46","","null","
                        <div style=""font-family: Arial; margin-bottom: 20px;""><h3>Which image is more valuable?</h3></div>
                        <div class=""stimulus-container"" style=""display: flex; width: 1100px; justify-content: center; gap: 50px;"">
                            <img src=""images/causal_sequence/dog_causal/dog_causal_4.png"" class=""exp-image"">
                            <img src=""images/causal_sequence/dog_causal/dog_causal_6.png"" class=""exp-image"">
                        </div>","null","","","","","","",""
"","","","","","html-button-response","157","923089","0.0-152.0-1.0","7A003B71CB9948489B4403837AC6CDC6","019ce67a-efaf-7570-890a-c28a8678f2d6","019ce643-47c6-74a0-b3d2-7bf5651ded46","","1109","
                        <div style=""font-family: Arial; margin-bottom: 20px;""><h3>Which image is more valuable?</h3></div>
                        <div class=""stimulus-container"" style=""display: flex; width: 1100px; justify-content: center; gap: 50px;"">
                            <img src=""images/causal_sequence/dog_causal/dog_causal_4.png"" class=""exp-image"">
                            <img src=""images/causal_sequence/dog_causal/dog_causal_6.png"" class=""exp-image"">
                        </div>","1","part3_final_choice","","dog_causal","","5","6","1"
"","","","","","html-keyboard-response","158","933104","0.0-153.0-0.0","7A003B71CB9948489B4403837AC6CDC6","019ce67a-efaf-7570-890a-c28a8678f2d6","019ce643-47c6-74a0-b3d2-7bf5651ded46","","null","
                        <div style=""font-family: Arial; margin-bottom: 20px;""><h3>Which image is more valuable?</h3></div>
                        <div class=""stimulus-container"" style=""display: flex; width: 1100px; justify-content: center; gap: 50px;"">
                            <img src=""images/causal_sequence/museum_causal/museum_causal_8.png"" class=""exp-image"">
                            <img src=""images/causal_sequence/museum_causal/museum_causal_6.png"" class=""exp-image"">
                        </div>","null","","","","","","",""
"","","","","","html-button-response","159","934558","0.0-153.0-1.0","7A003B71CB9948489B4403837AC6CDC6","019ce67a-efaf-7570-890a-c28a8678f2d6","019ce643-47c6-74a0-b3d2-7bf5651ded46","","1453","
                        <div style=""font-family: Arial; margin-bottom: 20px;""><h3>Which image is more valuable?</h3></div>
                        <div class=""stimulus-container"" style=""display: flex; width: 1100px; justify-content: center; gap: 50px;"">
                            <img src=""images/causal_sequence/museum_causal/museum_causal_8.png"" class=""exp-image"">
                            <img src=""images/causal_sequence/museum_causal/museum_causal_6.png"" class=""exp-image"">
                        </div>","1","part3_final_choice","","museum_causal","","7","6","-1"
"","","","","","survey-text","160","990504","0.0-154.0","7A003B71CB9948489B4403837AC6CDC6","019ce67a-efaf-7570-890a-c28a8678f2d6","019ce643-47c6-74a0-b3d2-7bf5651ded46","","55913","","{""gender"":""MALE"",""age"":""28"",""decision_strategy"":""thematic similarity to the valuable images"",""consistency_check"":""i used the same logic""}","demographics_and_strategy","","","","","",""
"","","","","","instructions","161","994506","0.0-155.0","7A003B71CB9948489B4403837AC6CDC6","019ce67a-efaf-7570-890a-c28a8678f2d6","019ce643-47c6-74a0-b3d2-7bf5651ded46","[{""page_index"":0,""viewing_time"":4002}]","4002","","","","","","","","",""
