"success","timeout","failed_images","failed_audio","failed_video","trial_type","trial_index","time_elapsed","internal_node_id","subject_id","study_id","session_id","view_history","rt","stimulus","response","task","image_index","folder","sequence_type","presentation_order","valuable_image_index","reward_type","distance_from_x","target_X","chosen_image_index","is_x_plus_dist","correct_choice"
"true","false","[]","[]","[]","preload","0","2733","0.0-0.0","42EF7CD1C104410CA70620360CE44FC0","019cfa86-217f-7005-8347-9a846428b20b","019cfa3a-388e-72ab-ad58-bdeb258f96cd","","","","","","","","","","","","","","","",""
"","","","","","instructions","1","12178","0.0-1.0","42EF7CD1C104410CA70620360CE44FC0","019cfa86-217f-7005-8347-9a846428b20b","019cfa3a-388e-72ab-ad58-bdeb258f96cd","[{""page_index"":0,""viewing_time"":9445}]","9445","","","","","","","","","","","","","",""
"","","","","","instructions","2","16628","0.0-2.0","42EF7CD1C104410CA70620360CE44FC0","019cfa86-217f-7005-8347-9a846428b20b","019cfa3a-388e-72ab-ad58-bdeb258f96cd","[{""page_index"":0,""viewing_time"":4448}]","4449","","","","","","","","","","","","","",""
"true","","","","","fullscreen","3","20245","0.0-3.0","42EF7CD1C104410CA70620360CE44FC0","019cfa86-217f-7005-8347-9a846428b20b","019cfa3a-388e-72ab-ad58-bdeb258f96cd","","2613","","","","","","","","","","","","","",""
"","","","","","instructions","4","31209","0.0-4.0","42EF7CD1C104410CA70620360CE44FC0","019cfa86-217f-7005-8347-9a846428b20b","019cfa3a-388e-72ab-ad58-bdeb258f96cd","[{""page_index"":0,""viewing_time"":10963}]","10964","","","","","","","","","","","","","",""
"","","","","","instructions","5","39060","0.0-5.0","42EF7CD1C104410CA70620360CE44FC0","019cfa86-217f-7005-8347-9a846428b20b","019cfa3a-388e-72ab-ad58-bdeb258f96cd","[{""page_index"":0,""viewing_time"":7849}]","7850","","","","","","","","","","","","","",""
"","","","","","html-keyboard-response","6","43064","0.0-6.0","42EF7CD1C104410CA70620360CE44FC0","019cfa86-217f-7005-8347-9a846428b20b","019cfa3a-388e-72ab-ad58-bdeb258f96cd","","null","
                <div class=""stimulus-container"">
                    <img src=""images/instructions/movie_1.png"" class=""exp-image"">
                    <div class=""question-area""></div> 
                </div>","null","","","","","","","","","","","",""
"","","","","","html-button-response","7","46067","0.0-7.0","42EF7CD1C104410CA70620360CE44FC0","019cfa86-217f-7005-8347-9a846428b20b","019cfa3a-388e-72ab-ad58-bdeb258f96cd","","null","
                <div class=""stimulus-container"">
                    <img src=""images/instructions/movie_1.png"" class=""exp-image"">
                    <div class=""question-area"">
                        <p style=""font-size: 20px; font-weight: bold; margin: 0;"">Was there a person in this image?</p>
                    </div>
                </div>","null","example_question","1","","","","","","","","","",""
"","","","","","html-keyboard-response","8","50070","0.0-8.0","42EF7CD1C104410CA70620360CE44FC0","019cfa86-217f-7005-8347-9a846428b20b","019cfa3a-388e-72ab-ad58-bdeb258f96cd","","null","
                <div class=""stimulus-container"">
                    <img src=""images/instructions/movie_2.png"" class=""exp-image"">
                    <div class=""question-area""></div> 
                </div>","null","","","","","","","","","","","",""
"","","","","","html-button-response","9","51294","0.0-9.0","42EF7CD1C104410CA70620360CE44FC0","019cfa86-217f-7005-8347-9a846428b20b","019cfa3a-388e-72ab-ad58-bdeb258f96cd","","1222","
                <div class=""stimulus-container"">
                    <img src=""images/instructions/movie_2.png"" class=""exp-image"">
                    <div class=""question-area"">
                        <p style=""font-size: 20px; font-weight: bold; margin: 0;"">Was there a person in this image?</p>
                    </div>
                </div>","1","example_question","2","","","","","","","","","",""
"","","","","","html-keyboard-response","10","55297","0.0-10.0","42EF7CD1C104410CA70620360CE44FC0","019cfa86-217f-7005-8347-9a846428b20b","019cfa3a-388e-72ab-ad58-bdeb258f96cd","","null","
                <div class=""stimulus-container"">
                    <img src=""images/instructions/movie_3.png"" class=""exp-image"">
                    <div class=""question-area""></div> 
                </div>","null","","","","","","","","","","","",""
"","","","","","html-button-response","11","56193","0.0-11.0","42EF7CD1C104410CA70620360CE44FC0","019cfa86-217f-7005-8347-9a846428b20b","019cfa3a-388e-72ab-ad58-bdeb258f96cd","","895","
                <div class=""stimulus-container"">
                    <img src=""images/instructions/movie_3.png"" class=""exp-image"">
                    <div class=""question-area"">
                        <p style=""font-size: 20px; font-weight: bold; margin: 0;"">Was there a person in this image?</p>
                    </div>
                </div>","0","example_question","3","","","","","","","","","",""
"","","","","","html-keyboard-response","12","60197","0.0-12.0","42EF7CD1C104410CA70620360CE44FC0","019cfa86-217f-7005-8347-9a846428b20b","019cfa3a-388e-72ab-ad58-bdeb258f96cd","","null","
                <div class=""stimulus-container"">
                    <img src=""images/instructions/movie_4.png"" class=""exp-image"">
                    <div class=""question-area""></div> 
                </div>","null","","","","","","","","","","","",""
"","","","","","html-button-response","13","60677","0.0-13.0","42EF7CD1C104410CA70620360CE44FC0","019cfa86-217f-7005-8347-9a846428b20b","019cfa3a-388e-72ab-ad58-bdeb258f96cd","","478","
                <div class=""stimulus-container"">
                    <img src=""images/instructions/movie_4.png"" class=""exp-image"">
                    <div class=""question-area"">
                        <p style=""font-size: 20px; font-weight: bold; margin: 0;"">Was there a person in this image?</p>
                    </div>
                </div>","0","example_question","4","","","","","","","","","",""
"","","","","","instructions","14","62994","0.0-14.0","42EF7CD1C104410CA70620360CE44FC0","019cfa86-217f-7005-8347-9a846428b20b","019cfa3a-388e-72ab-ad58-bdeb258f96cd","[{""page_index"":0,""viewing_time"":2316}]","2317","","","","","","","","","","","","","",""
"","","","","","instructions","15","71844","0.0-15.0","42EF7CD1C104410CA70620360CE44FC0","019cfa86-217f-7005-8347-9a846428b20b","019cfa3a-388e-72ab-ad58-bdeb258f96cd","[{""page_index"":0,""viewing_time"":8849}]","8849","","","","","","","","","","","","","",""
"","","","","","html-keyboard-response","16","76846","0.0-16.0","42EF7CD1C104410CA70620360CE44FC0","019cfa86-217f-7005-8347-9a846428b20b","019cfa3a-388e-72ab-ad58-bdeb258f96cd","","null","<div style=""background-color: white; width: 100vw; height: 100vh;""></div>","null","","","","","","","","","","","",""
"","","","","","html-keyboard-response","17","77849","0.0-17.0","42EF7CD1C104410CA70620360CE44FC0","019cfa86-217f-7005-8347-9a846428b20b","019cfa3a-388e-72ab-ad58-bdeb258f96cd","","null","
                <div class=""stimulus-container"">
                    <img src=""images/semantic_sequence/exploring_nature_semantic/exploring_nature_semantic_1.png"" class=""exp-image"">
                    <div class=""question-area""></div> 
                </div>","null","","","","","","","","","","","",""
"","","","","","html-button-response","18","79177","0.0-18.0","42EF7CD1C104410CA70620360CE44FC0","019cfa86-217f-7005-8347-9a846428b20b","019cfa3a-388e-72ab-ad58-bdeb258f96cd","","1326","
                <div class=""stimulus-container"">
                    <img src=""images/semantic_sequence/exploring_nature_semantic/exploring_nature_semantic_1.png"" class=""exp-image"">
                    <div class=""question-area"">
                        <p style=""font-size: 20px; font-weight: bold; margin: 0;"">Is there a person in this image?</p>
                    </div>
                </div>","0","main_experiment_trial","1","exploring_nature_semantic","semantic_sequence","chronological","","","","","","",""
"","","","","","html-keyboard-response","19","80180","0.0-19.0","42EF7CD1C104410CA70620360CE44FC0","019cfa86-217f-7005-8347-9a846428b20b","019cfa3a-388e-72ab-ad58-bdeb258f96cd","","null","
                <div class=""stimulus-container"">
                    <img src=""images/semantic_sequence/exploring_nature_semantic/exploring_nature_semantic_2.png"" class=""exp-image"">
                    <div class=""question-area""></div> 
                </div>","null","","","","","","","","","","","",""
"","","","","","html-button-response","20","80877","0.0-20.0","42EF7CD1C104410CA70620360CE44FC0","019cfa86-217f-7005-8347-9a846428b20b","019cfa3a-388e-72ab-ad58-bdeb258f96cd","","695","
                <div class=""stimulus-container"">
                    <img src=""images/semantic_sequence/exploring_nature_semantic/exploring_nature_semantic_2.png"" class=""exp-image"">
                    <div class=""question-area"">
                        <p style=""font-size: 20px; font-weight: bold; margin: 0;"">Is there a person in this image?</p>
                    </div>
                </div>","0","main_experiment_trial","2","exploring_nature_semantic","semantic_sequence","chronological","","","","","","",""
"","","","","","html-keyboard-response","21","81878","0.0-21.0","42EF7CD1C104410CA70620360CE44FC0","019cfa86-217f-7005-8347-9a846428b20b","019cfa3a-388e-72ab-ad58-bdeb258f96cd","","null","
                <div class=""stimulus-container"">
                    <img src=""images/semantic_sequence/exploring_nature_semantic/exploring_nature_semantic_3.png"" class=""exp-image"">
                    <div class=""question-area""></div> 
                </div>","null","","","","","","","","","","","",""
"","","","","","html-button-response","22","82610","0.0-22.0","42EF7CD1C104410CA70620360CE44FC0","019cfa86-217f-7005-8347-9a846428b20b","019cfa3a-388e-72ab-ad58-bdeb258f96cd","","730","
                <div class=""stimulus-container"">
                    <img src=""images/semantic_sequence/exploring_nature_semantic/exploring_nature_semantic_3.png"" class=""exp-image"">
                    <div class=""question-area"">
                        <p style=""font-size: 20px; font-weight: bold; margin: 0;"">Is there a person in this image?</p>
                    </div>
                </div>","0","main_experiment_trial","3","exploring_nature_semantic","semantic_sequence","chronological","","","","","","",""
"","","","","","html-keyboard-response","23","83612","0.0-23.0","42EF7CD1C104410CA70620360CE44FC0","019cfa86-217f-7005-8347-9a846428b20b","019cfa3a-388e-72ab-ad58-bdeb258f96cd","","null","
                <div class=""stimulus-container"">
                    <img src=""images/semantic_sequence/exploring_nature_semantic/exploring_nature_semantic_4.png"" class=""exp-image"">
                    <div class=""question-area""></div> 
                </div>","null","","","","","","","","","","","",""
"","","","","","html-button-response","24","84427","0.0-24.0","42EF7CD1C104410CA70620360CE44FC0","019cfa86-217f-7005-8347-9a846428b20b","019cfa3a-388e-72ab-ad58-bdeb258f96cd","","814","
                <div class=""stimulus-container"">
                    <img src=""images/semantic_sequence/exploring_nature_semantic/exploring_nature_semantic_4.png"" class=""exp-image"">
                    <div class=""question-area"">
                        <p style=""font-size: 20px; font-weight: bold; margin: 0;"">Is there a person in this image?</p>
                    </div>
                </div>","0","main_experiment_trial","4","exploring_nature_semantic","semantic_sequence","chronological","","","","","","",""
"","","","","","html-keyboard-response","25","85430","0.0-25.0","42EF7CD1C104410CA70620360CE44FC0","019cfa86-217f-7005-8347-9a846428b20b","019cfa3a-388e-72ab-ad58-bdeb258f96cd","","null","
                <div class=""stimulus-container"">
                    <img src=""images/semantic_sequence/exploring_nature_semantic/exploring_nature_semantic_5.png"" class=""exp-image"">
                    <div class=""question-area""></div> 
                </div>","null","","","","","","","","","","","",""
"","","","","","html-button-response","26","86111","0.0-26.0","42EF7CD1C104410CA70620360CE44FC0","019cfa86-217f-7005-8347-9a846428b20b","019cfa3a-388e-72ab-ad58-bdeb258f96cd","","679","
                <div class=""stimulus-container"">
                    <img src=""images/semantic_sequence/exploring_nature_semantic/exploring_nature_semantic_5.png"" class=""exp-image"">
                    <div class=""question-area"">
                        <p style=""font-size: 20px; font-weight: bold; margin: 0;"">Is there a person in this image?</p>
                    </div>
                </div>","0","main_experiment_trial","5","exploring_nature_semantic","semantic_sequence","chronological","","","","","","",""
"","","","","","html-keyboard-response","27","87114","0.0-27.0","42EF7CD1C104410CA70620360CE44FC0","019cfa86-217f-7005-8347-9a846428b20b","019cfa3a-388e-72ab-ad58-bdeb258f96cd","","null","
                <div class=""stimulus-container"">
                    <img src=""images/semantic_sequence/exploring_nature_semantic/exploring_nature_semantic_6.png"" class=""exp-image"">
                    <div class=""question-area""></div> 
                </div>","null","","","","","","","","","","","",""
"","","","","","html-button-response","28","87744","0.0-28.0","42EF7CD1C104410CA70620360CE44FC0","019cfa86-217f-7005-8347-9a846428b20b","019cfa3a-388e-72ab-ad58-bdeb258f96cd","","629","
                <div class=""stimulus-container"">
                    <img src=""images/semantic_sequence/exploring_nature_semantic/exploring_nature_semantic_6.png"" class=""exp-image"">
                    <div class=""question-area"">
                        <p style=""font-size: 20px; font-weight: bold; margin: 0;"">Is there a person in this image?</p>
                    </div>
                </div>","0","main_experiment_trial","6","exploring_nature_semantic","semantic_sequence","chronological","","","","","","",""
"","","","","","html-keyboard-response","29","88747","0.0-29.0","42EF7CD1C104410CA70620360CE44FC0","019cfa86-217f-7005-8347-9a846428b20b","019cfa3a-388e-72ab-ad58-bdeb258f96cd","","null","
                <div class=""stimulus-container"">
                    <img src=""images/semantic_sequence/exploring_nature_semantic/exploring_nature_semantic_7.png"" class=""exp-image"">
                    <div class=""question-area""></div> 
                </div>","null","","","","","","","","","","","",""
"","","","","","html-button-response","30","89243","0.0-30.0","42EF7CD1C104410CA70620360CE44FC0","019cfa86-217f-7005-8347-9a846428b20b","019cfa3a-388e-72ab-ad58-bdeb258f96cd","","495","
                <div class=""stimulus-container"">
                    <img src=""images/semantic_sequence/exploring_nature_semantic/exploring_nature_semantic_7.png"" class=""exp-image"">
                    <div class=""question-area"">
                        <p style=""font-size: 20px; font-weight: bold; margin: 0;"">Is there a person in this image?</p>
                    </div>
                </div>","0","main_experiment_trial","7","exploring_nature_semantic","semantic_sequence","chronological","","","","","","",""
"","","","","","html-keyboard-response","31","90246","0.0-31.0","42EF7CD1C104410CA70620360CE44FC0","019cfa86-217f-7005-8347-9a846428b20b","019cfa3a-388e-72ab-ad58-bdeb258f96cd","","null","
                <div class=""stimulus-container"">
                    <img src=""images/semantic_sequence/exploring_nature_semantic/exploring_nature_semantic_8.png"" class=""exp-image"">
                    <div class=""question-area""></div> 
                </div>","null","","","","","","","","","","","",""
"","","","","","html-button-response","32","90960","0.0-32.0","42EF7CD1C104410CA70620360CE44FC0","019cfa86-217f-7005-8347-9a846428b20b","019cfa3a-388e-72ab-ad58-bdeb258f96cd","","713","
                <div class=""stimulus-container"">
                    <img src=""images/semantic_sequence/exploring_nature_semantic/exploring_nature_semantic_8.png"" class=""exp-image"">
                    <div class=""question-area"">
                        <p style=""font-size: 20px; font-weight: bold; margin: 0;"">Is there a person in this image?</p>
                    </div>
                </div>","0","main_experiment_trial","8","exploring_nature_semantic","semantic_sequence","chronological","","","","","","",""
"","","","","","html-keyboard-response","33","91963","0.0-33.0","42EF7CD1C104410CA70620360CE44FC0","019cfa86-217f-7005-8347-9a846428b20b","019cfa3a-388e-72ab-ad58-bdeb258f96cd","","null","
                <div class=""stimulus-container"">
                    <img src=""images/semantic_sequence/exploring_nature_semantic/exploring_nature_semantic_9.png"" class=""exp-image"">
                    <div class=""question-area""></div> 
                </div>","null","","","","","","","","","","","",""
"","","","","","html-button-response","34","92411","0.0-34.0","42EF7CD1C104410CA70620360CE44FC0","019cfa86-217f-7005-8347-9a846428b20b","019cfa3a-388e-72ab-ad58-bdeb258f96cd","","446","
                <div class=""stimulus-container"">
                    <img src=""images/semantic_sequence/exploring_nature_semantic/exploring_nature_semantic_9.png"" class=""exp-image"">
                    <div class=""question-area"">
                        <p style=""font-size: 20px; font-weight: bold; margin: 0;"">Is there a person in this image?</p>
                    </div>
                </div>","0","main_experiment_trial","9","exploring_nature_semantic","semantic_sequence","chronological","","","","","","",""
"","","","","","html-keyboard-response","35","93413","0.0-35.0","42EF7CD1C104410CA70620360CE44FC0","019cfa86-217f-7005-8347-9a846428b20b","019cfa3a-388e-72ab-ad58-bdeb258f96cd","","null","
                <div class=""stimulus-container"">
                    <img src=""images/semantic_sequence/exploring_nature_semantic/exploring_nature_semantic_ten.png"" class=""exp-image"">
                    <div class=""question-area""></div> 
                </div>","null","","","","","","","","","","","",""
"","","","","","html-button-response","36","93943","0.0-36.0","42EF7CD1C104410CA70620360CE44FC0","019cfa86-217f-7005-8347-9a846428b20b","019cfa3a-388e-72ab-ad58-bdeb258f96cd","","528","
                <div class=""stimulus-container"">
                    <img src=""images/semantic_sequence/exploring_nature_semantic/exploring_nature_semantic_ten.png"" class=""exp-image"">
                    <div class=""question-area"">
                        <p style=""font-size: 20px; font-weight: bold; margin: 0;"">Is there a person in this image?</p>
                    </div>
                </div>","0","main_experiment_trial","ten","exploring_nature_semantic","semantic_sequence","chronological","","","","","","",""
"","","","","","html-keyboard-response","37","98946","0.0-37.0","42EF7CD1C104410CA70620360CE44FC0","019cfa86-217f-7005-8347-9a846428b20b","019cfa3a-388e-72ab-ad58-bdeb258f96cd","","null","<div style=""background-color: white; width: 100vw; height: 100vh;""></div>","null","","","","","","","","","","","",""
"","","","","","html-keyboard-response","38","99948","0.0-38.0","42EF7CD1C104410CA70620360CE44FC0","019cfa86-217f-7005-8347-9a846428b20b","019cfa3a-388e-72ab-ad58-bdeb258f96cd","","null","
                <div class=""stimulus-container"">
                    <img src=""images/semantic_sequence/market_semantic/market_semantic_1.png"" class=""exp-image"">
                    <div class=""question-area""></div> 
                </div>","null","","","","","","","","","","","",""
"","","","","","html-button-response","39","100993","0.0-39.0","42EF7CD1C104410CA70620360CE44FC0","019cfa86-217f-7005-8347-9a846428b20b","019cfa3a-388e-72ab-ad58-bdeb258f96cd","","1043","
                <div class=""stimulus-container"">
                    <img src=""images/semantic_sequence/market_semantic/market_semantic_1.png"" class=""exp-image"">
                    <div class=""question-area"">
                        <p style=""font-size: 20px; font-weight: bold; margin: 0;"">Is there a person in this image?</p>
                    </div>
                </div>","1","main_experiment_trial","1","market_semantic","semantic_sequence","chronological","","","","","","",""
"","","","","","html-keyboard-response","40","101996","0.0-40.0","42EF7CD1C104410CA70620360CE44FC0","019cfa86-217f-7005-8347-9a846428b20b","019cfa3a-388e-72ab-ad58-bdeb258f96cd","","null","
                <div class=""stimulus-container"">
                    <img src=""images/semantic_sequence/market_semantic/market_semantic_2.png"" class=""exp-image"">
                    <div class=""question-area""></div> 
                </div>","null","","","","","","","","","","","",""
"","","","","","html-button-response","41","102410","0.0-41.0","42EF7CD1C104410CA70620360CE44FC0","019cfa86-217f-7005-8347-9a846428b20b","019cfa3a-388e-72ab-ad58-bdeb258f96cd","","413","
                <div class=""stimulus-container"">
                    <img src=""images/semantic_sequence/market_semantic/market_semantic_2.png"" class=""exp-image"">
                    <div class=""question-area"">
                        <p style=""font-size: 20px; font-weight: bold; margin: 0;"">Is there a person in this image?</p>
                    </div>
                </div>","1","main_experiment_trial","2","market_semantic","semantic_sequence","chronological","","","","","","",""
"","","","","","html-keyboard-response","42","103413","0.0-42.0","42EF7CD1C104410CA70620360CE44FC0","019cfa86-217f-7005-8347-9a846428b20b","019cfa3a-388e-72ab-ad58-bdeb258f96cd","","null","
                <div class=""stimulus-container"">
                    <img src=""images/semantic_sequence/market_semantic/market_semantic_3.png"" class=""exp-image"">
                    <div class=""question-area""></div> 
                </div>","null","","","","","","","","","","","",""
"","","","","","html-button-response","43","103876","0.0-43.0","42EF7CD1C104410CA70620360CE44FC0","019cfa86-217f-7005-8347-9a846428b20b","019cfa3a-388e-72ab-ad58-bdeb258f96cd","","461","
                <div class=""stimulus-container"">
                    <img src=""images/semantic_sequence/market_semantic/market_semantic_3.png"" class=""exp-image"">
                    <div class=""question-area"">
                        <p style=""font-size: 20px; font-weight: bold; margin: 0;"">Is there a person in this image?</p>
                    </div>
                </div>","1","main_experiment_trial","3","market_semantic","semantic_sequence","chronological","","","","","","",""
"","","","","","html-keyboard-response","44","104878","0.0-44.0","42EF7CD1C104410CA70620360CE44FC0","019cfa86-217f-7005-8347-9a846428b20b","019cfa3a-388e-72ab-ad58-bdeb258f96cd","","null","
                <div class=""stimulus-container"">
                    <img src=""images/semantic_sequence/market_semantic/market_semantic_4.png"" class=""exp-image"">
                    <div class=""question-area""></div> 
                </div>","null","","","","","","","","","","","",""
"","","","","","html-button-response","45","105326","0.0-45.0","42EF7CD1C104410CA70620360CE44FC0","019cfa86-217f-7005-8347-9a846428b20b","019cfa3a-388e-72ab-ad58-bdeb258f96cd","","448","
                <div class=""stimulus-container"">
                    <img src=""images/semantic_sequence/market_semantic/market_semantic_4.png"" class=""exp-image"">
                    <div class=""question-area"">
                        <p style=""font-size: 20px; font-weight: bold; margin: 0;"">Is there a person in this image?</p>
                    </div>
                </div>","0","main_experiment_trial","4","market_semantic","semantic_sequence","chronological","","","","","","",""
"","","","","","html-keyboard-response","46","106329","0.0-46.0","42EF7CD1C104410CA70620360CE44FC0","019cfa86-217f-7005-8347-9a846428b20b","019cfa3a-388e-72ab-ad58-bdeb258f96cd","","null","
                <div class=""stimulus-container"">
                    <img src=""images/semantic_sequence/market_semantic/market_semantic_5.png"" class=""exp-image"">
                    <div class=""question-area""></div> 
                </div>","null","","","","","","","","","","","",""
"","","","","","html-button-response","47","107044","0.0-47.0","42EF7CD1C104410CA70620360CE44FC0","019cfa86-217f-7005-8347-9a846428b20b","019cfa3a-388e-72ab-ad58-bdeb258f96cd","","713","
                <div class=""stimulus-container"">
                    <img src=""images/semantic_sequence/market_semantic/market_semantic_5.png"" class=""exp-image"">
                    <div class=""question-area"">
                        <p style=""font-size: 20px; font-weight: bold; margin: 0;"">Is there a person in this image?</p>
                    </div>
                </div>","1","main_experiment_trial","5","market_semantic","semantic_sequence","chronological","","","","","","",""
"","","","","","html-keyboard-response","48","108046","0.0-48.0","42EF7CD1C104410CA70620360CE44FC0","019cfa86-217f-7005-8347-9a846428b20b","019cfa3a-388e-72ab-ad58-bdeb258f96cd","","null","
                <div class=""stimulus-container"">
                    <img src=""images/semantic_sequence/market_semantic/market_semantic_6.png"" class=""exp-image"">
                    <div class=""question-area""></div> 
                </div>","null","","","","","","","","","","","",""
"","","","","","html-button-response","49","108710","0.0-49.0","42EF7CD1C104410CA70620360CE44FC0","019cfa86-217f-7005-8347-9a846428b20b","019cfa3a-388e-72ab-ad58-bdeb258f96cd","","662","
                <div class=""stimulus-container"">
                    <img src=""images/semantic_sequence/market_semantic/market_semantic_6.png"" class=""exp-image"">
                    <div class=""question-area"">
                        <p style=""font-size: 20px; font-weight: bold; margin: 0;"">Is there a person in this image?</p>
                    </div>
                </div>","1","main_experiment_trial","6","market_semantic","semantic_sequence","chronological","","","","","","",""
"","","","","","html-keyboard-response","50","109713","0.0-50.0","42EF7CD1C104410CA70620360CE44FC0","019cfa86-217f-7005-8347-9a846428b20b","019cfa3a-388e-72ab-ad58-bdeb258f96cd","","null","
                <div class=""stimulus-container"">
                    <img src=""images/semantic_sequence/market_semantic/market_semantic_7.png"" class=""exp-image"">
                    <div class=""question-area""></div> 
                </div>","null","","","","","","","","","","","",""
"","","","","","html-button-response","51","110310","0.0-51.0","42EF7CD1C104410CA70620360CE44FC0","019cfa86-217f-7005-8347-9a846428b20b","019cfa3a-388e-72ab-ad58-bdeb258f96cd","","595","
                <div class=""stimulus-container"">
                    <img src=""images/semantic_sequence/market_semantic/market_semantic_7.png"" class=""exp-image"">
                    <div class=""question-area"">
                        <p style=""font-size: 20px; font-weight: bold; margin: 0;"">Is there a person in this image?</p>
                    </div>
                </div>","0","main_experiment_trial","7","market_semantic","semantic_sequence","chronological","","","","","","",""
"","","","","","html-keyboard-response","52","111312","0.0-52.0","42EF7CD1C104410CA70620360CE44FC0","019cfa86-217f-7005-8347-9a846428b20b","019cfa3a-388e-72ab-ad58-bdeb258f96cd","","null","
                <div class=""stimulus-container"">
                    <img src=""images/semantic_sequence/market_semantic/market_semantic_8.png"" class=""exp-image"">
                    <div class=""question-area""></div> 
                </div>","null","","","","","","","","","","","",""
"","","","","","html-button-response","53","112143","0.0-53.0","42EF7CD1C104410CA70620360CE44FC0","019cfa86-217f-7005-8347-9a846428b20b","019cfa3a-388e-72ab-ad58-bdeb258f96cd","","829","
                <div class=""stimulus-container"">
                    <img src=""images/semantic_sequence/market_semantic/market_semantic_8.png"" class=""exp-image"">
                    <div class=""question-area"">
                        <p style=""font-size: 20px; font-weight: bold; margin: 0;"">Is there a person in this image?</p>
                    </div>
                </div>","1","main_experiment_trial","8","market_semantic","semantic_sequence","chronological","","","","","","",""
"","","","","","html-keyboard-response","54","113146","0.0-54.0","42EF7CD1C104410CA70620360CE44FC0","019cfa86-217f-7005-8347-9a846428b20b","019cfa3a-388e-72ab-ad58-bdeb258f96cd","","null","
                <div class=""stimulus-container"">
                    <img src=""images/semantic_sequence/market_semantic/market_semantic_9.png"" class=""exp-image"">
                    <div class=""question-area""></div> 
                </div>","null","","","","","","","","","","","",""
"","","","","","html-button-response","55","113626","0.0-55.0","42EF7CD1C104410CA70620360CE44FC0","019cfa86-217f-7005-8347-9a846428b20b","019cfa3a-388e-72ab-ad58-bdeb258f96cd","","479","
                <div class=""stimulus-container"">
                    <img src=""images/semantic_sequence/market_semantic/market_semantic_9.png"" class=""exp-image"">
                    <div class=""question-area"">
                        <p style=""font-size: 20px; font-weight: bold; margin: 0;"">Is there a person in this image?</p>
                    </div>
                </div>","1","main_experiment_trial","9","market_semantic","semantic_sequence","chronological","","","","","","",""
"","","","","","html-keyboard-response","56","114629","0.0-56.0","42EF7CD1C104410CA70620360CE44FC0","019cfa86-217f-7005-8347-9a846428b20b","019cfa3a-388e-72ab-ad58-bdeb258f96cd","","null","
                <div class=""stimulus-container"">
                    <img src=""images/semantic_sequence/market_semantic/market_semantic_ten.png"" class=""exp-image"">
                    <div class=""question-area""></div> 
                </div>","null","","","","","","","","","","","",""
"","","","","","html-button-response","57","115160","0.0-57.0","42EF7CD1C104410CA70620360CE44FC0","019cfa86-217f-7005-8347-9a846428b20b","019cfa3a-388e-72ab-ad58-bdeb258f96cd","","530","
                <div class=""stimulus-container"">
                    <img src=""images/semantic_sequence/market_semantic/market_semantic_ten.png"" class=""exp-image"">
                    <div class=""question-area"">
                        <p style=""font-size: 20px; font-weight: bold; margin: 0;"">Is there a person in this image?</p>
                    </div>
                </div>","1","main_experiment_trial","ten","market_semantic","semantic_sequence","chronological","","","","","","",""
"","","","","","html-keyboard-response","58","120162","0.0-58.0","42EF7CD1C104410CA70620360CE44FC0","019cfa86-217f-7005-8347-9a846428b20b","019cfa3a-388e-72ab-ad58-bdeb258f96cd","","null","<div style=""background-color: white; width: 100vw; height: 100vh;""></div>","null","","","","","","","","","","","",""
"","","","","","html-keyboard-response","59","121165","0.0-59.0","42EF7CD1C104410CA70620360CE44FC0","019cfa86-217f-7005-8347-9a846428b20b","019cfa3a-388e-72ab-ad58-bdeb258f96cd","","null","
                <div class=""stimulus-container"">
                    <img src=""images/semantic_sequence/housework_semantic/housework_semantic_1.png"" class=""exp-image"">
                    <div class=""question-area""></div> 
                </div>","null","","","","","","","","","","","",""
"","","","","","html-button-response","60","122043","0.0-60.0","42EF7CD1C104410CA70620360CE44FC0","019cfa86-217f-7005-8347-9a846428b20b","019cfa3a-388e-72ab-ad58-bdeb258f96cd","","876","
                <div class=""stimulus-container"">
                    <img src=""images/semantic_sequence/housework_semantic/housework_semantic_1.png"" class=""exp-image"">
                    <div class=""question-area"">
                        <p style=""font-size: 20px; font-weight: bold; margin: 0;"">Is there a person in this image?</p>
                    </div>
                </div>","0","main_experiment_trial","1","housework_semantic","semantic_sequence","chronological","","","","","","",""
"","","","","","html-keyboard-response","61","123045","0.0-61.0","42EF7CD1C104410CA70620360CE44FC0","019cfa86-217f-7005-8347-9a846428b20b","019cfa3a-388e-72ab-ad58-bdeb258f96cd","","null","
                <div class=""stimulus-container"">
                    <img src=""images/semantic_sequence/housework_semantic/housework_semantic_2.png"" class=""exp-image"">
                    <div class=""question-area""></div> 
                </div>","null","","","","","","","","","","","",""
"","","","","","html-button-response","62","123477","0.0-62.0","42EF7CD1C104410CA70620360CE44FC0","019cfa86-217f-7005-8347-9a846428b20b","019cfa3a-388e-72ab-ad58-bdeb258f96cd","","430","
                <div class=""stimulus-container"">
                    <img src=""images/semantic_sequence/housework_semantic/housework_semantic_2.png"" class=""exp-image"">
                    <div class=""question-area"">
                        <p style=""font-size: 20px; font-weight: bold; margin: 0;"">Is there a person in this image?</p>
                    </div>
                </div>","0","main_experiment_trial","2","housework_semantic","semantic_sequence","chronological","","","","","","",""
"","","","","","html-keyboard-response","63","124480","0.0-63.0","42EF7CD1C104410CA70620360CE44FC0","019cfa86-217f-7005-8347-9a846428b20b","019cfa3a-388e-72ab-ad58-bdeb258f96cd","","null","
                <div class=""stimulus-container"">
                    <img src=""images/semantic_sequence/housework_semantic/housework_semantic_3.png"" class=""exp-image"">
                    <div class=""question-area""></div> 
                </div>","null","","","","","","","","","","","",""
"","","","","","html-button-response","64","124910","0.0-64.0","42EF7CD1C104410CA70620360CE44FC0","019cfa86-217f-7005-8347-9a846428b20b","019cfa3a-388e-72ab-ad58-bdeb258f96cd","","428","
                <div class=""stimulus-container"">
                    <img src=""images/semantic_sequence/housework_semantic/housework_semantic_3.png"" class=""exp-image"">
                    <div class=""question-area"">
                        <p style=""font-size: 20px; font-weight: bold; margin: 0;"">Is there a person in this image?</p>
                    </div>
                </div>","0","main_experiment_trial","3","housework_semantic","semantic_sequence","chronological","","","","","","",""
"","","","","","html-keyboard-response","65","125912","0.0-65.0","42EF7CD1C104410CA70620360CE44FC0","019cfa86-217f-7005-8347-9a846428b20b","019cfa3a-388e-72ab-ad58-bdeb258f96cd","","null","
                <div class=""stimulus-container"">
                    <img src=""images/semantic_sequence/housework_semantic/housework_semantic_4.png"" class=""exp-image"">
                    <div class=""question-area""></div> 
                </div>","null","","","","","","","","","","","",""
"","","","","","html-button-response","66","126277","0.0-66.0","42EF7CD1C104410CA70620360CE44FC0","019cfa86-217f-7005-8347-9a846428b20b","019cfa3a-388e-72ab-ad58-bdeb258f96cd","","363","
                <div class=""stimulus-container"">
                    <img src=""images/semantic_sequence/housework_semantic/housework_semantic_4.png"" class=""exp-image"">
                    <div class=""question-area"">
                        <p style=""font-size: 20px; font-weight: bold; margin: 0;"">Is there a person in this image?</p>
                    </div>
                </div>","0","main_experiment_trial","4","housework_semantic","semantic_sequence","chronological","","","","","","",""
"","","","","","html-keyboard-response","67","127280","0.0-67.0","42EF7CD1C104410CA70620360CE44FC0","019cfa86-217f-7005-8347-9a846428b20b","019cfa3a-388e-72ab-ad58-bdeb258f96cd","","null","
                <div class=""stimulus-container"">
                    <img src=""images/semantic_sequence/housework_semantic/housework_semantic_5.png"" class=""exp-image"">
                    <div class=""question-area""></div> 
                </div>","null","","","","","","","","","","","",""
"","","","","","html-button-response","68","127693","0.0-68.0","42EF7CD1C104410CA70620360CE44FC0","019cfa86-217f-7005-8347-9a846428b20b","019cfa3a-388e-72ab-ad58-bdeb258f96cd","","411","
                <div class=""stimulus-container"">
                    <img src=""images/semantic_sequence/housework_semantic/housework_semantic_5.png"" class=""exp-image"">
                    <div class=""question-area"">
                        <p style=""font-size: 20px; font-weight: bold; margin: 0;"">Is there a person in this image?</p>
                    </div>
                </div>","0","main_experiment_trial","5","housework_semantic","semantic_sequence","chronological","","","","","","",""
"","","","","","html-keyboard-response","69","128696","0.0-69.0","42EF7CD1C104410CA70620360CE44FC0","019cfa86-217f-7005-8347-9a846428b20b","019cfa3a-388e-72ab-ad58-bdeb258f96cd","","null","
                <div class=""stimulus-container"">
                    <img src=""images/semantic_sequence/housework_semantic/housework_semantic_6.png"" class=""exp-image"">
                    <div class=""question-area""></div> 
                </div>","null","","","","","","","","","","","",""
"","","","","","html-button-response","70","129060","0.0-70.0","42EF7CD1C104410CA70620360CE44FC0","019cfa86-217f-7005-8347-9a846428b20b","019cfa3a-388e-72ab-ad58-bdeb258f96cd","","362","
                <div class=""stimulus-container"">
                    <img src=""images/semantic_sequence/housework_semantic/housework_semantic_6.png"" class=""exp-image"">
                    <div class=""question-area"">
                        <p style=""font-size: 20px; font-weight: bold; margin: 0;"">Is there a person in this image?</p>
                    </div>
                </div>","0","main_experiment_trial","6","housework_semantic","semantic_sequence","chronological","","","","","","",""
"","","","","","html-keyboard-response","71","130063","0.0-71.0","42EF7CD1C104410CA70620360CE44FC0","019cfa86-217f-7005-8347-9a846428b20b","019cfa3a-388e-72ab-ad58-bdeb258f96cd","","null","
                <div class=""stimulus-container"">
                    <img src=""images/semantic_sequence/housework_semantic/housework_semantic_7.png"" class=""exp-image"">
                    <div class=""question-area""></div> 
                </div>","null","","","","","","","","","","","",""
"","","","","","html-button-response","72","130543","0.0-72.0","42EF7CD1C104410CA70620360CE44FC0","019cfa86-217f-7005-8347-9a846428b20b","019cfa3a-388e-72ab-ad58-bdeb258f96cd","","479","
                <div class=""stimulus-container"">
                    <img src=""images/semantic_sequence/housework_semantic/housework_semantic_7.png"" class=""exp-image"">
                    <div class=""question-area"">
                        <p style=""font-size: 20px; font-weight: bold; margin: 0;"">Is there a person in this image?</p>
                    </div>
                </div>","0","main_experiment_trial","7","housework_semantic","semantic_sequence","chronological","","","","","","",""
"","","","","","html-keyboard-response","73","131546","0.0-73.0","42EF7CD1C104410CA70620360CE44FC0","019cfa86-217f-7005-8347-9a846428b20b","019cfa3a-388e-72ab-ad58-bdeb258f96cd","","null","
                <div class=""stimulus-container"">
                    <img src=""images/semantic_sequence/housework_semantic/housework_semantic_8.png"" class=""exp-image"">
                    <div class=""question-area""></div> 
                </div>","null","","","","","","","","","","","",""
"","","","","","html-button-response","74","131927","0.0-74.0","42EF7CD1C104410CA70620360CE44FC0","019cfa86-217f-7005-8347-9a846428b20b","019cfa3a-388e-72ab-ad58-bdeb258f96cd","","380","
                <div class=""stimulus-container"">
                    <img src=""images/semantic_sequence/housework_semantic/housework_semantic_8.png"" class=""exp-image"">
                    <div class=""question-area"">
                        <p style=""font-size: 20px; font-weight: bold; margin: 0;"">Is there a person in this image?</p>
                    </div>
                </div>","0","main_experiment_trial","8","housework_semantic","semantic_sequence","chronological","","","","","","",""
"","","","","","html-keyboard-response","75","132929","0.0-75.0","42EF7CD1C104410CA70620360CE44FC0","019cfa86-217f-7005-8347-9a846428b20b","019cfa3a-388e-72ab-ad58-bdeb258f96cd","","null","
                <div class=""stimulus-container"">
                    <img src=""images/semantic_sequence/housework_semantic/housework_semantic_9.png"" class=""exp-image"">
                    <div class=""question-area""></div> 
                </div>","null","","","","","","","","","","","",""
"","","","","","html-button-response","76","133226","0.0-76.0","42EF7CD1C104410CA70620360CE44FC0","019cfa86-217f-7005-8347-9a846428b20b","019cfa3a-388e-72ab-ad58-bdeb258f96cd","","296","
                <div class=""stimulus-container"">
                    <img src=""images/semantic_sequence/housework_semantic/housework_semantic_9.png"" class=""exp-image"">
                    <div class=""question-area"">
                        <p style=""font-size: 20px; font-weight: bold; margin: 0;"">Is there a person in this image?</p>
                    </div>
                </div>","0","main_experiment_trial","9","housework_semantic","semantic_sequence","chronological","","","","","","",""
"","","","","","html-keyboard-response","77","134229","0.0-77.0","42EF7CD1C104410CA70620360CE44FC0","019cfa86-217f-7005-8347-9a846428b20b","019cfa3a-388e-72ab-ad58-bdeb258f96cd","","null","
                <div class=""stimulus-container"">
                    <img src=""images/semantic_sequence/housework_semantic/housework_semantic_ten.png"" class=""exp-image"">
                    <div class=""question-area""></div> 
                </div>","null","","","","","","","","","","","",""
"","","","","","html-button-response","78","135611","0.0-78.0","42EF7CD1C104410CA70620360CE44FC0","019cfa86-217f-7005-8347-9a846428b20b","019cfa3a-388e-72ab-ad58-bdeb258f96cd","","1380","
                <div class=""stimulus-container"">
                    <img src=""images/semantic_sequence/housework_semantic/housework_semantic_ten.png"" class=""exp-image"">
                    <div class=""question-area"">
                        <p style=""font-size: 20px; font-weight: bold; margin: 0;"">Is there a person in this image?</p>
                    </div>
                </div>","0","main_experiment_trial","ten","housework_semantic","semantic_sequence","chronological","","","","","","",""
"","","","","","html-keyboard-response","79","140612","0.0-79.0","42EF7CD1C104410CA70620360CE44FC0","019cfa86-217f-7005-8347-9a846428b20b","019cfa3a-388e-72ab-ad58-bdeb258f96cd","","null","<div style=""background-color: white; width: 100vw; height: 100vh;""></div>","null","","","","","","","","","","","",""
"","","","","","html-keyboard-response","80","141615","0.0-80.0","42EF7CD1C104410CA70620360CE44FC0","019cfa86-217f-7005-8347-9a846428b20b","019cfa3a-388e-72ab-ad58-bdeb258f96cd","","null","
                <div class=""stimulus-container"">
                    <img src=""images/causal_sequence/dog_causal/dog_causal_1.png"" class=""exp-image"">
                    <div class=""question-area""></div> 
                </div>","null","","","","","","","","","","","",""
"","","","","","html-button-response","81","142244","0.0-81.0","42EF7CD1C104410CA70620360CE44FC0","019cfa86-217f-7005-8347-9a846428b20b","019cfa3a-388e-72ab-ad58-bdeb258f96cd","","627","
                <div class=""stimulus-container"">
                    <img src=""images/causal_sequence/dog_causal/dog_causal_1.png"" class=""exp-image"">
                    <div class=""question-area"">
                        <p style=""font-size: 20px; font-weight: bold; margin: 0;"">Is there a person in this image?</p>
                    </div>
                </div>","0","main_experiment_trial","1","dog_causal","causal_sequence","chronological","","","","","","",""
"","","","","","html-keyboard-response","82","143246","0.0-82.0","42EF7CD1C104410CA70620360CE44FC0","019cfa86-217f-7005-8347-9a846428b20b","019cfa3a-388e-72ab-ad58-bdeb258f96cd","","null","
                <div class=""stimulus-container"">
                    <img src=""images/causal_sequence/dog_causal/dog_causal_2.png"" class=""exp-image"">
                    <div class=""question-area""></div> 
                </div>","null","","","","","","","","","","","",""
"","","","","","html-button-response","83","143693","0.0-83.0","42EF7CD1C104410CA70620360CE44FC0","019cfa86-217f-7005-8347-9a846428b20b","019cfa3a-388e-72ab-ad58-bdeb258f96cd","","445","
                <div class=""stimulus-container"">
                    <img src=""images/causal_sequence/dog_causal/dog_causal_2.png"" class=""exp-image"">
                    <div class=""question-area"">
                        <p style=""font-size: 20px; font-weight: bold; margin: 0;"">Is there a person in this image?</p>
                    </div>
                </div>","0","main_experiment_trial","2","dog_causal","causal_sequence","chronological","","","","","","",""
"","","","","","html-keyboard-response","84","144695","0.0-84.0","42EF7CD1C104410CA70620360CE44FC0","019cfa86-217f-7005-8347-9a846428b20b","019cfa3a-388e-72ab-ad58-bdeb258f96cd","","null","
                <div class=""stimulus-container"">
                    <img src=""images/causal_sequence/dog_causal/dog_causal_3.png"" class=""exp-image"">
                    <div class=""question-area""></div> 
                </div>","null","","","","","","","","","","","",""
"","","","","","html-button-response","85","145243","0.0-85.0","42EF7CD1C104410CA70620360CE44FC0","019cfa86-217f-7005-8347-9a846428b20b","019cfa3a-388e-72ab-ad58-bdeb258f96cd","","546","
                <div class=""stimulus-container"">
                    <img src=""images/causal_sequence/dog_causal/dog_causal_3.png"" class=""exp-image"">
                    <div class=""question-area"">
                        <p style=""font-size: 20px; font-weight: bold; margin: 0;"">Is there a person in this image?</p>
                    </div>
                </div>","0","main_experiment_trial","3","dog_causal","causal_sequence","chronological","","","","","","",""
"","","","","","html-keyboard-response","86","146246","0.0-86.0","42EF7CD1C104410CA70620360CE44FC0","019cfa86-217f-7005-8347-9a846428b20b","019cfa3a-388e-72ab-ad58-bdeb258f96cd","","null","
                <div class=""stimulus-container"">
                    <img src=""images/causal_sequence/dog_causal/dog_causal_4.png"" class=""exp-image"">
                    <div class=""question-area""></div> 
                </div>","null","","","","","","","","","","","",""
"","","","","","html-button-response","87","146693","0.0-87.0","42EF7CD1C104410CA70620360CE44FC0","019cfa86-217f-7005-8347-9a846428b20b","019cfa3a-388e-72ab-ad58-bdeb258f96cd","","445","
                <div class=""stimulus-container"">
                    <img src=""images/causal_sequence/dog_causal/dog_causal_4.png"" class=""exp-image"">
                    <div class=""question-area"">
                        <p style=""font-size: 20px; font-weight: bold; margin: 0;"">Is there a person in this image?</p>
                    </div>
                </div>","0","main_experiment_trial","4","dog_causal","causal_sequence","chronological","","","","","","",""
"","","","","","html-keyboard-response","88","147696","0.0-88.0","42EF7CD1C104410CA70620360CE44FC0","019cfa86-217f-7005-8347-9a846428b20b","019cfa3a-388e-72ab-ad58-bdeb258f96cd","","null","
                <div class=""stimulus-container"">
                    <img src=""images/causal_sequence/dog_causal/dog_causal_5.png"" class=""exp-image"">
                    <div class=""question-area""></div> 
                </div>","null","","","","","","","","","","","",""
"","","","","","html-button-response","89","148094","0.0-89.0","42EF7CD1C104410CA70620360CE44FC0","019cfa86-217f-7005-8347-9a846428b20b","019cfa3a-388e-72ab-ad58-bdeb258f96cd","","397","
                <div class=""stimulus-container"">
                    <img src=""images/causal_sequence/dog_causal/dog_causal_5.png"" class=""exp-image"">
                    <div class=""question-area"">
                        <p style=""font-size: 20px; font-weight: bold; margin: 0;"">Is there a person in this image?</p>
                    </div>
                </div>","0","main_experiment_trial","5","dog_causal","causal_sequence","chronological","","","","","","",""
"","","","","","html-keyboard-response","90","149097","0.0-90.0","42EF7CD1C104410CA70620360CE44FC0","019cfa86-217f-7005-8347-9a846428b20b","019cfa3a-388e-72ab-ad58-bdeb258f96cd","","null","
                <div class=""stimulus-container"">
                    <img src=""images/causal_sequence/dog_causal/dog_causal_6.png"" class=""exp-image"">
                    <div class=""question-area""></div> 
                </div>","null","","","","","","","","","","","",""
"","","","","","html-button-response","91","149411","0.0-91.0","42EF7CD1C104410CA70620360CE44FC0","019cfa86-217f-7005-8347-9a846428b20b","019cfa3a-388e-72ab-ad58-bdeb258f96cd","","312","
                <div class=""stimulus-container"">
                    <img src=""images/causal_sequence/dog_causal/dog_causal_6.png"" class=""exp-image"">
                    <div class=""question-area"">
                        <p style=""font-size: 20px; font-weight: bold; margin: 0;"">Is there a person in this image?</p>
                    </div>
                </div>","0","main_experiment_trial","6","dog_causal","causal_sequence","chronological","","","","","","",""
"","","","","","html-keyboard-response","92","150413","0.0-92.0","42EF7CD1C104410CA70620360CE44FC0","019cfa86-217f-7005-8347-9a846428b20b","019cfa3a-388e-72ab-ad58-bdeb258f96cd","","null","
                <div class=""stimulus-container"">
                    <img src=""images/causal_sequence/dog_causal/dog_causal_7.png"" class=""exp-image"">
                    <div class=""question-area""></div> 
                </div>","null","","","","","","","","","","","",""
"","","","","","html-button-response","93","150743","0.0-93.0","42EF7CD1C104410CA70620360CE44FC0","019cfa86-217f-7005-8347-9a846428b20b","019cfa3a-388e-72ab-ad58-bdeb258f96cd","","328","
                <div class=""stimulus-container"">
                    <img src=""images/causal_sequence/dog_causal/dog_causal_7.png"" class=""exp-image"">
                    <div class=""question-area"">
                        <p style=""font-size: 20px; font-weight: bold; margin: 0;"">Is there a person in this image?</p>
                    </div>
                </div>","0","main_experiment_trial","7","dog_causal","causal_sequence","chronological","","","","","","",""
"","","","","","html-keyboard-response","94","151746","0.0-94.0","42EF7CD1C104410CA70620360CE44FC0","019cfa86-217f-7005-8347-9a846428b20b","019cfa3a-388e-72ab-ad58-bdeb258f96cd","","null","
                <div class=""stimulus-container"">
                    <img src=""images/causal_sequence/dog_causal/dog_causal_8.png"" class=""exp-image"">
                    <div class=""question-area""></div> 
                </div>","null","","","","","","","","","","","",""
"","","","","","html-button-response","95","152243","0.0-95.0","42EF7CD1C104410CA70620360CE44FC0","019cfa86-217f-7005-8347-9a846428b20b","019cfa3a-388e-72ab-ad58-bdeb258f96cd","","495","
                <div class=""stimulus-container"">
                    <img src=""images/causal_sequence/dog_causal/dog_causal_8.png"" class=""exp-image"">
                    <div class=""question-area"">
                        <p style=""font-size: 20px; font-weight: bold; margin: 0;"">Is there a person in this image?</p>
                    </div>
                </div>","0","main_experiment_trial","8","dog_causal","causal_sequence","chronological","","","","","","",""
"","","","","","html-keyboard-response","96","153246","0.0-96.0","42EF7CD1C104410CA70620360CE44FC0","019cfa86-217f-7005-8347-9a846428b20b","019cfa3a-388e-72ab-ad58-bdeb258f96cd","","null","
                <div class=""stimulus-container"">
                    <img src=""images/causal_sequence/dog_causal/dog_causal_9.png"" class=""exp-image"">
                    <div class=""question-area""></div> 
                </div>","null","","","","","","","","","","","",""
"","","","","","html-button-response","97","153610","0.0-97.0","42EF7CD1C104410CA70620360CE44FC0","019cfa86-217f-7005-8347-9a846428b20b","019cfa3a-388e-72ab-ad58-bdeb258f96cd","","363","
                <div class=""stimulus-container"">
                    <img src=""images/causal_sequence/dog_causal/dog_causal_9.png"" class=""exp-image"">
                    <div class=""question-area"">
                        <p style=""font-size: 20px; font-weight: bold; margin: 0;"">Is there a person in this image?</p>
                    </div>
                </div>","0","main_experiment_trial","9","dog_causal","causal_sequence","chronological","","","","","","",""
"","","","","","html-keyboard-response","98","154613","0.0-98.0","42EF7CD1C104410CA70620360CE44FC0","019cfa86-217f-7005-8347-9a846428b20b","019cfa3a-388e-72ab-ad58-bdeb258f96cd","","null","
                <div class=""stimulus-container"">
                    <img src=""images/causal_sequence/dog_causal/dog_causal_ten.png"" class=""exp-image"">
                    <div class=""question-area""></div> 
                </div>","null","","","","","","","","","","","",""
"","","","","","html-button-response","99","155061","0.0-99.0","42EF7CD1C104410CA70620360CE44FC0","019cfa86-217f-7005-8347-9a846428b20b","019cfa3a-388e-72ab-ad58-bdeb258f96cd","","447","
                <div class=""stimulus-container"">
                    <img src=""images/causal_sequence/dog_causal/dog_causal_ten.png"" class=""exp-image"">
                    <div class=""question-area"">
                        <p style=""font-size: 20px; font-weight: bold; margin: 0;"">Is there a person in this image?</p>
                    </div>
                </div>","0","main_experiment_trial","ten","dog_causal","causal_sequence","chronological","","","","","","",""
"","","","","","html-keyboard-response","100","160064","0.0-100.0","42EF7CD1C104410CA70620360CE44FC0","019cfa86-217f-7005-8347-9a846428b20b","019cfa3a-388e-72ab-ad58-bdeb258f96cd","","null","<div style=""background-color: white; width: 100vw; height: 100vh;""></div>","null","","","","","","","","","","","",""
"","","","","","html-keyboard-response","101","161067","0.0-101.0","42EF7CD1C104410CA70620360CE44FC0","019cfa86-217f-7005-8347-9a846428b20b","019cfa3a-388e-72ab-ad58-bdeb258f96cd","","null","
                <div class=""stimulus-container"">
                    <img src=""images/semantic_sequence/physical_activity_semantic/physical_activity_semantic_1.png"" class=""exp-image"">
                    <div class=""question-area""></div> 
                </div>","null","","","","","","","","","","","",""
"","","","","","html-button-response","102","161759","0.0-102.0","42EF7CD1C104410CA70620360CE44FC0","019cfa86-217f-7005-8347-9a846428b20b","019cfa3a-388e-72ab-ad58-bdeb258f96cd","","691","
                <div class=""stimulus-container"">
                    <img src=""images/semantic_sequence/physical_activity_semantic/physical_activity_semantic_1.png"" class=""exp-image"">
                    <div class=""question-area"">
                        <p style=""font-size: 20px; font-weight: bold; margin: 0;"">Is there a person in this image?</p>
                    </div>
                </div>","0","main_experiment_trial","1","physical_activity_semantic","semantic_sequence","chronological","","","","","","",""
"","","","","","html-keyboard-response","103","162762","0.0-103.0","42EF7CD1C104410CA70620360CE44FC0","019cfa86-217f-7005-8347-9a846428b20b","019cfa3a-388e-72ab-ad58-bdeb258f96cd","","null","
                <div class=""stimulus-container"">
                    <img src=""images/semantic_sequence/physical_activity_semantic/physical_activity_semantic_2.png"" class=""exp-image"">
                    <div class=""question-area""></div> 
                </div>","null","","","","","","","","","","","",""
"","","","","","html-button-response","104","163193","0.0-104.0","42EF7CD1C104410CA70620360CE44FC0","019cfa86-217f-7005-8347-9a846428b20b","019cfa3a-388e-72ab-ad58-bdeb258f96cd","","429","
                <div class=""stimulus-container"">
                    <img src=""images/semantic_sequence/physical_activity_semantic/physical_activity_semantic_2.png"" class=""exp-image"">
                    <div class=""question-area"">
                        <p style=""font-size: 20px; font-weight: bold; margin: 0;"">Is there a person in this image?</p>
                    </div>
                </div>","0","main_experiment_trial","2","physical_activity_semantic","semantic_sequence","chronological","","","","","","",""
"","","","","","html-keyboard-response","105","164196","0.0-105.0","42EF7CD1C104410CA70620360CE44FC0","019cfa86-217f-7005-8347-9a846428b20b","019cfa3a-388e-72ab-ad58-bdeb258f96cd","","null","
                <div class=""stimulus-container"">
                    <img src=""images/semantic_sequence/physical_activity_semantic/physical_activity_semantic_3.png"" class=""exp-image"">
                    <div class=""question-area""></div> 
                </div>","null","","","","","","","","","","","",""
"","","","","","html-button-response","106","164610","0.0-106.0","42EF7CD1C104410CA70620360CE44FC0","019cfa86-217f-7005-8347-9a846428b20b","019cfa3a-388e-72ab-ad58-bdeb258f96cd","","413","
                <div class=""stimulus-container"">
                    <img src=""images/semantic_sequence/physical_activity_semantic/physical_activity_semantic_3.png"" class=""exp-image"">
                    <div class=""question-area"">
                        <p style=""font-size: 20px; font-weight: bold; margin: 0;"">Is there a person in this image?</p>
                    </div>
                </div>","0","main_experiment_trial","3","physical_activity_semantic","semantic_sequence","chronological","","","","","","",""
"","","","","","html-keyboard-response","107","165613","0.0-107.0","42EF7CD1C104410CA70620360CE44FC0","019cfa86-217f-7005-8347-9a846428b20b","019cfa3a-388e-72ab-ad58-bdeb258f96cd","","null","
                <div class=""stimulus-container"">
                    <img src=""images/semantic_sequence/physical_activity_semantic/physical_activity_semantic_4.png"" class=""exp-image"">
                    <div class=""question-area""></div> 
                </div>","null","","","","","","","","","","","",""
"","","","","","html-button-response","108","166076","0.0-108.0","42EF7CD1C104410CA70620360CE44FC0","019cfa86-217f-7005-8347-9a846428b20b","019cfa3a-388e-72ab-ad58-bdeb258f96cd","","462","
                <div class=""stimulus-container"">
                    <img src=""images/semantic_sequence/physical_activity_semantic/physical_activity_semantic_4.png"" class=""exp-image"">
                    <div class=""question-area"">
                        <p style=""font-size: 20px; font-weight: bold; margin: 0;"">Is there a person in this image?</p>
                    </div>
                </div>","0","main_experiment_trial","4","physical_activity_semantic","semantic_sequence","chronological","","","","","","",""
"","","","","","html-keyboard-response","109","167079","0.0-109.0","42EF7CD1C104410CA70620360CE44FC0","019cfa86-217f-7005-8347-9a846428b20b","019cfa3a-388e-72ab-ad58-bdeb258f96cd","","null","
                <div class=""stimulus-container"">
                    <img src=""images/semantic_sequence/physical_activity_semantic/physical_activity_semantic_5.png"" class=""exp-image"">
                    <div class=""question-area""></div> 
                </div>","null","","","","","","","","","","","",""
"","","","","","html-button-response","110","167576","0.0-110.0","42EF7CD1C104410CA70620360CE44FC0","019cfa86-217f-7005-8347-9a846428b20b","019cfa3a-388e-72ab-ad58-bdeb258f96cd","","496","
                <div class=""stimulus-container"">
                    <img src=""images/semantic_sequence/physical_activity_semantic/physical_activity_semantic_5.png"" class=""exp-image"">
                    <div class=""question-area"">
                        <p style=""font-size: 20px; font-weight: bold; margin: 0;"">Is there a person in this image?</p>
                    </div>
                </div>","0","main_experiment_trial","5","physical_activity_semantic","semantic_sequence","chronological","","","","","","",""
"","","","","","html-keyboard-response","111","168579","0.0-111.0","42EF7CD1C104410CA70620360CE44FC0","019cfa86-217f-7005-8347-9a846428b20b","019cfa3a-388e-72ab-ad58-bdeb258f96cd","","null","
                <div class=""stimulus-container"">
                    <img src=""images/semantic_sequence/physical_activity_semantic/physical_activity_semantic_6.png"" class=""exp-image"">
                    <div class=""question-area""></div> 
                </div>","null","","","","","","","","","","","",""
"","","","","","html-button-response","112","168993","0.0-112.0","42EF7CD1C104410CA70620360CE44FC0","019cfa86-217f-7005-8347-9a846428b20b","019cfa3a-388e-72ab-ad58-bdeb258f96cd","","413","
                <div class=""stimulus-container"">
                    <img src=""images/semantic_sequence/physical_activity_semantic/physical_activity_semantic_6.png"" class=""exp-image"">
                    <div class=""question-area"">
                        <p style=""font-size: 20px; font-weight: bold; margin: 0;"">Is there a person in this image?</p>
                    </div>
                </div>","0","main_experiment_trial","6","physical_activity_semantic","semantic_sequence","chronological","","","","","","",""
"","","","","","html-keyboard-response","113","169996","0.0-113.0","42EF7CD1C104410CA70620360CE44FC0","019cfa86-217f-7005-8347-9a846428b20b","019cfa3a-388e-72ab-ad58-bdeb258f96cd","","null","
                <div class=""stimulus-container"">
                    <img src=""images/semantic_sequence/physical_activity_semantic/physical_activity_semantic_7.png"" class=""exp-image"">
                    <div class=""question-area""></div> 
                </div>","null","","","","","","","","","","","",""
"","","","","","html-button-response","114","170411","0.0-114.0","42EF7CD1C104410CA70620360CE44FC0","019cfa86-217f-7005-8347-9a846428b20b","019cfa3a-388e-72ab-ad58-bdeb258f96cd","","413","
                <div class=""stimulus-container"">
                    <img src=""images/semantic_sequence/physical_activity_semantic/physical_activity_semantic_7.png"" class=""exp-image"">
                    <div class=""question-area"">
                        <p style=""font-size: 20px; font-weight: bold; margin: 0;"">Is there a person in this image?</p>
                    </div>
                </div>","0","main_experiment_trial","7","physical_activity_semantic","semantic_sequence","chronological","","","","","","",""
"","","","","","html-keyboard-response","115","171414","0.0-115.0","42EF7CD1C104410CA70620360CE44FC0","019cfa86-217f-7005-8347-9a846428b20b","019cfa3a-388e-72ab-ad58-bdeb258f96cd","","null","
                <div class=""stimulus-container"">
                    <img src=""images/semantic_sequence/physical_activity_semantic/physical_activity_semantic_8.png"" class=""exp-image"">
                    <div class=""question-area""></div> 
                </div>","null","","","","","","","","","","","",""
"","","","","","html-button-response","116","171810","0.0-116.0","42EF7CD1C104410CA70620360CE44FC0","019cfa86-217f-7005-8347-9a846428b20b","019cfa3a-388e-72ab-ad58-bdeb258f96cd","","395","
                <div class=""stimulus-container"">
                    <img src=""images/semantic_sequence/physical_activity_semantic/physical_activity_semantic_8.png"" class=""exp-image"">
                    <div class=""question-area"">
                        <p style=""font-size: 20px; font-weight: bold; margin: 0;"">Is there a person in this image?</p>
                    </div>
                </div>","0","main_experiment_trial","8","physical_activity_semantic","semantic_sequence","chronological","","","","","","",""
"","","","","","html-keyboard-response","117","172813","0.0-117.0","42EF7CD1C104410CA70620360CE44FC0","019cfa86-217f-7005-8347-9a846428b20b","019cfa3a-388e-72ab-ad58-bdeb258f96cd","","null","
                <div class=""stimulus-container"">
                    <img src=""images/semantic_sequence/physical_activity_semantic/physical_activity_semantic_9.png"" class=""exp-image"">
                    <div class=""question-area""></div> 
                </div>","null","","","","","","","","","","","",""
"","","","","","html-button-response","118","173161","0.0-118.0","42EF7CD1C104410CA70620360CE44FC0","019cfa86-217f-7005-8347-9a846428b20b","019cfa3a-388e-72ab-ad58-bdeb258f96cd","","346","
                <div class=""stimulus-container"">
                    <img src=""images/semantic_sequence/physical_activity_semantic/physical_activity_semantic_9.png"" class=""exp-image"">
                    <div class=""question-area"">
                        <p style=""font-size: 20px; font-weight: bold; margin: 0;"">Is there a person in this image?</p>
                    </div>
                </div>","0","main_experiment_trial","9","physical_activity_semantic","semantic_sequence","chronological","","","","","","",""
"","","","","","html-keyboard-response","119","174163","0.0-119.0","42EF7CD1C104410CA70620360CE44FC0","019cfa86-217f-7005-8347-9a846428b20b","019cfa3a-388e-72ab-ad58-bdeb258f96cd","","null","
                <div class=""stimulus-container"">
                    <img src=""images/semantic_sequence/physical_activity_semantic/physical_activity_semantic_ten.png"" class=""exp-image"">
                    <div class=""question-area""></div> 
                </div>","null","","","","","","","","","","","",""
"","","","","","html-button-response","120","174609","0.0-120.0","42EF7CD1C104410CA70620360CE44FC0","019cfa86-217f-7005-8347-9a846428b20b","019cfa3a-388e-72ab-ad58-bdeb258f96cd","","444","
                <div class=""stimulus-container"">
                    <img src=""images/semantic_sequence/physical_activity_semantic/physical_activity_semantic_ten.png"" class=""exp-image"">
                    <div class=""question-area"">
                        <p style=""font-size: 20px; font-weight: bold; margin: 0;"">Is there a person in this image?</p>
                    </div>
                </div>","0","main_experiment_trial","ten","physical_activity_semantic","semantic_sequence","chronological","","","","","","",""
"","","","","","html-keyboard-response","121","179612","0.0-121.0","42EF7CD1C104410CA70620360CE44FC0","019cfa86-217f-7005-8347-9a846428b20b","019cfa3a-388e-72ab-ad58-bdeb258f96cd","","null","<div style=""background-color: white; width: 100vw; height: 100vh;""></div>","null","","","","","","","","","","","",""
"","","","","","html-keyboard-response","122","180615","0.0-122.0","42EF7CD1C104410CA70620360CE44FC0","019cfa86-217f-7005-8347-9a846428b20b","019cfa3a-388e-72ab-ad58-bdeb258f96cd","","null","
                <div class=""stimulus-container"">
                    <img src=""images/causal_sequence/coin_causal/coin_causal_1.png"" class=""exp-image"">
                    <div class=""question-area""></div> 
                </div>","null","","","","","","","","","","","",""
"","","","","","html-button-response","123","181193","0.0-123.0","42EF7CD1C104410CA70620360CE44FC0","019cfa86-217f-7005-8347-9a846428b20b","019cfa3a-388e-72ab-ad58-bdeb258f96cd","","576","
                <div class=""stimulus-container"">
                    <img src=""images/causal_sequence/coin_causal/coin_causal_1.png"" class=""exp-image"">
                    <div class=""question-area"">
                        <p style=""font-size: 20px; font-weight: bold; margin: 0;"">Is there a person in this image?</p>
                    </div>
                </div>","0","main_experiment_trial","1","coin_causal","causal_sequence","chronological","","","","","","",""
"","","","","","html-keyboard-response","124","182196","0.0-124.0","42EF7CD1C104410CA70620360CE44FC0","019cfa86-217f-7005-8347-9a846428b20b","019cfa3a-388e-72ab-ad58-bdeb258f96cd","","null","
                <div class=""stimulus-container"">
                    <img src=""images/causal_sequence/coin_causal/coin_causal_2.png"" class=""exp-image"">
                    <div class=""question-area""></div> 
                </div>","null","","","","","","","","","","","",""
"","","","","","html-button-response","125","182576","0.0-125.0","42EF7CD1C104410CA70620360CE44FC0","019cfa86-217f-7005-8347-9a846428b20b","019cfa3a-388e-72ab-ad58-bdeb258f96cd","","378","
                <div class=""stimulus-container"">
                    <img src=""images/causal_sequence/coin_causal/coin_causal_2.png"" class=""exp-image"">
                    <div class=""question-area"">
                        <p style=""font-size: 20px; font-weight: bold; margin: 0;"">Is there a person in this image?</p>
                    </div>
                </div>","0","main_experiment_trial","2","coin_causal","causal_sequence","chronological","","","","","","",""
"","","","","","html-keyboard-response","126","183578","0.0-126.0","42EF7CD1C104410CA70620360CE44FC0","019cfa86-217f-7005-8347-9a846428b20b","019cfa3a-388e-72ab-ad58-bdeb258f96cd","","null","
                <div class=""stimulus-container"">
                    <img src=""images/causal_sequence/coin_causal/coin_causal_3.png"" class=""exp-image"">
                    <div class=""question-area""></div> 
                </div>","null","","","","","","","","","","","",""
"","","","","","html-button-response","127","183776","0.0-127.0","42EF7CD1C104410CA70620360CE44FC0","019cfa86-217f-7005-8347-9a846428b20b","019cfa3a-388e-72ab-ad58-bdeb258f96cd","","196","
                <div class=""stimulus-container"">
                    <img src=""images/causal_sequence/coin_causal/coin_causal_3.png"" class=""exp-image"">
                    <div class=""question-area"">
                        <p style=""font-size: 20px; font-weight: bold; margin: 0;"">Is there a person in this image?</p>
                    </div>
                </div>","0","main_experiment_trial","3","coin_causal","causal_sequence","chronological","","","","","","",""
"","","","","","html-keyboard-response","128","184779","0.0-128.0","42EF7CD1C104410CA70620360CE44FC0","019cfa86-217f-7005-8347-9a846428b20b","019cfa3a-388e-72ab-ad58-bdeb258f96cd","","null","
                <div class=""stimulus-container"">
                    <img src=""images/causal_sequence/coin_causal/coin_causal_4.png"" class=""exp-image"">
                    <div class=""question-area""></div> 
                </div>","null","","","","","","","","","","","",""
"","","","","","html-button-response","129","185076","0.0-129.0","42EF7CD1C104410CA70620360CE44FC0","019cfa86-217f-7005-8347-9a846428b20b","019cfa3a-388e-72ab-ad58-bdeb258f96cd","","295","
                <div class=""stimulus-container"">
                    <img src=""images/causal_sequence/coin_causal/coin_causal_4.png"" class=""exp-image"">
                    <div class=""question-area"">
                        <p style=""font-size: 20px; font-weight: bold; margin: 0;"">Is there a person in this image?</p>
                    </div>
                </div>","0","main_experiment_trial","4","coin_causal","causal_sequence","chronological","","","","","","",""
"","","","","","html-keyboard-response","130","186079","0.0-130.0","42EF7CD1C104410CA70620360CE44FC0","019cfa86-217f-7005-8347-9a846428b20b","019cfa3a-388e-72ab-ad58-bdeb258f96cd","","null","
                <div class=""stimulus-container"">
                    <img src=""images/causal_sequence/coin_causal/coin_causal_5.png"" class=""exp-image"">
                    <div class=""question-area""></div> 
                </div>","null","","","","","","","","","","","",""
"","","","","","html-button-response","131","186226","0.0-131.0","42EF7CD1C104410CA70620360CE44FC0","019cfa86-217f-7005-8347-9a846428b20b","019cfa3a-388e-72ab-ad58-bdeb258f96cd","","146","
                <div class=""stimulus-container"">
                    <img src=""images/causal_sequence/coin_causal/coin_causal_5.png"" class=""exp-image"">
                    <div class=""question-area"">
                        <p style=""font-size: 20px; font-weight: bold; margin: 0;"">Is there a person in this image?</p>
                    </div>
                </div>","0","main_experiment_trial","5","coin_causal","causal_sequence","chronological","","","","","","",""
"","","","","","html-keyboard-response","132","187229","0.0-132.0","42EF7CD1C104410CA70620360CE44FC0","019cfa86-217f-7005-8347-9a846428b20b","019cfa3a-388e-72ab-ad58-bdeb258f96cd","","null","
                <div class=""stimulus-container"">
                    <img src=""images/causal_sequence/coin_causal/coin_causal_6.png"" class=""exp-image"">
                    <div class=""question-area""></div> 
                </div>","null","","","","","","","","","","","",""
"","","","","","html-button-response","133","187509","0.0-133.0","42EF7CD1C104410CA70620360CE44FC0","019cfa86-217f-7005-8347-9a846428b20b","019cfa3a-388e-72ab-ad58-bdeb258f96cd","","279","
                <div class=""stimulus-container"">
                    <img src=""images/causal_sequence/coin_causal/coin_causal_6.png"" class=""exp-image"">
                    <div class=""question-area"">
                        <p style=""font-size: 20px; font-weight: bold; margin: 0;"">Is there a person in this image?</p>
                    </div>
                </div>","0","main_experiment_trial","6","coin_causal","causal_sequence","chronological","","","","","","",""
"","","","","","html-keyboard-response","134","188511","0.0-134.0","42EF7CD1C104410CA70620360CE44FC0","019cfa86-217f-7005-8347-9a846428b20b","019cfa3a-388e-72ab-ad58-bdeb258f96cd","","null","
                <div class=""stimulus-container"">
                    <img src=""images/causal_sequence/coin_causal/coin_causal_7.png"" class=""exp-image"">
                    <div class=""question-area""></div> 
                </div>","null","","","","","","","","","","","",""
"","","","","","html-button-response","135","189009","0.0-135.0","42EF7CD1C104410CA70620360CE44FC0","019cfa86-217f-7005-8347-9a846428b20b","019cfa3a-388e-72ab-ad58-bdeb258f96cd","","497","
                <div class=""stimulus-container"">
                    <img src=""images/causal_sequence/coin_causal/coin_causal_7.png"" class=""exp-image"">
                    <div class=""question-area"">
                        <p style=""font-size: 20px; font-weight: bold; margin: 0;"">Is there a person in this image?</p>
                    </div>
                </div>","1","main_experiment_trial","7","coin_causal","causal_sequence","chronological","","","","","","",""
"","","","","","html-keyboard-response","136","190011","0.0-136.0","42EF7CD1C104410CA70620360CE44FC0","019cfa86-217f-7005-8347-9a846428b20b","019cfa3a-388e-72ab-ad58-bdeb258f96cd","","null","
                <div class=""stimulus-container"">
                    <img src=""images/causal_sequence/coin_causal/coin_causal_8.png"" class=""exp-image"">
                    <div class=""question-area""></div> 
                </div>","null","","","","","","","","","","","",""
"","","","","","html-button-response","137","190493","0.0-137.0","42EF7CD1C104410CA70620360CE44FC0","019cfa86-217f-7005-8347-9a846428b20b","019cfa3a-388e-72ab-ad58-bdeb258f96cd","","481","
                <div class=""stimulus-container"">
                    <img src=""images/causal_sequence/coin_causal/coin_causal_8.png"" class=""exp-image"">
                    <div class=""question-area"">
                        <p style=""font-size: 20px; font-weight: bold; margin: 0;"">Is there a person in this image?</p>
                    </div>
                </div>","0","main_experiment_trial","8","coin_causal","causal_sequence","chronological","","","","","","",""
"","","","","","html-keyboard-response","138","191495","0.0-138.0","42EF7CD1C104410CA70620360CE44FC0","019cfa86-217f-7005-8347-9a846428b20b","019cfa3a-388e-72ab-ad58-bdeb258f96cd","","null","
                <div class=""stimulus-container"">
                    <img src=""images/causal_sequence/coin_causal/coin_causal_9.png"" class=""exp-image"">
                    <div class=""question-area""></div> 
                </div>","null","","","","","","","","","","","",""
"","","","","","html-button-response","139","191860","0.0-139.0","42EF7CD1C104410CA70620360CE44FC0","019cfa86-217f-7005-8347-9a846428b20b","019cfa3a-388e-72ab-ad58-bdeb258f96cd","","363","
                <div class=""stimulus-container"">
                    <img src=""images/causal_sequence/coin_causal/coin_causal_9.png"" class=""exp-image"">
                    <div class=""question-area"">
                        <p style=""font-size: 20px; font-weight: bold; margin: 0;"">Is there a person in this image?</p>
                    </div>
                </div>","0","main_experiment_trial","9","coin_causal","causal_sequence","chronological","","","","","","",""
"","","","","","html-keyboard-response","140","192862","0.0-140.0","42EF7CD1C104410CA70620360CE44FC0","019cfa86-217f-7005-8347-9a846428b20b","019cfa3a-388e-72ab-ad58-bdeb258f96cd","","null","
                <div class=""stimulus-container"">
                    <img src=""images/causal_sequence/coin_causal/coin_causal_ten.png"" class=""exp-image"">
                    <div class=""question-area""></div> 
                </div>","null","","","","","","","","","","","",""
"","","","","","html-button-response","141","193310","0.0-141.0","42EF7CD1C104410CA70620360CE44FC0","019cfa86-217f-7005-8347-9a846428b20b","019cfa3a-388e-72ab-ad58-bdeb258f96cd","","448","
                <div class=""stimulus-container"">
                    <img src=""images/causal_sequence/coin_causal/coin_causal_ten.png"" class=""exp-image"">
                    <div class=""question-area"">
                        <p style=""font-size: 20px; font-weight: bold; margin: 0;"">Is there a person in this image?</p>
                    </div>
                </div>","0","main_experiment_trial","ten","coin_causal","causal_sequence","chronological","","","","","","",""
"","","","","","html-keyboard-response","142","198313","0.0-142.0","42EF7CD1C104410CA70620360CE44FC0","019cfa86-217f-7005-8347-9a846428b20b","019cfa3a-388e-72ab-ad58-bdeb258f96cd","","null","<div style=""background-color: white; width: 100vw; height: 100vh;""></div>","null","","","","","","","","","","","",""
"","","","","","html-keyboard-response","143","199315","0.0-143.0","42EF7CD1C104410CA70620360CE44FC0","019cfa86-217f-7005-8347-9a846428b20b","019cfa3a-388e-72ab-ad58-bdeb258f96cd","","null","
                <div class=""stimulus-container"">
                    <img src=""images/causal_sequence/museum_causal/museum_causal_1.png"" class=""exp-image"">
                    <div class=""question-area""></div> 
                </div>","null","","","","","","","","","","","",""
"","","","","","html-button-response","144","200376","0.0-144.0","42EF7CD1C104410CA70620360CE44FC0","019cfa86-217f-7005-8347-9a846428b20b","019cfa3a-388e-72ab-ad58-bdeb258f96cd","","1059","
                <div class=""stimulus-container"">
                    <img src=""images/causal_sequence/museum_causal/museum_causal_1.png"" class=""exp-image"">
                    <div class=""question-area"">
                        <p style=""font-size: 20px; font-weight: bold; margin: 0;"">Is there a person in this image?</p>
                    </div>
                </div>","0","main_experiment_trial","1","museum_causal","causal_sequence","chronological","","","","","","",""
"","","","","","html-keyboard-response","145","201379","0.0-145.0","42EF7CD1C104410CA70620360CE44FC0","019cfa86-217f-7005-8347-9a846428b20b","019cfa3a-388e-72ab-ad58-bdeb258f96cd","","null","
                <div class=""stimulus-container"">
                    <img src=""images/causal_sequence/museum_causal/museum_causal_2.png"" class=""exp-image"">
                    <div class=""question-area""></div> 
                </div>","null","","","","","","","","","","","",""
"","","","","","html-button-response","146","202176","0.0-146.0","42EF7CD1C104410CA70620360CE44FC0","019cfa86-217f-7005-8347-9a846428b20b","019cfa3a-388e-72ab-ad58-bdeb258f96cd","","796","
                <div class=""stimulus-container"">
                    <img src=""images/causal_sequence/museum_causal/museum_causal_2.png"" class=""exp-image"">
                    <div class=""question-area"">
                        <p style=""font-size: 20px; font-weight: bold; margin: 0;"">Is there a person in this image?</p>
                    </div>
                </div>","1","main_experiment_trial","2","museum_causal","causal_sequence","chronological","","","","","","",""
"","","","","","html-keyboard-response","147","203178","0.0-147.0","42EF7CD1C104410CA70620360CE44FC0","019cfa86-217f-7005-8347-9a846428b20b","019cfa3a-388e-72ab-ad58-bdeb258f96cd","","null","
                <div class=""stimulus-container"">
                    <img src=""images/causal_sequence/museum_causal/museum_causal_3.png"" class=""exp-image"">
                    <div class=""question-area""></div> 
                </div>","null","","","","","","","","","","","",""
"","","","","","html-button-response","148","204028","0.0-148.0","42EF7CD1C104410CA70620360CE44FC0","019cfa86-217f-7005-8347-9a846428b20b","019cfa3a-388e-72ab-ad58-bdeb258f96cd","","848","
                <div class=""stimulus-container"">
                    <img src=""images/causal_sequence/museum_causal/museum_causal_3.png"" class=""exp-image"">
                    <div class=""question-area"">
                        <p style=""font-size: 20px; font-weight: bold; margin: 0;"">Is there a person in this image?</p>
                    </div>
                </div>","0","main_experiment_trial","3","museum_causal","causal_sequence","chronological","","","","","","",""
"","","","","","html-keyboard-response","149","205031","0.0-149.0","42EF7CD1C104410CA70620360CE44FC0","019cfa86-217f-7005-8347-9a846428b20b","019cfa3a-388e-72ab-ad58-bdeb258f96cd","","null","
                <div class=""stimulus-container"">
                    <img src=""images/causal_sequence/museum_causal/museum_causal_4.png"" class=""exp-image"">
                    <div class=""question-area""></div> 
                </div>","null","","","","","","","","","","","",""
"","","","","","html-button-response","150","205693","0.0-150.0","42EF7CD1C104410CA70620360CE44FC0","019cfa86-217f-7005-8347-9a846428b20b","019cfa3a-388e-72ab-ad58-bdeb258f96cd","","661","
                <div class=""stimulus-container"">
                    <img src=""images/causal_sequence/museum_causal/museum_causal_4.png"" class=""exp-image"">
                    <div class=""question-area"">
                        <p style=""font-size: 20px; font-weight: bold; margin: 0;"">Is there a person in this image?</p>
                    </div>
                </div>","1","main_experiment_trial","4","museum_causal","causal_sequence","chronological","","","","","","",""
"","","","","","html-keyboard-response","151","206696","0.0-151.0","42EF7CD1C104410CA70620360CE44FC0","019cfa86-217f-7005-8347-9a846428b20b","019cfa3a-388e-72ab-ad58-bdeb258f96cd","","null","
                <div class=""stimulus-container"">
                    <img src=""images/causal_sequence/museum_causal/museum_causal_5.png"" class=""exp-image"">
                    <div class=""question-area""></div> 
                </div>","null","","","","","","","","","","","",""
"","","","","","html-button-response","152","207526","0.0-152.0","42EF7CD1C104410CA70620360CE44FC0","019cfa86-217f-7005-8347-9a846428b20b","019cfa3a-388e-72ab-ad58-bdeb258f96cd","","828","
                <div class=""stimulus-container"">
                    <img src=""images/causal_sequence/museum_causal/museum_causal_5.png"" class=""exp-image"">
                    <div class=""question-area"">
                        <p style=""font-size: 20px; font-weight: bold; margin: 0;"">Is there a person in this image?</p>
                    </div>
                </div>","0","main_experiment_trial","5","museum_causal","causal_sequence","chronological","","","","","","",""
"","","","","","html-keyboard-response","153","208528","0.0-153.0","42EF7CD1C104410CA70620360CE44FC0","019cfa86-217f-7005-8347-9a846428b20b","019cfa3a-388e-72ab-ad58-bdeb258f96cd","","null","
                <div class=""stimulus-container"">
                    <img src=""images/causal_sequence/museum_causal/museum_causal_6.png"" class=""exp-image"">
                    <div class=""question-area""></div> 
                </div>","null","","","","","","","","","","","",""
"","","","","","html-button-response","154","208959","0.0-154.0","42EF7CD1C104410CA70620360CE44FC0","019cfa86-217f-7005-8347-9a846428b20b","019cfa3a-388e-72ab-ad58-bdeb258f96cd","","431","
                <div class=""stimulus-container"">
                    <img src=""images/causal_sequence/museum_causal/museum_causal_6.png"" class=""exp-image"">
                    <div class=""question-area"">
                        <p style=""font-size: 20px; font-weight: bold; margin: 0;"">Is there a person in this image?</p>
                    </div>
                </div>","0","main_experiment_trial","6","museum_causal","causal_sequence","chronological","","","","","","",""
"","","","","","html-keyboard-response","155","209962","0.0-155.0","42EF7CD1C104410CA70620360CE44FC0","019cfa86-217f-7005-8347-9a846428b20b","019cfa3a-388e-72ab-ad58-bdeb258f96cd","","null","
                <div class=""stimulus-container"">
                    <img src=""images/causal_sequence/museum_causal/museum_causal_7.png"" class=""exp-image"">
                    <div class=""question-area""></div> 
                </div>","null","","","","","","","","","","","",""
"","","","","","html-button-response","156","210343","0.0-156.0","42EF7CD1C104410CA70620360CE44FC0","019cfa86-217f-7005-8347-9a846428b20b","019cfa3a-388e-72ab-ad58-bdeb258f96cd","","379","
                <div class=""stimulus-container"">
                    <img src=""images/causal_sequence/museum_causal/museum_causal_7.png"" class=""exp-image"">
                    <div class=""question-area"">
                        <p style=""font-size: 20px; font-weight: bold; margin: 0;"">Is there a person in this image?</p>
                    </div>
                </div>","1","main_experiment_trial","7","museum_causal","causal_sequence","chronological","","","","","","",""
"","","","","","html-keyboard-response","157","211345","0.0-157.0","42EF7CD1C104410CA70620360CE44FC0","019cfa86-217f-7005-8347-9a846428b20b","019cfa3a-388e-72ab-ad58-bdeb258f96cd","","null","
                <div class=""stimulus-container"">
                    <img src=""images/causal_sequence/museum_causal/museum_causal_8.png"" class=""exp-image"">
                    <div class=""question-area""></div> 
                </div>","null","","","","","","","","","","","",""
"","","","","","html-button-response","158","211776","0.0-158.0","42EF7CD1C104410CA70620360CE44FC0","019cfa86-217f-7005-8347-9a846428b20b","019cfa3a-388e-72ab-ad58-bdeb258f96cd","","429","
                <div class=""stimulus-container"">
                    <img src=""images/causal_sequence/museum_causal/museum_causal_8.png"" class=""exp-image"">
                    <div class=""question-area"">
                        <p style=""font-size: 20px; font-weight: bold; margin: 0;"">Is there a person in this image?</p>
                    </div>
                </div>","0","main_experiment_trial","8","museum_causal","causal_sequence","chronological","","","","","","",""
"","","","","","html-keyboard-response","159","212778","0.0-159.0","42EF7CD1C104410CA70620360CE44FC0","019cfa86-217f-7005-8347-9a846428b20b","019cfa3a-388e-72ab-ad58-bdeb258f96cd","","null","
                <div class=""stimulus-container"">
                    <img src=""images/causal_sequence/museum_causal/museum_causal_9.png"" class=""exp-image"">
                    <div class=""question-area""></div> 
                </div>","null","","","","","","","","","","","",""
"","","","","","html-button-response","160","213176","0.0-160.0","42EF7CD1C104410CA70620360CE44FC0","019cfa86-217f-7005-8347-9a846428b20b","019cfa3a-388e-72ab-ad58-bdeb258f96cd","","397","
                <div class=""stimulus-container"">
                    <img src=""images/causal_sequence/museum_causal/museum_causal_9.png"" class=""exp-image"">
                    <div class=""question-area"">
                        <p style=""font-size: 20px; font-weight: bold; margin: 0;"">Is there a person in this image?</p>
                    </div>
                </div>","1","main_experiment_trial","9","museum_causal","causal_sequence","chronological","","","","","","",""
"","","","","","html-keyboard-response","161","214179","0.0-161.0","42EF7CD1C104410CA70620360CE44FC0","019cfa86-217f-7005-8347-9a846428b20b","019cfa3a-388e-72ab-ad58-bdeb258f96cd","","null","
                <div class=""stimulus-container"">
                    <img src=""images/causal_sequence/museum_causal/museum_causal_ten.png"" class=""exp-image"">
                    <div class=""question-area""></div> 
                </div>","null","","","","","","","","","","","",""
"","","","","","html-button-response","162","214578","0.0-162.0","42EF7CD1C104410CA70620360CE44FC0","019cfa86-217f-7005-8347-9a846428b20b","019cfa3a-388e-72ab-ad58-bdeb258f96cd","","397","
                <div class=""stimulus-container"">
                    <img src=""images/causal_sequence/museum_causal/museum_causal_ten.png"" class=""exp-image"">
                    <div class=""question-area"">
                        <p style=""font-size: 20px; font-weight: bold; margin: 0;"">Is there a person in this image?</p>
                    </div>
                </div>","0","main_experiment_trial","ten","museum_causal","causal_sequence","chronological","","","","","","",""
"","","","","","html-keyboard-response","163","219580","0.0-163.0","42EF7CD1C104410CA70620360CE44FC0","019cfa86-217f-7005-8347-9a846428b20b","019cfa3a-388e-72ab-ad58-bdeb258f96cd","","null","<div style=""background-color: white; width: 100vw; height: 100vh;""></div>","null","","","","","","","","","","","",""
"","","","","","html-keyboard-response","164","220582","0.0-164.0","42EF7CD1C104410CA70620360CE44FC0","019cfa86-217f-7005-8347-9a846428b20b","019cfa3a-388e-72ab-ad58-bdeb258f96cd","","null","
                <div class=""stimulus-container"">
                    <img src=""images/semantic_sequence/redecorating_a_house_semantic/redecorating_a_house_semantic_1.png"" class=""exp-image"">
                    <div class=""question-area""></div> 
                </div>","null","","","","","","","","","","","",""
"","","","","","html-button-response","165","221061","0.0-165.0","42EF7CD1C104410CA70620360CE44FC0","019cfa86-217f-7005-8347-9a846428b20b","019cfa3a-388e-72ab-ad58-bdeb258f96cd","","477","
                <div class=""stimulus-container"">
                    <img src=""images/semantic_sequence/redecorating_a_house_semantic/redecorating_a_house_semantic_1.png"" class=""exp-image"">
                    <div class=""question-area"">
                        <p style=""font-size: 20px; font-weight: bold; margin: 0;"">Is there a person in this image?</p>
                    </div>
                </div>","0","main_experiment_trial","1","redecorating_a_house_semantic","semantic_sequence","chronological","","","","","","",""
"","","","","","html-keyboard-response","166","222064","0.0-166.0","42EF7CD1C104410CA70620360CE44FC0","019cfa86-217f-7005-8347-9a846428b20b","019cfa3a-388e-72ab-ad58-bdeb258f96cd","","null","
                <div class=""stimulus-container"">
                    <img src=""images/semantic_sequence/redecorating_a_house_semantic/redecorating_a_house_semantic_2.png"" class=""exp-image"">
                    <div class=""question-area""></div> 
                </div>","null","","","","","","","","","","","",""
"","","","","","html-button-response","167","222326","0.0-167.0","42EF7CD1C104410CA70620360CE44FC0","019cfa86-217f-7005-8347-9a846428b20b","019cfa3a-388e-72ab-ad58-bdeb258f96cd","","261","
                <div class=""stimulus-container"">
                    <img src=""images/semantic_sequence/redecorating_a_house_semantic/redecorating_a_house_semantic_2.png"" class=""exp-image"">
                    <div class=""question-area"">
                        <p style=""font-size: 20px; font-weight: bold; margin: 0;"">Is there a person in this image?</p>
                    </div>
                </div>","0","main_experiment_trial","2","redecorating_a_house_semantic","semantic_sequence","chronological","","","","","","",""
"","","","","","html-keyboard-response","168","223329","0.0-168.0","42EF7CD1C104410CA70620360CE44FC0","019cfa86-217f-7005-8347-9a846428b20b","019cfa3a-388e-72ab-ad58-bdeb258f96cd","","null","
                <div class=""stimulus-container"">
                    <img src=""images/semantic_sequence/redecorating_a_house_semantic/redecorating_a_house_semantic_3.png"" class=""exp-image"">
                    <div class=""question-area""></div> 
                </div>","null","","","","","","","","","","","",""
"","","","","","html-button-response","169","223610","0.0-169.0","42EF7CD1C104410CA70620360CE44FC0","019cfa86-217f-7005-8347-9a846428b20b","019cfa3a-388e-72ab-ad58-bdeb258f96cd","","280","
                <div class=""stimulus-container"">
                    <img src=""images/semantic_sequence/redecorating_a_house_semantic/redecorating_a_house_semantic_3.png"" class=""exp-image"">
                    <div class=""question-area"">
                        <p style=""font-size: 20px; font-weight: bold; margin: 0;"">Is there a person in this image?</p>
                    </div>
                </div>","0","main_experiment_trial","3","redecorating_a_house_semantic","semantic_sequence","chronological","","","","","","",""
"","","","","","html-keyboard-response","170","224612","0.0-170.0","42EF7CD1C104410CA70620360CE44FC0","019cfa86-217f-7005-8347-9a846428b20b","019cfa3a-388e-72ab-ad58-bdeb258f96cd","","null","
                <div class=""stimulus-container"">
                    <img src=""images/semantic_sequence/redecorating_a_house_semantic/redecorating_a_house_semantic_4.png"" class=""exp-image"">
                    <div class=""question-area""></div> 
                </div>","null","","","","","","","","","","","",""
"","","","","","html-button-response","171","225026","0.0-171.0","42EF7CD1C104410CA70620360CE44FC0","019cfa86-217f-7005-8347-9a846428b20b","019cfa3a-388e-72ab-ad58-bdeb258f96cd","","413","
                <div class=""stimulus-container"">
                    <img src=""images/semantic_sequence/redecorating_a_house_semantic/redecorating_a_house_semantic_4.png"" class=""exp-image"">
                    <div class=""question-area"">
                        <p style=""font-size: 20px; font-weight: bold; margin: 0;"">Is there a person in this image?</p>
                    </div>
                </div>","0","main_experiment_trial","4","redecorating_a_house_semantic","semantic_sequence","chronological","","","","","","",""
"","","","","","html-keyboard-response","172","226029","0.0-172.0","42EF7CD1C104410CA70620360CE44FC0","019cfa86-217f-7005-8347-9a846428b20b","019cfa3a-388e-72ab-ad58-bdeb258f96cd","","null","
                <div class=""stimulus-container"">
                    <img src=""images/semantic_sequence/redecorating_a_house_semantic/redecorating_a_house_semantic_5.png"" class=""exp-image"">
                    <div class=""question-area""></div> 
                </div>","null","","","","","","","","","","","",""
"","","","","","html-button-response","173","226343","0.0-173.0","42EF7CD1C104410CA70620360CE44FC0","019cfa86-217f-7005-8347-9a846428b20b","019cfa3a-388e-72ab-ad58-bdeb258f96cd","","312","
                <div class=""stimulus-container"">
                    <img src=""images/semantic_sequence/redecorating_a_house_semantic/redecorating_a_house_semantic_5.png"" class=""exp-image"">
                    <div class=""question-area"">
                        <p style=""font-size: 20px; font-weight: bold; margin: 0;"">Is there a person in this image?</p>
                    </div>
                </div>","0","main_experiment_trial","5","redecorating_a_house_semantic","semantic_sequence","chronological","","","","","","",""
"","","","","","html-keyboard-response","174","227345","0.0-174.0","42EF7CD1C104410CA70620360CE44FC0","019cfa86-217f-7005-8347-9a846428b20b","019cfa3a-388e-72ab-ad58-bdeb258f96cd","","null","
                <div class=""stimulus-container"">
                    <img src=""images/semantic_sequence/redecorating_a_house_semantic/redecorating_a_house_semantic_6.png"" class=""exp-image"">
                    <div class=""question-area""></div> 
                </div>","null","","","","","","","","","","","",""
"","","","","","html-button-response","175","227809","0.0-175.0","42EF7CD1C104410CA70620360CE44FC0","019cfa86-217f-7005-8347-9a846428b20b","019cfa3a-388e-72ab-ad58-bdeb258f96cd","","462","
                <div class=""stimulus-container"">
                    <img src=""images/semantic_sequence/redecorating_a_house_semantic/redecorating_a_house_semantic_6.png"" class=""exp-image"">
                    <div class=""question-area"">
                        <p style=""font-size: 20px; font-weight: bold; margin: 0;"">Is there a person in this image?</p>
                    </div>
                </div>","0","main_experiment_trial","6","redecorating_a_house_semantic","semantic_sequence","chronological","","","","","","",""
"","","","","","html-keyboard-response","176","228812","0.0-176.0","42EF7CD1C104410CA70620360CE44FC0","019cfa86-217f-7005-8347-9a846428b20b","019cfa3a-388e-72ab-ad58-bdeb258f96cd","","null","
                <div class=""stimulus-container"">
                    <img src=""images/semantic_sequence/redecorating_a_house_semantic/redecorating_a_house_semantic_7.png"" class=""exp-image"">
                    <div class=""question-area""></div> 
                </div>","null","","","","","","","","","","","",""
"","","","","","html-button-response","177","229178","0.0-177.0","42EF7CD1C104410CA70620360CE44FC0","019cfa86-217f-7005-8347-9a846428b20b","019cfa3a-388e-72ab-ad58-bdeb258f96cd","","364","
                <div class=""stimulus-container"">
                    <img src=""images/semantic_sequence/redecorating_a_house_semantic/redecorating_a_house_semantic_7.png"" class=""exp-image"">
                    <div class=""question-area"">
