"success","timeout","failed_images","failed_audio","failed_video","trial_type","trial_index","time_elapsed","internal_node_id","subject_id","study_id","session_id","view_history","rt","stimulus","response","task","image_index","folder","sequence_type","valuable_image_index","reward_type","chosen_image_index","target_X","v_index","n_index","v_folder","n_folder","correct_choice"
"true","false","[]","[]","[]","preload","0","6560","0.0-0.0","E2F27C4C54B947C5901C3F0465464943","019cf000-f6ef-7f67-87a5-fb11da5cbe31","019ceff9-9f67-7034-9722-02cda2445e09","","","","","","","","","","","","","","","","",""
"","","","","","instructions","1","9011","0.0-1.0","E2F27C4C54B947C5901C3F0465464943","019cf000-f6ef-7f67-87a5-fb11da5cbe31","019ceff9-9f67-7034-9722-02cda2445e09","[{""page_index"":0,""viewing_time"":2450}]","2450","","","","","","","","","","","","","","",""
"","","","","","instructions","2","11091","0.0-2.0","E2F27C4C54B947C5901C3F0465464943","019cf000-f6ef-7f67-87a5-fb11da5cbe31","019ceff9-9f67-7034-9722-02cda2445e09","[{""page_index"":0,""viewing_time"":2079}]","2079","","","","","","","","","","","","","","",""
"true","","","","","fullscreen","3","13150","0.0-3.0","E2F27C4C54B947C5901C3F0465464943","019cf000-f6ef-7f67-87a5-fb11da5cbe31","019ceff9-9f67-7034-9722-02cda2445e09","","1031","","","","","","","","","","","","","","",""
"","","","","","instructions","4","18451","0.0-4.0","E2F27C4C54B947C5901C3F0465464943","019cf000-f6ef-7f67-87a5-fb11da5cbe31","019ceff9-9f67-7034-9722-02cda2445e09","[{""page_index"":0,""viewing_time"":5301}]","5301","","","","","","","","","","","","","","",""
"","","","","","instructions","5","30506","0.0-5.0","E2F27C4C54B947C5901C3F0465464943","019cf000-f6ef-7f67-87a5-fb11da5cbe31","019ceff9-9f67-7034-9722-02cda2445e09","[{""page_index"":0,""viewing_time"":12056}]","12056","","","","","","","","","","","","","","",""
"","","","","","html-keyboard-response","6","34519","0.0-6.0","E2F27C4C54B947C5901C3F0465464943","019cf000-f6ef-7f67-87a5-fb11da5cbe31","019ceff9-9f67-7034-9722-02cda2445e09","","null","
                <div class=""stimulus-container"">
                    <img src=""images/instructions/movie_1.png"" class=""exp-image"">
                    <div class=""question-area""></div> 
                </div>","null","","","","","","","","","","","","",""
"","","","","","html-button-response","7","36939","0.0-7.0","E2F27C4C54B947C5901C3F0465464943","019cf000-f6ef-7f67-87a5-fb11da5cbe31","019ceff9-9f67-7034-9722-02cda2445e09","","2418","
                <div class=""stimulus-container"">
                    <img src=""images/instructions/movie_1.png"" class=""exp-image"">
                    <div class=""question-area"">
                        <p style=""font-size: 20px; font-weight: bold; margin: 0;"">Was there a person in this image?</p>
                    </div>
                </div>","0","example_question","1","","","","","","","","","","",""
"","","","","","html-keyboard-response","8","40941","0.0-8.0","E2F27C4C54B947C5901C3F0465464943","019cf000-f6ef-7f67-87a5-fb11da5cbe31","019ceff9-9f67-7034-9722-02cda2445e09","","null","
                <div class=""stimulus-container"">
                    <img src=""images/instructions/movie_2.png"" class=""exp-image"">
                    <div class=""question-area""></div> 
                </div>","null","","","","","","","","","","","","",""
"","","","","","html-button-response","9","41603","0.0-9.0","E2F27C4C54B947C5901C3F0465464943","019cf000-f6ef-7f67-87a5-fb11da5cbe31","019ceff9-9f67-7034-9722-02cda2445e09","","661","
                <div class=""stimulus-container"">
                    <img src=""images/instructions/movie_2.png"" class=""exp-image"">
                    <div class=""question-area"">
                        <p style=""font-size: 20px; font-weight: bold; margin: 0;"">Was there a person in this image?</p>
                    </div>
                </div>","0","example_question","2","","","","","","","","","","",""
"","","","","","html-keyboard-response","10","45605","0.0-10.0","E2F27C4C54B947C5901C3F0465464943","019cf000-f6ef-7f67-87a5-fb11da5cbe31","019ceff9-9f67-7034-9722-02cda2445e09","","null","
                <div class=""stimulus-container"">
                    <img src=""images/instructions/movie_3.png"" class=""exp-image"">
                    <div class=""question-area""></div> 
                </div>","null","","","","","","","","","","","","",""
"","","","","","html-button-response","11","46371","0.0-11.0","E2F27C4C54B947C5901C3F0465464943","019cf000-f6ef-7f67-87a5-fb11da5cbe31","019ceff9-9f67-7034-9722-02cda2445e09","","765","
                <div class=""stimulus-container"">
                    <img src=""images/instructions/movie_3.png"" class=""exp-image"">
                    <div class=""question-area"">
                        <p style=""font-size: 20px; font-weight: bold; margin: 0;"">Was there a person in this image?</p>
                    </div>
                </div>","0","example_question","3","","","","","","","","","","",""
"","","","","","html-keyboard-response","12","50375","0.0-12.0","E2F27C4C54B947C5901C3F0465464943","019cf000-f6ef-7f67-87a5-fb11da5cbe31","019ceff9-9f67-7034-9722-02cda2445e09","","null","
                <div class=""stimulus-container"">
                    <img src=""images/instructions/movie_4.png"" class=""exp-image"">
                    <div class=""question-area""></div> 
                </div>","null","","","","","","","","","","","","",""
"","","","","","html-button-response","13","51283","0.0-13.0","E2F27C4C54B947C5901C3F0465464943","019cf000-f6ef-7f67-87a5-fb11da5cbe31","019ceff9-9f67-7034-9722-02cda2445e09","","907","
                <div class=""stimulus-container"">
                    <img src=""images/instructions/movie_4.png"" class=""exp-image"">
                    <div class=""question-area"">
                        <p style=""font-size: 20px; font-weight: bold; margin: 0;"">Was there a person in this image?</p>
                    </div>
                </div>","0","example_question","4","","","","","","","","","","",""
"","","","","","instructions","14","53379","0.0-14.0","E2F27C4C54B947C5901C3F0465464943","019cf000-f6ef-7f67-87a5-fb11da5cbe31","019ceff9-9f67-7034-9722-02cda2445e09","[{""page_index"":0,""viewing_time"":2096}]","2096","","","","","","","","","","","","","","",""
"","","","","","instructions","15","57523","0.0-15.0","E2F27C4C54B947C5901C3F0465464943","019cf000-f6ef-7f67-87a5-fb11da5cbe31","019ceff9-9f67-7034-9722-02cda2445e09","[{""page_index"":0,""viewing_time"":4144}]","4144","","","","","","","","","","","","","","",""
"","","","","","html-keyboard-response","16","58532","0.0-16.0","E2F27C4C54B947C5901C3F0465464943","019cf000-f6ef-7f67-87a5-fb11da5cbe31","019ceff9-9f67-7034-9722-02cda2445e09","","null","<div style=""background-color: white; width: 100vw; height: 100vh;""></div>","null","","","","","","","","","","","","",""
"","","","","","html-keyboard-response","17","63540","0.0-17.0","E2F27C4C54B947C5901C3F0465464943","019cf000-f6ef-7f67-87a5-fb11da5cbe31","019ceff9-9f67-7034-9722-02cda2445e09","","null","
                <div class=""stimulus-container"">
                    <img src=""images/schematic_sequence/restaurant_scheme/restaurant_scheme_1.png"" class=""exp-image"">
                    <div class=""question-area""></div> 
                </div>","null","","","","","","","","","","","","",""
"","","","","","html-button-response","18","65387","0.0-18.0","E2F27C4C54B947C5901C3F0465464943","019cf000-f6ef-7f67-87a5-fb11da5cbe31","019ceff9-9f67-7034-9722-02cda2445e09","","1846","
                <div class=""stimulus-container"">
                    <img src=""images/schematic_sequence/restaurant_scheme/restaurant_scheme_1.png"" class=""exp-image"">
                    <div class=""question-area"">
                        <p style=""font-size: 20px; font-weight: bold; margin: 0;"">Is there a person in this image?</p>
                    </div>
                </div>","0","main_experiment_trial","1","restaurant_scheme","schematic_sequence","","","","","","","","",""
"","","","","","html-keyboard-response","19","70402","0.0-19.0","E2F27C4C54B947C5901C3F0465464943","019cf000-f6ef-7f67-87a5-fb11da5cbe31","019ceff9-9f67-7034-9722-02cda2445e09","","null","
                <div class=""stimulus-container"">
                    <img src=""images/schematic_sequence/restaurant_scheme/restaurant_scheme_2.png"" class=""exp-image"">
                    <div class=""question-area""></div> 
                </div>","null","","","","","","","","","","","","",""
"","","","","","html-button-response","20","71115","0.0-20.0","E2F27C4C54B947C5901C3F0465464943","019cf000-f6ef-7f67-87a5-fb11da5cbe31","019ceff9-9f67-7034-9722-02cda2445e09","","712","
                <div class=""stimulus-container"">
                    <img src=""images/schematic_sequence/restaurant_scheme/restaurant_scheme_2.png"" class=""exp-image"">
                    <div class=""question-area"">
                        <p style=""font-size: 20px; font-weight: bold; margin: 0;"">Is there a person in this image?</p>
                    </div>
                </div>","1","main_experiment_trial","2","restaurant_scheme","schematic_sequence","","","","","","","","",""
"","","","","","html-keyboard-response","21","76124","0.0-21.0","E2F27C4C54B947C5901C3F0465464943","019cf000-f6ef-7f67-87a5-fb11da5cbe31","019ceff9-9f67-7034-9722-02cda2445e09","","null","
                <div class=""stimulus-container"">
                    <img src=""images/schematic_sequence/restaurant_scheme/restaurant_scheme_3.png"" class=""exp-image"">
                    <div class=""question-area""></div> 
                </div>","null","","","","","","","","","","","","",""
"","","","","","html-button-response","22","76907","0.0-22.0","E2F27C4C54B947C5901C3F0465464943","019cf000-f6ef-7f67-87a5-fb11da5cbe31","019ceff9-9f67-7034-9722-02cda2445e09","","782","
                <div class=""stimulus-container"">
                    <img src=""images/schematic_sequence/restaurant_scheme/restaurant_scheme_3.png"" class=""exp-image"">
                    <div class=""question-area"">
                        <p style=""font-size: 20px; font-weight: bold; margin: 0;"">Is there a person in this image?</p>
                    </div>
                </div>","1","main_experiment_trial","3","restaurant_scheme","schematic_sequence","","","","","","","","",""
"","","","","","html-keyboard-response","23","81913","0.0-23.0","E2F27C4C54B947C5901C3F0465464943","019cf000-f6ef-7f67-87a5-fb11da5cbe31","019ceff9-9f67-7034-9722-02cda2445e09","","null","
                <div class=""stimulus-container"">
                    <img src=""images/schematic_sequence/restaurant_scheme/restaurant_scheme_4.png"" class=""exp-image"">
                    <div class=""question-area""></div> 
                </div>","null","","","","","","","","","","","","",""
"","","","","","html-button-response","24","83186","0.0-24.0","E2F27C4C54B947C5901C3F0465464943","019cf000-f6ef-7f67-87a5-fb11da5cbe31","019ceff9-9f67-7034-9722-02cda2445e09","","1272","
                <div class=""stimulus-container"">
                    <img src=""images/schematic_sequence/restaurant_scheme/restaurant_scheme_4.png"" class=""exp-image"">
                    <div class=""question-area"">
                        <p style=""font-size: 20px; font-weight: bold; margin: 0;"">Is there a person in this image?</p>
                    </div>
                </div>","0","main_experiment_trial","4","restaurant_scheme","schematic_sequence","","","","","","","","",""
"","","","","","html-keyboard-response","25","88190","0.0-25.0","E2F27C4C54B947C5901C3F0465464943","019cf000-f6ef-7f67-87a5-fb11da5cbe31","019ceff9-9f67-7034-9722-02cda2445e09","","null","
                <div class=""stimulus-container"">
                    <img src=""images/schematic_sequence/restaurant_scheme/restaurant_scheme_5.png"" class=""exp-image"">
                    <div class=""question-area""></div> 
                </div>","null","","","","","","","","","","","","",""
"","","","","","html-button-response","26","88843","0.0-26.0","E2F27C4C54B947C5901C3F0465464943","019cf000-f6ef-7f67-87a5-fb11da5cbe31","019ceff9-9f67-7034-9722-02cda2445e09","","651","
                <div class=""stimulus-container"">
                    <img src=""images/schematic_sequence/restaurant_scheme/restaurant_scheme_5.png"" class=""exp-image"">
                    <div class=""question-area"">
                        <p style=""font-size: 20px; font-weight: bold; margin: 0;"">Is there a person in this image?</p>
                    </div>
                </div>","0","main_experiment_trial","5","restaurant_scheme","schematic_sequence","","","","","","","","",""
"","","","","","html-keyboard-response","27","93857","0.0-27.0","E2F27C4C54B947C5901C3F0465464943","019cf000-f6ef-7f67-87a5-fb11da5cbe31","019ceff9-9f67-7034-9722-02cda2445e09","","null","
                <div class=""stimulus-container"">
                    <img src=""images/schematic_sequence/restaurant_scheme/restaurant_scheme_6.png"" class=""exp-image"">
                    <div class=""question-area""></div> 
                </div>","null","","","","","","","","","","","","",""
"","","","","","html-button-response","28","94539","0.0-28.0","E2F27C4C54B947C5901C3F0465464943","019cf000-f6ef-7f67-87a5-fb11da5cbe31","019ceff9-9f67-7034-9722-02cda2445e09","","681","
                <div class=""stimulus-container"">
                    <img src=""images/schematic_sequence/restaurant_scheme/restaurant_scheme_6.png"" class=""exp-image"">
                    <div class=""question-area"">
                        <p style=""font-size: 20px; font-weight: bold; margin: 0;"">Is there a person in this image?</p>
                    </div>
                </div>","1","main_experiment_trial","6","restaurant_scheme","schematic_sequence","","","","","","","","",""
"","","","","","html-keyboard-response","29","99546","0.0-29.0","E2F27C4C54B947C5901C3F0465464943","019cf000-f6ef-7f67-87a5-fb11da5cbe31","019ceff9-9f67-7034-9722-02cda2445e09","","null","
                <div class=""stimulus-container"">
                    <img src=""images/schematic_sequence/restaurant_scheme/restaurant_scheme_7.png"" class=""exp-image"">
                    <div class=""question-area""></div> 
                </div>","null","","","","","","","","","","","","",""
"","","","","","html-button-response","30","99962","0.0-30.0","E2F27C4C54B947C5901C3F0465464943","019cf000-f6ef-7f67-87a5-fb11da5cbe31","019ceff9-9f67-7034-9722-02cda2445e09","","415","
                <div class=""stimulus-container"">
                    <img src=""images/schematic_sequence/restaurant_scheme/restaurant_scheme_7.png"" class=""exp-image"">
                    <div class=""question-area"">
                        <p style=""font-size: 20px; font-weight: bold; margin: 0;"">Is there a person in this image?</p>
                    </div>
                </div>","1","main_experiment_trial","7","restaurant_scheme","schematic_sequence","","","","","","","","",""
"","","","","","html-keyboard-response","31","104969","0.0-31.0","E2F27C4C54B947C5901C3F0465464943","019cf000-f6ef-7f67-87a5-fb11da5cbe31","019ceff9-9f67-7034-9722-02cda2445e09","","null","
                <div class=""stimulus-container"">
                    <img src=""images/schematic_sequence/restaurant_scheme/restaurant_scheme_8.png"" class=""exp-image"">
                    <div class=""question-area""></div> 
                </div>","null","","","","","","","","","","","","",""
"","","","","","html-button-response","32","105763","0.0-32.0","E2F27C4C54B947C5901C3F0465464943","019cf000-f6ef-7f67-87a5-fb11da5cbe31","019ceff9-9f67-7034-9722-02cda2445e09","","793","
                <div class=""stimulus-container"">
                    <img src=""images/schematic_sequence/restaurant_scheme/restaurant_scheme_8.png"" class=""exp-image"">
                    <div class=""question-area"">
                        <p style=""font-size: 20px; font-weight: bold; margin: 0;"">Is there a person in this image?</p>
                    </div>
                </div>","0","main_experiment_trial","8","restaurant_scheme","schematic_sequence","","","","","","","","",""
"","","","","","html-keyboard-response","33","110769","0.0-33.0","E2F27C4C54B947C5901C3F0465464943","019cf000-f6ef-7f67-87a5-fb11da5cbe31","019ceff9-9f67-7034-9722-02cda2445e09","","null","
                <div class=""stimulus-container"">
                    <img src=""images/schematic_sequence/restaurant_scheme/restaurant_scheme_9.png"" class=""exp-image"">
                    <div class=""question-area""></div> 
                </div>","null","","","","","","","","","","","","",""
"","","","","","html-button-response","34","111578","0.0-34.0","E2F27C4C54B947C5901C3F0465464943","019cf000-f6ef-7f67-87a5-fb11da5cbe31","019ceff9-9f67-7034-9722-02cda2445e09","","808","
                <div class=""stimulus-container"">
                    <img src=""images/schematic_sequence/restaurant_scheme/restaurant_scheme_9.png"" class=""exp-image"">
                    <div class=""question-area"">
                        <p style=""font-size: 20px; font-weight: bold; margin: 0;"">Is there a person in this image?</p>
                    </div>
                </div>","0","main_experiment_trial","9","restaurant_scheme","schematic_sequence","","","","","","","","",""
"","","","","","html-keyboard-response","35","116589","0.0-35.0","E2F27C4C54B947C5901C3F0465464943","019cf000-f6ef-7f67-87a5-fb11da5cbe31","019ceff9-9f67-7034-9722-02cda2445e09","","null","
                <div class=""stimulus-container"">
                    <img src=""images/schematic_sequence/restaurant_scheme/restaurant_scheme_ten.png"" class=""exp-image"">
                    <div class=""question-area""></div> 
                </div>","null","","","","","","","","","","","","",""
"","","","","","html-button-response","36","117011","0.0-36.0","E2F27C4C54B947C5901C3F0465464943","019cf000-f6ef-7f67-87a5-fb11da5cbe31","019ceff9-9f67-7034-9722-02cda2445e09","","421","
                <div class=""stimulus-container"">
                    <img src=""images/schematic_sequence/restaurant_scheme/restaurant_scheme_ten.png"" class=""exp-image"">
                    <div class=""question-area"">
                        <p style=""font-size: 20px; font-weight: bold; margin: 0;"">Is there a person in this image?</p>
                    </div>
                </div>","0","main_experiment_trial","ten","restaurant_scheme","schematic_sequence","","","","","","","","",""
"","","","","","html-keyboard-response","37","118023","0.0-37.0","E2F27C4C54B947C5901C3F0465464943","019cf000-f6ef-7f67-87a5-fb11da5cbe31","019ceff9-9f67-7034-9722-02cda2445e09","","null","<div style=""background-color: white; width: 100vw; height: 100vh;""></div>","null","","","","","","","","","","","","",""
"","","","","","html-keyboard-response","38","123031","0.0-38.0","E2F27C4C54B947C5901C3F0465464943","019cf000-f6ef-7f67-87a5-fb11da5cbe31","019ceff9-9f67-7034-9722-02cda2445e09","","null","
                <div class=""stimulus-container"">
                    <img src=""images/causal_sequence/coin_causal/coin_causal_1.png"" class=""exp-image"">
                    <div class=""question-area""></div> 
                </div>","null","","","","","","","","","","","","",""
"","","","","","html-button-response","39","123731","0.0-39.0","E2F27C4C54B947C5901C3F0465464943","019cf000-f6ef-7f67-87a5-fb11da5cbe31","019ceff9-9f67-7034-9722-02cda2445e09","","699","
                <div class=""stimulus-container"">
                    <img src=""images/causal_sequence/coin_causal/coin_causal_1.png"" class=""exp-image"">
                    <div class=""question-area"">
                        <p style=""font-size: 20px; font-weight: bold; margin: 0;"">Is there a person in this image?</p>
                    </div>
                </div>","0","main_experiment_trial","1","coin_causal","causal_sequence","","","","","","","","",""
"","","","","","html-keyboard-response","40","128743","0.0-40.0","E2F27C4C54B947C5901C3F0465464943","019cf000-f6ef-7f67-87a5-fb11da5cbe31","019ceff9-9f67-7034-9722-02cda2445e09","","null","
                <div class=""stimulus-container"">
                    <img src=""images/causal_sequence/coin_causal/coin_causal_2.png"" class=""exp-image"">
                    <div class=""question-area""></div> 
                </div>","null","","","","","","","","","","","","",""
"","","","","","html-button-response","41","129139","0.0-41.0","E2F27C4C54B947C5901C3F0465464943","019cf000-f6ef-7f67-87a5-fb11da5cbe31","019ceff9-9f67-7034-9722-02cda2445e09","","395","
                <div class=""stimulus-container"">
                    <img src=""images/causal_sequence/coin_causal/coin_causal_2.png"" class=""exp-image"">
                    <div class=""question-area"">
                        <p style=""font-size: 20px; font-weight: bold; margin: 0;"">Is there a person in this image?</p>
                    </div>
                </div>","0","main_experiment_trial","2","coin_causal","causal_sequence","","","","","","","","",""
"","","","","","html-keyboard-response","42","134142","0.0-42.0","E2F27C4C54B947C5901C3F0465464943","019cf000-f6ef-7f67-87a5-fb11da5cbe31","019ceff9-9f67-7034-9722-02cda2445e09","","null","
                <div class=""stimulus-container"">
                    <img src=""images/causal_sequence/coin_causal/coin_causal_3.png"" class=""exp-image"">
                    <div class=""question-area""></div> 
                </div>","null","","","","","","","","","","","","",""
"","","","","","html-button-response","43","134683","0.0-43.0","E2F27C4C54B947C5901C3F0465464943","019cf000-f6ef-7f67-87a5-fb11da5cbe31","019ceff9-9f67-7034-9722-02cda2445e09","","540","
                <div class=""stimulus-container"">
                    <img src=""images/causal_sequence/coin_causal/coin_causal_3.png"" class=""exp-image"">
                    <div class=""question-area"">
                        <p style=""font-size: 20px; font-weight: bold; margin: 0;"">Is there a person in this image?</p>
                    </div>
                </div>","0","main_experiment_trial","3","coin_causal","causal_sequence","","","","","","","","",""
"","","","","","html-keyboard-response","44","139697","0.0-44.0","E2F27C4C54B947C5901C3F0465464943","019cf000-f6ef-7f67-87a5-fb11da5cbe31","019ceff9-9f67-7034-9722-02cda2445e09","","null","
                <div class=""stimulus-container"">
                    <img src=""images/causal_sequence/coin_causal/coin_causal_4.png"" class=""exp-image"">
                    <div class=""question-area""></div> 
                </div>","null","","","","","","","","","","","","",""
"","","","","","html-button-response","45","140170","0.0-45.0","E2F27C4C54B947C5901C3F0465464943","019cf000-f6ef-7f67-87a5-fb11da5cbe31","019ceff9-9f67-7034-9722-02cda2445e09","","473","
                <div class=""stimulus-container"">
                    <img src=""images/causal_sequence/coin_causal/coin_causal_4.png"" class=""exp-image"">
                    <div class=""question-area"">
                        <p style=""font-size: 20px; font-weight: bold; margin: 0;"">Is there a person in this image?</p>
                    </div>
                </div>","0","main_experiment_trial","4","coin_causal","causal_sequence","","","","","","","","",""
"","","","","","html-keyboard-response","46","145180","0.0-46.0","E2F27C4C54B947C5901C3F0465464943","019cf000-f6ef-7f67-87a5-fb11da5cbe31","019ceff9-9f67-7034-9722-02cda2445e09","","null","
                <div class=""stimulus-container"">
                    <img src=""images/causal_sequence/coin_causal/coin_causal_5.png"" class=""exp-image"">
                    <div class=""question-area""></div> 
                </div>","null","","","","","","","","","","","","",""
"","","","","","html-button-response","47","145571","0.0-47.0","E2F27C4C54B947C5901C3F0465464943","019cf000-f6ef-7f67-87a5-fb11da5cbe31","019ceff9-9f67-7034-9722-02cda2445e09","","390","
                <div class=""stimulus-container"">
                    <img src=""images/causal_sequence/coin_causal/coin_causal_5.png"" class=""exp-image"">
                    <div class=""question-area"">
                        <p style=""font-size: 20px; font-weight: bold; margin: 0;"">Is there a person in this image?</p>
                    </div>
                </div>","0","main_experiment_trial","5","coin_causal","causal_sequence","","","","","","","","",""
"","","","","","html-keyboard-response","48","150578","0.0-48.0","E2F27C4C54B947C5901C3F0465464943","019cf000-f6ef-7f67-87a5-fb11da5cbe31","019ceff9-9f67-7034-9722-02cda2445e09","","null","
                <div class=""stimulus-container"">
                    <img src=""images/causal_sequence/coin_causal/coin_causal_6.png"" class=""exp-image"">
                    <div class=""question-area""></div> 
                </div>","null","","","","","","","","","","","","",""
"","","","","","html-button-response","49","151107","0.0-49.0","E2F27C4C54B947C5901C3F0465464943","019cf000-f6ef-7f67-87a5-fb11da5cbe31","019ceff9-9f67-7034-9722-02cda2445e09","","528","
                <div class=""stimulus-container"">
                    <img src=""images/causal_sequence/coin_causal/coin_causal_6.png"" class=""exp-image"">
                    <div class=""question-area"">
                        <p style=""font-size: 20px; font-weight: bold; margin: 0;"">Is there a person in this image?</p>
                    </div>
                </div>","0","main_experiment_trial","6","coin_causal","causal_sequence","","","","","","","","",""
"","","","","","html-keyboard-response","50","156122","0.0-50.0","E2F27C4C54B947C5901C3F0465464943","019cf000-f6ef-7f67-87a5-fb11da5cbe31","019ceff9-9f67-7034-9722-02cda2445e09","","null","
                <div class=""stimulus-container"">
                    <img src=""images/causal_sequence/coin_causal/coin_causal_7.png"" class=""exp-image"">
                    <div class=""question-area""></div> 
                </div>","null","","","","","","","","","","","","",""
"","","","","","html-button-response","51","157082","0.0-51.0","E2F27C4C54B947C5901C3F0465464943","019cf000-f6ef-7f67-87a5-fb11da5cbe31","019ceff9-9f67-7034-9722-02cda2445e09","","960","
                <div class=""stimulus-container"">
                    <img src=""images/causal_sequence/coin_causal/coin_causal_7.png"" class=""exp-image"">
                    <div class=""question-area"">
                        <p style=""font-size: 20px; font-weight: bold; margin: 0;"">Is there a person in this image?</p>
                    </div>
                </div>","1","main_experiment_trial","7","coin_causal","causal_sequence","","","","","","","","",""
"","","","","","html-keyboard-response","52","162092","0.0-52.0","E2F27C4C54B947C5901C3F0465464943","019cf000-f6ef-7f67-87a5-fb11da5cbe31","019ceff9-9f67-7034-9722-02cda2445e09","","null","
                <div class=""stimulus-container"">
                    <img src=""images/causal_sequence/coin_causal/coin_causal_8.png"" class=""exp-image"">
                    <div class=""question-area""></div> 
                </div>","null","","","","","","","","","","","","",""
"","","","","","html-button-response","53","163242","0.0-53.0","E2F27C4C54B947C5901C3F0465464943","019cf000-f6ef-7f67-87a5-fb11da5cbe31","019ceff9-9f67-7034-9722-02cda2445e09","","1150","
                <div class=""stimulus-container"">
                    <img src=""images/causal_sequence/coin_causal/coin_causal_8.png"" class=""exp-image"">
                    <div class=""question-area"">
                        <p style=""font-size: 20px; font-weight: bold; margin: 0;"">Is there a person in this image?</p>
                    </div>
                </div>","0","main_experiment_trial","8","coin_causal","causal_sequence","","","","","","","","",""
"","","","","","html-keyboard-response","54","168258","0.0-54.0","E2F27C4C54B947C5901C3F0465464943","019cf000-f6ef-7f67-87a5-fb11da5cbe31","019ceff9-9f67-7034-9722-02cda2445e09","","null","
                <div class=""stimulus-container"">
                    <img src=""images/causal_sequence/coin_causal/coin_causal_9.png"" class=""exp-image"">
                    <div class=""question-area""></div> 
                </div>","null","","","","","","","","","","","","",""
"","","","","","html-button-response","55","168994","0.0-55.0","E2F27C4C54B947C5901C3F0465464943","019cf000-f6ef-7f67-87a5-fb11da5cbe31","019ceff9-9f67-7034-9722-02cda2445e09","","735","
                <div class=""stimulus-container"">
                    <img src=""images/causal_sequence/coin_causal/coin_causal_9.png"" class=""exp-image"">
                    <div class=""question-area"">
                        <p style=""font-size: 20px; font-weight: bold; margin: 0;"">Is there a person in this image?</p>
                    </div>
                </div>","0","main_experiment_trial","9","coin_causal","causal_sequence","","","","","","","","",""
"","","","","","html-keyboard-response","56","174006","0.0-56.0","E2F27C4C54B947C5901C3F0465464943","019cf000-f6ef-7f67-87a5-fb11da5cbe31","019ceff9-9f67-7034-9722-02cda2445e09","","null","
                <div class=""stimulus-container"">
                    <img src=""images/causal_sequence/coin_causal/coin_causal_ten.png"" class=""exp-image"">
                    <div class=""question-area""></div> 
                </div>","null","","","","","","","","","","","","",""
"","","","","","html-button-response","57","174459","0.0-57.0","E2F27C4C54B947C5901C3F0465464943","019cf000-f6ef-7f67-87a5-fb11da5cbe31","019ceff9-9f67-7034-9722-02cda2445e09","","452","
                <div class=""stimulus-container"">
                    <img src=""images/causal_sequence/coin_causal/coin_causal_ten.png"" class=""exp-image"">
                    <div class=""question-area"">
                        <p style=""font-size: 20px; font-weight: bold; margin: 0;"">Is there a person in this image?</p>
                    </div>
                </div>","0","main_experiment_trial","ten","coin_causal","causal_sequence","","","","","","","","",""
"","","","","","html-keyboard-response","58","175475","0.0-58.0","E2F27C4C54B947C5901C3F0465464943","019cf000-f6ef-7f67-87a5-fb11da5cbe31","019ceff9-9f67-7034-9722-02cda2445e09","","null","<div style=""background-color: white; width: 100vw; height: 100vh;""></div>","null","","","","","","","","","","","","",""
"","","","","","html-keyboard-response","59","180488","0.0-59.0","E2F27C4C54B947C5901C3F0465464943","019cf000-f6ef-7f67-87a5-fb11da5cbe31","019ceff9-9f67-7034-9722-02cda2445e09","","null","
                <div class=""stimulus-container"">
                    <img src=""images/schematic_sequence/interview_scheme/interview_scheme_1.png"" class=""exp-image"">
                    <div class=""question-area""></div> 
                </div>","null","","","","","","","","","","","","",""
"","","","","","html-button-response","60","181314","0.0-60.0","E2F27C4C54B947C5901C3F0465464943","019cf000-f6ef-7f67-87a5-fb11da5cbe31","019ceff9-9f67-7034-9722-02cda2445e09","","826","
                <div class=""stimulus-container"">
                    <img src=""images/schematic_sequence/interview_scheme/interview_scheme_1.png"" class=""exp-image"">
                    <div class=""question-area"">
                        <p style=""font-size: 20px; font-weight: bold; margin: 0;"">Is there a person in this image?</p>
                    </div>
                </div>","1","main_experiment_trial","1","interview_scheme","schematic_sequence","","","","","","","","",""
"","","","","","html-keyboard-response","61","186315","0.0-61.0","E2F27C4C54B947C5901C3F0465464943","019cf000-f6ef-7f67-87a5-fb11da5cbe31","019ceff9-9f67-7034-9722-02cda2445e09","","null","
                <div class=""stimulus-container"">
                    <img src=""images/schematic_sequence/interview_scheme/interview_scheme_2.png"" class=""exp-image"">
                    <div class=""question-area""></div> 
                </div>","null","","","","","","","","","","","","",""
"","","","","","html-button-response","62","188115","0.0-62.0","E2F27C4C54B947C5901C3F0465464943","019cf000-f6ef-7f67-87a5-fb11da5cbe31","019ceff9-9f67-7034-9722-02cda2445e09","","1799","
                <div class=""stimulus-container"">
                    <img src=""images/schematic_sequence/interview_scheme/interview_scheme_2.png"" class=""exp-image"">
                    <div class=""question-area"">
                        <p style=""font-size: 20px; font-weight: bold; margin: 0;"">Is there a person in this image?</p>
                    </div>
                </div>","0","main_experiment_trial","2","interview_scheme","schematic_sequence","","","","","","","","",""
"","","","","","html-keyboard-response","63","193119","0.0-63.0","E2F27C4C54B947C5901C3F0465464943","019cf000-f6ef-7f67-87a5-fb11da5cbe31","019ceff9-9f67-7034-9722-02cda2445e09","","null","
                <div class=""stimulus-container"">
                    <img src=""images/schematic_sequence/interview_scheme/interview_scheme_3.png"" class=""exp-image"">
                    <div class=""question-area""></div> 
                </div>","null","","","","","","","","","","","","",""
"","","","","","html-button-response","64","194019","0.0-64.0","E2F27C4C54B947C5901C3F0465464943","019cf000-f6ef-7f67-87a5-fb11da5cbe31","019ceff9-9f67-7034-9722-02cda2445e09","","898","
                <div class=""stimulus-container"">
                    <img src=""images/schematic_sequence/interview_scheme/interview_scheme_3.png"" class=""exp-image"">
                    <div class=""question-area"">
                        <p style=""font-size: 20px; font-weight: bold; margin: 0;"">Is there a person in this image?</p>
                    </div>
                </div>","1","main_experiment_trial","3","interview_scheme","schematic_sequence","","","","","","","","",""
"","","","","","html-keyboard-response","65","199026","0.0-65.0","E2F27C4C54B947C5901C3F0465464943","019cf000-f6ef-7f67-87a5-fb11da5cbe31","019ceff9-9f67-7034-9722-02cda2445e09","","null","
                <div class=""stimulus-container"">
                    <img src=""images/schematic_sequence/interview_scheme/interview_scheme_4.png"" class=""exp-image"">
                    <div class=""question-area""></div> 
                </div>","null","","","","","","","","","","","","",""
"","","","","","html-button-response","66","199427","0.0-66.0","E2F27C4C54B947C5901C3F0465464943","019cf000-f6ef-7f67-87a5-fb11da5cbe31","019ceff9-9f67-7034-9722-02cda2445e09","","400","
                <div class=""stimulus-container"">
                    <img src=""images/schematic_sequence/interview_scheme/interview_scheme_4.png"" class=""exp-image"">
                    <div class=""question-area"">
                        <p style=""font-size: 20px; font-weight: bold; margin: 0;"">Is there a person in this image?</p>
                    </div>
                </div>","1","main_experiment_trial","4","interview_scheme","schematic_sequence","","","","","","","","",""
"","","","","","html-keyboard-response","67","204430","0.0-67.0","E2F27C4C54B947C5901C3F0465464943","019cf000-f6ef-7f67-87a5-fb11da5cbe31","019ceff9-9f67-7034-9722-02cda2445e09","","null","
                <div class=""stimulus-container"">
                    <img src=""images/schematic_sequence/interview_scheme/interview_scheme_5.png"" class=""exp-image"">
                    <div class=""question-area""></div> 
                </div>","null","","","","","","","","","","","","",""
"","","","","","html-button-response","68","205730","0.0-68.0","E2F27C4C54B947C5901C3F0465464943","019cf000-f6ef-7f67-87a5-fb11da5cbe31","019ceff9-9f67-7034-9722-02cda2445e09","","1299","
                <div class=""stimulus-container"">
                    <img src=""images/schematic_sequence/interview_scheme/interview_scheme_5.png"" class=""exp-image"">
                    <div class=""question-area"">
                        <p style=""font-size: 20px; font-weight: bold; margin: 0;"">Is there a person in this image?</p>
                    </div>
                </div>","0","main_experiment_trial","5","interview_scheme","schematic_sequence","","","","","","","","",""
"","","","","","html-keyboard-response","69","210731","0.0-69.0","E2F27C4C54B947C5901C3F0465464943","019cf000-f6ef-7f67-87a5-fb11da5cbe31","019ceff9-9f67-7034-9722-02cda2445e09","","null","
                <div class=""stimulus-container"">
                    <img src=""images/schematic_sequence/interview_scheme/interview_scheme_6.png"" class=""exp-image"">
                    <div class=""question-area""></div> 
                </div>","null","","","","","","","","","","","","",""
"","","","","","html-button-response","70","211427","0.0-70.0","E2F27C4C54B947C5901C3F0465464943","019cf000-f6ef-7f67-87a5-fb11da5cbe31","019ceff9-9f67-7034-9722-02cda2445e09","","694","
                <div class=""stimulus-container"">
                    <img src=""images/schematic_sequence/interview_scheme/interview_scheme_6.png"" class=""exp-image"">
                    <div class=""question-area"">
                        <p style=""font-size: 20px; font-weight: bold; margin: 0;"">Is there a person in this image?</p>
                    </div>
                </div>","0","main_experiment_trial","6","interview_scheme","schematic_sequence","","","","","","","","",""
"","","","","","html-keyboard-response","71","216428","0.0-71.0","E2F27C4C54B947C5901C3F0465464943","019cf000-f6ef-7f67-87a5-fb11da5cbe31","019ceff9-9f67-7034-9722-02cda2445e09","","null","
                <div class=""stimulus-container"">
                    <img src=""images/schematic_sequence/interview_scheme/interview_scheme_7.png"" class=""exp-image"">
                    <div class=""question-area""></div> 
                </div>","null","","","","","","","","","","","","",""
"","","","","","html-button-response","72","217123","0.0-72.0","E2F27C4C54B947C5901C3F0465464943","019cf000-f6ef-7f67-87a5-fb11da5cbe31","019ceff9-9f67-7034-9722-02cda2445e09","","694","
                <div class=""stimulus-container"">
                    <img src=""images/schematic_sequence/interview_scheme/interview_scheme_7.png"" class=""exp-image"">
                    <div class=""question-area"">
                        <p style=""font-size: 20px; font-weight: bold; margin: 0;"">Is there a person in this image?</p>
                    </div>
                </div>","0","main_experiment_trial","7","interview_scheme","schematic_sequence","","","","","","","","",""
"","","","","","html-keyboard-response","73","222131","0.0-73.0","E2F27C4C54B947C5901C3F0465464943","019cf000-f6ef-7f67-87a5-fb11da5cbe31","019ceff9-9f67-7034-9722-02cda2445e09","","null","
                <div class=""stimulus-container"">
                    <img src=""images/schematic_sequence/interview_scheme/interview_scheme_8.png"" class=""exp-image"">
                    <div class=""question-area""></div> 
                </div>","null","","","","","","","","","","","","",""
"","","","","","html-button-response","74","223706","0.0-74.0","E2F27C4C54B947C5901C3F0465464943","019cf000-f6ef-7f67-87a5-fb11da5cbe31","019ceff9-9f67-7034-9722-02cda2445e09","","1574","
                <div class=""stimulus-container"">
                    <img src=""images/schematic_sequence/interview_scheme/interview_scheme_8.png"" class=""exp-image"">
                    <div class=""question-area"">
                        <p style=""font-size: 20px; font-weight: bold; margin: 0;"">Is there a person in this image?</p>
                    </div>
                </div>","0","main_experiment_trial","8","interview_scheme","schematic_sequence","","","","","","","","",""
"","","","","","html-keyboard-response","75","228713","0.0-75.0","E2F27C4C54B947C5901C3F0465464943","019cf000-f6ef-7f67-87a5-fb11da5cbe31","019ceff9-9f67-7034-9722-02cda2445e09","","null","
                <div class=""stimulus-container"">
                    <img src=""images/schematic_sequence/interview_scheme/interview_scheme_9.png"" class=""exp-image"">
                    <div class=""question-area""></div> 
                </div>","null","","","","","","","","","","","","",""
"","","","","","html-button-response","76","230418","0.0-76.0","E2F27C4C54B947C5901C3F0465464943","019cf000-f6ef-7f67-87a5-fb11da5cbe31","019ceff9-9f67-7034-9722-02cda2445e09","","1705","
                <div class=""stimulus-container"">
                    <img src=""images/schematic_sequence/interview_scheme/interview_scheme_9.png"" class=""exp-image"">
                    <div class=""question-area"">
                        <p style=""font-size: 20px; font-weight: bold; margin: 0;"">Is there a person in this image?</p>
                    </div>
                </div>","0","main_experiment_trial","9","interview_scheme","schematic_sequence","","","","","","","","",""
"","","","","","html-keyboard-response","77","235421","0.0-77.0","E2F27C4C54B947C5901C3F0465464943","019cf000-f6ef-7f67-87a5-fb11da5cbe31","019ceff9-9f67-7034-9722-02cda2445e09","","null","
                <div class=""stimulus-container"">
                    <img src=""images/schematic_sequence/interview_scheme/interview_scheme_ten.png"" class=""exp-image"">
                    <div class=""question-area""></div> 
                </div>","null","","","","","","","","","","","","",""
"","","","","","html-button-response","78","236570","0.0-78.0","E2F27C4C54B947C5901C3F0465464943","019cf000-f6ef-7f67-87a5-fb11da5cbe31","019ceff9-9f67-7034-9722-02cda2445e09","","1148","
                <div class=""stimulus-container"">
                    <img src=""images/schematic_sequence/interview_scheme/interview_scheme_ten.png"" class=""exp-image"">
                    <div class=""question-area"">
                        <p style=""font-size: 20px; font-weight: bold; margin: 0;"">Is there a person in this image?</p>
                    </div>
                </div>","0","main_experiment_trial","ten","interview_scheme","schematic_sequence","","","","","","","","",""
"","","","","","html-keyboard-response","79","237571","0.0-79.0","E2F27C4C54B947C5901C3F0465464943","019cf000-f6ef-7f67-87a5-fb11da5cbe31","019ceff9-9f67-7034-9722-02cda2445e09","","null","<div style=""background-color: white; width: 100vw; height: 100vh;""></div>","null","","","","","","","","","","","","",""
"","","","","","html-keyboard-response","80","242577","0.0-80.0","E2F27C4C54B947C5901C3F0465464943","019cf000-f6ef-7f67-87a5-fb11da5cbe31","019ceff9-9f67-7034-9722-02cda2445e09","","null","
                <div class=""stimulus-container"">
                    <img src=""images/schematic_sequence/supermarket_scheme/supermarket_scheme_1.png"" class=""exp-image"">
                    <div class=""question-area""></div> 
                </div>","null","","","","","","","","","","","","",""
"","","","","","html-button-response","81","243650","0.0-81.0","E2F27C4C54B947C5901C3F0465464943","019cf000-f6ef-7f67-87a5-fb11da5cbe31","019ceff9-9f67-7034-9722-02cda2445e09","","1072","
                <div class=""stimulus-container"">
                    <img src=""images/schematic_sequence/supermarket_scheme/supermarket_scheme_1.png"" class=""exp-image"">
                    <div class=""question-area"">
                        <p style=""font-size: 20px; font-weight: bold; margin: 0;"">Is there a person in this image?</p>
                    </div>
                </div>","1","main_experiment_trial","1","supermarket_scheme","schematic_sequence","","","","","","","","",""
"","","","","","html-keyboard-response","82","248666","0.0-82.0","E2F27C4C54B947C5901C3F0465464943","019cf000-f6ef-7f67-87a5-fb11da5cbe31","019ceff9-9f67-7034-9722-02cda2445e09","","null","
                <div class=""stimulus-container"">
                    <img src=""images/schematic_sequence/supermarket_scheme/supermarket_scheme_2.png"" class=""exp-image"">
                    <div class=""question-area""></div> 
                </div>","null","","","","","","","","","","","","",""
"","","","","","html-button-response","83","249114","0.0-83.0","E2F27C4C54B947C5901C3F0465464943","019cf000-f6ef-7f67-87a5-fb11da5cbe31","019ceff9-9f67-7034-9722-02cda2445e09","","448","
                <div class=""stimulus-container"">
                    <img src=""images/schematic_sequence/supermarket_scheme/supermarket_scheme_2.png"" class=""exp-image"">
                    <div class=""question-area"">
                        <p style=""font-size: 20px; font-weight: bold; margin: 0;"">Is there a person in this image?</p>
                    </div>
                </div>","1","main_experiment_trial","2","supermarket_scheme","schematic_sequence","","","","","","","","",""
"","","","","","html-keyboard-response","84","254122","0.0-84.0","E2F27C4C54B947C5901C3F0465464943","019cf000-f6ef-7f67-87a5-fb11da5cbe31","019ceff9-9f67-7034-9722-02cda2445e09","","null","
                <div class=""stimulus-container"">
                    <img src=""images/schematic_sequence/supermarket_scheme/supermarket_scheme_3.png"" class=""exp-image"">
                    <div class=""question-area""></div> 
                </div>","null","","","","","","","","","","","","",""
"","","","","","html-button-response","85","255082","0.0-85.0","E2F27C4C54B947C5901C3F0465464943","019cf000-f6ef-7f67-87a5-fb11da5cbe31","019ceff9-9f67-7034-9722-02cda2445e09","","959","
                <div class=""stimulus-container"">
                    <img src=""images/schematic_sequence/supermarket_scheme/supermarket_scheme_3.png"" class=""exp-image"">
                    <div class=""question-area"">
                        <p style=""font-size: 20px; font-weight: bold; margin: 0;"">Is there a person in this image?</p>
                    </div>
                </div>","1","main_experiment_trial","3","supermarket_scheme","schematic_sequence","","","","","","","","",""
"","","","","","html-keyboard-response","86","260099","0.0-86.0","E2F27C4C54B947C5901C3F0465464943","019cf000-f6ef-7f67-87a5-fb11da5cbe31","019ceff9-9f67-7034-9722-02cda2445e09","","null","
                <div class=""stimulus-container"">
                    <img src=""images/schematic_sequence/supermarket_scheme/supermarket_scheme_4.png"" class=""exp-image"">
                    <div class=""question-area""></div> 
                </div>","null","","","","","","","","","","","","",""
"","","","","","html-button-response","87","260898","0.0-87.0","E2F27C4C54B947C5901C3F0465464943","019cf000-f6ef-7f67-87a5-fb11da5cbe31","019ceff9-9f67-7034-9722-02cda2445e09","","799","
                <div class=""stimulus-container"">
                    <img src=""images/schematic_sequence/supermarket_scheme/supermarket_scheme_4.png"" class=""exp-image"">
                    <div class=""question-area"">
                        <p style=""font-size: 20px; font-weight: bold; margin: 0;"">Is there a person in this image?</p>
                    </div>
                </div>","0","main_experiment_trial","4","supermarket_scheme","schematic_sequence","","","","","","","","",""
"","","","","","html-keyboard-response","88","265905","0.0-88.0","E2F27C4C54B947C5901C3F0465464943","019cf000-f6ef-7f67-87a5-fb11da5cbe31","019ceff9-9f67-7034-9722-02cda2445e09","","null","
                <div class=""stimulus-container"">
                    <img src=""images/schematic_sequence/supermarket_scheme/supermarket_scheme_5.png"" class=""exp-image"">
                    <div class=""question-area""></div> 
                </div>","null","","","","","","","","","","","","",""
"","","","","","html-button-response","89","266755","0.0-89.0","E2F27C4C54B947C5901C3F0465464943","019cf000-f6ef-7f67-87a5-fb11da5cbe31","019ceff9-9f67-7034-9722-02cda2445e09","","849","
                <div class=""stimulus-container"">
                    <img src=""images/schematic_sequence/supermarket_scheme/supermarket_scheme_5.png"" class=""exp-image"">
                    <div class=""question-area"">
                        <p style=""font-size: 20px; font-weight: bold; margin: 0;"">Is there a person in this image?</p>
                    </div>
                </div>","1","main_experiment_trial","5","supermarket_scheme","schematic_sequence","","","","","","","","",""
"","","","","","html-keyboard-response","90","271765","0.0-90.0","E2F27C4C54B947C5901C3F0465464943","019cf000-f6ef-7f67-87a5-fb11da5cbe31","019ceff9-9f67-7034-9722-02cda2445e09","","null","
                <div class=""stimulus-container"">
                    <img src=""images/schematic_sequence/supermarket_scheme/supermarket_scheme_6.png"" class=""exp-image"">
                    <div class=""question-area""></div> 
                </div>","null","","","","","","","","","","","","",""
"","","","","","html-button-response","91","272539","0.0-91.0","E2F27C4C54B947C5901C3F0465464943","019cf000-f6ef-7f67-87a5-fb11da5cbe31","019ceff9-9f67-7034-9722-02cda2445e09","","773","
                <div class=""stimulus-container"">
                    <img src=""images/schematic_sequence/supermarket_scheme/supermarket_scheme_6.png"" class=""exp-image"">
                    <div class=""question-area"">
                        <p style=""font-size: 20px; font-weight: bold; margin: 0;"">Is there a person in this image?</p>
                    </div>
                </div>","0","main_experiment_trial","6","supermarket_scheme","schematic_sequence","","","","","","","","",""
"","","","","","html-keyboard-response","92","277540","0.0-92.0","E2F27C4C54B947C5901C3F0465464943","019cf000-f6ef-7f67-87a5-fb11da5cbe31","019ceff9-9f67-7034-9722-02cda2445e09","","null","
                <div class=""stimulus-container"">
                    <img src=""images/schematic_sequence/supermarket_scheme/supermarket_scheme_7.png"" class=""exp-image"">
                    <div class=""question-area""></div> 
                </div>","null","","","","","","","","","","","","",""
"","","","","","html-button-response","93","278186","0.0-93.0","E2F27C4C54B947C5901C3F0465464943","019cf000-f6ef-7f67-87a5-fb11da5cbe31","019ceff9-9f67-7034-9722-02cda2445e09","","645","
                <div class=""stimulus-container"">
                    <img src=""images/schematic_sequence/supermarket_scheme/supermarket_scheme_7.png"" class=""exp-image"">
                    <div class=""question-area"">
                        <p style=""font-size: 20px; font-weight: bold; margin: 0;"">Is there a person in this image?</p>
                    </div>
                </div>","0","main_experiment_trial","7","supermarket_scheme","schematic_sequence","","","","","","","","",""
"","","","","","html-keyboard-response","94","283195","0.0-94.0","E2F27C4C54B947C5901C3F0465464943","019cf000-f6ef-7f67-87a5-fb11da5cbe31","019ceff9-9f67-7034-9722-02cda2445e09","","null","
                <div class=""stimulus-container"">
                    <img src=""images/schematic_sequence/supermarket_scheme/supermarket_scheme_8.png"" class=""exp-image"">
                    <div class=""question-area""></div> 
                </div>","null","","","","","","","","","","","","",""
"","","","","","html-button-response","95","284011","0.0-95.0","E2F27C4C54B947C5901C3F0465464943","019cf000-f6ef-7f67-87a5-fb11da5cbe31","019ceff9-9f67-7034-9722-02cda2445e09","","814","
                <div class=""stimulus-container"">
                    <img src=""images/schematic_sequence/supermarket_scheme/supermarket_scheme_8.png"" class=""exp-image"">
                    <div class=""question-area"">
                        <p style=""font-size: 20px; font-weight: bold; margin: 0;"">Is there a person in this image?</p>
                    </div>
                </div>","0","main_experiment_trial","8","supermarket_scheme","schematic_sequence","","","","","","","","",""
"","","","","","html-keyboard-response","96","289015","0.0-96.0","E2F27C4C54B947C5901C3F0465464943","019cf000-f6ef-7f67-87a5-fb11da5cbe31","019ceff9-9f67-7034-9722-02cda2445e09","","null","
                <div class=""stimulus-container"">
                    <img src=""images/schematic_sequence/supermarket_scheme/supermarket_scheme_9.png"" class=""exp-image"">
                    <div class=""question-area""></div> 
                </div>","null","","","","","","","","","","","","",""
"","","","","","html-button-response","97","289635","0.0-97.0","E2F27C4C54B947C5901C3F0465464943","019cf000-f6ef-7f67-87a5-fb11da5cbe31","019ceff9-9f67-7034-9722-02cda2445e09","","618","
                <div class=""stimulus-container"">
                    <img src=""images/schematic_sequence/supermarket_scheme/supermarket_scheme_9.png"" class=""exp-image"">
                    <div class=""question-area"">
                        <p style=""font-size: 20px; font-weight: bold; margin: 0;"">Is there a person in this image?</p>
                    </div>
                </div>","0","main_experiment_trial","9","supermarket_scheme","schematic_sequence","","","","","","","","",""
"","","","","","html-keyboard-response","98","294645","0.0-98.0","E2F27C4C54B947C5901C3F0465464943","019cf000-f6ef-7f67-87a5-fb11da5cbe31","019ceff9-9f67-7034-9722-02cda2445e09","","null","
                <div class=""stimulus-container"">
                    <img src=""images/schematic_sequence/supermarket_scheme/supermarket_scheme_ten.png"" class=""exp-image"">
                    <div class=""question-area""></div> 
                </div>","null","","","","","","","","","","","","",""
"","","","","","html-button-response","99","295130","0.0-99.0","E2F27C4C54B947C5901C3F0465464943","019cf000-f6ef-7f67-87a5-fb11da5cbe31","019ceff9-9f67-7034-9722-02cda2445e09","","485","
                <div class=""stimulus-container"">
                    <img src=""images/schematic_sequence/supermarket_scheme/supermarket_scheme_ten.png"" class=""exp-image"">
                    <div class=""question-area"">
                        <p style=""font-size: 20px; font-weight: bold; margin: 0;"">Is there a person in this image?</p>
                    </div>
                </div>","1","main_experiment_trial","ten","supermarket_scheme","schematic_sequence","","","","","","","","",""
"","","","","","html-keyboard-response","100","296140","0.0-100.0","E2F27C4C54B947C5901C3F0465464943","019cf000-f6ef-7f67-87a5-fb11da5cbe31","019ceff9-9f67-7034-9722-02cda2445e09","","null","<div style=""background-color: white; width: 100vw; height: 100vh;""></div>","null","","","","","","","","","","","","",""
"","","","","","html-keyboard-response","101","301152","0.0-101.0","E2F27C4C54B947C5901C3F0465464943","019cf000-f6ef-7f67-87a5-fb11da5cbe31","019ceff9-9f67-7034-9722-02cda2445e09","","null","
                <div class=""stimulus-container"">
                    <img src=""images/schematic_sequence/hotel_scheme/hotel_scheme_1.png"" class=""exp-image"">
                    <div class=""question-area""></div> 
                </div>","null","","","","","","","","","","","","",""
"","","","","","html-button-response","102","301866","0.0-102.0","E2F27C4C54B947C5901C3F0465464943","019cf000-f6ef-7f67-87a5-fb11da5cbe31","019ceff9-9f67-7034-9722-02cda2445e09","","713","
                <div class=""stimulus-container"">
                    <img src=""images/schematic_sequence/hotel_scheme/hotel_scheme_1.png"" class=""exp-image"">
                    <div class=""question-area"">
                        <p style=""font-size: 20px; font-weight: bold; margin: 0;"">Is there a person in this image?</p>
                    </div>
                </div>","1","main_experiment_trial","1","hotel_scheme","schematic_sequence","","","","","","","","",""
"","","","","","html-keyboard-response","103","306879","0.0-103.0","E2F27C4C54B947C5901C3F0465464943","019cf000-f6ef-7f67-87a5-fb11da5cbe31","019ceff9-9f67-7034-9722-02cda2445e09","","null","
                <div class=""stimulus-container"">
                    <img src=""images/schematic_sequence/hotel_scheme/hotel_scheme_2.png"" class=""exp-image"">
                    <div class=""question-area""></div> 
                </div>","null","","","","","","","","","","","","",""
"","","","","","html-button-response","104","307875","0.0-104.0","E2F27C4C54B947C5901C3F0465464943","019cf000-f6ef-7f67-87a5-fb11da5cbe31","019ceff9-9f67-7034-9722-02cda2445e09","","995","
                <div class=""stimulus-container"">
                    <img src=""images/schematic_sequence/hotel_scheme/hotel_scheme_2.png"" class=""exp-image"">
                    <div class=""question-area"">
                        <p style=""font-size: 20px; font-weight: bold; margin: 0;"">Is there a person in this image?</p>
                    </div>
                </div>","0","main_experiment_trial","2","hotel_scheme","schematic_sequence","","","","","","","","",""
"","","","","","html-keyboard-response","105","312878","0.0-105.0","E2F27C4C54B947C5901C3F0465464943","019cf000-f6ef-7f67-87a5-fb11da5cbe31","019ceff9-9f67-7034-9722-02cda2445e09","","null","
                <div class=""stimulus-container"">
                    <img src=""images/schematic_sequence/hotel_scheme/hotel_scheme_3.png"" class=""exp-image"">
                    <div class=""question-area""></div> 
                </div>","null","","","","","","","","","","","","",""
"","","","","","html-button-response","106","314163","0.0-106.0","E2F27C4C54B947C5901C3F0465464943","019cf000-f6ef-7f67-87a5-fb11da5cbe31","019ceff9-9f67-7034-9722-02cda2445e09","","1283","
                <div class=""stimulus-container"">
                    <img src=""images/schematic_sequence/hotel_scheme/hotel_scheme_3.png"" class=""exp-image"">
                    <div class=""question-area"">
                        <p style=""font-size: 20px; font-weight: bold; margin: 0;"">Is there a person in this image?</p>
                    </div>
                </div>","0","main_experiment_trial","3","hotel_scheme","schematic_sequence","","","","","","","","",""
"","","","","","html-keyboard-response","107","319174","0.0-107.0","E2F27C4C54B947C5901C3F0465464943","019cf000-f6ef-7f67-87a5-fb11da5cbe31","019ceff9-9f67-7034-9722-02cda2445e09","","null","
                <div class=""stimulus-container"">
                    <img src=""images/schematic_sequence/hotel_scheme/hotel_scheme_4.png"" class=""exp-image"">
                    <div class=""question-area""></div> 
                </div>","null","","","","","","","","","","","","",""
"","","","","","html-button-response","108","320371","0.0-108.0","E2F27C4C54B947C5901C3F0465464943","019cf000-f6ef-7f67-87a5-fb11da5cbe31","019ceff9-9f67-7034-9722-02cda2445e09","","1196","
                <div class=""stimulus-container"">
                    <img src=""images/schematic_sequence/hotel_scheme/hotel_scheme_4.png"" class=""exp-image"">
                    <div class=""question-area"">
                        <p style=""font-size: 20px; font-weight: bold; margin: 0;"">Is there a person in this image?</p>
                    </div>
                </div>","1","main_experiment_trial","4","hotel_scheme","schematic_sequence","","","","","","","","",""
"","","","","","html-keyboard-response","109","325382","0.0-109.0","E2F27C4C54B947C5901C3F0465464943","019cf000-f6ef-7f67-87a5-fb11da5cbe31","019ceff9-9f67-7034-9722-02cda2445e09","","null","
                <div class=""stimulus-container"">
                    <img src=""images/schematic_sequence/hotel_scheme/hotel_scheme_5.png"" class=""exp-image"">
                    <div class=""question-area""></div> 
                </div>","null","","","","","","","","","","","","",""
"","","","","","html-button-response","110","326851","0.0-110.0","E2F27C4C54B947C5901C3F0465464943","019cf000-f6ef-7f67-87a5-fb11da5cbe31","019ceff9-9f67-7034-9722-02cda2445e09","","1468","
                <div class=""stimulus-container"">
                    <img src=""images/schematic_sequence/hotel_scheme/hotel_scheme_5.png"" class=""exp-image"">
                    <div class=""question-area"">
                        <p style=""font-size: 20px; font-weight: bold; margin: 0;"">Is there a person in this image?</p>
                    </div>
                </div>","0","main_experiment_trial","5","hotel_scheme","schematic_sequence","","","","","","","","",""
"","","","","","html-keyboard-response","111","331860","0.0-111.0","E2F27C4C54B947C5901C3F0465464943","019cf000-f6ef-7f67-87a5-fb11da5cbe31","019ceff9-9f67-7034-9722-02cda2445e09","","null","
                <div class=""stimulus-container"">
                    <img src=""images/schematic_sequence/hotel_scheme/hotel_scheme_6.png"" class=""exp-image"">
                    <div class=""question-area""></div> 
                </div>","null","","","","","","","","","","","","",""
"","","","","","html-button-response","112","332691","0.0-112.0","E2F27C4C54B947C5901C3F0465464943","019cf000-f6ef-7f67-87a5-fb11da5cbe31","019ceff9-9f67-7034-9722-02cda2445e09","","830","
                <div class=""stimulus-container"">
                    <img src=""images/schematic_sequence/hotel_scheme/hotel_scheme_6.png"" class=""exp-image"">
                    <div class=""question-area"">
                        <p style=""font-size: 20px; font-weight: bold; margin: 0;"">Is there a person in this image?</p>
                    </div>
                </div>","0","main_experiment_trial","6","hotel_scheme","schematic_sequence","","","","","","","","",""
"","","","","","html-keyboard-response","113","337697","0.0-113.0","E2F27C4C54B947C5901C3F0465464943","019cf000-f6ef-7f67-87a5-fb11da5cbe31","019ceff9-9f67-7034-9722-02cda2445e09","","null","
                <div class=""stimulus-container"">
                    <img src=""images/schematic_sequence/hotel_scheme/hotel_scheme_7.png"" class=""exp-image"">
                    <div class=""question-area""></div> 
                </div>","null","","","","","","","","","","","","",""
"","","","","","html-button-response","114","339730","0.0-114.0","E2F27C4C54B947C5901C3F0465464943","019cf000-f6ef-7f67-87a5-fb11da5cbe31","019ceff9-9f67-7034-9722-02cda2445e09","","2032","
                <div class=""stimulus-container"">
                    <img src=""images/schematic_sequence/hotel_scheme/hotel_scheme_7.png"" class=""exp-image"">
                    <div class=""question-area"">
                        <p style=""font-size: 20px; font-weight: bold; margin: 0;"">Is there a person in this image?</p>
                    </div>
                </div>","0","main_experiment_trial","7","hotel_scheme","schematic_sequence","","","","","","","","",""
"","","","","","html-keyboard-response","115","344741","0.0-115.0","E2F27C4C54B947C5901C3F0465464943","019cf000-f6ef-7f67-87a5-fb11da5cbe31","019ceff9-9f67-7034-9722-02cda2445e09","","null","
                <div class=""stimulus-container"">
                    <img src=""images/schematic_sequence/hotel_scheme/hotel_scheme_8.png"" class=""exp-image"">
                    <div class=""question-area""></div> 
                </div>","null","","","","","","","","","","","","",""
"","","","","","html-button-response","116","347170","0.0-116.0","E2F27C4C54B947C5901C3F0465464943","019cf000-f6ef-7f67-87a5-fb11da5cbe31","019ceff9-9f67-7034-9722-02cda2445e09","","2427","
                <div class=""stimulus-container"">
                    <img src=""images/schematic_sequence/hotel_scheme/hotel_scheme_8.png"" class=""exp-image"">
                    <div class=""question-area"">
                        <p style=""font-size: 20px; font-weight: bold; margin: 0;"">Is there a person in this image?</p>
                    </div>
                </div>","0","main_experiment_trial","8","hotel_scheme","schematic_sequence","","","","","","","","",""
"","","","","","html-keyboard-response","117","352171","0.0-117.0","E2F27C4C54B947C5901C3F0465464943","019cf000-f6ef-7f67-87a5-fb11da5cbe31","019ceff9-9f67-7034-9722-02cda2445e09","","null","
                <div class=""stimulus-container"">
                    <img src=""images/schematic_sequence/hotel_scheme/hotel_scheme_9.png"" class=""exp-image"">
                    <div class=""question-area""></div> 
                </div>","null","","","","","","","","","","","","",""
"","","","","","html-button-response","118","352987","0.0-118.0","E2F27C4C54B947C5901C3F0465464943","019cf000-f6ef-7f67-87a5-fb11da5cbe31","019ceff9-9f67-7034-9722-02cda2445e09","","815","
                <div class=""stimulus-container"">
                    <img src=""images/schematic_sequence/hotel_scheme/hotel_scheme_9.png"" class=""exp-image"">
                    <div class=""question-area"">
                        <p style=""font-size: 20px; font-weight: bold; margin: 0;"">Is there a person in this image?</p>
                    </div>
                </div>","0","main_experiment_trial","9","hotel_scheme","schematic_sequence","","","","","","","","",""
"","","","","","html-keyboard-response","119","357989","0.0-119.0","E2F27C4C54B947C5901C3F0465464943","019cf000-f6ef-7f67-87a5-fb11da5cbe31","019ceff9-9f67-7034-9722-02cda2445e09","","null","
                <div class=""stimulus-container"">
                    <img src=""images/schematic_sequence/hotel_scheme/hotel_scheme_ten.png"" class=""exp-image"">
                    <div class=""question-area""></div> 
                </div>","null","","","","","","","","","","","","",""
"","","","","","html-button-response","120","358939","0.0-120.0","E2F27C4C54B947C5901C3F0465464943","019cf000-f6ef-7f67-87a5-fb11da5cbe31","019ceff9-9f67-7034-9722-02cda2445e09","","948","
                <div class=""stimulus-container"">
                    <img src=""images/schematic_sequence/hotel_scheme/hotel_scheme_ten.png"" class=""exp-image"">
                    <div class=""question-area"">
                        <p style=""font-size: 20px; font-weight: bold; margin: 0;"">Is there a person in this image?</p>
                    </div>
                </div>","0","main_experiment_trial","ten","hotel_scheme","schematic_sequence","","","","","","","","",""
"","","","","","html-keyboard-response","121","359948","0.0-121.0","E2F27C4C54B947C5901C3F0465464943","019cf000-f6ef-7f67-87a5-fb11da5cbe31","019ceff9-9f67-7034-9722-02cda2445e09","","null","<div style=""background-color: white; width: 100vw; height: 100vh;""></div>","null","","","","","","","","","","","","",""
"","","","","","html-keyboard-response","122","364958","0.0-122.0","E2F27C4C54B947C5901C3F0465464943","019cf000-f6ef-7f67-87a5-fb11da5cbe31","019ceff9-9f67-7034-9722-02cda2445e09","","null","
                <div class=""stimulus-container"">
                    <img src=""images/causal_sequence/dog_causal/dog_causal_1.png"" class=""exp-image"">
                    <div class=""question-area""></div> 
                </div>","null","","","","","","","","","","","","",""
"","","","","","html-button-response","123","367515","0.0-123.0","E2F27C4C54B947C5901C3F0465464943","019cf000-f6ef-7f67-87a5-fb11da5cbe31","019ceff9-9f67-7034-9722-02cda2445e09","","2555","
                <div class=""stimulus-container"">
                    <img src=""images/causal_sequence/dog_causal/dog_causal_1.png"" class=""exp-image"">
                    <div class=""question-area"">
                        <p style=""font-size: 20px; font-weight: bold; margin: 0;"">Is there a person in this image?</p>
                    </div>
                </div>","0","main_experiment_trial","1","dog_causal","causal_sequence","","","","","","","","",""
"","","","","","html-keyboard-response","124","372517","0.0-124.0","E2F27C4C54B947C5901C3F0465464943","019cf000-f6ef-7f67-87a5-fb11da5cbe31","019ceff9-9f67-7034-9722-02cda2445e09","","null","
                <div class=""stimulus-container"">
                    <img src=""images/causal_sequence/dog_causal/dog_causal_2.png"" class=""exp-image"">
                    <div class=""question-area""></div> 
                </div>","null","","","","","","","","","","","","",""
"","","","","","html-button-response","125","373186","0.0-125.0","E2F27C4C54B947C5901C3F0465464943","019cf000-f6ef-7f67-87a5-fb11da5cbe31","019ceff9-9f67-7034-9722-02cda2445e09","","668","
                <div class=""stimulus-container"">
                    <img src=""images/causal_sequence/dog_causal/dog_causal_2.png"" class=""exp-image"">
                    <div class=""question-area"">
                        <p style=""font-size: 20px; font-weight: bold; margin: 0;"">Is there a person in this image?</p>
                    </div>
                </div>","0","main_experiment_trial","2","dog_causal","causal_sequence","","","","","","","","",""
"","","","","","html-keyboard-response","126","378189","0.0-126.0","E2F27C4C54B947C5901C3F0465464943","019cf000-f6ef-7f67-87a5-fb11da5cbe31","019ceff9-9f67-7034-9722-02cda2445e09","","null","
                <div class=""stimulus-container"">
                    <img src=""images/causal_sequence/dog_causal/dog_causal_3.png"" class=""exp-image"">
                    <div class=""question-area""></div> 
                </div>","null","","","","","","","","","","","","",""
"","","","","","html-button-response","127","378723","0.0-127.0","E2F27C4C54B947C5901C3F0465464943","019cf000-f6ef-7f67-87a5-fb11da5cbe31","019ceff9-9f67-7034-9722-02cda2445e09","","533","
                <div class=""stimulus-container"">
                    <img src=""images/causal_sequence/dog_causal/dog_causal_3.png"" class=""exp-image"">
                    <div class=""question-area"">
                        <p style=""font-size: 20px; font-weight: bold; margin: 0;"">Is there a person in this image?</p>
                    </div>
                </div>","0","main_experiment_trial","3","dog_causal","causal_sequence","","","","","","","","",""
"","","","","","html-keyboard-response","128","383727","0.0-128.0","E2F27C4C54B947C5901C3F0465464943","019cf000-f6ef-7f67-87a5-fb11da5cbe31","019ceff9-9f67-7034-9722-02cda2445e09","","null","
                <div class=""stimulus-container"">
                    <img src=""images/causal_sequence/dog_causal/dog_causal_4.png"" class=""exp-image"">
                    <div class=""question-area""></div> 
                </div>","null","","","","","","","","","","","","",""
"","","","","","html-button-response","129","385258","0.0-129.0","E2F27C4C54B947C5901C3F0465464943","019cf000-f6ef-7f67-87a5-fb11da5cbe31","019ceff9-9f67-7034-9722-02cda2445e09","","1530","
                <div class=""stimulus-container"">
                    <img src=""images/causal_sequence/dog_causal/dog_causal_4.png"" class=""exp-image"">
                    <div class=""question-area"">
                        <p style=""font-size: 20px; font-weight: bold; margin: 0;"">Is there a person in this image?</p>
                    </div>
                </div>","0","main_experiment_trial","4","dog_causal","causal_sequence","","","","","","","","",""
"","","","","","html-keyboard-response","130","390269","0.0-130.0","E2F27C4C54B947C5901C3F0465464943","019cf000-f6ef-7f67-87a5-fb11da5cbe31","019ceff9-9f67-7034-9722-02cda2445e09","","null","
                <div class=""stimulus-container"">
                    <img src=""images/causal_sequence/dog_causal/dog_causal_5.png"" class=""exp-image"">
                    <div class=""question-area""></div> 
                </div>","null","","","","","","","","","","","","",""
"","","","","","html-button-response","131","390786","0.0-131.0","E2F27C4C54B947C5901C3F0465464943","019cf000-f6ef-7f67-87a5-fb11da5cbe31","019ceff9-9f67-7034-9722-02cda2445e09","","516","
                <div class=""stimulus-container"">
                    <img src=""images/causal_sequence/dog_causal/dog_causal_5.png"" class=""exp-image"">
                    <div class=""question-area"">
                        <p style=""font-size: 20px; font-weight: bold; margin: 0;"">Is there a person in this image?</p>
                    </div>
                </div>","0","main_experiment_trial","5","dog_causal","causal_sequence","","","","","","","","",""
"","","","","","html-keyboard-response","132","395792","0.0-132.0","E2F27C4C54B947C5901C3F0465464943","019cf000-f6ef-7f67-87a5-fb11da5cbe31","019ceff9-9f67-7034-9722-02cda2445e09","","null","
                <div class=""stimulus-container"">
                    <img src=""images/causal_sequence/dog_causal/dog_causal_6.png"" class=""exp-image"">
                    <div class=""question-area""></div> 
                </div>","null","","","","","","","","","","","","",""
"","","","","","html-button-response","133","396858","0.0-133.0","E2F27C4C54B947C5901C3F0465464943","019cf000-f6ef-7f67-87a5-fb11da5cbe31","019ceff9-9f67-7034-9722-02cda2445e09","","1066","
                <div class=""stimulus-container"">
                    <img src=""images/causal_sequence/dog_causal/dog_causal_6.png"" class=""exp-image"">
                    <div class=""question-area"">
                        <p style=""font-size: 20px; font-weight: bold; margin: 0;"">Is there a person in this image?</p>
                    </div>
                </div>","0","main_experiment_trial","6","dog_causal","causal_sequence","","","","","","","","",""
"","","","","","html-keyboard-response","134","401873","0.0-134.0","E2F27C4C54B947C5901C3F0465464943","019cf000-f6ef-7f67-87a5-fb11da5cbe31","019ceff9-9f67-7034-9722-02cda2445e09","","null","
                <div class=""stimulus-container"">
                    <img src=""images/causal_sequence/dog_causal/dog_causal_7.png"" class=""exp-image"">
                    <div class=""question-area""></div> 
                </div>","null","","","","","","","","","","","","",""
"","","","","","html-button-response","135","402490","0.0-135.0","E2F27C4C54B947C5901C3F0465464943","019cf000-f6ef-7f67-87a5-fb11da5cbe31","019ceff9-9f67-7034-9722-02cda2445e09","","617","
                <div class=""stimulus-container"">
                    <img src=""images/causal_sequence/dog_causal/dog_causal_7.png"" class=""exp-image"">
                    <div class=""question-area"">
                        <p style=""font-size: 20px; font-weight: bold; margin: 0;"">Is there a person in this image?</p>
                    </div>
                </div>","0","main_experiment_trial","7","dog_causal","causal_sequence","","","","","","","","",""
"","","","","","html-keyboard-response","136","407493","0.0-136.0","E2F27C4C54B947C5901C3F0465464943","019cf000-f6ef-7f67-87a5-fb11da5cbe31","019ceff9-9f67-7034-9722-02cda2445e09","","null","
                <div class=""stimulus-container"">
                    <img src=""images/causal_sequence/dog_causal/dog_causal_8.png"" class=""exp-image"">
                    <div class=""question-area""></div> 
                </div>","null","","","","","","","","","","","","",""
"","","","","","html-button-response","137","408050","0.0-137.0","E2F27C4C54B947C5901C3F0465464943","019cf000-f6ef-7f67-87a5-fb11da5cbe31","019ceff9-9f67-7034-9722-02cda2445e09","","557","
                <div class=""stimulus-container"">
                    <img src=""images/causal_sequence/dog_causal/dog_causal_8.png"" class=""exp-image"">
                    <div class=""question-area"">
                        <p style=""font-size: 20px; font-weight: bold; margin: 0;"">Is there a person in this image?</p>
                    </div>
                </div>","0","main_experiment_trial","8","dog_causal","causal_sequence","","","","","","","","",""
"","","","","","html-keyboard-response","138","413062","0.0-138.0","E2F27C4C54B947C5901C3F0465464943","019cf000-f6ef-7f67-87a5-fb11da5cbe31","019ceff9-9f67-7034-9722-02cda2445e09","","null","
                <div class=""stimulus-container"">
                    <img src=""images/causal_sequence/dog_causal/dog_causal_9.png"" class=""exp-image"">
                    <div class=""question-area""></div> 
                </div>","null","","","","","","","","","","","","",""
"","","","","","html-button-response","139","415074","0.0-139.0","E2F27C4C54B947C5901C3F0465464943","019cf000-f6ef-7f67-87a5-fb11da5cbe31","019ceff9-9f67-7034-9722-02cda2445e09","","2011","
                <div class=""stimulus-container"">
                    <img src=""images/causal_sequence/dog_causal/dog_causal_9.png"" class=""exp-image"">
                    <div class=""question-area"">
                        <p style=""font-size: 20px; font-weight: bold; margin: 0;"">Is there a person in this image?</p>
                    </div>
                </div>","0","main_experiment_trial","9","dog_causal","causal_sequence","","","","","","","","",""
"","","","","","html-keyboard-response","140","420079","0.0-140.0","E2F27C4C54B947C5901C3F0465464943","019cf000-f6ef-7f67-87a5-fb11da5cbe31","019ceff9-9f67-7034-9722-02cda2445e09","","null","
                <div class=""stimulus-container"">
                    <img src=""images/causal_sequence/dog_causal/dog_causal_ten.png"" class=""exp-image"">
                    <div class=""question-area""></div> 
                </div>","null","","","","","","","","","","","","",""
"","","","","","html-button-response","141","420786","0.0-141.0","E2F27C4C54B947C5901C3F0465464943","019cf000-f6ef-7f67-87a5-fb11da5cbe31","019ceff9-9f67-7034-9722-02cda2445e09","","706","
                <div class=""stimulus-container"">
                    <img src=""images/causal_sequence/dog_causal/dog_causal_ten.png"" class=""exp-image"">
                    <div class=""question-area"">
                        <p style=""font-size: 20px; font-weight: bold; margin: 0;"">Is there a person in this image?</p>
                    </div>
                </div>","0","main_experiment_trial","ten","dog_causal","causal_sequence","","","","","","","","",""
"","","","","","html-keyboard-response","142","421797","0.0-142.0","E2F27C4C54B947C5901C3F0465464943","019cf000-f6ef-7f67-87a5-fb11da5cbe31","019ceff9-9f67-7034-9722-02cda2445e09","","null","<div style=""background-color: white; width: 100vw; height: 100vh;""></div>","null","","","","","","","","","","","","",""
"","","","","","html-keyboard-response","143","426804","0.0-143.0","E2F27C4C54B947C5901C3F0465464943","019cf000-f6ef-7f67-87a5-fb11da5cbe31","019ceff9-9f67-7034-9722-02cda2445e09","","null","
                <div class=""stimulus-container"">
                    <img src=""images/causal_sequence/museum_causal/museum_causal_1.png"" class=""exp-image"">
                    <div class=""question-area""></div> 
                </div>","null","","","","","","","","","","","","",""
"","","","","","html-button-response","144","427514","0.0-144.0","E2F27C4C54B947C5901C3F0465464943","019cf000-f6ef-7f67-87a5-fb11da5cbe31","019ceff9-9f67-7034-9722-02cda2445e09","","708","
                <div class=""stimulus-container"">
                    <img src=""images/causal_sequence/museum_causal/museum_causal_1.png"" class=""exp-image"">
                    <div class=""question-area"">
                        <p style=""font-size: 20px; font-weight: bold; margin: 0;"">Is there a person in this image?</p>
                    </div>
                </div>","0","main_experiment_trial","1","museum_causal","causal_sequence","","","","","","","","",""
"","","","","","html-keyboard-response","145","432527","0.0-145.0","E2F27C4C54B947C5901C3F0465464943","019cf000-f6ef-7f67-87a5-fb11da5cbe31","019ceff9-9f67-7034-9722-02cda2445e09","","null","
                <div class=""stimulus-container"">
                    <img src=""images/causal_sequence/museum_causal/museum_causal_2.png"" class=""exp-image"">
                    <div class=""question-area""></div> 
                </div>","null","","","","","","","","","","","","",""
"","","","","","html-button-response","146","432978","0.0-146.0","E2F27C4C54B947C5901C3F0465464943","019cf000-f6ef-7f67-87a5-fb11da5cbe31","019ceff9-9f67-7034-9722-02cda2445e09","","450","
                <div class=""stimulus-container"">
                    <img src=""images/causal_sequence/museum_causal/museum_causal_2.png"" class=""exp-image"">
                    <div class=""question-area"">
                        <p style=""font-size: 20px; font-weight: bold; margin: 0;"">Is there a person in this image?</p>
                    </div>
                </div>","0","main_experiment_trial","2","museum_causal","causal_sequence","","","","","","","","",""
"","","","","","html-keyboard-response","147","437986","0.0-147.0","E2F27C4C54B947C5901C3F0465464943","019cf000-f6ef-7f67-87a5-fb11da5cbe31","019ceff9-9f67-7034-9722-02cda2445e09","","null","
                <div class=""stimulus-container"">
                    <img src=""images/causal_sequence/museum_causal/museum_causal_3.png"" class=""exp-image"">
                    <div class=""question-area""></div> 
                </div>","null","","","","","","","","","","","","",""
"","","","","","html-button-response","148","438682","0.0-148.0","E2F27C4C54B947C5901C3F0465464943","019cf000-f6ef-7f67-87a5-fb11da5cbe31","019ceff9-9f67-7034-9722-02cda2445e09","","696","
                <div class=""stimulus-container"">
                    <img src=""images/causal_sequence/museum_causal/museum_causal_3.png"" class=""exp-image"">
                    <div class=""question-area"">
                        <p style=""font-size: 20px; font-weight: bold; margin: 0;"">Is there a person in this image?</p>
                    </div>
                </div>","0","main_experiment_trial","3","museum_causal","causal_sequence","","","","","","","","",""
"","","","","","html-keyboard-response","149","443690","0.0-149.0","E2F27C4C54B947C5901C3F0465464943","019cf000-f6ef-7f67-87a5-fb11da5cbe31","019ceff9-9f67-7034-9722-02cda2445e09","","null","
                <div class=""stimulus-container"">
                    <img src=""images/causal_sequence/museum_causal/museum_causal_4.png"" class=""exp-image"">
                    <div class=""question-area""></div> 
                </div>","null","","","","","","","","","","","","",""
"","","","","","html-button-response","150","446106","0.0-150.0","E2F27C4C54B947C5901C3F0465464943","019cf000-f6ef-7f67-87a5-fb11da5cbe31","019ceff9-9f67-7034-9722-02cda2445e09","","2415","
                <div class=""stimulus-container"">
                    <img src=""images/causal_sequence/museum_causal/museum_causal_4.png"" class=""exp-image"">
                    <div class=""question-area"">
                        <p style=""font-size: 20px; font-weight: bold; margin: 0;"">Is there a person in this image?</p>
                    </div>
                </div>","1","main_experiment_trial","4","museum_causal","causal_sequence","","","","","","","","",""
"","","","","","html-keyboard-response","151","451117","0.0-151.0","E2F27C4C54B947C5901C3F0465464943","019cf000-f6ef-7f67-87a5-fb11da5cbe31","019ceff9-9f67-7034-9722-02cda2445e09","","null","
                <div class=""stimulus-container"">
                    <img src=""images/causal_sequence/museum_causal/museum_causal_5.png"" class=""exp-image"">
                    <div class=""question-area""></div> 
                </div>","null","","","","","","","","","","","","",""
"","","","","","html-button-response","152","452370","0.0-152.0","E2F27C4C54B947C5901C3F0465464943","019cf000-f6ef-7f67-87a5-fb11da5cbe31","019ceff9-9f67-7034-9722-02cda2445e09","","1253","
                <div class=""stimulus-container"">
                    <img src=""images/causal_sequence/museum_causal/museum_causal_5.png"" class=""exp-image"">
                    <div class=""question-area"">
                        <p style=""font-size: 20px; font-weight: bold; margin: 0;"">Is there a person in this image?</p>
                    </div>
                </div>","0","main_experiment_trial","5","museum_causal","causal_sequence","","","","","","","","",""
"","","","","","html-keyboard-response","153","457374","0.0-153.0","E2F27C4C54B947C5901C3F0465464943","019cf000-f6ef-7f67-87a5-fb11da5cbe31","019ceff9-9f67-7034-9722-02cda2445e09","","null","
                <div class=""stimulus-container"">
                    <img src=""images/causal_sequence/museum_causal/museum_causal_6.png"" class=""exp-image"">
                    <div class=""question-area""></div> 
                </div>","null","","","","","","","","","","","","",""
"","","","","","html-button-response","154","458362","0.0-154.0","E2F27C4C54B947C5901C3F0465464943","019cf000-f6ef-7f67-87a5-fb11da5cbe31","019ceff9-9f67-7034-9722-02cda2445e09","","987","
                <div class=""stimulus-container"">
                    <img src=""images/causal_sequence/museum_causal/museum_causal_6.png"" class=""exp-image"">
                    <div class=""question-area"">
                        <p style=""font-size: 20px; font-weight: bold; margin: 0;"">Is there a person in this image?</p>
                    </div>
                </div>","0","main_experiment_trial","6","museum_causal","causal_sequence","","","","","","","","",""
"","","","","","html-keyboard-response","155","463363","0.0-155.0","E2F27C4C54B947C5901C3F0465464943","019cf000-f6ef-7f67-87a5-fb11da5cbe31","019ceff9-9f67-7034-9722-02cda2445e09","","null","
                <div class=""stimulus-container"">
                    <img src=""images/causal_sequence/museum_causal/museum_causal_7.png"" class=""exp-image"">
                    <div class=""question-area""></div> 
                </div>","null","","","","","","","","","","","","",""
"","","","","","html-button-response","156","464250","0.0-156.0","E2F27C4C54B947C5901C3F0465464943","019cf000-f6ef-7f67-87a5-fb11da5cbe31","019ceff9-9f67-7034-9722-02cda2445e09","","887","
                <div class=""stimulus-container"">
                    <img src=""images/causal_sequence/museum_causal/museum_causal_7.png"" class=""exp-image"">
                    <div class=""question-area"">
                        <p style=""font-size: 20px; font-weight: bold; margin: 0;"">Is there a person in this image?</p>
                    </div>
                </div>","1","main_experiment_trial","7","museum_causal","causal_sequence","","","","","","","","",""
"","","","","","html-keyboard-response","157","469251","0.0-157.0","E2F27C4C54B947C5901C3F0465464943","019cf000-f6ef-7f67-87a5-fb11da5cbe31","019ceff9-9f67-7034-9722-02cda2445e09","","null","
                <div class=""stimulus-container"">
                    <img src=""images/causal_sequence/museum_causal/museum_causal_8.png"" class=""exp-image"">
                    <div class=""question-area""></div> 
                </div>","null","","","","","","","","","","","","",""
"","","","","","html-button-response","158","470699","0.0-158.0","E2F27C4C54B947C5901C3F0465464943","019cf000-f6ef-7f67-87a5-fb11da5cbe31","019ceff9-9f67-7034-9722-02cda2445e09","","1447","
                <div class=""stimulus-container"">
                    <img src=""images/causal_sequence/museum_causal/museum_causal_8.png"" class=""exp-image"">
                    <div class=""question-area"">
                        <p style=""font-size: 20px; font-weight: bold; margin: 0;"">Is there a person in this image?</p>
                    </div>
                </div>","0","main_experiment_trial","8","museum_causal","causal_sequence","","","","","","","","",""
"","","","","","html-keyboard-response","159","475710","0.0-159.0","E2F27C4C54B947C5901C3F0465464943","019cf000-f6ef-7f67-87a5-fb11da5cbe31","019ceff9-9f67-7034-9722-02cda2445e09","","null","
                <div class=""stimulus-container"">
                    <img src=""images/causal_sequence/museum_causal/museum_causal_9.png"" class=""exp-image"">
                    <div class=""question-area""></div> 
                </div>","null","","","","","","","","","","","","",""
"","","","","","html-button-response","160","477282","0.0-160.0","E2F27C4C54B947C5901C3F0465464943","019cf000-f6ef-7f67-87a5-fb11da5cbe31","019ceff9-9f67-7034-9722-02cda2445e09","","1572","
                <div class=""stimulus-container"">
                    <img src=""images/causal_sequence/museum_causal/museum_causal_9.png"" class=""exp-image"">
                    <div class=""question-area"">
                        <p style=""font-size: 20px; font-weight: bold; margin: 0;"">Is there a person in this image?</p>
                    </div>
                </div>","1","main_experiment_trial","9","museum_causal","causal_sequence","","","","","","","","",""
"","","","","","html-keyboard-response","161","482297","0.0-161.0","E2F27C4C54B947C5901C3F0465464943","019cf000-f6ef-7f67-87a5-fb11da5cbe31","019ceff9-9f67-7034-9722-02cda2445e09","","null","
                <div class=""stimulus-container"">
                    <img src=""images/causal_sequence/museum_causal/museum_causal_ten.png"" class=""exp-image"">
                    <div class=""question-area""></div> 
                </div>","null","","","","","","","","","","","","",""
"","","","","","html-button-response","162","482754","0.0-162.0","E2F27C4C54B947C5901C3F0465464943","019cf000-f6ef-7f67-87a5-fb11da5cbe31","019ceff9-9f67-7034-9722-02cda2445e09","","456","
                <div class=""stimulus-container"">
                    <img src=""images/causal_sequence/museum_causal/museum_causal_ten.png"" class=""exp-image"">
                    <div class=""question-area"">
                        <p style=""font-size: 20px; font-weight: bold; margin: 0;"">Is there a person in this image?</p>
                    </div>
                </div>","0","main_experiment_trial","ten","museum_causal","causal_sequence","","","","","","","","",""
"","","","","","html-keyboard-response","163","483757","0.0-163.0","E2F27C4C54B947C5901C3F0465464943","019cf000-f6ef-7f67-87a5-fb11da5cbe31","019ceff9-9f67-7034-9722-02cda2445e09","","null","<div style=""background-color: white; width: 100vw; height: 100vh;""></div>","null","","","","","","","","","","","","",""
"","","","","","html-keyboard-response","164","488766","0.0-164.0","E2F27C4C54B947C5901C3F0465464943","019cf000-f6ef-7f67-87a5-fb11da5cbe31","019ceff9-9f67-7034-9722-02cda2445e09","","null","
                <div class=""stimulus-container"">
                    <img src=""images/schematic_sequence/flight_scheme/flight_scheme_1.png"" class=""exp-image"">
                    <div class=""question-area""></div> 
                </div>","null","","","","","","","","","","","","",""
"","","","","","html-button-response","165","489498","0.0-165.0","E2F27C4C54B947C5901C3F0465464943","019cf000-f6ef-7f67-87a5-fb11da5cbe31","019ceff9-9f67-7034-9722-02cda2445e09","","731","
                <div class=""stimulus-container"">
                    <img src=""images/schematic_sequence/flight_scheme/flight_scheme_1.png"" class=""exp-image"">
                    <div class=""question-area"">
                        <p style=""font-size: 20px; font-weight: bold; margin: 0;"">Is there a person in this image?</p>
                    </div>
                </div>","0","main_experiment_trial","1","flight_scheme","schematic_sequence","","","","","","","","",""
"","","","","","html-keyboard-response","166","494499","0.0-166.0","E2F27C4C54B947C5901C3F0465464943","019cf000-f6ef-7f67-87a5-fb11da5cbe31","019ceff9-9f67-7034-9722-02cda2445e09","","null","
                <div class=""stimulus-container"">
                    <img src=""images/schematic_sequence/flight_scheme/flight_scheme_2.png"" class=""exp-image"">
                    <div class=""question-area""></div> 
                </div>","null","","","","","","","","","","","","",""
"","","","","","html-button-response","167","495330","0.0-167.0","E2F27C4C54B947C5901C3F0465464943","019cf000-f6ef-7f67-87a5-fb11da5cbe31","019ceff9-9f67-7034-9722-02cda2445e09","","830","
                <div class=""stimulus-container"">
                    <img src=""images/schematic_sequence/flight_scheme/flight_scheme_2.png"" class=""exp-image"">
                    <div class=""question-area"">
                        <p style=""font-size: 20px; font-weight: bold; margin: 0;"">Is there a person in this image?</p>
                    </div>
                </div>","1","main_experiment_trial","2","flight_scheme","schematic_sequence","","","","","","","","",""
"","","","","","html-keyboard-response","168","500331","0.0-168.0","E2F27C4C54B947C5901C3F0465464943","019cf000-f6ef-7f67-87a5-fb11da5cbe31","019ceff9-9f67-7034-9722-02cda2445e09","","null","
                <div class=""stimulus-container"">
                    <img src=""images/schematic_sequence/flight_scheme/flight_scheme_3.png"" class=""exp-image"">
                    <div class=""question-area""></div> 
                </div>","null","","","","","","","","","","","","",""
"","","","","","html-button-response","169","501123","0.0-169.0","E2F27C4C54B947C5901C3F0465464943","019cf000-f6ef-7f67-87a5-fb11da5cbe31","019ceff9-9f67-7034-9722-02cda2445e09","","791","
                <div class=""stimulus-container"">
                    <img src=""images/schematic_sequence/flight_scheme/flight_scheme_3.png"" class=""exp-image"">
                    <div class=""question-area"">
                        <p style=""font-size: 20px; font-weight: bold; margin: 0;"">Is there a person in this image?</p>
                    </div>
                </div>","0","main_experiment_trial","3","flight_scheme","schematic_sequence","","","","","","","","",""
"","","","","","html-keyboard-response","170","506134","0.0-170.0","E2F27C4C54B947C5901C3F0465464943","019cf000-f6ef-7f67-87a5-fb11da5cbe31","019ceff9-9f67-7034-9722-02cda2445e09","","null","
                <div class=""stimulus-container"">
                    <img src=""images/schematic_sequence/flight_scheme/flight_scheme_4.png"" class=""exp-image"">
                    <div class=""question-area""></div> 
                </div>","null","","","","","","","","","","","","",""
"","","","","","html-button-response","171","507034","0.0-171.0","E2F27C4C54B947C5901C3F0465464943","019cf000-f6ef-7f67-87a5-fb11da5cbe31","019ceff9-9f67-7034-9722-02cda2445e09","","899","
                <div class=""stimulus-container"">
                    <img src=""images/schematic_sequence/flight_scheme/flight_scheme_4.png"" class=""exp-image"">
                    <div class=""question-area"">
                        <p style=""font-size: 20px; font-weight: bold; margin: 0;"">Is there a person in this image?</p>
                    </div>
                </div>","0","main_experiment_trial","4","flight_scheme","schematic_sequence","","","","","","","","",""
"","","","","","html-keyboard-response","172","512045","0.0-172.0","E2F27C4C54B947C5901C3F0465464943","019cf000-f6ef-7f67-87a5-fb11da5cbe31","019ceff9-9f67-7034-9722-02cda2445e09","","null","
                <div class=""stimulus-container"">
                    <img src=""images/schematic_sequence/flight_scheme/flight_scheme_5.png"" class=""exp-image"">
                    <div class=""question-area""></div> 
                </div>","null","","","","","","","","","","","","",""
"","","","","","html-button-response","173","512690","0.0-173.0","E2F27C4C54B947C5901C3F0465464943","019cf000-f6ef-7f67-87a5-fb11da5cbe31","019ceff9-9f67-7034-9722-02cda2445e09","","644","
                <div class=""stimulus-container"">
                    <img src=""images/schematic_sequence/flight_scheme/flight_scheme_5.png"" class=""exp-image"">
                    <div class=""question-area"">
                        <p style=""font-size: 20px; font-weight: bold; margin: 0;"">Is there a person in this image?</p>
                    </div>
                </div>","0","main_experiment_trial","5","flight_scheme","schematic_sequence","","","","","","","","",""
"","","","","","html-keyboard-response","174","517699","0.0-174.0","E2F27C4C54B947C5901C3F0465464943","019cf000-f6ef-7f67-87a5-fb11da5cbe31","019ceff9-9f67-7034-9722-02cda2445e09","","null","
                <div class=""stimulus-container"">
                    <img src=""images/schematic_sequence/flight_scheme/flight_scheme_6.png"" class=""exp-image"">
                    <div class=""question-area""></div> 
                </div>","null","","","","","","","","","","","","",""
"","","","","","html-button-response","175","519059","0.0-175.0","E2F27C4C54B947C5901C3F0465464943","019cf000-f6ef-7f67-87a5-fb11da5cbe31","019ceff9-9f67-7034-9722-02cda2445e09","","1358","
                <div class=""stimulus-container"">
                    <img src=""images/schematic_sequence/flight_scheme/flight_scheme_6.png"" class=""exp-image"">
                    <div class=""question-area"">
                        <p style=""font-size: 20px; font-weight: bold; margin: 0;"">Is there a person in this image?</p>
                    </div>
                </div>","1","main_experiment_trial","6","flight_scheme","schematic_sequence","","","","","","","","",""
"","","","","","html-keyboard-response","176","524067","0.0-176.0","E2F27C4C54B947C5901C3F0465464943","019cf000-f6ef-7f67-87a5-fb11da5cbe31","019ceff9-9f67-7034-9722-02cda2445e09","","null","
                <div class=""stimulus-container"">
                    <img src=""images/schematic_sequence/flight_scheme/flight_scheme_7.png"" class=""exp-image"">
                    <div class=""question-area""></div> 
                </div>","null","","","","","","","","","","","","",""
"","","","","","html-button-response","177","524514","0.0-177.0","E2F27C4C54B947C5901C3F0465464943","019cf000-f6ef-7f67-87a5-fb11da5cbe31","019ceff9-9f67-7034-9722-02cda2445e09","","446","
                <div class=""stimulus-container"">
                    <img src=""images/schematic_sequence/flight_scheme/flight_scheme_7.png"" class=""exp-image"">
                    <div class=""question-area"">
                        <p style=""font-size: 20px; font-weight: bold; margin: 0;"">Is there a person in this image?</p>
                    </div>
                </div>","0","main_experiment_trial","7","flight_scheme","schematic_sequence","","","","","","","","",""
"","","","","","html-keyboard-response","178","529529","0.0-178.0","E2F27C4C54B947C5901C3F0465464943","019cf000-f6ef-7f67-87a5-fb11da5cbe31","019ceff9-9f67-7034-9722-02cda2445e09","","null","
                <div class=""stimulus-container"">
                    <img src=""images/schematic_sequence/flight_scheme/flight_scheme_8.png"" class=""exp-image"">
                    <div class=""question-area""></div> 
                </div>","null","","","","","","","","","","","","",""
"","","","","","html-button-response","179","530298","0.0-179.0","E2F27C4C54B947C5901C3F0465464943","019cf000-f6ef-7f67-87a5-fb11da5cbe31","019ceff9-9f67-7034-9722-02cda2445e09","","768","
                <div class=""stimulus-container"">
                    <img src=""images/schematic_sequence/flight_scheme/flight_scheme_8.png"" class=""exp-image"">
                    <div class=""question-area"">
                        <p style=""font-size: 20px; font-weight: bold; margin: 0;"">Is there a person in this image?</p>
                    </div>
                </div>","1","main_experiment_trial","8","flight_scheme","schematic_sequence","","","","","","","","",""
"","","","","","html-keyboard-response","180","535303","0.0-180.0","E2F27C4C54B947C5901C3F0465464943","019cf000-f6ef-7f67-87a5-fb11da5cbe31","019ceff9-9f67-7034-9722-02cda2445e09","","null","
                <div class=""stimulus-container"">
                    <img src=""images/schematic_sequence/flight_scheme/flight_scheme_9.png"" class=""exp-image"">
                    <div class=""question-area""></div> 
                </div>","null","","","","","","","","","","","","",""
