"success","timeout","failed_images","failed_audio","failed_video","trial_type","trial_index","time_elapsed","internal_node_id","subject_id","study_id","session_id","view_history","rt","stimulus","response","task","image_index","folder","sequence_type","presentation_order","valuable_image_index","reward_type","distance_from_x","target_X","chosen_image_index","is_x_plus_dist","correct_choice"
"true","false","[]","[]","[]","preload","0","6077","0.0-0.0","6CBE5C9F25D44F2399FDF9C34B1F8200","019cfc9b-66ee-7c54-90b9-660c45863e9a","019cfc7b-6c7b-7b1b-afe7-acad8efc6711","","","","","","","","","","","","","","","",""
"","","","","","instructions","1","7830","0.0-1.0","6CBE5C9F25D44F2399FDF9C34B1F8200","019cfc9b-66ee-7c54-90b9-660c45863e9a","019cfc7b-6c7b-7b1b-afe7-acad8efc6711","[{""page_index"":0,""viewing_time"":1751}]","1752","","","","","","","","","","","","","",""
"","","","","","instructions","2","11441","0.0-2.0","6CBE5C9F25D44F2399FDF9C34B1F8200","019cfc9b-66ee-7c54-90b9-660c45863e9a","019cfc7b-6c7b-7b1b-afe7-acad8efc6711","[{""page_index"":0,""viewing_time"":3598}]","3609","","","","","","","","","","","","","",""
"true","","","","","fullscreen","3","13714","0.0-3.0","6CBE5C9F25D44F2399FDF9C34B1F8200","019cfc9b-66ee-7c54-90b9-660c45863e9a","019cfc7b-6c7b-7b1b-afe7-acad8efc6711","","1270","","","","","","","","","","","","","",""
"","","","","","instructions","4","17296","0.0-4.0","6CBE5C9F25D44F2399FDF9C34B1F8200","019cfc9b-66ee-7c54-90b9-660c45863e9a","019cfc7b-6c7b-7b1b-afe7-acad8efc6711","[{""page_index"":0,""viewing_time"":3581}]","3582","","","","","","","","","","","","","",""
"","","","","","instructions","5","20247","0.0-5.0","6CBE5C9F25D44F2399FDF9C34B1F8200","019cfc9b-66ee-7c54-90b9-660c45863e9a","019cfc7b-6c7b-7b1b-afe7-acad8efc6711","[{""page_index"":0,""viewing_time"":2950}]","2950","","","","","","","","","","","","","",""
"","","","","","html-keyboard-response","6","24251","0.0-6.0","6CBE5C9F25D44F2399FDF9C34B1F8200","019cfc9b-66ee-7c54-90b9-660c45863e9a","019cfc7b-6c7b-7b1b-afe7-acad8efc6711","","null","
                <div class=""stimulus-container"">
                    <img src=""images/instructions/movie_1.png"" class=""exp-image"">
                    <div class=""question-area""></div> 
                </div>","null","","","","","","","","","","","",""
"","","","","","html-button-response","7","26429","0.0-7.0","6CBE5C9F25D44F2399FDF9C34B1F8200","019cfc9b-66ee-7c54-90b9-660c45863e9a","019cfc7b-6c7b-7b1b-afe7-acad8efc6711","","2175","
                <div class=""stimulus-container"">
                    <img src=""images/instructions/movie_1.png"" class=""exp-image"">
                    <div class=""question-area"">
                        <p style=""font-size: 20px; font-weight: bold; margin: 0;"">Was there a person in this image?</p>
                    </div>
                </div>","0","example_question","1","","","","","","","","","",""
"","","","","","html-keyboard-response","8","30431","0.0-8.0","6CBE5C9F25D44F2399FDF9C34B1F8200","019cfc9b-66ee-7c54-90b9-660c45863e9a","019cfc7b-6c7b-7b1b-afe7-acad8efc6711","","null","
                <div class=""stimulus-container"">
                    <img src=""images/instructions/movie_2.png"" class=""exp-image"">
                    <div class=""question-area""></div> 
                </div>","null","","","","","","","","","","","",""
"","","","","","html-button-response","9","31178","0.0-9.0","6CBE5C9F25D44F2399FDF9C34B1F8200","019cfc9b-66ee-7c54-90b9-660c45863e9a","019cfc7b-6c7b-7b1b-afe7-acad8efc6711","","745","
                <div class=""stimulus-container"">
                    <img src=""images/instructions/movie_2.png"" class=""exp-image"">
                    <div class=""question-area"">
                        <p style=""font-size: 20px; font-weight: bold; margin: 0;"">Was there a person in this image?</p>
                    </div>
                </div>","0","example_question","2","","","","","","","","","",""
"","","","","","html-keyboard-response","10","35180","0.0-10.0","6CBE5C9F25D44F2399FDF9C34B1F8200","019cfc9b-66ee-7c54-90b9-660c45863e9a","019cfc7b-6c7b-7b1b-afe7-acad8efc6711","","null","
                <div class=""stimulus-container"">
                    <img src=""images/instructions/movie_3.png"" class=""exp-image"">
                    <div class=""question-area""></div> 
                </div>","null","","","","","","","","","","","",""
"","","","","","html-button-response","11","35713","0.0-11.0","6CBE5C9F25D44F2399FDF9C34B1F8200","019cfc9b-66ee-7c54-90b9-660c45863e9a","019cfc7b-6c7b-7b1b-afe7-acad8efc6711","","530","
                <div class=""stimulus-container"">
                    <img src=""images/instructions/movie_3.png"" class=""exp-image"">
                    <div class=""question-area"">
                        <p style=""font-size: 20px; font-weight: bold; margin: 0;"">Was there a person in this image?</p>
                    </div>
                </div>","0","example_question","3","","","","","","","","","",""
"","","","","","html-keyboard-response","12","39715","0.0-12.0","6CBE5C9F25D44F2399FDF9C34B1F8200","019cfc9b-66ee-7c54-90b9-660c45863e9a","019cfc7b-6c7b-7b1b-afe7-acad8efc6711","","null","
                <div class=""stimulus-container"">
                    <img src=""images/instructions/movie_4.png"" class=""exp-image"">
                    <div class=""question-area""></div> 
                </div>","null","","","","","","","","","","","",""
"","","","","","html-button-response","13","40180","0.0-13.0","6CBE5C9F25D44F2399FDF9C34B1F8200","019cfc9b-66ee-7c54-90b9-660c45863e9a","019cfc7b-6c7b-7b1b-afe7-acad8efc6711","","462","
                <div class=""stimulus-container"">
                    <img src=""images/instructions/movie_4.png"" class=""exp-image"">
                    <div class=""question-area"">
                        <p style=""font-size: 20px; font-weight: bold; margin: 0;"">Was there a person in this image?</p>
                    </div>
                </div>","0","example_question","4","","","","","","","","","",""
"","","","","","instructions","14","41480","0.0-14.0","6CBE5C9F25D44F2399FDF9C34B1F8200","019cfc9b-66ee-7c54-90b9-660c45863e9a","019cfc7b-6c7b-7b1b-afe7-acad8efc6711","[{""page_index"":0,""viewing_time"":1297}]","1298","","","","","","","","","","","","","",""
"","","","","","instructions","15","44363","0.0-15.0","6CBE5C9F25D44F2399FDF9C34B1F8200","019cfc9b-66ee-7c54-90b9-660c45863e9a","019cfc7b-6c7b-7b1b-afe7-acad8efc6711","[{""page_index"":0,""viewing_time"":2882}]","2882","","","","","","","","","","","","","",""
"","","","","","html-keyboard-response","16","49365","0.0-16.0","6CBE5C9F25D44F2399FDF9C34B1F8200","019cfc9b-66ee-7c54-90b9-660c45863e9a","019cfc7b-6c7b-7b1b-afe7-acad8efc6711","","null","<div style=""background-color: white; width: 100vw; height: 100vh;""></div>","null","","","","","","","","","","","",""
"","","","","","html-keyboard-response","17","54368","0.0-17.0","6CBE5C9F25D44F2399FDF9C34B1F8200","019cfc9b-66ee-7c54-90b9-660c45863e9a","019cfc7b-6c7b-7b1b-afe7-acad8efc6711","","null","
                <div class=""stimulus-container"">
                    <img src=""images/causal_sequence/dog_causal/dog_causal_1.png"" class=""exp-image"">
                    <div class=""question-area""></div> 
                </div>","null","","","","","","","","","","","",""
"","","","","","html-button-response","18","56913","0.0-18.0","6CBE5C9F25D44F2399FDF9C34B1F8200","019cfc9b-66ee-7c54-90b9-660c45863e9a","019cfc7b-6c7b-7b1b-afe7-acad8efc6711","","2542","
                <div class=""stimulus-container"">
                    <img src=""images/causal_sequence/dog_causal/dog_causal_1.png"" class=""exp-image"">
                    <div class=""question-area"">
                        <p style=""font-size: 20px; font-weight: bold; margin: 0;"">Is there a person in this image?</p>
                    </div>
                </div>","0","main_experiment_trial","1","dog_causal","causal_sequence","chronological","","","","","","",""
"","","","","","html-keyboard-response","19","61916","0.0-19.0","6CBE5C9F25D44F2399FDF9C34B1F8200","019cfc9b-66ee-7c54-90b9-660c45863e9a","019cfc7b-6c7b-7b1b-afe7-acad8efc6711","","null","
                <div class=""stimulus-container"">
                    <img src=""images/causal_sequence/dog_causal/dog_causal_2.png"" class=""exp-image"">
                    <div class=""question-area""></div> 
                </div>","null","","","","","","","","","","","",""
"","","","","","html-button-response","20","64919","0.0-20.0","6CBE5C9F25D44F2399FDF9C34B1F8200","019cfc9b-66ee-7c54-90b9-660c45863e9a","019cfc7b-6c7b-7b1b-afe7-acad8efc6711","","null","
                <div class=""stimulus-container"">
                    <img src=""images/causal_sequence/dog_causal/dog_causal_2.png"" class=""exp-image"">
                    <div class=""question-area"">
                        <p style=""font-size: 20px; font-weight: bold; margin: 0;"">Is there a person in this image?</p>
                    </div>
                </div>","null","main_experiment_trial","2","dog_causal","causal_sequence","chronological","","","","","","",""
"","","","","","html-keyboard-response","21","69922","0.0-21.0","6CBE5C9F25D44F2399FDF9C34B1F8200","019cfc9b-66ee-7c54-90b9-660c45863e9a","019cfc7b-6c7b-7b1b-afe7-acad8efc6711","","null","
                <div class=""stimulus-container"">
                    <img src=""images/causal_sequence/dog_causal/dog_causal_3.png"" class=""exp-image"">
                    <div class=""question-area""></div> 
                </div>","null","","","","","","","","","","","",""
"","","","","","html-button-response","22","70964","0.0-22.0","6CBE5C9F25D44F2399FDF9C34B1F8200","019cfc9b-66ee-7c54-90b9-660c45863e9a","019cfc7b-6c7b-7b1b-afe7-acad8efc6711","","1039","
                <div class=""stimulus-container"">
                    <img src=""images/causal_sequence/dog_causal/dog_causal_3.png"" class=""exp-image"">
                    <div class=""question-area"">
                        <p style=""font-size: 20px; font-weight: bold; margin: 0;"">Is there a person in this image?</p>
                    </div>
                </div>","0","main_experiment_trial","3","dog_causal","causal_sequence","chronological","","","","","","",""
"","","","","","html-keyboard-response","23","75967","0.0-23.0","6CBE5C9F25D44F2399FDF9C34B1F8200","019cfc9b-66ee-7c54-90b9-660c45863e9a","019cfc7b-6c7b-7b1b-afe7-acad8efc6711","","null","
                <div class=""stimulus-container"">
                    <img src=""images/causal_sequence/dog_causal/dog_causal_4.png"" class=""exp-image"">
                    <div class=""question-area""></div> 
                </div>","null","","","","","","","","","","","",""
"","","","","","html-button-response","24","76831","0.0-24.0","6CBE5C9F25D44F2399FDF9C34B1F8200","019cfc9b-66ee-7c54-90b9-660c45863e9a","019cfc7b-6c7b-7b1b-afe7-acad8efc6711","","861","
                <div class=""stimulus-container"">
                    <img src=""images/causal_sequence/dog_causal/dog_causal_4.png"" class=""exp-image"">
                    <div class=""question-area"">
                        <p style=""font-size: 20px; font-weight: bold; margin: 0;"">Is there a person in this image?</p>
                    </div>
                </div>","0","main_experiment_trial","4","dog_causal","causal_sequence","chronological","","","","","","",""
"","","","","","html-keyboard-response","25","81833","0.0-25.0","6CBE5C9F25D44F2399FDF9C34B1F8200","019cfc9b-66ee-7c54-90b9-660c45863e9a","019cfc7b-6c7b-7b1b-afe7-acad8efc6711","","null","
                <div class=""stimulus-container"">
                    <img src=""images/causal_sequence/dog_causal/dog_causal_5.png"" class=""exp-image"">
                    <div class=""question-area""></div> 
                </div>","null","","","","","","","","","","","",""
"","","","","","html-button-response","26","82431","0.0-26.0","6CBE5C9F25D44F2399FDF9C34B1F8200","019cfc9b-66ee-7c54-90b9-660c45863e9a","019cfc7b-6c7b-7b1b-afe7-acad8efc6711","","596","
                <div class=""stimulus-container"">
                    <img src=""images/causal_sequence/dog_causal/dog_causal_5.png"" class=""exp-image"">
                    <div class=""question-area"">
                        <p style=""font-size: 20px; font-weight: bold; margin: 0;"">Is there a person in this image?</p>
                    </div>
                </div>","0","main_experiment_trial","5","dog_causal","causal_sequence","chronological","","","","","","",""
"","","","","","html-keyboard-response","27","87434","0.0-27.0","6CBE5C9F25D44F2399FDF9C34B1F8200","019cfc9b-66ee-7c54-90b9-660c45863e9a","019cfc7b-6c7b-7b1b-afe7-acad8efc6711","","null","
                <div class=""stimulus-container"">
                    <img src=""images/causal_sequence/dog_causal/dog_causal_6.png"" class=""exp-image"">
                    <div class=""question-area""></div> 
                </div>","null","","","","","","","","","","","",""
"","","","","","html-button-response","28","87946","0.0-28.0","6CBE5C9F25D44F2399FDF9C34B1F8200","019cfc9b-66ee-7c54-90b9-660c45863e9a","019cfc7b-6c7b-7b1b-afe7-acad8efc6711","","511","
                <div class=""stimulus-container"">
                    <img src=""images/causal_sequence/dog_causal/dog_causal_6.png"" class=""exp-image"">
                    <div class=""question-area"">
                        <p style=""font-size: 20px; font-weight: bold; margin: 0;"">Is there a person in this image?</p>
                    </div>
                </div>","0","main_experiment_trial","6","dog_causal","causal_sequence","chronological","","","","","","",""
"","","","","","html-keyboard-response","29","92949","0.0-29.0","6CBE5C9F25D44F2399FDF9C34B1F8200","019cfc9b-66ee-7c54-90b9-660c45863e9a","019cfc7b-6c7b-7b1b-afe7-acad8efc6711","","null","
                <div class=""stimulus-container"">
                    <img src=""images/causal_sequence/dog_causal/dog_causal_7.png"" class=""exp-image"">
                    <div class=""question-area""></div> 
                </div>","null","","","","","","","","","","","",""
"","","","","","html-button-response","30","93597","0.0-30.0","6CBE5C9F25D44F2399FDF9C34B1F8200","019cfc9b-66ee-7c54-90b9-660c45863e9a","019cfc7b-6c7b-7b1b-afe7-acad8efc6711","","645","
                <div class=""stimulus-container"">
                    <img src=""images/causal_sequence/dog_causal/dog_causal_7.png"" class=""exp-image"">
                    <div class=""question-area"">
                        <p style=""font-size: 20px; font-weight: bold; margin: 0;"">Is there a person in this image?</p>
                    </div>
                </div>","0","main_experiment_trial","7","dog_causal","causal_sequence","chronological","","","","","","",""
"","","","","","html-keyboard-response","31","98600","0.0-31.0","6CBE5C9F25D44F2399FDF9C34B1F8200","019cfc9b-66ee-7c54-90b9-660c45863e9a","019cfc7b-6c7b-7b1b-afe7-acad8efc6711","","null","
                <div class=""stimulus-container"">
                    <img src=""images/causal_sequence/dog_causal/dog_causal_8.png"" class=""exp-image"">
                    <div class=""question-area""></div> 
                </div>","null","","","","","","","","","","","",""
"","","","","","html-button-response","32","99464","0.0-32.0","6CBE5C9F25D44F2399FDF9C34B1F8200","019cfc9b-66ee-7c54-90b9-660c45863e9a","019cfc7b-6c7b-7b1b-afe7-acad8efc6711","","862","
                <div class=""stimulus-container"">
                    <img src=""images/causal_sequence/dog_causal/dog_causal_8.png"" class=""exp-image"">
                    <div class=""question-area"">
                        <p style=""font-size: 20px; font-weight: bold; margin: 0;"">Is there a person in this image?</p>
                    </div>
                </div>","0","main_experiment_trial","8","dog_causal","causal_sequence","chronological","","","","","","",""
"","","","","","html-keyboard-response","33","104466","0.0-33.0","6CBE5C9F25D44F2399FDF9C34B1F8200","019cfc9b-66ee-7c54-90b9-660c45863e9a","019cfc7b-6c7b-7b1b-afe7-acad8efc6711","","null","
                <div class=""stimulus-container"">
                    <img src=""images/causal_sequence/dog_causal/dog_causal_9.png"" class=""exp-image"">
                    <div class=""question-area""></div> 
                </div>","null","","","","","","","","","","","",""
"","","","","","html-button-response","34","105213","0.0-34.0","6CBE5C9F25D44F2399FDF9C34B1F8200","019cfc9b-66ee-7c54-90b9-660c45863e9a","019cfc7b-6c7b-7b1b-afe7-acad8efc6711","","745","
                <div class=""stimulus-container"">
                    <img src=""images/causal_sequence/dog_causal/dog_causal_9.png"" class=""exp-image"">
                    <div class=""question-area"">
                        <p style=""font-size: 20px; font-weight: bold; margin: 0;"">Is there a person in this image?</p>
                    </div>
                </div>","0","main_experiment_trial","9","dog_causal","causal_sequence","chronological","","","","","","",""
"","","","","","html-keyboard-response","35","110216","0.0-35.0","6CBE5C9F25D44F2399FDF9C34B1F8200","019cfc9b-66ee-7c54-90b9-660c45863e9a","019cfc7b-6c7b-7b1b-afe7-acad8efc6711","","null","
                <div class=""stimulus-container"">
                    <img src=""images/causal_sequence/dog_causal/dog_causal_ten.png"" class=""exp-image"">
                    <div class=""question-area""></div> 
                </div>","null","","","","","","","","","","","",""
"","","","","","html-button-response","36","111648","0.0-36.0","6CBE5C9F25D44F2399FDF9C34B1F8200","019cfc9b-66ee-7c54-90b9-660c45863e9a","019cfc7b-6c7b-7b1b-afe7-acad8efc6711","","1430","
                <div class=""stimulus-container"">
                    <img src=""images/causal_sequence/dog_causal/dog_causal_ten.png"" class=""exp-image"">
                    <div class=""question-area"">
                        <p style=""font-size: 20px; font-weight: bold; margin: 0;"">Is there a person in this image?</p>
                    </div>
                </div>","0","main_experiment_trial","ten","dog_causal","causal_sequence","chronological","","","","","","",""
"","","","","","html-keyboard-response","37","116651","0.0-37.0","6CBE5C9F25D44F2399FDF9C34B1F8200","019cfc9b-66ee-7c54-90b9-660c45863e9a","019cfc7b-6c7b-7b1b-afe7-acad8efc6711","","null","<div style=""background-color: white; width: 100vw; height: 100vh;""></div>","null","","","","","","","","","","","",""
"","","","","","html-keyboard-response","38","121654","0.0-38.0","6CBE5C9F25D44F2399FDF9C34B1F8200","019cfc9b-66ee-7c54-90b9-660c45863e9a","019cfc7b-6c7b-7b1b-afe7-acad8efc6711","","null","
                <div class=""stimulus-container"">
                    <img src=""images/schematic_sequence/dinner_party_scheme/dinner_party_scheme_1.png"" class=""exp-image"">
                    <div class=""question-area""></div> 
                </div>","null","","","","","","","","","","","",""
"","","","","","html-button-response","39","122331","0.0-39.0","6CBE5C9F25D44F2399FDF9C34B1F8200","019cfc9b-66ee-7c54-90b9-660c45863e9a","019cfc7b-6c7b-7b1b-afe7-acad8efc6711","","675","
                <div class=""stimulus-container"">
                    <img src=""images/schematic_sequence/dinner_party_scheme/dinner_party_scheme_1.png"" class=""exp-image"">
                    <div class=""question-area"">
                        <p style=""font-size: 20px; font-weight: bold; margin: 0;"">Is there a person in this image?</p>
                    </div>
                </div>","0","main_experiment_trial","1","dinner_party_scheme","schematic_sequence","chronological","","","","","","",""
"","","","","","html-keyboard-response","40","127334","0.0-40.0","6CBE5C9F25D44F2399FDF9C34B1F8200","019cfc9b-66ee-7c54-90b9-660c45863e9a","019cfc7b-6c7b-7b1b-afe7-acad8efc6711","","null","
                <div class=""stimulus-container"">
                    <img src=""images/schematic_sequence/dinner_party_scheme/dinner_party_scheme_2.png"" class=""exp-image"">
                    <div class=""question-area""></div> 
                </div>","null","","","","","","","","","","","",""
"","","","","","html-button-response","41","129298","0.0-41.0","6CBE5C9F25D44F2399FDF9C34B1F8200","019cfc9b-66ee-7c54-90b9-660c45863e9a","019cfc7b-6c7b-7b1b-afe7-acad8efc6711","","1961","
                <div class=""stimulus-container"">
                    <img src=""images/schematic_sequence/dinner_party_scheme/dinner_party_scheme_2.png"" class=""exp-image"">
                    <div class=""question-area"">
                        <p style=""font-size: 20px; font-weight: bold; margin: 0;"">Is there a person in this image?</p>
                    </div>
                </div>","1","main_experiment_trial","2","dinner_party_scheme","schematic_sequence","chronological","","","","","","",""
"","","","","","html-keyboard-response","42","134301","0.0-42.0","6CBE5C9F25D44F2399FDF9C34B1F8200","019cfc9b-66ee-7c54-90b9-660c45863e9a","019cfc7b-6c7b-7b1b-afe7-acad8efc6711","","null","
                <div class=""stimulus-container"">
                    <img src=""images/schematic_sequence/dinner_party_scheme/dinner_party_scheme_3.png"" class=""exp-image"">
                    <div class=""question-area""></div> 
                </div>","null","","","","","","","","","","","",""
"","","","","","html-button-response","43","135147","0.0-43.0","6CBE5C9F25D44F2399FDF9C34B1F8200","019cfc9b-66ee-7c54-90b9-660c45863e9a","019cfc7b-6c7b-7b1b-afe7-acad8efc6711","","844","
                <div class=""stimulus-container"">
                    <img src=""images/schematic_sequence/dinner_party_scheme/dinner_party_scheme_3.png"" class=""exp-image"">
                    <div class=""question-area"">
                        <p style=""font-size: 20px; font-weight: bold; margin: 0;"">Is there a person in this image?</p>
                    </div>
                </div>","0","main_experiment_trial","3","dinner_party_scheme","schematic_sequence","chronological","","","","","","",""
"","","","","","html-keyboard-response","44","140149","0.0-44.0","6CBE5C9F25D44F2399FDF9C34B1F8200","019cfc9b-66ee-7c54-90b9-660c45863e9a","019cfc7b-6c7b-7b1b-afe7-acad8efc6711","","null","
                <div class=""stimulus-container"">
                    <img src=""images/schematic_sequence/dinner_party_scheme/dinner_party_scheme_4.png"" class=""exp-image"">
                    <div class=""question-area""></div> 
                </div>","null","","","","","","","","","","","",""
"","","","","","html-button-response","45","141431","0.0-45.0","6CBE5C9F25D44F2399FDF9C34B1F8200","019cfc9b-66ee-7c54-90b9-660c45863e9a","019cfc7b-6c7b-7b1b-afe7-acad8efc6711","","1280","
                <div class=""stimulus-container"">
                    <img src=""images/schematic_sequence/dinner_party_scheme/dinner_party_scheme_4.png"" class=""exp-image"">
                    <div class=""question-area"">
                        <p style=""font-size: 20px; font-weight: bold; margin: 0;"">Is there a person in this image?</p>
                    </div>
                </div>","0","main_experiment_trial","4","dinner_party_scheme","schematic_sequence","chronological","","","","","","",""
"","","","","","html-keyboard-response","46","146434","0.0-46.0","6CBE5C9F25D44F2399FDF9C34B1F8200","019cfc9b-66ee-7c54-90b9-660c45863e9a","019cfc7b-6c7b-7b1b-afe7-acad8efc6711","","null","
                <div class=""stimulus-container"">
                    <img src=""images/schematic_sequence/dinner_party_scheme/dinner_party_scheme_5.png"" class=""exp-image"">
                    <div class=""question-area""></div> 
                </div>","null","","","","","","","","","","","",""
"","","","","","html-button-response","47","147515","0.0-47.0","6CBE5C9F25D44F2399FDF9C34B1F8200","019cfc9b-66ee-7c54-90b9-660c45863e9a","019cfc7b-6c7b-7b1b-afe7-acad8efc6711","","1077","
                <div class=""stimulus-container"">
                    <img src=""images/schematic_sequence/dinner_party_scheme/dinner_party_scheme_5.png"" class=""exp-image"">
                    <div class=""question-area"">
                        <p style=""font-size: 20px; font-weight: bold; margin: 0;"">Is there a person in this image?</p>
                    </div>
                </div>","0","main_experiment_trial","5","dinner_party_scheme","schematic_sequence","chronological","","","","","","",""
"","","","","","html-keyboard-response","48","152518","0.0-48.0","6CBE5C9F25D44F2399FDF9C34B1F8200","019cfc9b-66ee-7c54-90b9-660c45863e9a","019cfc7b-6c7b-7b1b-afe7-acad8efc6711","","null","
                <div class=""stimulus-container"">
                    <img src=""images/schematic_sequence/dinner_party_scheme/dinner_party_scheme_6.png"" class=""exp-image"">
                    <div class=""question-area""></div> 
                </div>","null","","","","","","","","","","","",""
"","","","","","html-button-response","49","153415","0.0-49.0","6CBE5C9F25D44F2399FDF9C34B1F8200","019cfc9b-66ee-7c54-90b9-660c45863e9a","019cfc7b-6c7b-7b1b-afe7-acad8efc6711","","895","
                <div class=""stimulus-container"">
                    <img src=""images/schematic_sequence/dinner_party_scheme/dinner_party_scheme_6.png"" class=""exp-image"">
                    <div class=""question-area"">
                        <p style=""font-size: 20px; font-weight: bold; margin: 0;"">Is there a person in this image?</p>
                    </div>
                </div>","0","main_experiment_trial","6","dinner_party_scheme","schematic_sequence","chronological","","","","","","",""
"","","","","","html-keyboard-response","50","158418","0.0-50.0","6CBE5C9F25D44F2399FDF9C34B1F8200","019cfc9b-66ee-7c54-90b9-660c45863e9a","019cfc7b-6c7b-7b1b-afe7-acad8efc6711","","null","
                <div class=""stimulus-container"">
                    <img src=""images/schematic_sequence/dinner_party_scheme/dinner_party_scheme_7.png"" class=""exp-image"">
                    <div class=""question-area""></div> 
                </div>","null","","","","","","","","","","","",""
"","","","","","html-button-response","51","159165","0.0-51.0","6CBE5C9F25D44F2399FDF9C34B1F8200","019cfc9b-66ee-7c54-90b9-660c45863e9a","019cfc7b-6c7b-7b1b-afe7-acad8efc6711","","745","
                <div class=""stimulus-container"">
                    <img src=""images/schematic_sequence/dinner_party_scheme/dinner_party_scheme_7.png"" class=""exp-image"">
                    <div class=""question-area"">
                        <p style=""font-size: 20px; font-weight: bold; margin: 0;"">Is there a person in this image?</p>
                    </div>
                </div>","0","main_experiment_trial","7","dinner_party_scheme","schematic_sequence","chronological","","","","","","",""
"","","","","","html-keyboard-response","52","164168","0.0-52.0","6CBE5C9F25D44F2399FDF9C34B1F8200","019cfc9b-66ee-7c54-90b9-660c45863e9a","019cfc7b-6c7b-7b1b-afe7-acad8efc6711","","null","
                <div class=""stimulus-container"">
                    <img src=""images/schematic_sequence/dinner_party_scheme/dinner_party_scheme_8.png"" class=""exp-image"">
                    <div class=""question-area""></div> 
                </div>","null","","","","","","","","","","","",""
"","","","","","html-button-response","53","165165","0.0-53.0","6CBE5C9F25D44F2399FDF9C34B1F8200","019cfc9b-66ee-7c54-90b9-660c45863e9a","019cfc7b-6c7b-7b1b-afe7-acad8efc6711","","996","
                <div class=""stimulus-container"">
                    <img src=""images/schematic_sequence/dinner_party_scheme/dinner_party_scheme_8.png"" class=""exp-image"">
                    <div class=""question-area"">
                        <p style=""font-size: 20px; font-weight: bold; margin: 0;"">Is there a person in this image?</p>
                    </div>
                </div>","0","main_experiment_trial","8","dinner_party_scheme","schematic_sequence","chronological","","","","","","",""
"","","","","","html-keyboard-response","54","170166","0.0-54.0","6CBE5C9F25D44F2399FDF9C34B1F8200","019cfc9b-66ee-7c54-90b9-660c45863e9a","019cfc7b-6c7b-7b1b-afe7-acad8efc6711","","null","
                <div class=""stimulus-container"">
                    <img src=""images/schematic_sequence/dinner_party_scheme/dinner_party_scheme_9.png"" class=""exp-image"">
                    <div class=""question-area""></div> 
                </div>","null","","","","","","","","","","","",""
"","","","","","html-button-response","55","170714","0.0-55.0","6CBE5C9F25D44F2399FDF9C34B1F8200","019cfc9b-66ee-7c54-90b9-660c45863e9a","019cfc7b-6c7b-7b1b-afe7-acad8efc6711","","545","
                <div class=""stimulus-container"">
                    <img src=""images/schematic_sequence/dinner_party_scheme/dinner_party_scheme_9.png"" class=""exp-image"">
                    <div class=""question-area"">
                        <p style=""font-size: 20px; font-weight: bold; margin: 0;"">Is there a person in this image?</p>
                    </div>
                </div>","0","main_experiment_trial","9","dinner_party_scheme","schematic_sequence","chronological","","","","","","",""
"","","","","","html-keyboard-response","56","175717","0.0-56.0","6CBE5C9F25D44F2399FDF9C34B1F8200","019cfc9b-66ee-7c54-90b9-660c45863e9a","019cfc7b-6c7b-7b1b-afe7-acad8efc6711","","null","
                <div class=""stimulus-container"">
                    <img src=""images/schematic_sequence/dinner_party_scheme/dinner_party_scheme_ten.png"" class=""exp-image"">
                    <div class=""question-area""></div> 
                </div>","null","","","","","","","","","","","",""
"","","","","","html-button-response","57","176232","0.0-57.0","6CBE5C9F25D44F2399FDF9C34B1F8200","019cfc9b-66ee-7c54-90b9-660c45863e9a","019cfc7b-6c7b-7b1b-afe7-acad8efc6711","","513","
                <div class=""stimulus-container"">
                    <img src=""images/schematic_sequence/dinner_party_scheme/dinner_party_scheme_ten.png"" class=""exp-image"">
                    <div class=""question-area"">
                        <p style=""font-size: 20px; font-weight: bold; margin: 0;"">Is there a person in this image?</p>
                    </div>
                </div>","0","main_experiment_trial","ten","dinner_party_scheme","schematic_sequence","chronological","","","","","","",""
"","","","","","html-keyboard-response","58","181234","0.0-58.0","6CBE5C9F25D44F2399FDF9C34B1F8200","019cfc9b-66ee-7c54-90b9-660c45863e9a","019cfc7b-6c7b-7b1b-afe7-acad8efc6711","","null","<div style=""background-color: white; width: 100vw; height: 100vh;""></div>","null","","","","","","","","","","","",""
"","","","","","html-keyboard-response","59","186237","0.0-59.0","6CBE5C9F25D44F2399FDF9C34B1F8200","019cfc9b-66ee-7c54-90b9-660c45863e9a","019cfc7b-6c7b-7b1b-afe7-acad8efc6711","","null","
                <div class=""stimulus-container"">
                    <img src=""images/schematic_sequence/restaurant_scheme/restaurant_scheme_1.png"" class=""exp-image"">
                    <div class=""question-area""></div> 
                </div>","null","","","","","","","","","","","",""
"","","","","","html-button-response","60","186815","0.0-60.0","6CBE5C9F25D44F2399FDF9C34B1F8200","019cfc9b-66ee-7c54-90b9-660c45863e9a","019cfc7b-6c7b-7b1b-afe7-acad8efc6711","","576","
                <div class=""stimulus-container"">
                    <img src=""images/schematic_sequence/restaurant_scheme/restaurant_scheme_1.png"" class=""exp-image"">
                    <div class=""question-area"">
                        <p style=""font-size: 20px; font-weight: bold; margin: 0;"">Is there a person in this image?</p>
                    </div>
                </div>","0","main_experiment_trial","1","restaurant_scheme","schematic_sequence","chronological","","","","","","",""
"","","","","","html-keyboard-response","61","191818","0.0-61.0","6CBE5C9F25D44F2399FDF9C34B1F8200","019cfc9b-66ee-7c54-90b9-660c45863e9a","019cfc7b-6c7b-7b1b-afe7-acad8efc6711","","null","
                <div class=""stimulus-container"">
                    <img src=""images/schematic_sequence/restaurant_scheme/restaurant_scheme_2.png"" class=""exp-image"">
                    <div class=""question-area""></div> 
                </div>","null","","","","","","","","","","","",""
"","","","","","html-button-response","62","192848","0.0-62.0","6CBE5C9F25D44F2399FDF9C34B1F8200","019cfc9b-66ee-7c54-90b9-660c45863e9a","019cfc7b-6c7b-7b1b-afe7-acad8efc6711","","1027","
                <div class=""stimulus-container"">
                    <img src=""images/schematic_sequence/restaurant_scheme/restaurant_scheme_2.png"" class=""exp-image"">
                    <div class=""question-area"">
                        <p style=""font-size: 20px; font-weight: bold; margin: 0;"">Is there a person in this image?</p>
                    </div>
                </div>","1","main_experiment_trial","2","restaurant_scheme","schematic_sequence","chronological","","","","","","",""
"","","","","","html-keyboard-response","63","197851","0.0-63.0","6CBE5C9F25D44F2399FDF9C34B1F8200","019cfc9b-66ee-7c54-90b9-660c45863e9a","019cfc7b-6c7b-7b1b-afe7-acad8efc6711","","null","
                <div class=""stimulus-container"">
                    <img src=""images/schematic_sequence/restaurant_scheme/restaurant_scheme_3.png"" class=""exp-image"">
                    <div class=""question-area""></div> 
                </div>","null","","","","","","","","","","","",""
"","","","","","html-button-response","64","198882","0.0-64.0","6CBE5C9F25D44F2399FDF9C34B1F8200","019cfc9b-66ee-7c54-90b9-660c45863e9a","019cfc7b-6c7b-7b1b-afe7-acad8efc6711","","1029","
                <div class=""stimulus-container"">
                    <img src=""images/schematic_sequence/restaurant_scheme/restaurant_scheme_3.png"" class=""exp-image"">
                    <div class=""question-area"">
                        <p style=""font-size: 20px; font-weight: bold; margin: 0;"">Is there a person in this image?</p>
                    </div>
                </div>","1","main_experiment_trial","3","restaurant_scheme","schematic_sequence","chronological","","","","","","",""
"","","","","","html-keyboard-response","65","203883","0.0-65.0","6CBE5C9F25D44F2399FDF9C34B1F8200","019cfc9b-66ee-7c54-90b9-660c45863e9a","019cfc7b-6c7b-7b1b-afe7-acad8efc6711","","null","
                <div class=""stimulus-container"">
                    <img src=""images/schematic_sequence/restaurant_scheme/restaurant_scheme_4.png"" class=""exp-image"">
                    <div class=""question-area""></div> 
                </div>","null","","","","","","","","","","","",""
"","","","","","html-button-response","66","204582","0.0-66.0","6CBE5C9F25D44F2399FDF9C34B1F8200","019cfc9b-66ee-7c54-90b9-660c45863e9a","019cfc7b-6c7b-7b1b-afe7-acad8efc6711","","697","
                <div class=""stimulus-container"">
                    <img src=""images/schematic_sequence/restaurant_scheme/restaurant_scheme_4.png"" class=""exp-image"">
                    <div class=""question-area"">
                        <p style=""font-size: 20px; font-weight: bold; margin: 0;"">Is there a person in this image?</p>
                    </div>
                </div>","0","main_experiment_trial","4","restaurant_scheme","schematic_sequence","chronological","","","","","","",""
"","","","","","html-keyboard-response","67","209584","0.0-67.0","6CBE5C9F25D44F2399FDF9C34B1F8200","019cfc9b-66ee-7c54-90b9-660c45863e9a","019cfc7b-6c7b-7b1b-afe7-acad8efc6711","","null","
                <div class=""stimulus-container"">
                    <img src=""images/schematic_sequence/restaurant_scheme/restaurant_scheme_5.png"" class=""exp-image"">
                    <div class=""question-area""></div> 
                </div>","null","","","","","","","","","","","",""
"","","","","","html-button-response","68","210399","0.0-68.0","6CBE5C9F25D44F2399FDF9C34B1F8200","019cfc9b-66ee-7c54-90b9-660c45863e9a","019cfc7b-6c7b-7b1b-afe7-acad8efc6711","","813","
                <div class=""stimulus-container"">
                    <img src=""images/schematic_sequence/restaurant_scheme/restaurant_scheme_5.png"" class=""exp-image"">
                    <div class=""question-area"">
                        <p style=""font-size: 20px; font-weight: bold; margin: 0;"">Is there a person in this image?</p>
                    </div>
                </div>","0","main_experiment_trial","5","restaurant_scheme","schematic_sequence","chronological","","","","","","",""
"","","","","","html-keyboard-response","69","215402","0.0-69.0","6CBE5C9F25D44F2399FDF9C34B1F8200","019cfc9b-66ee-7c54-90b9-660c45863e9a","019cfc7b-6c7b-7b1b-afe7-acad8efc6711","","null","
                <div class=""stimulus-container"">
                    <img src=""images/schematic_sequence/restaurant_scheme/restaurant_scheme_6.png"" class=""exp-image"">
                    <div class=""question-area""></div> 
                </div>","null","","","","","","","","","","","",""
"","","","","","html-button-response","70","216130","0.0-70.0","6CBE5C9F25D44F2399FDF9C34B1F8200","019cfc9b-66ee-7c54-90b9-660c45863e9a","019cfc7b-6c7b-7b1b-afe7-acad8efc6711","","726","
                <div class=""stimulus-container"">
                    <img src=""images/schematic_sequence/restaurant_scheme/restaurant_scheme_6.png"" class=""exp-image"">
                    <div class=""question-area"">
                        <p style=""font-size: 20px; font-weight: bold; margin: 0;"">Is there a person in this image?</p>
                    </div>
                </div>","1","main_experiment_trial","6","restaurant_scheme","schematic_sequence","chronological","","","","","","",""
"","","","","","html-keyboard-response","71","221132","0.0-71.0","6CBE5C9F25D44F2399FDF9C34B1F8200","019cfc9b-66ee-7c54-90b9-660c45863e9a","019cfc7b-6c7b-7b1b-afe7-acad8efc6711","","null","
                <div class=""stimulus-container"">
                    <img src=""images/schematic_sequence/restaurant_scheme/restaurant_scheme_7.png"" class=""exp-image"">
                    <div class=""question-area""></div> 
                </div>","null","","","","","","","","","","","",""
"","","","","","html-button-response","72","221748","0.0-72.0","6CBE5C9F25D44F2399FDF9C34B1F8200","019cfc9b-66ee-7c54-90b9-660c45863e9a","019cfc7b-6c7b-7b1b-afe7-acad8efc6711","","613","
                <div class=""stimulus-container"">
                    <img src=""images/schematic_sequence/restaurant_scheme/restaurant_scheme_7.png"" class=""exp-image"">
                    <div class=""question-area"">
                        <p style=""font-size: 20px; font-weight: bold; margin: 0;"">Is there a person in this image?</p>
                    </div>
                </div>","1","main_experiment_trial","7","restaurant_scheme","schematic_sequence","chronological","","","","","","",""
"","","","","","html-keyboard-response","73","226751","0.0-73.0","6CBE5C9F25D44F2399FDF9C34B1F8200","019cfc9b-66ee-7c54-90b9-660c45863e9a","019cfc7b-6c7b-7b1b-afe7-acad8efc6711","","null","
                <div class=""stimulus-container"">
                    <img src=""images/schematic_sequence/restaurant_scheme/restaurant_scheme_8.png"" class=""exp-image"">
                    <div class=""question-area""></div> 
                </div>","null","","","","","","","","","","","",""
"","","","","","html-button-response","74","227432","0.0-74.0","6CBE5C9F25D44F2399FDF9C34B1F8200","019cfc9b-66ee-7c54-90b9-660c45863e9a","019cfc7b-6c7b-7b1b-afe7-acad8efc6711","","678","
                <div class=""stimulus-container"">
                    <img src=""images/schematic_sequence/restaurant_scheme/restaurant_scheme_8.png"" class=""exp-image"">
                    <div class=""question-area"">
                        <p style=""font-size: 20px; font-weight: bold; margin: 0;"">Is there a person in this image?</p>
                    </div>
                </div>","1","main_experiment_trial","8","restaurant_scheme","schematic_sequence","chronological","","","","","","",""
"","","","","","html-keyboard-response","75","232434","0.0-75.0","6CBE5C9F25D44F2399FDF9C34B1F8200","019cfc9b-66ee-7c54-90b9-660c45863e9a","019cfc7b-6c7b-7b1b-afe7-acad8efc6711","","null","
                <div class=""stimulus-container"">
                    <img src=""images/schematic_sequence/restaurant_scheme/restaurant_scheme_9.png"" class=""exp-image"">
                    <div class=""question-area""></div> 
                </div>","null","","","","","","","","","","","",""
"","","","","","html-button-response","76","233182","0.0-76.0","6CBE5C9F25D44F2399FDF9C34B1F8200","019cfc9b-66ee-7c54-90b9-660c45863e9a","019cfc7b-6c7b-7b1b-afe7-acad8efc6711","","746","
                <div class=""stimulus-container"">
                    <img src=""images/schematic_sequence/restaurant_scheme/restaurant_scheme_9.png"" class=""exp-image"">
                    <div class=""question-area"">
                        <p style=""font-size: 20px; font-weight: bold; margin: 0;"">Is there a person in this image?</p>
                    </div>
                </div>","0","main_experiment_trial","9","restaurant_scheme","schematic_sequence","chronological","","","","","","",""
"","","","","","html-keyboard-response","77","238184","0.0-77.0","6CBE5C9F25D44F2399FDF9C34B1F8200","019cfc9b-66ee-7c54-90b9-660c45863e9a","019cfc7b-6c7b-7b1b-afe7-acad8efc6711","","null","
                <div class=""stimulus-container"">
                    <img src=""images/schematic_sequence/restaurant_scheme/restaurant_scheme_ten.png"" class=""exp-image"">
                    <div class=""question-area""></div> 
                </div>","null","","","","","","","","","","","",""
"","","","","","html-button-response","78","239548","0.0-78.0","6CBE5C9F25D44F2399FDF9C34B1F8200","019cfc9b-66ee-7c54-90b9-660c45863e9a","019cfc7b-6c7b-7b1b-afe7-acad8efc6711","","1363","
                <div class=""stimulus-container"">
                    <img src=""images/schematic_sequence/restaurant_scheme/restaurant_scheme_ten.png"" class=""exp-image"">
                    <div class=""question-area"">
                        <p style=""font-size: 20px; font-weight: bold; margin: 0;"">Is there a person in this image?</p>
                    </div>
                </div>","0","main_experiment_trial","ten","restaurant_scheme","schematic_sequence","chronological","","","","","","",""
"","","","","","html-keyboard-response","79","244550","0.0-79.0","6CBE5C9F25D44F2399FDF9C34B1F8200","019cfc9b-66ee-7c54-90b9-660c45863e9a","019cfc7b-6c7b-7b1b-afe7-acad8efc6711","","null","<div style=""background-color: white; width: 100vw; height: 100vh;""></div>","null","","","","","","","","","","","",""
"","","","","","html-keyboard-response","80","249553","0.0-80.0","6CBE5C9F25D44F2399FDF9C34B1F8200","019cfc9b-66ee-7c54-90b9-660c45863e9a","019cfc7b-6c7b-7b1b-afe7-acad8efc6711","","null","
                <div class=""stimulus-container"">
                    <img src=""images/schematic_sequence/supermarket_scheme/supermarket_scheme_1.png"" class=""exp-image"">
                    <div class=""question-area""></div> 
                </div>","null","","","","","","","","","","","",""
"","","","","","html-button-response","81","250566","0.0-81.0","6CBE5C9F25D44F2399FDF9C34B1F8200","019cfc9b-66ee-7c54-90b9-660c45863e9a","019cfc7b-6c7b-7b1b-afe7-acad8efc6711","","1010","
                <div class=""stimulus-container"">
                    <img src=""images/schematic_sequence/supermarket_scheme/supermarket_scheme_1.png"" class=""exp-image"">
                    <div class=""question-area"">
                        <p style=""font-size: 20px; font-weight: bold; margin: 0;"">Is there a person in this image?</p>
                    </div>
                </div>","1","main_experiment_trial","1","supermarket_scheme","schematic_sequence","chronological","","","","","","",""
"","","","","","html-keyboard-response","82","255569","0.0-82.0","6CBE5C9F25D44F2399FDF9C34B1F8200","019cfc9b-66ee-7c54-90b9-660c45863e9a","019cfc7b-6c7b-7b1b-afe7-acad8efc6711","","null","
                <div class=""stimulus-container"">
                    <img src=""images/schematic_sequence/supermarket_scheme/supermarket_scheme_2.png"" class=""exp-image"">
                    <div class=""question-area""></div> 
                </div>","null","","","","","","","","","","","",""
"","","","","","html-button-response","83","256199","0.0-83.0","6CBE5C9F25D44F2399FDF9C34B1F8200","019cfc9b-66ee-7c54-90b9-660c45863e9a","019cfc7b-6c7b-7b1b-afe7-acad8efc6711","","628","
                <div class=""stimulus-container"">
                    <img src=""images/schematic_sequence/supermarket_scheme/supermarket_scheme_2.png"" class=""exp-image"">
                    <div class=""question-area"">
                        <p style=""font-size: 20px; font-weight: bold; margin: 0;"">Is there a person in this image?</p>
                    </div>
                </div>","1","main_experiment_trial","2","supermarket_scheme","schematic_sequence","chronological","","","","","","",""
"","","","","","html-keyboard-response","84","261202","0.0-84.0","6CBE5C9F25D44F2399FDF9C34B1F8200","019cfc9b-66ee-7c54-90b9-660c45863e9a","019cfc7b-6c7b-7b1b-afe7-acad8efc6711","","null","
                <div class=""stimulus-container"">
                    <img src=""images/schematic_sequence/supermarket_scheme/supermarket_scheme_3.png"" class=""exp-image"">
                    <div class=""question-area""></div> 
                </div>","null","","","","","","","","","","","",""
"","","","","","html-button-response","85","261849","0.0-85.0","6CBE5C9F25D44F2399FDF9C34B1F8200","019cfc9b-66ee-7c54-90b9-660c45863e9a","019cfc7b-6c7b-7b1b-afe7-acad8efc6711","","645","
                <div class=""stimulus-container"">
                    <img src=""images/schematic_sequence/supermarket_scheme/supermarket_scheme_3.png"" class=""exp-image"">
                    <div class=""question-area"">
                        <p style=""font-size: 20px; font-weight: bold; margin: 0;"">Is there a person in this image?</p>
                    </div>
                </div>","1","main_experiment_trial","3","supermarket_scheme","schematic_sequence","chronological","","","","","","",""
"","","","","","html-keyboard-response","86","266851","0.0-86.0","6CBE5C9F25D44F2399FDF9C34B1F8200","019cfc9b-66ee-7c54-90b9-660c45863e9a","019cfc7b-6c7b-7b1b-afe7-acad8efc6711","","null","
                <div class=""stimulus-container"">
                    <img src=""images/schematic_sequence/supermarket_scheme/supermarket_scheme_4.png"" class=""exp-image"">
                    <div class=""question-area""></div> 
                </div>","null","","","","","","","","","","","",""
"","","","","","html-button-response","87","267633","0.0-87.0","6CBE5C9F25D44F2399FDF9C34B1F8200","019cfc9b-66ee-7c54-90b9-660c45863e9a","019cfc7b-6c7b-7b1b-afe7-acad8efc6711","","778","
                <div class=""stimulus-container"">
                    <img src=""images/schematic_sequence/supermarket_scheme/supermarket_scheme_4.png"" class=""exp-image"">
                    <div class=""question-area"">
                        <p style=""font-size: 20px; font-weight: bold; margin: 0;"">Is there a person in this image?</p>
                    </div>
                </div>","0","main_experiment_trial","4","supermarket_scheme","schematic_sequence","chronological","","","","","","",""
"","","","","","html-keyboard-response","88","272636","0.0-88.0","6CBE5C9F25D44F2399FDF9C34B1F8200","019cfc9b-66ee-7c54-90b9-660c45863e9a","019cfc7b-6c7b-7b1b-afe7-acad8efc6711","","null","
                <div class=""stimulus-container"">
                    <img src=""images/schematic_sequence/supermarket_scheme/supermarket_scheme_5.png"" class=""exp-image"">
                    <div class=""question-area""></div> 
                </div>","null","","","","","","","","","","","",""
"","","","","","html-button-response","89","273666","0.0-89.0","6CBE5C9F25D44F2399FDF9C34B1F8200","019cfc9b-66ee-7c54-90b9-660c45863e9a","019cfc7b-6c7b-7b1b-afe7-acad8efc6711","","1028","
                <div class=""stimulus-container"">
                    <img src=""images/schematic_sequence/supermarket_scheme/supermarket_scheme_5.png"" class=""exp-image"">
                    <div class=""question-area"">
                        <p style=""font-size: 20px; font-weight: bold; margin: 0;"">Is there a person in this image?</p>
                    </div>
                </div>","1","main_experiment_trial","5","supermarket_scheme","schematic_sequence","chronological","","","","","","",""
"","","","","","html-keyboard-response","90","278669","0.0-90.0","6CBE5C9F25D44F2399FDF9C34B1F8200","019cfc9b-66ee-7c54-90b9-660c45863e9a","019cfc7b-6c7b-7b1b-afe7-acad8efc6711","","null","
                <div class=""stimulus-container"">
                    <img src=""images/schematic_sequence/supermarket_scheme/supermarket_scheme_6.png"" class=""exp-image"">
                    <div class=""question-area""></div> 
                </div>","null","","","","","","","","","","","",""
"","","","","","html-button-response","91","279415","0.0-91.0","6CBE5C9F25D44F2399FDF9C34B1F8200","019cfc9b-66ee-7c54-90b9-660c45863e9a","019cfc7b-6c7b-7b1b-afe7-acad8efc6711","","745","
                <div class=""stimulus-container"">
                    <img src=""images/schematic_sequence/supermarket_scheme/supermarket_scheme_6.png"" class=""exp-image"">
                    <div class=""question-area"">
                        <p style=""font-size: 20px; font-weight: bold; margin: 0;"">Is there a person in this image?</p>
                    </div>
                </div>","0","main_experiment_trial","6","supermarket_scheme","schematic_sequence","chronological","","","","","","",""
"","","","","","html-keyboard-response","92","284418","0.0-92.0","6CBE5C9F25D44F2399FDF9C34B1F8200","019cfc9b-66ee-7c54-90b9-660c45863e9a","019cfc7b-6c7b-7b1b-afe7-acad8efc6711","","null","
                <div class=""stimulus-container"">
                    <img src=""images/schematic_sequence/supermarket_scheme/supermarket_scheme_7.png"" class=""exp-image"">
                    <div class=""question-area""></div> 
                </div>","null","","","","","","","","","","","",""
"","","","","","html-button-response","93","284999","0.0-93.0","6CBE5C9F25D44F2399FDF9C34B1F8200","019cfc9b-66ee-7c54-90b9-660c45863e9a","019cfc7b-6c7b-7b1b-afe7-acad8efc6711","","579","
                <div class=""stimulus-container"">
                    <img src=""images/schematic_sequence/supermarket_scheme/supermarket_scheme_7.png"" class=""exp-image"">
                    <div class=""question-area"">
                        <p style=""font-size: 20px; font-weight: bold; margin: 0;"">Is there a person in this image?</p>
                    </div>
                </div>","0","main_experiment_trial","7","supermarket_scheme","schematic_sequence","chronological","","","","","","",""
"","","","","","html-keyboard-response","94","290002","0.0-94.0","6CBE5C9F25D44F2399FDF9C34B1F8200","019cfc9b-66ee-7c54-90b9-660c45863e9a","019cfc7b-6c7b-7b1b-afe7-acad8efc6711","","null","
                <div class=""stimulus-container"">
                    <img src=""images/schematic_sequence/supermarket_scheme/supermarket_scheme_8.png"" class=""exp-image"">
                    <div class=""question-area""></div> 
                </div>","null","","","","","","","","","","","",""
"","","","","","html-button-response","95","290633","0.0-95.0","6CBE5C9F25D44F2399FDF9C34B1F8200","019cfc9b-66ee-7c54-90b9-660c45863e9a","019cfc7b-6c7b-7b1b-afe7-acad8efc6711","","628","
                <div class=""stimulus-container"">
                    <img src=""images/schematic_sequence/supermarket_scheme/supermarket_scheme_8.png"" class=""exp-image"">
                    <div class=""question-area"">
                        <p style=""font-size: 20px; font-weight: bold; margin: 0;"">Is there a person in this image?</p>
                    </div>
                </div>","0","main_experiment_trial","8","supermarket_scheme","schematic_sequence","chronological","","","","","","",""
"","","","","","html-keyboard-response","96","295636","0.0-96.0","6CBE5C9F25D44F2399FDF9C34B1F8200","019cfc9b-66ee-7c54-90b9-660c45863e9a","019cfc7b-6c7b-7b1b-afe7-acad8efc6711","","null","
                <div class=""stimulus-container"">
                    <img src=""images/schematic_sequence/supermarket_scheme/supermarket_scheme_9.png"" class=""exp-image"">
                    <div class=""question-area""></div> 
                </div>","null","","","","","","","","","","","",""
"","","","","","html-button-response","97","296216","0.0-97.0","6CBE5C9F25D44F2399FDF9C34B1F8200","019cfc9b-66ee-7c54-90b9-660c45863e9a","019cfc7b-6c7b-7b1b-afe7-acad8efc6711","","579","
                <div class=""stimulus-container"">
                    <img src=""images/schematic_sequence/supermarket_scheme/supermarket_scheme_9.png"" class=""exp-image"">
                    <div class=""question-area"">
                        <p style=""font-size: 20px; font-weight: bold; margin: 0;"">Is there a person in this image?</p>
                    </div>
                </div>","0","main_experiment_trial","9","supermarket_scheme","schematic_sequence","chronological","","","","","","",""
"","","","","","html-keyboard-response","98","301219","0.0-98.0","6CBE5C9F25D44F2399FDF9C34B1F8200","019cfc9b-66ee-7c54-90b9-660c45863e9a","019cfc7b-6c7b-7b1b-afe7-acad8efc6711","","null","
                <div class=""stimulus-container"">
                    <img src=""images/schematic_sequence/supermarket_scheme/supermarket_scheme_ten.png"" class=""exp-image"">
                    <div class=""question-area""></div> 
                </div>","null","","","","","","","","","","","",""
"","","","","","html-button-response","99","302299","0.0-99.0","6CBE5C9F25D44F2399FDF9C34B1F8200","019cfc9b-66ee-7c54-90b9-660c45863e9a","019cfc7b-6c7b-7b1b-afe7-acad8efc6711","","1077","
                <div class=""stimulus-container"">
                    <img src=""images/schematic_sequence/supermarket_scheme/supermarket_scheme_ten.png"" class=""exp-image"">
                    <div class=""question-area"">
                        <p style=""font-size: 20px; font-weight: bold; margin: 0;"">Is there a person in this image?</p>
                    </div>
                </div>","1","main_experiment_trial","ten","supermarket_scheme","schematic_sequence","chronological","","","","","","",""
"","","","","","html-keyboard-response","100","307301","0.0-100.0","6CBE5C9F25D44F2399FDF9C34B1F8200","019cfc9b-66ee-7c54-90b9-660c45863e9a","019cfc7b-6c7b-7b1b-afe7-acad8efc6711","","null","<div style=""background-color: white; width: 100vw; height: 100vh;""></div>","null","","","","","","","","","","","",""
"","","","","","html-keyboard-response","101","312304","0.0-101.0","6CBE5C9F25D44F2399FDF9C34B1F8200","019cfc9b-66ee-7c54-90b9-660c45863e9a","019cfc7b-6c7b-7b1b-afe7-acad8efc6711","","null","
                <div class=""stimulus-container"">
                    <img src=""images/schematic_sequence/flight_scheme/flight_scheme_1.png"" class=""exp-image"">
                    <div class=""question-area""></div> 
                </div>","null","","","","","","","","","","","",""
"","","","","","html-button-response","102","312849","0.0-102.0","6CBE5C9F25D44F2399FDF9C34B1F8200","019cfc9b-66ee-7c54-90b9-660c45863e9a","019cfc7b-6c7b-7b1b-afe7-acad8efc6711","","544","
                <div class=""stimulus-container"">
                    <img src=""images/schematic_sequence/flight_scheme/flight_scheme_1.png"" class=""exp-image"">
                    <div class=""question-area"">
                        <p style=""font-size: 20px; font-weight: bold; margin: 0;"">Is there a person in this image?</p>
                    </div>
                </div>","1","main_experiment_trial","1","flight_scheme","schematic_sequence","chronological","","","","","","",""
"","","","","","html-keyboard-response","103","317852","0.0-103.0","6CBE5C9F25D44F2399FDF9C34B1F8200","019cfc9b-66ee-7c54-90b9-660c45863e9a","019cfc7b-6c7b-7b1b-afe7-acad8efc6711","","null","
                <div class=""stimulus-container"">
                    <img src=""images/schematic_sequence/flight_scheme/flight_scheme_2.png"" class=""exp-image"">
                    <div class=""question-area""></div> 
                </div>","null","","","","","","","","","","","",""
"","","","","","html-button-response","104","318332","0.0-104.0","6CBE5C9F25D44F2399FDF9C34B1F8200","019cfc9b-66ee-7c54-90b9-660c45863e9a","019cfc7b-6c7b-7b1b-afe7-acad8efc6711","","478","
                <div class=""stimulus-container"">
                    <img src=""images/schematic_sequence/flight_scheme/flight_scheme_2.png"" class=""exp-image"">
                    <div class=""question-area"">
                        <p style=""font-size: 20px; font-weight: bold; margin: 0;"">Is there a person in this image?</p>
                    </div>
                </div>","1","main_experiment_trial","2","flight_scheme","schematic_sequence","chronological","","","","","","",""
"","","","","","html-keyboard-response","105","323335","0.0-105.0","6CBE5C9F25D44F2399FDF9C34B1F8200","019cfc9b-66ee-7c54-90b9-660c45863e9a","019cfc7b-6c7b-7b1b-afe7-acad8efc6711","","null","
                <div class=""stimulus-container"">
                    <img src=""images/schematic_sequence/flight_scheme/flight_scheme_3.png"" class=""exp-image"">
                    <div class=""question-area""></div> 
                </div>","null","","","","","","","","","","","",""
"","","","","","html-button-response","106","324350","0.0-106.0","6CBE5C9F25D44F2399FDF9C34B1F8200","019cfc9b-66ee-7c54-90b9-660c45863e9a","019cfc7b-6c7b-7b1b-afe7-acad8efc6711","","1012","
                <div class=""stimulus-container"">
                    <img src=""images/schematic_sequence/flight_scheme/flight_scheme_3.png"" class=""exp-image"">
                    <div class=""question-area"">
                        <p style=""font-size: 20px; font-weight: bold; margin: 0;"">Is there a person in this image?</p>
                    </div>
                </div>","0","main_experiment_trial","3","flight_scheme","schematic_sequence","chronological","","","","","","",""
"","","","","","html-keyboard-response","107","329352","0.0-107.0","6CBE5C9F25D44F2399FDF9C34B1F8200","019cfc9b-66ee-7c54-90b9-660c45863e9a","019cfc7b-6c7b-7b1b-afe7-acad8efc6711","","null","
                <div class=""stimulus-container"">
                    <img src=""images/schematic_sequence/flight_scheme/flight_scheme_4.png"" class=""exp-image"">
                    <div class=""question-area""></div> 
                </div>","null","","","","","","","","","","","",""
"","","","","","html-button-response","108","330467","0.0-108.0","6CBE5C9F25D44F2399FDF9C34B1F8200","019cfc9b-66ee-7c54-90b9-660c45863e9a","019cfc7b-6c7b-7b1b-afe7-acad8efc6711","","1112","
                <div class=""stimulus-container"">
                    <img src=""images/schematic_sequence/flight_scheme/flight_scheme_4.png"" class=""exp-image"">
                    <div class=""question-area"">
                        <p style=""font-size: 20px; font-weight: bold; margin: 0;"">Is there a person in this image?</p>
                    </div>
                </div>","0","main_experiment_trial","4","flight_scheme","schematic_sequence","chronological","","","","","","",""
"","","","","","html-keyboard-response","109","335469","0.0-109.0","6CBE5C9F25D44F2399FDF9C34B1F8200","019cfc9b-66ee-7c54-90b9-660c45863e9a","019cfc7b-6c7b-7b1b-afe7-acad8efc6711","","null","
                <div class=""stimulus-container"">
                    <img src=""images/schematic_sequence/flight_scheme/flight_scheme_5.png"" class=""exp-image"">
                    <div class=""question-area""></div> 
                </div>","null","","","","","","","","","","","",""
"","","","","","html-button-response","110","336282","0.0-110.0","6CBE5C9F25D44F2399FDF9C34B1F8200","019cfc9b-66ee-7c54-90b9-660c45863e9a","019cfc7b-6c7b-7b1b-afe7-acad8efc6711","","811","
                <div class=""stimulus-container"">
                    <img src=""images/schematic_sequence/flight_scheme/flight_scheme_5.png"" class=""exp-image"">
                    <div class=""question-area"">
                        <p style=""font-size: 20px; font-weight: bold; margin: 0;"">Is there a person in this image?</p>
                    </div>
                </div>","0","main_experiment_trial","5","flight_scheme","schematic_sequence","chronological","","","","","","",""
"","","","","","html-keyboard-response","111","341284","0.0-111.0","6CBE5C9F25D44F2399FDF9C34B1F8200","019cfc9b-66ee-7c54-90b9-660c45863e9a","019cfc7b-6c7b-7b1b-afe7-acad8efc6711","","null","
                <div class=""stimulus-container"">
                    <img src=""images/schematic_sequence/flight_scheme/flight_scheme_6.png"" class=""exp-image"">
                    <div class=""question-area""></div> 
                </div>","null","","","","","","","","","","","",""
"","","","","","html-button-response","112","342100","0.0-112.0","6CBE5C9F25D44F2399FDF9C34B1F8200","019cfc9b-66ee-7c54-90b9-660c45863e9a","019cfc7b-6c7b-7b1b-afe7-acad8efc6711","","814","
                <div class=""stimulus-container"">
                    <img src=""images/schematic_sequence/flight_scheme/flight_scheme_6.png"" class=""exp-image"">
                    <div class=""question-area"">
                        <p style=""font-size: 20px; font-weight: bold; margin: 0;"">Is there a person in this image?</p>
                    </div>
                </div>","0","main_experiment_trial","6","flight_scheme","schematic_sequence","chronological","","","","","","",""
"","","","","","html-keyboard-response","113","347102","0.0-113.0","6CBE5C9F25D44F2399FDF9C34B1F8200","019cfc9b-66ee-7c54-90b9-660c45863e9a","019cfc7b-6c7b-7b1b-afe7-acad8efc6711","","null","
                <div class=""stimulus-container"">
                    <img src=""images/schematic_sequence/flight_scheme/flight_scheme_7.png"" class=""exp-image"">
                    <div class=""question-area""></div> 
                </div>","null","","","","","","","","","","","",""
"","","","","","html-button-response","114","347933","0.0-114.0","6CBE5C9F25D44F2399FDF9C34B1F8200","019cfc9b-66ee-7c54-90b9-660c45863e9a","019cfc7b-6c7b-7b1b-afe7-acad8efc6711","","830","
                <div class=""stimulus-container"">
                    <img src=""images/schematic_sequence/flight_scheme/flight_scheme_7.png"" class=""exp-image"">
                    <div class=""question-area"">
                        <p style=""font-size: 20px; font-weight: bold; margin: 0;"">Is there a person in this image?</p>
                    </div>
                </div>","1","main_experiment_trial","7","flight_scheme","schematic_sequence","chronological","","","","","","",""
"","","","","","html-keyboard-response","115","352936","0.0-115.0","6CBE5C9F25D44F2399FDF9C34B1F8200","019cfc9b-66ee-7c54-90b9-660c45863e9a","019cfc7b-6c7b-7b1b-afe7-acad8efc6711","","null","
                <div class=""stimulus-container"">
                    <img src=""images/schematic_sequence/flight_scheme/flight_scheme_8.png"" class=""exp-image"">
                    <div class=""question-area""></div> 
                </div>","null","","","","","","","","","","","",""
"","","","","","html-button-response","116","353834","0.0-116.0","6CBE5C9F25D44F2399FDF9C34B1F8200","019cfc9b-66ee-7c54-90b9-660c45863e9a","019cfc7b-6c7b-7b1b-afe7-acad8efc6711","","895","
                <div class=""stimulus-container"">
                    <img src=""images/schematic_sequence/flight_scheme/flight_scheme_8.png"" class=""exp-image"">
                    <div class=""question-area"">
                        <p style=""font-size: 20px; font-weight: bold; margin: 0;"">Is there a person in this image?</p>
                    </div>
                </div>","1","main_experiment_trial","8","flight_scheme","schematic_sequence","chronological","","","","","","",""
"","","","","","html-keyboard-response","117","358836","0.0-117.0","6CBE5C9F25D44F2399FDF9C34B1F8200","019cfc9b-66ee-7c54-90b9-660c45863e9a","019cfc7b-6c7b-7b1b-afe7-acad8efc6711","","null","
                <div class=""stimulus-container"">
                    <img src=""images/schematic_sequence/flight_scheme/flight_scheme_9.png"" class=""exp-image"">
                    <div class=""question-area""></div> 
                </div>","null","","","","","","","","","","","",""
"","","","","","html-button-response","118","359617","0.0-118.0","6CBE5C9F25D44F2399FDF9C34B1F8200","019cfc9b-66ee-7c54-90b9-660c45863e9a","019cfc7b-6c7b-7b1b-afe7-acad8efc6711","","779","
                <div class=""stimulus-container"">
                    <img src=""images/schematic_sequence/flight_scheme/flight_scheme_9.png"" class=""exp-image"">
                    <div class=""question-area"">
                        <p style=""font-size: 20px; font-weight: bold; margin: 0;"">Is there a person in this image?</p>
                    </div>
                </div>","0","main_experiment_trial","9","flight_scheme","schematic_sequence","chronological","","","","","","",""
"","","","","","html-keyboard-response","119","364618","0.0-119.0","6CBE5C9F25D44F2399FDF9C34B1F8200","019cfc9b-66ee-7c54-90b9-660c45863e9a","019cfc7b-6c7b-7b1b-afe7-acad8efc6711","","null","
                <div class=""stimulus-container"">
                    <img src=""images/schematic_sequence/flight_scheme/flight_scheme_ten.png"" class=""exp-image"">
                    <div class=""question-area""></div> 
                </div>","null","","","","","","","","","","","",""
"","","","","","html-button-response","120","365134","0.0-120.0","6CBE5C9F25D44F2399FDF9C34B1F8200","019cfc9b-66ee-7c54-90b9-660c45863e9a","019cfc7b-6c7b-7b1b-afe7-acad8efc6711","","514","
                <div class=""stimulus-container"">
                    <img src=""images/schematic_sequence/flight_scheme/flight_scheme_ten.png"" class=""exp-image"">
                    <div class=""question-area"">
                        <p style=""font-size: 20px; font-weight: bold; margin: 0;"">Is there a person in this image?</p>
                    </div>
                </div>","0","main_experiment_trial","ten","flight_scheme","schematic_sequence","chronological","","","","","","",""
"","","","","","html-keyboard-response","121","370137","0.0-121.0","6CBE5C9F25D44F2399FDF9C34B1F8200","019cfc9b-66ee-7c54-90b9-660c45863e9a","019cfc7b-6c7b-7b1b-afe7-acad8efc6711","","null","<div style=""background-color: white; width: 100vw; height: 100vh;""></div>","null","","","","","","","","","","","",""
"","","","","","html-keyboard-response","122","375140","0.0-122.0","6CBE5C9F25D44F2399FDF9C34B1F8200","019cfc9b-66ee-7c54-90b9-660c45863e9a","019cfc7b-6c7b-7b1b-afe7-acad8efc6711","","null","
                <div class=""stimulus-container"">
                    <img src=""images/schematic_sequence/hotel_scheme/hotel_scheme_1.png"" class=""exp-image"">
                    <div class=""question-area""></div> 
                </div>","null","","","","","","","","","","","",""
"","","","","","html-button-response","123","376684","0.0-123.0","6CBE5C9F25D44F2399FDF9C34B1F8200","019cfc9b-66ee-7c54-90b9-660c45863e9a","019cfc7b-6c7b-7b1b-afe7-acad8efc6711","","1541","
                <div class=""stimulus-container"">
                    <img src=""images/schematic_sequence/hotel_scheme/hotel_scheme_1.png"" class=""exp-image"">
                    <div class=""question-area"">
                        <p style=""font-size: 20px; font-weight: bold; margin: 0;"">Is there a person in this image?</p>
                    </div>
                </div>","1","main_experiment_trial","1","hotel_scheme","schematic_sequence","chronological","","","","","","",""
"","","","","","html-keyboard-response","124","381686","0.0-124.0","6CBE5C9F25D44F2399FDF9C34B1F8200","019cfc9b-66ee-7c54-90b9-660c45863e9a","019cfc7b-6c7b-7b1b-afe7-acad8efc6711","","null","
                <div class=""stimulus-container"">
                    <img src=""images/schematic_sequence/hotel_scheme/hotel_scheme_2.png"" class=""exp-image"">
                    <div class=""question-area""></div> 
                </div>","null","","","","","","","","","","","",""
"","","","","","html-button-response","125","382383","0.0-125.0","6CBE5C9F25D44F2399FDF9C34B1F8200","019cfc9b-66ee-7c54-90b9-660c45863e9a","019cfc7b-6c7b-7b1b-afe7-acad8efc6711","","696","
                <div class=""stimulus-container"">
                    <img src=""images/schematic_sequence/hotel_scheme/hotel_scheme_2.png"" class=""exp-image"">
                    <div class=""question-area"">
                        <p style=""font-size: 20px; font-weight: bold; margin: 0;"">Is there a person in this image?</p>
                    </div>
                </div>","0","main_experiment_trial","2","hotel_scheme","schematic_sequence","chronological","","","","","","",""
"","","","","","html-keyboard-response","126","387386","0.0-126.0","6CBE5C9F25D44F2399FDF9C34B1F8200","019cfc9b-66ee-7c54-90b9-660c45863e9a","019cfc7b-6c7b-7b1b-afe7-acad8efc6711","","null","
                <div class=""stimulus-container"">
                    <img src=""images/schematic_sequence/hotel_scheme/hotel_scheme_3.png"" class=""exp-image"">
                    <div class=""question-area""></div> 
                </div>","null","","","","","","","","","","","",""
"","","","","","html-button-response","127","387967","0.0-127.0","6CBE5C9F25D44F2399FDF9C34B1F8200","019cfc9b-66ee-7c54-90b9-660c45863e9a","019cfc7b-6c7b-7b1b-afe7-acad8efc6711","","577","
                <div class=""stimulus-container"">
                    <img src=""images/schematic_sequence/hotel_scheme/hotel_scheme_3.png"" class=""exp-image"">
                    <div class=""question-area"">
                        <p style=""font-size: 20px; font-weight: bold; margin: 0;"">Is there a person in this image?</p>
                    </div>
                </div>","0","main_experiment_trial","3","hotel_scheme","schematic_sequence","chronological","","","","","","",""
"","","","","","html-keyboard-response","128","392969","0.0-128.0","6CBE5C9F25D44F2399FDF9C34B1F8200","019cfc9b-66ee-7c54-90b9-660c45863e9a","019cfc7b-6c7b-7b1b-afe7-acad8efc6711","","null","
                <div class=""stimulus-container"">
                    <img src=""images/schematic_sequence/hotel_scheme/hotel_scheme_4.png"" class=""exp-image"">
                    <div class=""question-area""></div> 
                </div>","null","","","","","","","","","","","",""
"","","","","","html-button-response","129","393750","0.0-129.0","6CBE5C9F25D44F2399FDF9C34B1F8200","019cfc9b-66ee-7c54-90b9-660c45863e9a","019cfc7b-6c7b-7b1b-afe7-acad8efc6711","","780","
                <div class=""stimulus-container"">
                    <img src=""images/schematic_sequence/hotel_scheme/hotel_scheme_4.png"" class=""exp-image"">
                    <div class=""question-area"">
                        <p style=""font-size: 20px; font-weight: bold; margin: 0;"">Is there a person in this image?</p>
                    </div>
                </div>","1","main_experiment_trial","4","hotel_scheme","schematic_sequence","chronological","","","","","","",""
"","","","","","html-keyboard-response","130","398753","0.0-130.0","6CBE5C9F25D44F2399FDF9C34B1F8200","019cfc9b-66ee-7c54-90b9-660c45863e9a","019cfc7b-6c7b-7b1b-afe7-acad8efc6711","","null","
                <div class=""stimulus-container"">
                    <img src=""images/schematic_sequence/hotel_scheme/hotel_scheme_5.png"" class=""exp-image"">
                    <div class=""question-area""></div> 
                </div>","null","","","","","","","","","","","",""
"","","","","","html-button-response","131","399851","0.0-131.0","6CBE5C9F25D44F2399FDF9C34B1F8200","019cfc9b-66ee-7c54-90b9-660c45863e9a","019cfc7b-6c7b-7b1b-afe7-acad8efc6711","","1096","
                <div class=""stimulus-container"">
                    <img src=""images/schematic_sequence/hotel_scheme/hotel_scheme_5.png"" class=""exp-image"">
                    <div class=""question-area"">
                        <p style=""font-size: 20px; font-weight: bold; margin: 0;"">Is there a person in this image?</p>
                    </div>
                </div>","0","main_experiment_trial","5","hotel_scheme","schematic_sequence","chronological","","","","","","",""
"","","","","","html-keyboard-response","132","404853","0.0-132.0","6CBE5C9F25D44F2399FDF9C34B1F8200","019cfc9b-66ee-7c54-90b9-660c45863e9a","019cfc7b-6c7b-7b1b-afe7-acad8efc6711","","null","
                <div class=""stimulus-container"">
                    <img src=""images/schematic_sequence/hotel_scheme/hotel_scheme_6.png"" class=""exp-image"">
                    <div class=""question-area""></div> 
                </div>","null","","","","","","","","","","","",""
"","","","","","html-button-response","133","406101","0.0-133.0","6CBE5C9F25D44F2399FDF9C34B1F8200","019cfc9b-66ee-7c54-90b9-660c45863e9a","019cfc7b-6c7b-7b1b-afe7-acad8efc6711","","1247","
                <div class=""stimulus-container"">
                    <img src=""images/schematic_sequence/hotel_scheme/hotel_scheme_6.png"" class=""exp-image"">
                    <div class=""question-area"">
                        <p style=""font-size: 20px; font-weight: bold; margin: 0;"">Is there a person in this image?</p>
                    </div>
                </div>","0","main_experiment_trial","6","hotel_scheme","schematic_sequence","chronological","","","","","","",""
"","","","","","html-keyboard-response","134","411103","0.0-134.0","6CBE5C9F25D44F2399FDF9C34B1F8200","019cfc9b-66ee-7c54-90b9-660c45863e9a","019cfc7b-6c7b-7b1b-afe7-acad8efc6711","","null","
                <div class=""stimulus-container"">
                    <img src=""images/schematic_sequence/hotel_scheme/hotel_scheme_7.png"" class=""exp-image"">
                    <div class=""question-area""></div> 
                </div>","null","","","","","","","","","","","",""
"","","","","","html-button-response","135","411651","0.0-135.0","6CBE5C9F25D44F2399FDF9C34B1F8200","019cfc9b-66ee-7c54-90b9-660c45863e9a","019cfc7b-6c7b-7b1b-afe7-acad8efc6711","","546","
                <div class=""stimulus-container"">
                    <img src=""images/schematic_sequence/hotel_scheme/hotel_scheme_7.png"" class=""exp-image"">
                    <div class=""question-area"">
                        <p style=""font-size: 20px; font-weight: bold; margin: 0;"">Is there a person in this image?</p>
                    </div>
                </div>","0","main_experiment_trial","7","hotel_scheme","schematic_sequence","chronological","","","","","","",""
"","","","","","html-keyboard-response","136","416654","0.0-136.0","6CBE5C9F25D44F2399FDF9C34B1F8200","019cfc9b-66ee-7c54-90b9-660c45863e9a","019cfc7b-6c7b-7b1b-afe7-acad8efc6711","","null","
                <div class=""stimulus-container"">
                    <img src=""images/schematic_sequence/hotel_scheme/hotel_scheme_8.png"" class=""exp-image"">
                    <div class=""question-area""></div> 
                </div>","null","","","","","","","","","","","",""
"","","","","","html-button-response","137","417150","0.0-137.0","6CBE5C9F25D44F2399FDF9C34B1F8200","019cfc9b-66ee-7c54-90b9-660c45863e9a","019cfc7b-6c7b-7b1b-afe7-acad8efc6711","","495","
                <div class=""stimulus-container"">
                    <img src=""images/schematic_sequence/hotel_scheme/hotel_scheme_8.png"" class=""exp-image"">
                    <div class=""question-area"">
                        <p style=""font-size: 20px; font-weight: bold; margin: 0;"">Is there a person in this image?</p>
                    </div>
                </div>","0","main_experiment_trial","8","hotel_scheme","schematic_sequence","chronological","","","","","","",""
"","","","","","html-keyboard-response","138","422153","0.0-138.0","6CBE5C9F25D44F2399FDF9C34B1F8200","019cfc9b-66ee-7c54-90b9-660c45863e9a","019cfc7b-6c7b-7b1b-afe7-acad8efc6711","","null","
                <div class=""stimulus-container"">
                    <img src=""images/schematic_sequence/hotel_scheme/hotel_scheme_9.png"" class=""exp-image"">
                    <div class=""question-area""></div> 
                </div>","null","","","","","","","","","","","",""
"","","","","","html-button-response","139","422601","0.0-139.0","6CBE5C9F25D44F2399FDF9C34B1F8200","019cfc9b-66ee-7c54-90b9-660c45863e9a","019cfc7b-6c7b-7b1b-afe7-acad8efc6711","","447","
                <div class=""stimulus-container"">
                    <img src=""images/schematic_sequence/hotel_scheme/hotel_scheme_9.png"" class=""exp-image"">
                    <div class=""question-area"">
                        <p style=""font-size: 20px; font-weight: bold; margin: 0;"">Is there a person in this image?</p>
                    </div>
                </div>","0","main_experiment_trial","9","hotel_scheme","schematic_sequence","chronological","","","","","","",""
"","","","","","html-keyboard-response","140","427604","0.0-140.0","6CBE5C9F25D44F2399FDF9C34B1F8200","019cfc9b-66ee-7c54-90b9-660c45863e9a","019cfc7b-6c7b-7b1b-afe7-acad8efc6711","","null","
                <div class=""stimulus-container"">
                    <img src=""images/schematic_sequence/hotel_scheme/hotel_scheme_ten.png"" class=""exp-image"">
                    <div class=""question-area""></div> 
                </div>","null","","","","","","","","","","","",""
"","","","","","html-button-response","141","428384","0.0-141.0","6CBE5C9F25D44F2399FDF9C34B1F8200","019cfc9b-66ee-7c54-90b9-660c45863e9a","019cfc7b-6c7b-7b1b-afe7-acad8efc6711","","779","
                <div class=""stimulus-container"">
                    <img src=""images/schematic_sequence/hotel_scheme/hotel_scheme_ten.png"" class=""exp-image"">
                    <div class=""question-area"">
                        <p style=""font-size: 20px; font-weight: bold; margin: 0;"">Is there a person in this image?</p>
                    </div>
                </div>","0","main_experiment_trial","ten","hotel_scheme","schematic_sequence","chronological","","","","","","",""
"","","","","","html-keyboard-response","142","433387","0.0-142.0","6CBE5C9F25D44F2399FDF9C34B1F8200","019cfc9b-66ee-7c54-90b9-660c45863e9a","019cfc7b-6c7b-7b1b-afe7-acad8efc6711","","null","<div style=""background-color: white; width: 100vw; height: 100vh;""></div>","null","","","","","","","","","","","",""
"","","","","","html-keyboard-response","143","438391","0.0-143.0","6CBE5C9F25D44F2399FDF9C34B1F8200","019cfc9b-66ee-7c54-90b9-660c45863e9a","019cfc7b-6c7b-7b1b-afe7-acad8efc6711","","null","
                <div class=""stimulus-container"">
                    <img src=""images/causal_sequence/coin_causal/coin_causal_1.png"" class=""exp-image"">
                    <div class=""question-area""></div> 
                </div>","null","","","","","","","","","","","",""
"","","","","","html-button-response","144","438935","0.0-144.0","6CBE5C9F25D44F2399FDF9C34B1F8200","019cfc9b-66ee-7c54-90b9-660c45863e9a","019cfc7b-6c7b-7b1b-afe7-acad8efc6711","","541","
                <div class=""stimulus-container"">
                    <img src=""images/causal_sequence/coin_causal/coin_causal_1.png"" class=""exp-image"">
                    <div class=""question-area"">
                        <p style=""font-size: 20px; font-weight: bold; margin: 0;"">Is there a person in this image?</p>
                    </div>
                </div>","0","main_experiment_trial","1","coin_causal","causal_sequence","chronological","","","","","","",""
"","","","","","html-keyboard-response","145","443938","0.0-145.0","6CBE5C9F25D44F2399FDF9C34B1F8200","019cfc9b-66ee-7c54-90b9-660c45863e9a","019cfc7b-6c7b-7b1b-afe7-acad8efc6711","","null","
                <div class=""stimulus-container"">
                    <img src=""images/causal_sequence/coin_causal/coin_causal_2.png"" class=""exp-image"">
                    <div class=""question-area""></div> 
                </div>","null","","","","","","","","","","","",""
"","","","","","html-button-response","146","444468","0.0-146.0","6CBE5C9F25D44F2399FDF9C34B1F8200","019cfc9b-66ee-7c54-90b9-660c45863e9a","019cfc7b-6c7b-7b1b-afe7-acad8efc6711","","528","
                <div class=""stimulus-container"">
                    <img src=""images/causal_sequence/coin_causal/coin_causal_2.png"" class=""exp-image"">
                    <div class=""question-area"">
                        <p style=""font-size: 20px; font-weight: bold; margin: 0;"">Is there a person in this image?</p>
                    </div>
                </div>","0","main_experiment_trial","2","coin_causal","causal_sequence","chronological","","","","","","",""
"","","","","","html-keyboard-response","147","449470","0.0-147.0","6CBE5C9F25D44F2399FDF9C34B1F8200","019cfc9b-66ee-7c54-90b9-660c45863e9a","019cfc7b-6c7b-7b1b-afe7-acad8efc6711","","null","
                <div class=""stimulus-container"">
                    <img src=""images/causal_sequence/coin_causal/coin_causal_3.png"" class=""exp-image"">
                    <div class=""question-area""></div> 
                </div>","null","","","","","","","","","","","",""
"","","","","","html-button-response","148","449968","0.0-148.0","6CBE5C9F25D44F2399FDF9C34B1F8200","019cfc9b-66ee-7c54-90b9-660c45863e9a","019cfc7b-6c7b-7b1b-afe7-acad8efc6711","","497","
                <div class=""stimulus-container"">
                    <img src=""images/causal_sequence/coin_causal/coin_causal_3.png"" class=""exp-image"">
                    <div class=""question-area"">
                        <p style=""font-size: 20px; font-weight: bold; margin: 0;"">Is there a person in this image?</p>
                    </div>
                </div>","0","main_experiment_trial","3","coin_causal","causal_sequence","chronological","","","","","","",""
"","","","","","html-keyboard-response","149","454970","0.0-149.0","6CBE5C9F25D44F2399FDF9C34B1F8200","019cfc9b-66ee-7c54-90b9-660c45863e9a","019cfc7b-6c7b-7b1b-afe7-acad8efc6711","","null","
                <div class=""stimulus-container"">
                    <img src=""images/causal_sequence/coin_causal/coin_causal_4.png"" class=""exp-image"">
                    <div class=""question-area""></div> 
                </div>","null","","","","","","","","","","","",""
"","","","","","html-button-response","150","455901","0.0-150.0","6CBE5C9F25D44F2399FDF9C34B1F8200","019cfc9b-66ee-7c54-90b9-660c45863e9a","019cfc7b-6c7b-7b1b-afe7-acad8efc6711","","929","
                <div class=""stimulus-container"">
                    <img src=""images/causal_sequence/coin_causal/coin_causal_4.png"" class=""exp-image"">
                    <div class=""question-area"">
                        <p style=""font-size: 20px; font-weight: bold; margin: 0;"">Is there a person in this image?</p>
                    </div>
                </div>","0","main_experiment_trial","4","coin_causal","causal_sequence","chronological","","","","","","",""
"","","","","","html-keyboard-response","151","460904","0.0-151.0","6CBE5C9F25D44F2399FDF9C34B1F8200","019cfc9b-66ee-7c54-90b9-660c45863e9a","019cfc7b-6c7b-7b1b-afe7-acad8efc6711","","null","
                <div class=""stimulus-container"">
                    <img src=""images/causal_sequence/coin_causal/coin_causal_5.png"" class=""exp-image"">
                    <div class=""question-area""></div> 
                </div>","null","","","","","","","","","","","",""
"","","","","","html-button-response","152","461468","0.0-152.0","6CBE5C9F25D44F2399FDF9C34B1F8200","019cfc9b-66ee-7c54-90b9-660c45863e9a","019cfc7b-6c7b-7b1b-afe7-acad8efc6711","","562","
                <div class=""stimulus-container"">
                    <img src=""images/causal_sequence/coin_causal/coin_causal_5.png"" class=""exp-image"">
                    <div class=""question-area"">
                        <p style=""font-size: 20px; font-weight: bold; margin: 0;"">Is there a person in this image?</p>
                    </div>
                </div>","0","main_experiment_trial","5","coin_causal","causal_sequence","chronological","","","","","","",""
"","","","","","html-keyboard-response","153","466470","0.0-153.0","6CBE5C9F25D44F2399FDF9C34B1F8200","019cfc9b-66ee-7c54-90b9-660c45863e9a","019cfc7b-6c7b-7b1b-afe7-acad8efc6711","","null","
                <div class=""stimulus-container"">
                    <img src=""images/causal_sequence/coin_causal/coin_causal_6.png"" class=""exp-image"">
                    <div class=""question-area""></div> 
                </div>","null","","","","","","","","","","","",""
"","","","","","html-button-response","154","467151","0.0-154.0","6CBE5C9F25D44F2399FDF9C34B1F8200","019cfc9b-66ee-7c54-90b9-660c45863e9a","019cfc7b-6c7b-7b1b-afe7-acad8efc6711","","679","
                <div class=""stimulus-container"">
                    <img src=""images/causal_sequence/coin_causal/coin_causal_6.png"" class=""exp-image"">
                    <div class=""question-area"">
                        <p style=""font-size: 20px; font-weight: bold; margin: 0;"">Is there a person in this image?</p>
                    </div>
                </div>","0","main_experiment_trial","6","coin_causal","causal_sequence","chronological","","","","","","",""
"","","","","","html-keyboard-response","155","472153","0.0-155.0","6CBE5C9F25D44F2399FDF9C34B1F8200","019cfc9b-66ee-7c54-90b9-660c45863e9a","019cfc7b-6c7b-7b1b-afe7-acad8efc6711","","null","
                <div class=""stimulus-container"">
                    <img src=""images/causal_sequence/coin_causal/coin_causal_7.png"" class=""exp-image"">
                    <div class=""question-area""></div> 
                </div>","null","","","","","","","","","","","",""
"","","","","","html-button-response","156","473018","0.0-156.0","6CBE5C9F25D44F2399FDF9C34B1F8200","019cfc9b-66ee-7c54-90b9-660c45863e9a","019cfc7b-6c7b-7b1b-afe7-acad8efc6711","","863","
                <div class=""stimulus-container"">
                    <img src=""images/causal_sequence/coin_causal/coin_causal_7.png"" class=""exp-image"">
                    <div class=""question-area"">
                        <p style=""font-size: 20px; font-weight: bold; margin: 0;"">Is there a person in this image?</p>
                    </div>
                </div>","1","main_experiment_trial","7","coin_causal","causal_sequence","chronological","","","","","","",""
"","","","","","html-keyboard-response","157","478020","0.0-157.0","6CBE5C9F25D44F2399FDF9C34B1F8200","019cfc9b-66ee-7c54-90b9-660c45863e9a","019cfc7b-6c7b-7b1b-afe7-acad8efc6711","","null","
                <div class=""stimulus-container"">
                    <img src=""images/causal_sequence/coin_causal/coin_causal_8.png"" class=""exp-image"">
                    <div class=""question-area""></div> 
                </div>","null","","","","","","","","","","","",""
"","","","","","html-button-response","158","479133","0.0-158.0","6CBE5C9F25D44F2399FDF9C34B1F8200","019cfc9b-66ee-7c54-90b9-660c45863e9a","019cfc7b-6c7b-7b1b-afe7-acad8efc6711","","1111","
                <div class=""stimulus-container"">
                    <img src=""images/causal_sequence/coin_causal/coin_causal_8.png"" class=""exp-image"">
                    <div class=""question-area"">
                        <p style=""font-size: 20px; font-weight: bold; margin: 0;"">Is there a person in this image?</p>
                    </div>
                </div>","0","main_experiment_trial","8","coin_causal","causal_sequence","chronological","","","","","","",""
"","","","","","html-keyboard-response","159","484135","0.0-159.0","6CBE5C9F25D44F2399FDF9C34B1F8200","019cfc9b-66ee-7c54-90b9-660c45863e9a","019cfc7b-6c7b-7b1b-afe7-acad8efc6711","","null","
                <div class=""stimulus-container"">
                    <img src=""images/causal_sequence/coin_causal/coin_causal_9.png"" class=""exp-image"">
                    <div class=""question-area""></div> 
                </div>","null","","","","","","","","","","","",""
"","","","","","html-button-response","160","484651","0.0-160.0","6CBE5C9F25D44F2399FDF9C34B1F8200","019cfc9b-66ee-7c54-90b9-660c45863e9a","019cfc7b-6c7b-7b1b-afe7-acad8efc6711","","514","
                <div class=""stimulus-container"">
                    <img src=""images/causal_sequence/coin_causal/coin_causal_9.png"" class=""exp-image"">
                    <div class=""question-area"">
                        <p style=""font-size: 20px; font-weight: bold; margin: 0;"">Is there a person in this image?</p>
                    </div>
                </div>","0","main_experiment_trial","9","coin_causal","causal_sequence","chronological","","","","","","",""
"","","","","","html-keyboard-response","161","489654","0.0-161.0","6CBE5C9F25D44F2399FDF9C34B1F8200","019cfc9b-66ee-7c54-90b9-660c45863e9a","019cfc7b-6c7b-7b1b-afe7-acad8efc6711","","null","
                <div class=""stimulus-container"">
                    <img src=""images/causal_sequence/coin_causal/coin_causal_ten.png"" class=""exp-image"">
                    <div class=""question-area""></div> 
                </div>","null","","","","","","","","","","","",""
"","","","","","html-button-response","162","490135","0.0-162.0","6CBE5C9F25D44F2399FDF9C34B1F8200","019cfc9b-66ee-7c54-90b9-660c45863e9a","019cfc7b-6c7b-7b1b-afe7-acad8efc6711","","479","
                <div class=""stimulus-container"">
                    <img src=""images/causal_sequence/coin_causal/coin_causal_ten.png"" class=""exp-image"">
                    <div class=""question-area"">
                        <p style=""font-size: 20px; font-weight: bold; margin: 0;"">Is there a person in this image?</p>
                    </div>
                </div>","0","main_experiment_trial","ten","coin_causal","causal_sequence","chronological","","","","","","",""
"","","","","","html-keyboard-response","163","495138","0.0-163.0","6CBE5C9F25D44F2399FDF9C34B1F8200","019cfc9b-66ee-7c54-90b9-660c45863e9a","019cfc7b-6c7b-7b1b-afe7-acad8efc6711","","null","<div style=""background-color: white; width: 100vw; height: 100vh;""></div>","null","","","","","","","","","","","",""
"","","","","","html-keyboard-response","164","500142","0.0-164.0","6CBE5C9F25D44F2399FDF9C34B1F8200","019cfc9b-66ee-7c54-90b9-660c45863e9a","019cfc7b-6c7b-7b1b-afe7-acad8efc6711","","null","
                <div class=""stimulus-container"">
                    <img src=""images/semantic_sequence/housework_semantic/housework_semantic_1.png"" class=""exp-image"">
                    <div class=""question-area""></div> 
                </div>","null","","","","","","","","","","","",""
"","","","","","html-button-response","165","500701","0.0-165.0","6CBE5C9F25D44F2399FDF9C34B1F8200","019cfc9b-66ee-7c54-90b9-660c45863e9a","019cfc7b-6c7b-7b1b-afe7-acad8efc6711","","557","
                <div class=""stimulus-container"">
                    <img src=""images/semantic_sequence/housework_semantic/housework_semantic_1.png"" class=""exp-image"">
                    <div class=""question-area"">
                        <p style=""font-size: 20px; font-weight: bold; margin: 0;"">Is there a person in this image?</p>
                    </div>
                </div>","0","main_experiment_trial","1","housework_semantic","semantic_sequence","chronological","","","","","","",""
"","","","","","html-keyboard-response","166","505704","0.0-166.0","6CBE5C9F25D44F2399FDF9C34B1F8200","019cfc9b-66ee-7c54-90b9-660c45863e9a","019cfc7b-6c7b-7b1b-afe7-acad8efc6711","","null","
                <div class=""stimulus-container"">
                    <img src=""images/semantic_sequence/housework_semantic/housework_semantic_2.png"" class=""exp-image"">
                    <div class=""question-area""></div> 
                </div>","null","","","","","","","","","","","",""
"","","","","","html-button-response","167","506186","0.0-167.0","6CBE5C9F25D44F2399FDF9C34B1F8200","019cfc9b-66ee-7c54-90b9-660c45863e9a","019cfc7b-6c7b-7b1b-afe7-acad8efc6711","","480","
                <div class=""stimulus-container"">
                    <img src=""images/semantic_sequence/housework_semantic/housework_semantic_2.png"" class=""exp-image"">
                    <div class=""question-area"">
                        <p style=""font-size: 20px; font-weight: bold; margin: 0;"">Is there a person in this image?</p>
                    </div>
                </div>","0","main_experiment_trial","2","housework_semantic","semantic_sequence","chronological","","","","","","",""
"","","","","","html-keyboard-response","168","511188","0.0-168.0","6CBE5C9F25D44F2399FDF9C34B1F8200","019cfc9b-66ee-7c54-90b9-660c45863e9a","019cfc7b-6c7b-7b1b-afe7-acad8efc6711","","null","
                <div class=""stimulus-container"">
                    <img src=""images/semantic_sequence/housework_semantic/housework_semantic_3.png"" class=""exp-image"">
                    <div class=""question-area""></div> 
                </div>","null","","","","","","","","","","","",""
"","","","","","html-button-response","169","511985","0.0-169.0","6CBE5C9F25D44F2399FDF9C34B1F8200","019cfc9b-66ee-7c54-90b9-660c45863e9a","019cfc7b-6c7b-7b1b-afe7-acad8efc6711","","796","
                <div class=""stimulus-container"">
                    <img src=""images/semantic_sequence/housework_semantic/housework_semantic_3.png"" class=""exp-image"">
                    <div class=""question-area"">
                        <p style=""font-size: 20px; font-weight: bold; margin: 0;"">Is there a person in this image?</p>
                    </div>
                </div>","0","main_experiment_trial","3","housework_semantic","semantic_sequence","chronological","","","","","","",""
"","","","","","html-keyboard-response","170","516988","0.0-170.0","6CBE5C9F25D44F2399FDF9C34B1F8200","019cfc9b-66ee-7c54-90b9-660c45863e9a","019cfc7b-6c7b-7b1b-afe7-acad8efc6711","","null","
                <div class=""stimulus-container"">
                    <img src=""images/semantic_sequence/housework_semantic/housework_semantic_4.png"" class=""exp-image"">
                    <div class=""question-area""></div> 
                </div>","null","","","","","","","","","","","",""
"","","","","","html-button-response","171","517669","0.0-171.0","6CBE5C9F25D44F2399FDF9C34B1F8200","019cfc9b-66ee-7c54-90b9-660c45863e9a","019cfc7b-6c7b-7b1b-afe7-acad8efc6711","","678","
                <div class=""stimulus-container"">
                    <img src=""images/semantic_sequence/housework_semantic/housework_semantic_4.png"" class=""exp-image"">
                    <div class=""question-area"">
                        <p style=""font-size: 20px; font-weight: bold; margin: 0;"">Is there a person in this image?</p>
                    </div>
                </div>","0","main_experiment_trial","4","housework_semantic","semantic_sequence","chronological","","","","","","",""
"","","","","","html-keyboard-response","172","522672","0.0-172.0","6CBE5C9F25D44F2399FDF9C34B1F8200","019cfc9b-66ee-7c54-90b9-660c45863e9a","019cfc7b-6c7b-7b1b-afe7-acad8efc6711","","null","
                <div class=""stimulus-container"">
                    <img src=""images/semantic_sequence/housework_semantic/housework_semantic_5.png"" class=""exp-image"">
                    <div class=""question-area""></div> 
                </div>","null","","","","","","","","","","","",""
"","","","","","html-button-response","173","523169","0.0-173.0","6CBE5C9F25D44F2399FDF9C34B1F8200","019cfc9b-66ee-7c54-90b9-660c45863e9a","019cfc7b-6c7b-7b1b-afe7-acad8efc6711","","495","
                <div class=""stimulus-container"">
                    <img src=""images/semantic_sequence/housework_semantic/housework_semantic_5.png"" class=""exp-image"">
                    <div class=""question-area"">
                        <p style=""font-size: 20px; font-weight: bold; margin: 0;"">Is there a person in this image?</p>
                    </div>
                </div>","0","main_experiment_trial","5","housework_semantic","semantic_sequence","chronological","","","","","","",""
"","","","","","html-keyboard-response","174","528172","0.0-174.0","6CBE5C9F25D44F2399FDF9C34B1F8200","019cfc9b-66ee-7c54-90b9-660c45863e9a","019cfc7b-6c7b-7b1b-afe7-acad8efc6711","","null","
                <div class=""stimulus-container"">
                    <img src=""images/semantic_sequence/housework_semantic/housework_semantic_6.png"" class=""exp-image"">
                    <div class=""question-area""></div> 
                </div>","null","","","","","","","","","","","",""
"","","","","","html-button-response","175","528719","0.0-175.0","6CBE5C9F25D44F2399FDF9C34B1F8200","019cfc9b-66ee-7c54-90b9-660c45863e9a","019cfc7b-6c7b-7b1b-afe7-acad8efc6711","","545","
                <div class=""stimulus-container"">
                    <img src=""images/semantic_sequence/housework_semantic/housework_semantic_6.png"" class=""exp-image"">
                    <div class=""question-area"">
                        <p style=""font-size: 20px; font-weight: bold; margin: 0;"">Is there a person in this image?</p>
                    </div>
                </div>","0","main_experiment_trial","6","housework_semantic","semantic_sequence","chronological","","","","","","",""
"","","","","","html-keyboard-response","176","533721","0.0-176.0","6CBE5C9F25D44F2399FDF9C34B1F8200","019cfc9b-66ee-7c54-90b9-660c45863e9a","019cfc7b-6c7b-7b1b-afe7-acad8efc6711","","null","
                <div class=""stimulus-container"">
                    <img src=""images/semantic_sequence/housework_semantic/housework_semantic_7.png"" class=""exp-image"">
                    <div class=""question-area""></div> 
                </div>","null","","","","","","","","","","","",""
"","","","","","html-button-response","177","534235","0.0-177.0","6CBE5C9F25D44F2399FDF9C34B1F8200","019cfc9b-66ee-7c54-90b9-660c45863e9a","019cfc7b-6c7b-7b1b-afe7-acad8efc6711","","512","
                <div class=""stimulus-container"">
                    <img src=""images/semantic_sequence/housework_semantic/housework_semantic_7.png"" class=""exp-image"">
                    <div class=""question-area"">
                        <p style=""font-size: 20px; font-weight: bold; margin: 0;"">Is there a person in this image?</p>
                    </div>
                </div>","0","main_experiment_trial","7","housework_semantic","semantic_sequence","chronological","","","","","","",""
"","","","","","html-keyboard-response","178","539238","0.0-178.0","6CBE5C9F25D44F2399FDF9C34B1F8200","019cfc9b-66ee-7c54-90b9-660c45863e9a","019cfc7b-6c7b-7b1b-afe7-acad8efc6711","","null","
                <div class=""stimulus-container"">
                    <img src=""images/semantic_sequence/housework_semantic/housework_semantic_8.png"" class=""exp-image"">
                    <div class=""question-area""></div> 
                </div>","null","","","","","","","","","","","",""
"","","","","","html-button-response","179","539802","0.0-179.0","6CBE5C9F25D44F2399FDF9C34B1F8200","019cfc9b-66ee-7c54-90b9-660c45863e9a","019cfc7b-6c7b-7b1b-afe7-acad8efc6711","","561","
                <div class=""stimulus-container"">
                    <img src=""images/semantic_sequence/housework_semantic/housework_semantic_8.png"" class=""exp-image"">
