"success","timeout","failed_images","failed_audio","failed_video","trial_type","trial_index","time_elapsed","internal_node_id","subject_id","study_id","session_id","view_history","rt","stimulus","response","task","image_index","folder","sequence_type","valuable_image_index","reward_type","chosen_image_index","target_X","correct_choice"
"true","false","[]","[]","[]","preload","0","6009","0.0-0.0","08B5FC34B26E412592E2CF81B36AA8E5","019cf811-1857-745d-94b9-07b500eb24b2","019cf80d-4266-7117-8a51-54e13c84aca4","","","","","","","","","","","","",""
"","","","","","instructions","1","40609","0.0-1.0","08B5FC34B26E412592E2CF81B36AA8E5","019cf811-1857-745d-94b9-07b500eb24b2","019cf80d-4266-7117-8a51-54e13c84aca4","[{""page_index"":0,""viewing_time"":34599}]","34599","","","","","","","","","","",""
"","","","","","instructions","2","44403","0.0-2.0","08B5FC34B26E412592E2CF81B36AA8E5","019cf811-1857-745d-94b9-07b500eb24b2","019cf80d-4266-7117-8a51-54e13c84aca4","[{""page_index"":0,""viewing_time"":3793}]","3794","","","","","","","","","","",""
"true","","","","","fullscreen","3","47644","0.0-3.0","08B5FC34B26E412592E2CF81B36AA8E5","019cf811-1857-745d-94b9-07b500eb24b2","019cf80d-4266-7117-8a51-54e13c84aca4","","2233","","","","","","","","","","",""
"","","","","","instructions","4","59593","0.0-4.0","08B5FC34B26E412592E2CF81B36AA8E5","019cf811-1857-745d-94b9-07b500eb24b2","019cf80d-4266-7117-8a51-54e13c84aca4","[{""page_index"":0,""viewing_time"":11948}]","11948","","","","","","","","","","",""
"","","","","","instructions","5","72667","0.0-5.0","08B5FC34B26E412592E2CF81B36AA8E5","019cf811-1857-745d-94b9-07b500eb24b2","019cf80d-4266-7117-8a51-54e13c84aca4","[{""page_index"":0,""viewing_time"":13074}]","13074","","","","","","","","","","",""
"","","","","","html-keyboard-response","6","76669","0.0-6.0","08B5FC34B26E412592E2CF81B36AA8E5","019cf811-1857-745d-94b9-07b500eb24b2","019cf80d-4266-7117-8a51-54e13c84aca4","","null","
                <div class=""stimulus-container"">
                    <img src=""images/instructions/movie_1.png"" class=""exp-image"">
                    <div class=""question-area""></div> 
                </div>","null","","","","","","","","",""
"","","","","","html-button-response","7","79681","0.0-7.0","08B5FC34B26E412592E2CF81B36AA8E5","019cf811-1857-745d-94b9-07b500eb24b2","019cf80d-4266-7117-8a51-54e13c84aca4","","null","
                <div class=""stimulus-container"">
                    <img src=""images/instructions/movie_1.png"" class=""exp-image"">
                    <div class=""question-area"">
                        <p style=""font-size: 20px; font-weight: bold; margin: 0;"">Was there a person in this image?</p>
                    </div>
                </div>","null","example_question","1","","","","","","",""
"","","","","","html-keyboard-response","8","83688","0.0-8.0","08B5FC34B26E412592E2CF81B36AA8E5","019cf811-1857-745d-94b9-07b500eb24b2","019cf80d-4266-7117-8a51-54e13c84aca4","","null","
                <div class=""stimulus-container"">
                    <img src=""images/instructions/movie_2.png"" class=""exp-image"">
                    <div class=""question-area""></div> 
                </div>","null","","","","","","","","",""
"","","","","","html-button-response","9","84772","0.0-9.0","08B5FC34B26E412592E2CF81B36AA8E5","019cf811-1857-745d-94b9-07b500eb24b2","019cf80d-4266-7117-8a51-54e13c84aca4","","1082","
                <div class=""stimulus-container"">
                    <img src=""images/instructions/movie_2.png"" class=""exp-image"">
                    <div class=""question-area"">
                        <p style=""font-size: 20px; font-weight: bold; margin: 0;"">Was there a person in this image?</p>
                    </div>
                </div>","0","example_question","2","","","","","","",""
"","","","","","html-keyboard-response","10","88779","0.0-10.0","08B5FC34B26E412592E2CF81B36AA8E5","019cf811-1857-745d-94b9-07b500eb24b2","019cf80d-4266-7117-8a51-54e13c84aca4","","null","
                <div class=""stimulus-container"">
                    <img src=""images/instructions/movie_3.png"" class=""exp-image"">
                    <div class=""question-area""></div> 
                </div>","null","","","","","","","","",""
"","","","","","html-button-response","11","90315","0.0-11.0","08B5FC34B26E412592E2CF81B36AA8E5","019cf811-1857-745d-94b9-07b500eb24b2","019cf80d-4266-7117-8a51-54e13c84aca4","","1534","
                <div class=""stimulus-container"">
                    <img src=""images/instructions/movie_3.png"" class=""exp-image"">
                    <div class=""question-area"">
                        <p style=""font-size: 20px; font-weight: bold; margin: 0;"">Was there a person in this image?</p>
                    </div>
                </div>","0","example_question","3","","","","","","",""
"","","","","","html-keyboard-response","12","94317","0.0-12.0","08B5FC34B26E412592E2CF81B36AA8E5","019cf811-1857-745d-94b9-07b500eb24b2","019cf80d-4266-7117-8a51-54e13c84aca4","","null","
                <div class=""stimulus-container"">
                    <img src=""images/instructions/movie_4.png"" class=""exp-image"">
                    <div class=""question-area""></div> 
                </div>","null","","","","","","","","",""
"","","","","","html-button-response","13","95707","0.0-13.0","08B5FC34B26E412592E2CF81B36AA8E5","019cf811-1857-745d-94b9-07b500eb24b2","019cf80d-4266-7117-8a51-54e13c84aca4","","1389","
                <div class=""stimulus-container"">
                    <img src=""images/instructions/movie_4.png"" class=""exp-image"">
                    <div class=""question-area"">
                        <p style=""font-size: 20px; font-weight: bold; margin: 0;"">Was there a person in this image?</p>
                    </div>
                </div>","0","example_question","4","","","","","","",""
"","","","","","instructions","14","98081","0.0-14.0","08B5FC34B26E412592E2CF81B36AA8E5","019cf811-1857-745d-94b9-07b500eb24b2","019cf80d-4266-7117-8a51-54e13c84aca4","[{""page_index"":0,""viewing_time"":2373}]","2374","","","","","","","","","","",""
"","","","","","instructions","15","106731","0.0-15.0","08B5FC34B26E412592E2CF81B36AA8E5","019cf811-1857-745d-94b9-07b500eb24b2","019cf80d-4266-7117-8a51-54e13c84aca4","[{""page_index"":0,""viewing_time"":8650}]","8650","","","","","","","","","","",""
"","","","","","html-keyboard-response","16","107736","0.0-16.0","08B5FC34B26E412592E2CF81B36AA8E5","019cf811-1857-745d-94b9-07b500eb24b2","019cf80d-4266-7117-8a51-54e13c84aca4","","null","<div style=""background-color: white; width: 100vw; height: 100vh;""></div>","null","","","","","","","","",""
"","","","","","html-keyboard-response","17","112742","0.0-17.0","08B5FC34B26E412592E2CF81B36AA8E5","019cf811-1857-745d-94b9-07b500eb24b2","019cf80d-4266-7117-8a51-54e13c84aca4","","null","
                <div class=""stimulus-container"">
                    <img src=""images/semantic_sequence/self_care_activities_semantic/self_care_activities_semantic_1.png"" class=""exp-image"">
                    <div class=""question-area""></div> 
                </div>","null","","","","","","","","",""
"","","","","","html-button-response","18","113971","0.0-18.0","08B5FC34B26E412592E2CF81B36AA8E5","019cf811-1857-745d-94b9-07b500eb24b2","019cf80d-4266-7117-8a51-54e13c84aca4","","1228","
                <div class=""stimulus-container"">
                    <img src=""images/semantic_sequence/self_care_activities_semantic/self_care_activities_semantic_1.png"" class=""exp-image"">
                    <div class=""question-area"">
                        <p style=""font-size: 20px; font-weight: bold; margin: 0;"">Is there a person in this image?</p>
                    </div>
                </div>","0","main_experiment_trial","1","self_care_activities_semantic","semantic_sequence","","","","",""
"","","","","","html-keyboard-response","19","118984","0.0-19.0","08B5FC34B26E412592E2CF81B36AA8E5","019cf811-1857-745d-94b9-07b500eb24b2","019cf80d-4266-7117-8a51-54e13c84aca4","","null","
                <div class=""stimulus-container"">
                    <img src=""images/semantic_sequence/self_care_activities_semantic/self_care_activities_semantic_2.png"" class=""exp-image"">
                    <div class=""question-area""></div> 
                </div>","null","","","","","","","","",""
"","","","","","html-button-response","20","119787","0.0-20.0","08B5FC34B26E412592E2CF81B36AA8E5","019cf811-1857-745d-94b9-07b500eb24b2","019cf80d-4266-7117-8a51-54e13c84aca4","","802","
                <div class=""stimulus-container"">
                    <img src=""images/semantic_sequence/self_care_activities_semantic/self_care_activities_semantic_2.png"" class=""exp-image"">
                    <div class=""question-area"">
                        <p style=""font-size: 20px; font-weight: bold; margin: 0;"">Is there a person in this image?</p>
                    </div>
                </div>","0","main_experiment_trial","2","self_care_activities_semantic","semantic_sequence","","","","",""
"","","","","","html-keyboard-response","21","124803","0.0-21.0","08B5FC34B26E412592E2CF81B36AA8E5","019cf811-1857-745d-94b9-07b500eb24b2","019cf80d-4266-7117-8a51-54e13c84aca4","","null","
                <div class=""stimulus-container"">
                    <img src=""images/semantic_sequence/self_care_activities_semantic/self_care_activities_semantic_3.png"" class=""exp-image"">
                    <div class=""question-area""></div> 
                </div>","null","","","","","","","","",""
"","","","","","html-button-response","22","125558","0.0-22.0","08B5FC34B26E412592E2CF81B36AA8E5","019cf811-1857-745d-94b9-07b500eb24b2","019cf80d-4266-7117-8a51-54e13c84aca4","","753","
                <div class=""stimulus-container"">
                    <img src=""images/semantic_sequence/self_care_activities_semantic/self_care_activities_semantic_3.png"" class=""exp-image"">
                    <div class=""question-area"">
                        <p style=""font-size: 20px; font-weight: bold; margin: 0;"">Is there a person in this image?</p>
                    </div>
                </div>","0","main_experiment_trial","3","self_care_activities_semantic","semantic_sequence","","","","",""
"","","","","","html-keyboard-response","23","130575","0.0-23.0","08B5FC34B26E412592E2CF81B36AA8E5","019cf811-1857-745d-94b9-07b500eb24b2","019cf80d-4266-7117-8a51-54e13c84aca4","","null","
                <div class=""stimulus-container"">
                    <img src=""images/semantic_sequence/self_care_activities_semantic/self_care_activities_semantic_4.png"" class=""exp-image"">
                    <div class=""question-area""></div> 
                </div>","null","","","","","","","","",""
"","","","","","html-button-response","24","131418","0.0-24.0","08B5FC34B26E412592E2CF81B36AA8E5","019cf811-1857-745d-94b9-07b500eb24b2","019cf80d-4266-7117-8a51-54e13c84aca4","","841","
                <div class=""stimulus-container"">
                    <img src=""images/semantic_sequence/self_care_activities_semantic/self_care_activities_semantic_4.png"" class=""exp-image"">
                    <div class=""question-area"">
                        <p style=""font-size: 20px; font-weight: bold; margin: 0;"">Is there a person in this image?</p>
                    </div>
                </div>","0","main_experiment_trial","4","self_care_activities_semantic","semantic_sequence","","","","",""
"","","","","","html-keyboard-response","25","136429","0.0-25.0","08B5FC34B26E412592E2CF81B36AA8E5","019cf811-1857-745d-94b9-07b500eb24b2","019cf80d-4266-7117-8a51-54e13c84aca4","","null","
                <div class=""stimulus-container"">
                    <img src=""images/semantic_sequence/self_care_activities_semantic/self_care_activities_semantic_5.png"" class=""exp-image"">
                    <div class=""question-area""></div> 
                </div>","null","","","","","","","","",""
"","","","","","html-button-response","26","137248","0.0-26.0","08B5FC34B26E412592E2CF81B36AA8E5","019cf811-1857-745d-94b9-07b500eb24b2","019cf80d-4266-7117-8a51-54e13c84aca4","","818","
                <div class=""stimulus-container"">
                    <img src=""images/semantic_sequence/self_care_activities_semantic/self_care_activities_semantic_5.png"" class=""exp-image"">
                    <div class=""question-area"">
                        <p style=""font-size: 20px; font-weight: bold; margin: 0;"">Is there a person in this image?</p>
                    </div>
                </div>","0","main_experiment_trial","5","self_care_activities_semantic","semantic_sequence","","","","",""
"","","","","","html-keyboard-response","27","142253","0.0-27.0","08B5FC34B26E412592E2CF81B36AA8E5","019cf811-1857-745d-94b9-07b500eb24b2","019cf80d-4266-7117-8a51-54e13c84aca4","","null","
                <div class=""stimulus-container"">
                    <img src=""images/semantic_sequence/self_care_activities_semantic/self_care_activities_semantic_6.png"" class=""exp-image"">
                    <div class=""question-area""></div> 
                </div>","null","","","","","","","","",""
"","","","","","html-button-response","28","145257","0.0-28.0","08B5FC34B26E412592E2CF81B36AA8E5","019cf811-1857-745d-94b9-07b500eb24b2","019cf80d-4266-7117-8a51-54e13c84aca4","","null","
                <div class=""stimulus-container"">
                    <img src=""images/semantic_sequence/self_care_activities_semantic/self_care_activities_semantic_6.png"" class=""exp-image"">
                    <div class=""question-area"">
                        <p style=""font-size: 20px; font-weight: bold; margin: 0;"">Is there a person in this image?</p>
                    </div>
                </div>","null","main_experiment_trial","6","self_care_activities_semantic","semantic_sequence","","","","",""
"","","","","","html-keyboard-response","29","150275","0.0-29.0","08B5FC34B26E412592E2CF81B36AA8E5","019cf811-1857-745d-94b9-07b500eb24b2","019cf80d-4266-7117-8a51-54e13c84aca4","","null","
                <div class=""stimulus-container"">
                    <img src=""images/semantic_sequence/self_care_activities_semantic/self_care_activities_semantic_7.png"" class=""exp-image"">
                    <div class=""question-area""></div> 
                </div>","null","","","","","","","","",""
"","","","","","html-button-response","30","150883","0.0-30.0","08B5FC34B26E412592E2CF81B36AA8E5","019cf811-1857-745d-94b9-07b500eb24b2","019cf80d-4266-7117-8a51-54e13c84aca4","","607","
                <div class=""stimulus-container"">
                    <img src=""images/semantic_sequence/self_care_activities_semantic/self_care_activities_semantic_7.png"" class=""exp-image"">
                    <div class=""question-area"">
                        <p style=""font-size: 20px; font-weight: bold; margin: 0;"">Is there a person in this image?</p>
                    </div>
                </div>","0","main_experiment_trial","7","self_care_activities_semantic","semantic_sequence","","","","",""
"","","","","","html-keyboard-response","31","155888","0.0-31.0","08B5FC34B26E412592E2CF81B36AA8E5","019cf811-1857-745d-94b9-07b500eb24b2","019cf80d-4266-7117-8a51-54e13c84aca4","","null","
                <div class=""stimulus-container"">
                    <img src=""images/semantic_sequence/self_care_activities_semantic/self_care_activities_semantic_8.png"" class=""exp-image"">
                    <div class=""question-area""></div> 
                </div>","null","","","","","","","","",""
"","","","","","html-button-response","32","156481","0.0-32.0","08B5FC34B26E412592E2CF81B36AA8E5","019cf811-1857-745d-94b9-07b500eb24b2","019cf80d-4266-7117-8a51-54e13c84aca4","","592","
                <div class=""stimulus-container"">
                    <img src=""images/semantic_sequence/self_care_activities_semantic/self_care_activities_semantic_8.png"" class=""exp-image"">
                    <div class=""question-area"">
                        <p style=""font-size: 20px; font-weight: bold; margin: 0;"">Is there a person in this image?</p>
                    </div>
                </div>","0","main_experiment_trial","8","self_care_activities_semantic","semantic_sequence","","","","",""
"","","","","","html-keyboard-response","33","161489","0.0-33.0","08B5FC34B26E412592E2CF81B36AA8E5","019cf811-1857-745d-94b9-07b500eb24b2","019cf80d-4266-7117-8a51-54e13c84aca4","","null","
                <div class=""stimulus-container"">
                    <img src=""images/semantic_sequence/self_care_activities_semantic/self_care_activities_semantic_9.png"" class=""exp-image"">
                    <div class=""question-area""></div> 
                </div>","null","","","","","","","","",""
"","","","","","html-button-response","34","162146","0.0-34.0","08B5FC34B26E412592E2CF81B36AA8E5","019cf811-1857-745d-94b9-07b500eb24b2","019cf80d-4266-7117-8a51-54e13c84aca4","","655","
                <div class=""stimulus-container"">
                    <img src=""images/semantic_sequence/self_care_activities_semantic/self_care_activities_semantic_9.png"" class=""exp-image"">
                    <div class=""question-area"">
                        <p style=""font-size: 20px; font-weight: bold; margin: 0;"">Is there a person in this image?</p>
                    </div>
                </div>","0","main_experiment_trial","9","self_care_activities_semantic","semantic_sequence","","","","",""
"","","","","","html-keyboard-response","35","167159","0.0-35.0","08B5FC34B26E412592E2CF81B36AA8E5","019cf811-1857-745d-94b9-07b500eb24b2","019cf80d-4266-7117-8a51-54e13c84aca4","","null","
                <div class=""stimulus-container"">
                    <img src=""images/semantic_sequence/self_care_activities_semantic/self_care_activities_semantic_ten.png"" class=""exp-image"">
                    <div class=""question-area""></div> 
                </div>","null","","","","","","","","",""
"","","","","","html-button-response","36","167949","0.0-36.0","08B5FC34B26E412592E2CF81B36AA8E5","019cf811-1857-745d-94b9-07b500eb24b2","019cf80d-4266-7117-8a51-54e13c84aca4","","789","
                <div class=""stimulus-container"">
                    <img src=""images/semantic_sequence/self_care_activities_semantic/self_care_activities_semantic_ten.png"" class=""exp-image"">
                    <div class=""question-area"">
                        <p style=""font-size: 20px; font-weight: bold; margin: 0;"">Is there a person in this image?</p>
                    </div>
                </div>","0","main_experiment_trial","ten","self_care_activities_semantic","semantic_sequence","","","","",""
"","","","","","html-keyboard-response","37","168962","0.0-37.0","08B5FC34B26E412592E2CF81B36AA8E5","019cf811-1857-745d-94b9-07b500eb24b2","019cf80d-4266-7117-8a51-54e13c84aca4","","null","<div style=""background-color: white; width: 100vw; height: 100vh;""></div>","null","","","","","","","","",""
"","","","","","html-keyboard-response","38","173966","0.0-38.0","08B5FC34B26E412592E2CF81B36AA8E5","019cf811-1857-745d-94b9-07b500eb24b2","019cf80d-4266-7117-8a51-54e13c84aca4","","null","
                <div class=""stimulus-container"">
                    <img src=""images/schematic_sequence/dinner_party_scheme/dinner_party_scheme_1.png"" class=""exp-image"">
                    <div class=""question-area""></div> 
                </div>","null","","","","","","","","",""
"","","","","","html-button-response","39","174581","0.0-39.0","08B5FC34B26E412592E2CF81B36AA8E5","019cf811-1857-745d-94b9-07b500eb24b2","019cf80d-4266-7117-8a51-54e13c84aca4","","614","
                <div class=""stimulus-container"">
                    <img src=""images/schematic_sequence/dinner_party_scheme/dinner_party_scheme_1.png"" class=""exp-image"">
                    <div class=""question-area"">
                        <p style=""font-size: 20px; font-weight: bold; margin: 0;"">Is there a person in this image?</p>
                    </div>
                </div>","0","main_experiment_trial","1","dinner_party_scheme","schematic_sequence","","","","",""
"","","","","","html-keyboard-response","40","179586","0.0-40.0","08B5FC34B26E412592E2CF81B36AA8E5","019cf811-1857-745d-94b9-07b500eb24b2","019cf80d-4266-7117-8a51-54e13c84aca4","","null","
                <div class=""stimulus-container"">
                    <img src=""images/schematic_sequence/dinner_party_scheme/dinner_party_scheme_2.png"" class=""exp-image"">
                    <div class=""question-area""></div> 
                </div>","null","","","","","","","","",""
"","","","","","html-button-response","41","180493","0.0-41.0","08B5FC34B26E412592E2CF81B36AA8E5","019cf811-1857-745d-94b9-07b500eb24b2","019cf80d-4266-7117-8a51-54e13c84aca4","","906","
                <div class=""stimulus-container"">
                    <img src=""images/schematic_sequence/dinner_party_scheme/dinner_party_scheme_2.png"" class=""exp-image"">
                    <div class=""question-area"">
                        <p style=""font-size: 20px; font-weight: bold; margin: 0;"">Is there a person in this image?</p>
                    </div>
                </div>","0","main_experiment_trial","2","dinner_party_scheme","schematic_sequence","","","","",""
"","","","","","html-keyboard-response","42","185496","0.0-42.0","08B5FC34B26E412592E2CF81B36AA8E5","019cf811-1857-745d-94b9-07b500eb24b2","019cf80d-4266-7117-8a51-54e13c84aca4","","null","
                <div class=""stimulus-container"">
                    <img src=""images/schematic_sequence/dinner_party_scheme/dinner_party_scheme_3.png"" class=""exp-image"">
                    <div class=""question-area""></div> 
                </div>","null","","","","","","","","",""
"","","","","","html-button-response","43","186011","0.0-43.0","08B5FC34B26E412592E2CF81B36AA8E5","019cf811-1857-745d-94b9-07b500eb24b2","019cf80d-4266-7117-8a51-54e13c84aca4","","514","
                <div class=""stimulus-container"">
                    <img src=""images/schematic_sequence/dinner_party_scheme/dinner_party_scheme_3.png"" class=""exp-image"">
                    <div class=""question-area"">
                        <p style=""font-size: 20px; font-weight: bold; margin: 0;"">Is there a person in this image?</p>
                    </div>
                </div>","0","main_experiment_trial","3","dinner_party_scheme","schematic_sequence","","","","",""
"","","","","","html-keyboard-response","44","191027","0.0-44.0","08B5FC34B26E412592E2CF81B36AA8E5","019cf811-1857-745d-94b9-07b500eb24b2","019cf80d-4266-7117-8a51-54e13c84aca4","","null","
                <div class=""stimulus-container"">
                    <img src=""images/schematic_sequence/dinner_party_scheme/dinner_party_scheme_4.png"" class=""exp-image"">
                    <div class=""question-area""></div> 
                </div>","null","","","","","","","","",""
"","","","","","html-button-response","45","191509","0.0-45.0","08B5FC34B26E412592E2CF81B36AA8E5","019cf811-1857-745d-94b9-07b500eb24b2","019cf80d-4266-7117-8a51-54e13c84aca4","","481","
                <div class=""stimulus-container"">
                    <img src=""images/schematic_sequence/dinner_party_scheme/dinner_party_scheme_4.png"" class=""exp-image"">
                    <div class=""question-area"">
                        <p style=""font-size: 20px; font-weight: bold; margin: 0;"">Is there a person in this image?</p>
                    </div>
                </div>","0","main_experiment_trial","4","dinner_party_scheme","schematic_sequence","","","","",""
"","","","","","html-keyboard-response","46","196524","0.0-46.0","08B5FC34B26E412592E2CF81B36AA8E5","019cf811-1857-745d-94b9-07b500eb24b2","019cf80d-4266-7117-8a51-54e13c84aca4","","null","
                <div class=""stimulus-container"">
                    <img src=""images/schematic_sequence/dinner_party_scheme/dinner_party_scheme_5.png"" class=""exp-image"">
                    <div class=""question-area""></div> 
                </div>","null","","","","","","","","",""
"","","","","","html-button-response","47","197005","0.0-47.0","08B5FC34B26E412592E2CF81B36AA8E5","019cf811-1857-745d-94b9-07b500eb24b2","019cf80d-4266-7117-8a51-54e13c84aca4","","480","
                <div class=""stimulus-container"">
                    <img src=""images/schematic_sequence/dinner_party_scheme/dinner_party_scheme_5.png"" class=""exp-image"">
                    <div class=""question-area"">
                        <p style=""font-size: 20px; font-weight: bold; margin: 0;"">Is there a person in this image?</p>
                    </div>
                </div>","0","main_experiment_trial","5","dinner_party_scheme","schematic_sequence","","","","",""
"","","","","","html-keyboard-response","48","202013","0.0-48.0","08B5FC34B26E412592E2CF81B36AA8E5","019cf811-1857-745d-94b9-07b500eb24b2","019cf80d-4266-7117-8a51-54e13c84aca4","","null","
                <div class=""stimulus-container"">
                    <img src=""images/schematic_sequence/dinner_party_scheme/dinner_party_scheme_6.png"" class=""exp-image"">
                    <div class=""question-area""></div> 
                </div>","null","","","","","","","","",""
"","","","","","html-button-response","49","202685","0.0-49.0","08B5FC34B26E412592E2CF81B36AA8E5","019cf811-1857-745d-94b9-07b500eb24b2","019cf80d-4266-7117-8a51-54e13c84aca4","","670","
                <div class=""stimulus-container"">
                    <img src=""images/schematic_sequence/dinner_party_scheme/dinner_party_scheme_6.png"" class=""exp-image"">
                    <div class=""question-area"">
                        <p style=""font-size: 20px; font-weight: bold; margin: 0;"">Is there a person in this image?</p>
                    </div>
                </div>","0","main_experiment_trial","6","dinner_party_scheme","schematic_sequence","","","","",""
"","","","","","html-keyboard-response","50","207692","0.0-50.0","08B5FC34B26E412592E2CF81B36AA8E5","019cf811-1857-745d-94b9-07b500eb24b2","019cf80d-4266-7117-8a51-54e13c84aca4","","null","
                <div class=""stimulus-container"">
                    <img src=""images/schematic_sequence/dinner_party_scheme/dinner_party_scheme_7.png"" class=""exp-image"">
                    <div class=""question-area""></div> 
                </div>","null","","","","","","","","",""
"","","","","","html-button-response","51","208459","0.0-51.0","08B5FC34B26E412592E2CF81B36AA8E5","019cf811-1857-745d-94b9-07b500eb24b2","019cf80d-4266-7117-8a51-54e13c84aca4","","767","
                <div class=""stimulus-container"">
                    <img src=""images/schematic_sequence/dinner_party_scheme/dinner_party_scheme_7.png"" class=""exp-image"">
                    <div class=""question-area"">
                        <p style=""font-size: 20px; font-weight: bold; margin: 0;"">Is there a person in this image?</p>
                    </div>
                </div>","0","main_experiment_trial","7","dinner_party_scheme","schematic_sequence","","","","",""
"","","","","","html-keyboard-response","52","213465","0.0-52.0","08B5FC34B26E412592E2CF81B36AA8E5","019cf811-1857-745d-94b9-07b500eb24b2","019cf80d-4266-7117-8a51-54e13c84aca4","","null","
                <div class=""stimulus-container"">
                    <img src=""images/schematic_sequence/dinner_party_scheme/dinner_party_scheme_8.png"" class=""exp-image"">
                    <div class=""question-area""></div> 
                </div>","null","","","","","","","","",""
"","","","","","html-button-response","53","214417","0.0-53.0","08B5FC34B26E412592E2CF81B36AA8E5","019cf811-1857-745d-94b9-07b500eb24b2","019cf80d-4266-7117-8a51-54e13c84aca4","","951","
                <div class=""stimulus-container"">
                    <img src=""images/schematic_sequence/dinner_party_scheme/dinner_party_scheme_8.png"" class=""exp-image"">
                    <div class=""question-area"">
                        <p style=""font-size: 20px; font-weight: bold; margin: 0;"">Is there a person in this image?</p>
                    </div>
                </div>","0","main_experiment_trial","8","dinner_party_scheme","schematic_sequence","","","","",""
"","","","","","html-keyboard-response","54","219421","0.0-54.0","08B5FC34B26E412592E2CF81B36AA8E5","019cf811-1857-745d-94b9-07b500eb24b2","019cf80d-4266-7117-8a51-54e13c84aca4","","null","
                <div class=""stimulus-container"">
                    <img src=""images/schematic_sequence/dinner_party_scheme/dinner_party_scheme_9.png"" class=""exp-image"">
                    <div class=""question-area""></div> 
                </div>","null","","","","","","","","",""
"","","","","","html-button-response","55","219923","0.0-55.0","08B5FC34B26E412592E2CF81B36AA8E5","019cf811-1857-745d-94b9-07b500eb24b2","019cf80d-4266-7117-8a51-54e13c84aca4","","501","
                <div class=""stimulus-container"">
                    <img src=""images/schematic_sequence/dinner_party_scheme/dinner_party_scheme_9.png"" class=""exp-image"">
                    <div class=""question-area"">
                        <p style=""font-size: 20px; font-weight: bold; margin: 0;"">Is there a person in this image?</p>
                    </div>
                </div>","0","main_experiment_trial","9","dinner_party_scheme","schematic_sequence","","","","",""
"","","","","","html-keyboard-response","56","224937","0.0-56.0","08B5FC34B26E412592E2CF81B36AA8E5","019cf811-1857-745d-94b9-07b500eb24b2","019cf80d-4266-7117-8a51-54e13c84aca4","","null","
                <div class=""stimulus-container"">
                    <img src=""images/schematic_sequence/dinner_party_scheme/dinner_party_scheme_ten.png"" class=""exp-image"">
                    <div class=""question-area""></div> 
                </div>","null","","","","","","","","",""
"","","","","","html-button-response","57","225533","0.0-57.0","08B5FC34B26E412592E2CF81B36AA8E5","019cf811-1857-745d-94b9-07b500eb24b2","019cf80d-4266-7117-8a51-54e13c84aca4","","595","
                <div class=""stimulus-container"">
                    <img src=""images/schematic_sequence/dinner_party_scheme/dinner_party_scheme_ten.png"" class=""exp-image"">
                    <div class=""question-area"">
                        <p style=""font-size: 20px; font-weight: bold; margin: 0;"">Is there a person in this image?</p>
                    </div>
                </div>","0","main_experiment_trial","ten","dinner_party_scheme","schematic_sequence","","","","",""
"","","","","","html-keyboard-response","58","226548","0.0-58.0","08B5FC34B26E412592E2CF81B36AA8E5","019cf811-1857-745d-94b9-07b500eb24b2","019cf80d-4266-7117-8a51-54e13c84aca4","","null","<div style=""background-color: white; width: 100vw; height: 100vh;""></div>","null","","","","","","","","",""
"","","","","","html-keyboard-response","59","231565","0.0-59.0","08B5FC34B26E412592E2CF81B36AA8E5","019cf811-1857-745d-94b9-07b500eb24b2","019cf80d-4266-7117-8a51-54e13c84aca4","","null","
                <div class=""stimulus-container"">
                    <img src=""images/schematic_sequence/restaurant_scheme/restaurant_scheme_1.png"" class=""exp-image"">
                    <div class=""question-area""></div> 
                </div>","null","","","","","","","","",""
"","","","","","html-button-response","60","232175","0.0-60.0","08B5FC34B26E412592E2CF81B36AA8E5","019cf811-1857-745d-94b9-07b500eb24b2","019cf80d-4266-7117-8a51-54e13c84aca4","","609","
                <div class=""stimulus-container"">
                    <img src=""images/schematic_sequence/restaurant_scheme/restaurant_scheme_1.png"" class=""exp-image"">
                    <div class=""question-area"">
                        <p style=""font-size: 20px; font-weight: bold; margin: 0;"">Is there a person in this image?</p>
                    </div>
                </div>","0","main_experiment_trial","1","restaurant_scheme","schematic_sequence","","","","",""
"","","","","","html-keyboard-response","61","237178","0.0-61.0","08B5FC34B26E412592E2CF81B36AA8E5","019cf811-1857-745d-94b9-07b500eb24b2","019cf80d-4266-7117-8a51-54e13c84aca4","","null","
                <div class=""stimulus-container"">
                    <img src=""images/schematic_sequence/restaurant_scheme/restaurant_scheme_2.png"" class=""exp-image"">
                    <div class=""question-area""></div> 
                </div>","null","","","","","","","","",""
"","","","","","html-button-response","62","237895","0.0-62.0","08B5FC34B26E412592E2CF81B36AA8E5","019cf811-1857-745d-94b9-07b500eb24b2","019cf80d-4266-7117-8a51-54e13c84aca4","","716","
                <div class=""stimulus-container"">
                    <img src=""images/schematic_sequence/restaurant_scheme/restaurant_scheme_2.png"" class=""exp-image"">
                    <div class=""question-area"">
                        <p style=""font-size: 20px; font-weight: bold; margin: 0;"">Is there a person in this image?</p>
                    </div>
                </div>","1","main_experiment_trial","2","restaurant_scheme","schematic_sequence","","","","",""
"","","","","","html-keyboard-response","63","242904","0.0-63.0","08B5FC34B26E412592E2CF81B36AA8E5","019cf811-1857-745d-94b9-07b500eb24b2","019cf80d-4266-7117-8a51-54e13c84aca4","","null","
                <div class=""stimulus-container"">
                    <img src=""images/schematic_sequence/restaurant_scheme/restaurant_scheme_3.png"" class=""exp-image"">
                    <div class=""question-area""></div> 
                </div>","null","","","","","","","","",""
"","","","","","html-button-response","64","243377","0.0-64.0","08B5FC34B26E412592E2CF81B36AA8E5","019cf811-1857-745d-94b9-07b500eb24b2","019cf80d-4266-7117-8a51-54e13c84aca4","","471","
                <div class=""stimulus-container"">
                    <img src=""images/schematic_sequence/restaurant_scheme/restaurant_scheme_3.png"" class=""exp-image"">
                    <div class=""question-area"">
                        <p style=""font-size: 20px; font-weight: bold; margin: 0;"">Is there a person in this image?</p>
                    </div>
                </div>","1","main_experiment_trial","3","restaurant_scheme","schematic_sequence","","","","",""
"","","","","","html-keyboard-response","65","248387","0.0-65.0","08B5FC34B26E412592E2CF81B36AA8E5","019cf811-1857-745d-94b9-07b500eb24b2","019cf80d-4266-7117-8a51-54e13c84aca4","","null","
                <div class=""stimulus-container"">
                    <img src=""images/schematic_sequence/restaurant_scheme/restaurant_scheme_4.png"" class=""exp-image"">
                    <div class=""question-area""></div> 
                </div>","null","","","","","","","","",""
"","","","","","html-button-response","66","248817","0.0-66.0","08B5FC34B26E412592E2CF81B36AA8E5","019cf811-1857-745d-94b9-07b500eb24b2","019cf80d-4266-7117-8a51-54e13c84aca4","","429","
                <div class=""stimulus-container"">
                    <img src=""images/schematic_sequence/restaurant_scheme/restaurant_scheme_4.png"" class=""exp-image"">
                    <div class=""question-area"">
                        <p style=""font-size: 20px; font-weight: bold; margin: 0;"">Is there a person in this image?</p>
                    </div>
                </div>","0","main_experiment_trial","4","restaurant_scheme","schematic_sequence","","","","",""
"","","","","","html-keyboard-response","67","253818","0.0-67.0","08B5FC34B26E412592E2CF81B36AA8E5","019cf811-1857-745d-94b9-07b500eb24b2","019cf80d-4266-7117-8a51-54e13c84aca4","","null","
                <div class=""stimulus-container"">
                    <img src=""images/schematic_sequence/restaurant_scheme/restaurant_scheme_5.png"" class=""exp-image"">
                    <div class=""question-area""></div> 
                </div>","null","","","","","","","","",""
"","","","","","html-button-response","68","254269","0.0-68.0","08B5FC34B26E412592E2CF81B36AA8E5","019cf811-1857-745d-94b9-07b500eb24b2","019cf80d-4266-7117-8a51-54e13c84aca4","","450","
                <div class=""stimulus-container"">
                    <img src=""images/schematic_sequence/restaurant_scheme/restaurant_scheme_5.png"" class=""exp-image"">
                    <div class=""question-area"">
                        <p style=""font-size: 20px; font-weight: bold; margin: 0;"">Is there a person in this image?</p>
                    </div>
                </div>","0","main_experiment_trial","5","restaurant_scheme","schematic_sequence","","","","",""
"","","","","","html-keyboard-response","69","259273","0.0-69.0","08B5FC34B26E412592E2CF81B36AA8E5","019cf811-1857-745d-94b9-07b500eb24b2","019cf80d-4266-7117-8a51-54e13c84aca4","","null","
                <div class=""stimulus-container"">
                    <img src=""images/schematic_sequence/restaurant_scheme/restaurant_scheme_6.png"" class=""exp-image"">
                    <div class=""question-area""></div> 
                </div>","null","","","","","","","","",""
"","","","","","html-button-response","70","259917","0.0-70.0","08B5FC34B26E412592E2CF81B36AA8E5","019cf811-1857-745d-94b9-07b500eb24b2","019cf80d-4266-7117-8a51-54e13c84aca4","","642","
                <div class=""stimulus-container"">
                    <img src=""images/schematic_sequence/restaurant_scheme/restaurant_scheme_6.png"" class=""exp-image"">
                    <div class=""question-area"">
                        <p style=""font-size: 20px; font-weight: bold; margin: 0;"">Is there a person in this image?</p>
                    </div>
                </div>","1","main_experiment_trial","6","restaurant_scheme","schematic_sequence","","","","",""
"","","","","","html-keyboard-response","71","264920","0.0-71.0","08B5FC34B26E412592E2CF81B36AA8E5","019cf811-1857-745d-94b9-07b500eb24b2","019cf80d-4266-7117-8a51-54e13c84aca4","","null","
                <div class=""stimulus-container"">
                    <img src=""images/schematic_sequence/restaurant_scheme/restaurant_scheme_7.png"" class=""exp-image"">
                    <div class=""question-area""></div> 
                </div>","null","","","","","","","","",""
"","","","","","html-button-response","72","265543","0.0-72.0","08B5FC34B26E412592E2CF81B36AA8E5","019cf811-1857-745d-94b9-07b500eb24b2","019cf80d-4266-7117-8a51-54e13c84aca4","","622","
                <div class=""stimulus-container"">
                    <img src=""images/schematic_sequence/restaurant_scheme/restaurant_scheme_7.png"" class=""exp-image"">
                    <div class=""question-area"">
                        <p style=""font-size: 20px; font-weight: bold; margin: 0;"">Is there a person in this image?</p>
                    </div>
                </div>","1","main_experiment_trial","7","restaurant_scheme","schematic_sequence","","","","",""
"","","","","","html-keyboard-response","73","270545","0.0-73.0","08B5FC34B26E412592E2CF81B36AA8E5","019cf811-1857-745d-94b9-07b500eb24b2","019cf80d-4266-7117-8a51-54e13c84aca4","","null","
                <div class=""stimulus-container"">
                    <img src=""images/schematic_sequence/restaurant_scheme/restaurant_scheme_8.png"" class=""exp-image"">
                    <div class=""question-area""></div> 
                </div>","null","","","","","","","","",""
"","","","","","html-button-response","74","271411","0.0-74.0","08B5FC34B26E412592E2CF81B36AA8E5","019cf811-1857-745d-94b9-07b500eb24b2","019cf80d-4266-7117-8a51-54e13c84aca4","","866","
                <div class=""stimulus-container"">
                    <img src=""images/schematic_sequence/restaurant_scheme/restaurant_scheme_8.png"" class=""exp-image"">
                    <div class=""question-area"">
                        <p style=""font-size: 20px; font-weight: bold; margin: 0;"">Is there a person in this image?</p>
                    </div>
                </div>","0","main_experiment_trial","8","restaurant_scheme","schematic_sequence","","","","",""
"","","","","","html-keyboard-response","75","276418","0.0-75.0","08B5FC34B26E412592E2CF81B36AA8E5","019cf811-1857-745d-94b9-07b500eb24b2","019cf80d-4266-7117-8a51-54e13c84aca4","","null","
                <div class=""stimulus-container"">
                    <img src=""images/schematic_sequence/restaurant_scheme/restaurant_scheme_9.png"" class=""exp-image"">
                    <div class=""question-area""></div> 
                </div>","null","","","","","","","","",""
"","","","","","html-button-response","76","277241","0.0-76.0","08B5FC34B26E412592E2CF81B36AA8E5","019cf811-1857-745d-94b9-07b500eb24b2","019cf80d-4266-7117-8a51-54e13c84aca4","","822","
                <div class=""stimulus-container"">
                    <img src=""images/schematic_sequence/restaurant_scheme/restaurant_scheme_9.png"" class=""exp-image"">
                    <div class=""question-area"">
                        <p style=""font-size: 20px; font-weight: bold; margin: 0;"">Is there a person in this image?</p>
                    </div>
                </div>","0","main_experiment_trial","9","restaurant_scheme","schematic_sequence","","","","",""
"","","","","","html-keyboard-response","77","282253","0.0-77.0","08B5FC34B26E412592E2CF81B36AA8E5","019cf811-1857-745d-94b9-07b500eb24b2","019cf80d-4266-7117-8a51-54e13c84aca4","","null","
                <div class=""stimulus-container"">
                    <img src=""images/schematic_sequence/restaurant_scheme/restaurant_scheme_ten.png"" class=""exp-image"">
                    <div class=""question-area""></div> 
                </div>","null","","","","","","","","",""
"","","","","","html-button-response","78","283001","0.0-78.0","08B5FC34B26E412592E2CF81B36AA8E5","019cf811-1857-745d-94b9-07b500eb24b2","019cf80d-4266-7117-8a51-54e13c84aca4","","746","
                <div class=""stimulus-container"">
                    <img src=""images/schematic_sequence/restaurant_scheme/restaurant_scheme_ten.png"" class=""exp-image"">
                    <div class=""question-area"">
                        <p style=""font-size: 20px; font-weight: bold; margin: 0;"">Is there a person in this image?</p>
                    </div>
                </div>","0","main_experiment_trial","ten","restaurant_scheme","schematic_sequence","","","","",""
"","","","","","html-keyboard-response","79","284003","0.0-79.0","08B5FC34B26E412592E2CF81B36AA8E5","019cf811-1857-745d-94b9-07b500eb24b2","019cf80d-4266-7117-8a51-54e13c84aca4","","null","<div style=""background-color: white; width: 100vw; height: 100vh;""></div>","null","","","","","","","","",""
"","","","","","html-keyboard-response","80","289006","0.0-80.0","08B5FC34B26E412592E2CF81B36AA8E5","019cf811-1857-745d-94b9-07b500eb24b2","019cf80d-4266-7117-8a51-54e13c84aca4","","null","
                <div class=""stimulus-container"">
                    <img src=""images/schematic_sequence/supermarket_scheme/supermarket_scheme_1.png"" class=""exp-image"">
                    <div class=""question-area""></div> 
                </div>","null","","","","","","","","",""
"","","","","","html-button-response","81","289741","0.0-81.0","08B5FC34B26E412592E2CF81B36AA8E5","019cf811-1857-745d-94b9-07b500eb24b2","019cf80d-4266-7117-8a51-54e13c84aca4","","734","
                <div class=""stimulus-container"">
                    <img src=""images/schematic_sequence/supermarket_scheme/supermarket_scheme_1.png"" class=""exp-image"">
                    <div class=""question-area"">
                        <p style=""font-size: 20px; font-weight: bold; margin: 0;"">Is there a person in this image?</p>
                    </div>
                </div>","1","main_experiment_trial","1","supermarket_scheme","schematic_sequence","","","","",""
"","","","","","html-keyboard-response","82","294742","0.0-82.0","08B5FC34B26E412592E2CF81B36AA8E5","019cf811-1857-745d-94b9-07b500eb24b2","019cf80d-4266-7117-8a51-54e13c84aca4","","null","
                <div class=""stimulus-container"">
                    <img src=""images/schematic_sequence/supermarket_scheme/supermarket_scheme_2.png"" class=""exp-image"">
                    <div class=""question-area""></div> 
                </div>","null","","","","","","","","",""
"","","","","","html-button-response","83","295591","0.0-83.0","08B5FC34B26E412592E2CF81B36AA8E5","019cf811-1857-745d-94b9-07b500eb24b2","019cf80d-4266-7117-8a51-54e13c84aca4","","848","
                <div class=""stimulus-container"">
                    <img src=""images/schematic_sequence/supermarket_scheme/supermarket_scheme_2.png"" class=""exp-image"">
                    <div class=""question-area"">
                        <p style=""font-size: 20px; font-weight: bold; margin: 0;"">Is there a person in this image?</p>
                    </div>
                </div>","1","main_experiment_trial","2","supermarket_scheme","schematic_sequence","","","","",""
"","","","","","html-keyboard-response","84","300606","0.0-84.0","08B5FC34B26E412592E2CF81B36AA8E5","019cf811-1857-745d-94b9-07b500eb24b2","019cf80d-4266-7117-8a51-54e13c84aca4","","null","
                <div class=""stimulus-container"">
                    <img src=""images/schematic_sequence/supermarket_scheme/supermarket_scheme_3.png"" class=""exp-image"">
                    <div class=""question-area""></div> 
                </div>","null","","","","","","","","",""
"","","","","","html-button-response","85","301512","0.0-85.0","08B5FC34B26E412592E2CF81B36AA8E5","019cf811-1857-745d-94b9-07b500eb24b2","019cf80d-4266-7117-8a51-54e13c84aca4","","905","
                <div class=""stimulus-container"">
                    <img src=""images/schematic_sequence/supermarket_scheme/supermarket_scheme_3.png"" class=""exp-image"">
                    <div class=""question-area"">
                        <p style=""font-size: 20px; font-weight: bold; margin: 0;"">Is there a person in this image?</p>
                    </div>
                </div>","1","main_experiment_trial","3","supermarket_scheme","schematic_sequence","","","","",""
"","","","","","html-keyboard-response","86","306527","0.0-86.0","08B5FC34B26E412592E2CF81B36AA8E5","019cf811-1857-745d-94b9-07b500eb24b2","019cf80d-4266-7117-8a51-54e13c84aca4","","null","
                <div class=""stimulus-container"">
                    <img src=""images/schematic_sequence/supermarket_scheme/supermarket_scheme_4.png"" class=""exp-image"">
                    <div class=""question-area""></div> 
                </div>","null","","","","","","","","",""
"","","","","","html-button-response","87","307307","0.0-87.0","08B5FC34B26E412592E2CF81B36AA8E5","019cf811-1857-745d-94b9-07b500eb24b2","019cf80d-4266-7117-8a51-54e13c84aca4","","779","
                <div class=""stimulus-container"">
                    <img src=""images/schematic_sequence/supermarket_scheme/supermarket_scheme_4.png"" class=""exp-image"">
                    <div class=""question-area"">
                        <p style=""font-size: 20px; font-weight: bold; margin: 0;"">Is there a person in this image?</p>
                    </div>
                </div>","0","main_experiment_trial","4","supermarket_scheme","schematic_sequence","","","","",""
"","","","","","html-keyboard-response","88","312319","0.0-88.0","08B5FC34B26E412592E2CF81B36AA8E5","019cf811-1857-745d-94b9-07b500eb24b2","019cf80d-4266-7117-8a51-54e13c84aca4","","null","
                <div class=""stimulus-container"">
                    <img src=""images/schematic_sequence/supermarket_scheme/supermarket_scheme_5.png"" class=""exp-image"">
                    <div class=""question-area""></div> 
                </div>","null","","","","","","","","",""
"","","","","","html-button-response","89","313526","0.0-89.0","08B5FC34B26E412592E2CF81B36AA8E5","019cf811-1857-745d-94b9-07b500eb24b2","019cf80d-4266-7117-8a51-54e13c84aca4","","1206","
                <div class=""stimulus-container"">
                    <img src=""images/schematic_sequence/supermarket_scheme/supermarket_scheme_5.png"" class=""exp-image"">
                    <div class=""question-area"">
                        <p style=""font-size: 20px; font-weight: bold; margin: 0;"">Is there a person in this image?</p>
                    </div>
                </div>","1","main_experiment_trial","5","supermarket_scheme","schematic_sequence","","","","",""
"","","","","","html-keyboard-response","90","318540","0.0-90.0","08B5FC34B26E412592E2CF81B36AA8E5","019cf811-1857-745d-94b9-07b500eb24b2","019cf80d-4266-7117-8a51-54e13c84aca4","","null","
                <div class=""stimulus-container"">
                    <img src=""images/schematic_sequence/supermarket_scheme/supermarket_scheme_6.png"" class=""exp-image"">
                    <div class=""question-area""></div> 
                </div>","null","","","","","","","","",""
"","","","","","html-button-response","91","319271","0.0-91.0","08B5FC34B26E412592E2CF81B36AA8E5","019cf811-1857-745d-94b9-07b500eb24b2","019cf80d-4266-7117-8a51-54e13c84aca4","","730","
                <div class=""stimulus-container"">
                    <img src=""images/schematic_sequence/supermarket_scheme/supermarket_scheme_6.png"" class=""exp-image"">
                    <div class=""question-area"">
                        <p style=""font-size: 20px; font-weight: bold; margin: 0;"">Is there a person in this image?</p>
                    </div>
                </div>","0","main_experiment_trial","6","supermarket_scheme","schematic_sequence","","","","",""
"","","","","","html-keyboard-response","92","324287","0.0-92.0","08B5FC34B26E412592E2CF81B36AA8E5","019cf811-1857-745d-94b9-07b500eb24b2","019cf80d-4266-7117-8a51-54e13c84aca4","","null","
                <div class=""stimulus-container"">
                    <img src=""images/schematic_sequence/supermarket_scheme/supermarket_scheme_7.png"" class=""exp-image"">
                    <div class=""question-area""></div> 
                </div>","null","","","","","","","","",""
"","","","","","html-button-response","93","324798","0.0-93.0","08B5FC34B26E412592E2CF81B36AA8E5","019cf811-1857-745d-94b9-07b500eb24b2","019cf80d-4266-7117-8a51-54e13c84aca4","","511","
                <div class=""stimulus-container"">
                    <img src=""images/schematic_sequence/supermarket_scheme/supermarket_scheme_7.png"" class=""exp-image"">
                    <div class=""question-area"">
                        <p style=""font-size: 20px; font-weight: bold; margin: 0;"">Is there a person in this image?</p>
                    </div>
                </div>","0","main_experiment_trial","7","supermarket_scheme","schematic_sequence","","","","",""
"","","","","","html-keyboard-response","94","329805","0.0-94.0","08B5FC34B26E412592E2CF81B36AA8E5","019cf811-1857-745d-94b9-07b500eb24b2","019cf80d-4266-7117-8a51-54e13c84aca4","","null","
                <div class=""stimulus-container"">
                    <img src=""images/schematic_sequence/supermarket_scheme/supermarket_scheme_8.png"" class=""exp-image"">
                    <div class=""question-area""></div> 
                </div>","null","","","","","","","","",""
"","","","","","html-button-response","95","330266","0.0-95.0","08B5FC34B26E412592E2CF81B36AA8E5","019cf811-1857-745d-94b9-07b500eb24b2","019cf80d-4266-7117-8a51-54e13c84aca4","","461","
                <div class=""stimulus-container"">
                    <img src=""images/schematic_sequence/supermarket_scheme/supermarket_scheme_8.png"" class=""exp-image"">
                    <div class=""question-area"">
                        <p style=""font-size: 20px; font-weight: bold; margin: 0;"">Is there a person in this image?</p>
                    </div>
                </div>","0","main_experiment_trial","8","supermarket_scheme","schematic_sequence","","","","",""
"","","","","","html-keyboard-response","96","335271","0.0-96.0","08B5FC34B26E412592E2CF81B36AA8E5","019cf811-1857-745d-94b9-07b500eb24b2","019cf80d-4266-7117-8a51-54e13c84aca4","","null","
                <div class=""stimulus-container"">
                    <img src=""images/schematic_sequence/supermarket_scheme/supermarket_scheme_9.png"" class=""exp-image"">
                    <div class=""question-area""></div> 
                </div>","null","","","","","","","","",""
"","","","","","html-button-response","97","336319","0.0-97.0","08B5FC34B26E412592E2CF81B36AA8E5","019cf811-1857-745d-94b9-07b500eb24b2","019cf80d-4266-7117-8a51-54e13c84aca4","","1046","
                <div class=""stimulus-container"">
                    <img src=""images/schematic_sequence/supermarket_scheme/supermarket_scheme_9.png"" class=""exp-image"">
                    <div class=""question-area"">
                        <p style=""font-size: 20px; font-weight: bold; margin: 0;"">Is there a person in this image?</p>
                    </div>
                </div>","0","main_experiment_trial","9","supermarket_scheme","schematic_sequence","","","","",""
"","","","","","html-keyboard-response","98","341331","0.0-98.0","08B5FC34B26E412592E2CF81B36AA8E5","019cf811-1857-745d-94b9-07b500eb24b2","019cf80d-4266-7117-8a51-54e13c84aca4","","null","
                <div class=""stimulus-container"">
                    <img src=""images/schematic_sequence/supermarket_scheme/supermarket_scheme_ten.png"" class=""exp-image"">
                    <div class=""question-area""></div> 
                </div>","null","","","","","","","","",""
"","","","","","html-button-response","99","341969","0.0-99.0","08B5FC34B26E412592E2CF81B36AA8E5","019cf811-1857-745d-94b9-07b500eb24b2","019cf80d-4266-7117-8a51-54e13c84aca4","","636","
                <div class=""stimulus-container"">
                    <img src=""images/schematic_sequence/supermarket_scheme/supermarket_scheme_ten.png"" class=""exp-image"">
                    <div class=""question-area"">
                        <p style=""font-size: 20px; font-weight: bold; margin: 0;"">Is there a person in this image?</p>
                    </div>
                </div>","1","main_experiment_trial","ten","supermarket_scheme","schematic_sequence","","","","",""
"","","","","","html-keyboard-response","100","342979","0.0-100.0","08B5FC34B26E412592E2CF81B36AA8E5","019cf811-1857-745d-94b9-07b500eb24b2","019cf80d-4266-7117-8a51-54e13c84aca4","","null","<div style=""background-color: white; width: 100vw; height: 100vh;""></div>","null","","","","","","","","",""
"","","","","","html-keyboard-response","101","347995","0.0-101.0","08B5FC34B26E412592E2CF81B36AA8E5","019cf811-1857-745d-94b9-07b500eb24b2","019cf80d-4266-7117-8a51-54e13c84aca4","","null","
                <div class=""stimulus-container"">
                    <img src=""images/semantic_sequence/housework_semantic/housework_semantic_1.png"" class=""exp-image"">
                    <div class=""question-area""></div> 
                </div>","null","","","","","","","","",""
"","","","","","html-button-response","102","349666","0.0-102.0","08B5FC34B26E412592E2CF81B36AA8E5","019cf811-1857-745d-94b9-07b500eb24b2","019cf80d-4266-7117-8a51-54e13c84aca4","","1670","
                <div class=""stimulus-container"">
                    <img src=""images/semantic_sequence/housework_semantic/housework_semantic_1.png"" class=""exp-image"">
                    <div class=""question-area"">
                        <p style=""font-size: 20px; font-weight: bold; margin: 0;"">Is there a person in this image?</p>
                    </div>
                </div>","0","main_experiment_trial","1","housework_semantic","semantic_sequence","","","","",""
"","","","","","html-keyboard-response","103","354668","0.0-103.0","08B5FC34B26E412592E2CF81B36AA8E5","019cf811-1857-745d-94b9-07b500eb24b2","019cf80d-4266-7117-8a51-54e13c84aca4","","null","
                <div class=""stimulus-container"">
                    <img src=""images/semantic_sequence/housework_semantic/housework_semantic_2.png"" class=""exp-image"">
                    <div class=""question-area""></div> 
                </div>","null","","","","","","","","",""
"","","","","","html-button-response","104","355123","0.0-104.0","08B5FC34B26E412592E2CF81B36AA8E5","019cf811-1857-745d-94b9-07b500eb24b2","019cf80d-4266-7117-8a51-54e13c84aca4","","454","
                <div class=""stimulus-container"">
                    <img src=""images/semantic_sequence/housework_semantic/housework_semantic_2.png"" class=""exp-image"">
                    <div class=""question-area"">
                        <p style=""font-size: 20px; font-weight: bold; margin: 0;"">Is there a person in this image?</p>
                    </div>
                </div>","0","main_experiment_trial","2","housework_semantic","semantic_sequence","","","","",""
"","","","","","html-keyboard-response","105","360133","0.0-105.0","08B5FC34B26E412592E2CF81B36AA8E5","019cf811-1857-745d-94b9-07b500eb24b2","019cf80d-4266-7117-8a51-54e13c84aca4","","null","
                <div class=""stimulus-container"">
                    <img src=""images/semantic_sequence/housework_semantic/housework_semantic_3.png"" class=""exp-image"">
                    <div class=""question-area""></div> 
                </div>","null","","","","","","","","",""
"","","","","","html-button-response","106","360777","0.0-106.0","08B5FC34B26E412592E2CF81B36AA8E5","019cf811-1857-745d-94b9-07b500eb24b2","019cf80d-4266-7117-8a51-54e13c84aca4","","642","
                <div class=""stimulus-container"">
                    <img src=""images/semantic_sequence/housework_semantic/housework_semantic_3.png"" class=""exp-image"">
                    <div class=""question-area"">
                        <p style=""font-size: 20px; font-weight: bold; margin: 0;"">Is there a person in this image?</p>
                    </div>
                </div>","0","main_experiment_trial","3","housework_semantic","semantic_sequence","","","","",""
"","","","","","html-keyboard-response","107","365781","0.0-107.0","08B5FC34B26E412592E2CF81B36AA8E5","019cf811-1857-745d-94b9-07b500eb24b2","019cf80d-4266-7117-8a51-54e13c84aca4","","null","
                <div class=""stimulus-container"">
                    <img src=""images/semantic_sequence/housework_semantic/housework_semantic_4.png"" class=""exp-image"">
                    <div class=""question-area""></div> 
                </div>","null","","","","","","","","",""
"","","","","","html-button-response","108","366329","0.0-108.0","08B5FC34B26E412592E2CF81B36AA8E5","019cf811-1857-745d-94b9-07b500eb24b2","019cf80d-4266-7117-8a51-54e13c84aca4","","547","
                <div class=""stimulus-container"">
                    <img src=""images/semantic_sequence/housework_semantic/housework_semantic_4.png"" class=""exp-image"">
                    <div class=""question-area"">
                        <p style=""font-size: 20px; font-weight: bold; margin: 0;"">Is there a person in this image?</p>
                    </div>
                </div>","0","main_experiment_trial","4","housework_semantic","semantic_sequence","","","","",""
"","","","","","html-keyboard-response","109","371340","0.0-109.0","08B5FC34B26E412592E2CF81B36AA8E5","019cf811-1857-745d-94b9-07b500eb24b2","019cf80d-4266-7117-8a51-54e13c84aca4","","null","
                <div class=""stimulus-container"">
                    <img src=""images/semantic_sequence/housework_semantic/housework_semantic_5.png"" class=""exp-image"">
                    <div class=""question-area""></div> 
                </div>","null","","","","","","","","",""
"","","","","","html-button-response","110","371862","0.0-110.0","08B5FC34B26E412592E2CF81B36AA8E5","019cf811-1857-745d-94b9-07b500eb24b2","019cf80d-4266-7117-8a51-54e13c84aca4","","521","
                <div class=""stimulus-container"">
                    <img src=""images/semantic_sequence/housework_semantic/housework_semantic_5.png"" class=""exp-image"">
                    <div class=""question-area"">
                        <p style=""font-size: 20px; font-weight: bold; margin: 0;"">Is there a person in this image?</p>
                    </div>
                </div>","0","main_experiment_trial","5","housework_semantic","semantic_sequence","","","","",""
"","","","","","html-keyboard-response","111","376876","0.0-111.0","08B5FC34B26E412592E2CF81B36AA8E5","019cf811-1857-745d-94b9-07b500eb24b2","019cf80d-4266-7117-8a51-54e13c84aca4","","null","
                <div class=""stimulus-container"">
                    <img src=""images/semantic_sequence/housework_semantic/housework_semantic_6.png"" class=""exp-image"">
                    <div class=""question-area""></div> 
                </div>","null","","","","","","","","",""
"","","","","","html-button-response","112","377606","0.0-112.0","08B5FC34B26E412592E2CF81B36AA8E5","019cf811-1857-745d-94b9-07b500eb24b2","019cf80d-4266-7117-8a51-54e13c84aca4","","729","
                <div class=""stimulus-container"">
                    <img src=""images/semantic_sequence/housework_semantic/housework_semantic_6.png"" class=""exp-image"">
                    <div class=""question-area"">
                        <p style=""font-size: 20px; font-weight: bold; margin: 0;"">Is there a person in this image?</p>
                    </div>
                </div>","0","main_experiment_trial","6","housework_semantic","semantic_sequence","","","","",""
"","","","","","html-keyboard-response","113","382609","0.0-113.0","08B5FC34B26E412592E2CF81B36AA8E5","019cf811-1857-745d-94b9-07b500eb24b2","019cf80d-4266-7117-8a51-54e13c84aca4","","null","
                <div class=""stimulus-container"">
                    <img src=""images/semantic_sequence/housework_semantic/housework_semantic_7.png"" class=""exp-image"">
                    <div class=""question-area""></div> 
                </div>","null","","","","","","","","",""
"","","","","","html-button-response","114","383292","0.0-114.0","08B5FC34B26E412592E2CF81B36AA8E5","019cf811-1857-745d-94b9-07b500eb24b2","019cf80d-4266-7117-8a51-54e13c84aca4","","682","
                <div class=""stimulus-container"">
                    <img src=""images/semantic_sequence/housework_semantic/housework_semantic_7.png"" class=""exp-image"">
                    <div class=""question-area"">
                        <p style=""font-size: 20px; font-weight: bold; margin: 0;"">Is there a person in this image?</p>
                    </div>
                </div>","0","main_experiment_trial","7","housework_semantic","semantic_sequence","","","","",""
"","","","","","html-keyboard-response","115","388306","0.0-115.0","08B5FC34B26E412592E2CF81B36AA8E5","019cf811-1857-745d-94b9-07b500eb24b2","019cf80d-4266-7117-8a51-54e13c84aca4","","null","
                <div class=""stimulus-container"">
                    <img src=""images/semantic_sequence/housework_semantic/housework_semantic_8.png"" class=""exp-image"">
                    <div class=""question-area""></div> 
                </div>","null","","","","","","","","",""
"","","","","","html-button-response","116","388944","0.0-116.0","08B5FC34B26E412592E2CF81B36AA8E5","019cf811-1857-745d-94b9-07b500eb24b2","019cf80d-4266-7117-8a51-54e13c84aca4","","637","
                <div class=""stimulus-container"">
                    <img src=""images/semantic_sequence/housework_semantic/housework_semantic_8.png"" class=""exp-image"">
                    <div class=""question-area"">
                        <p style=""font-size: 20px; font-weight: bold; margin: 0;"">Is there a person in this image?</p>
                    </div>
                </div>","0","main_experiment_trial","8","housework_semantic","semantic_sequence","","","","",""
"","","","","","html-keyboard-response","117","393961","0.0-117.0","08B5FC34B26E412592E2CF81B36AA8E5","019cf811-1857-745d-94b9-07b500eb24b2","019cf80d-4266-7117-8a51-54e13c84aca4","","null","
                <div class=""stimulus-container"">
                    <img src=""images/semantic_sequence/housework_semantic/housework_semantic_9.png"" class=""exp-image"">
                    <div class=""question-area""></div> 
                </div>","null","","","","","","","","",""
"","","","","","html-button-response","118","394422","0.0-118.0","08B5FC34B26E412592E2CF81B36AA8E5","019cf811-1857-745d-94b9-07b500eb24b2","019cf80d-4266-7117-8a51-54e13c84aca4","","460","
                <div class=""stimulus-container"">
                    <img src=""images/semantic_sequence/housework_semantic/housework_semantic_9.png"" class=""exp-image"">
                    <div class=""question-area"">
                        <p style=""font-size: 20px; font-weight: bold; margin: 0;"">Is there a person in this image?</p>
                    </div>
                </div>","0","main_experiment_trial","9","housework_semantic","semantic_sequence","","","","",""
"","","","","","html-keyboard-response","119","399431","0.0-119.0","08B5FC34B26E412592E2CF81B36AA8E5","019cf811-1857-745d-94b9-07b500eb24b2","019cf80d-4266-7117-8a51-54e13c84aca4","","null","
                <div class=""stimulus-container"">
                    <img src=""images/semantic_sequence/housework_semantic/housework_semantic_ten.png"" class=""exp-image"">
                    <div class=""question-area""></div> 
                </div>","null","","","","","","","","",""
"","","","","","html-button-response","120","399878","0.0-120.0","08B5FC34B26E412592E2CF81B36AA8E5","019cf811-1857-745d-94b9-07b500eb24b2","019cf80d-4266-7117-8a51-54e13c84aca4","","446","
                <div class=""stimulus-container"">
                    <img src=""images/semantic_sequence/housework_semantic/housework_semantic_ten.png"" class=""exp-image"">
                    <div class=""question-area"">
                        <p style=""font-size: 20px; font-weight: bold; margin: 0;"">Is there a person in this image?</p>
                    </div>
                </div>","0","main_experiment_trial","ten","housework_semantic","semantic_sequence","","","","",""
"","","","","","html-keyboard-response","121","400883","0.0-121.0","08B5FC34B26E412592E2CF81B36AA8E5","019cf811-1857-745d-94b9-07b500eb24b2","019cf80d-4266-7117-8a51-54e13c84aca4","","null","<div style=""background-color: white; width: 100vw; height: 100vh;""></div>","null","","","","","","","","",""
"","","","","","html-keyboard-response","122","405887","0.0-122.0","08B5FC34B26E412592E2CF81B36AA8E5","019cf811-1857-745d-94b9-07b500eb24b2","019cf80d-4266-7117-8a51-54e13c84aca4","","null","
                <div class=""stimulus-container"">
                    <img src=""images/schematic_sequence/interview_scheme/interview_scheme_1.png"" class=""exp-image"">
                    <div class=""question-area""></div> 
                </div>","null","","","","","","","","",""
"","","","","","html-button-response","123","406764","0.0-123.0","08B5FC34B26E412592E2CF81B36AA8E5","019cf811-1857-745d-94b9-07b500eb24b2","019cf80d-4266-7117-8a51-54e13c84aca4","","876","
                <div class=""stimulus-container"">
                    <img src=""images/schematic_sequence/interview_scheme/interview_scheme_1.png"" class=""exp-image"">
                    <div class=""question-area"">
                        <p style=""font-size: 20px; font-weight: bold; margin: 0;"">Is there a person in this image?</p>
                    </div>
                </div>","1","main_experiment_trial","1","interview_scheme","schematic_sequence","","","","",""
"","","","","","html-keyboard-response","124","411779","0.0-124.0","08B5FC34B26E412592E2CF81B36AA8E5","019cf811-1857-745d-94b9-07b500eb24b2","019cf80d-4266-7117-8a51-54e13c84aca4","","null","
                <div class=""stimulus-container"">
                    <img src=""images/schematic_sequence/interview_scheme/interview_scheme_2.png"" class=""exp-image"">
                    <div class=""question-area""></div> 
                </div>","null","","","","","","","","",""
"","","","","","html-button-response","125","412988","0.0-125.0","08B5FC34B26E412592E2CF81B36AA8E5","019cf811-1857-745d-94b9-07b500eb24b2","019cf80d-4266-7117-8a51-54e13c84aca4","","1208","
                <div class=""stimulus-container"">
                    <img src=""images/schematic_sequence/interview_scheme/interview_scheme_2.png"" class=""exp-image"">
                    <div class=""question-area"">
                        <p style=""font-size: 20px; font-weight: bold; margin: 0;"">Is there a person in this image?</p>
                    </div>
                </div>","0","main_experiment_trial","2","interview_scheme","schematic_sequence","","","","",""
"","","","","","html-keyboard-response","126","417998","0.0-126.0","08B5FC34B26E412592E2CF81B36AA8E5","019cf811-1857-745d-94b9-07b500eb24b2","019cf80d-4266-7117-8a51-54e13c84aca4","","null","
                <div class=""stimulus-container"">
                    <img src=""images/schematic_sequence/interview_scheme/interview_scheme_3.png"" class=""exp-image"">
                    <div class=""question-area""></div> 
                </div>","null","","","","","","","","",""
"","","","","","html-button-response","127","418602","0.0-127.0","08B5FC34B26E412592E2CF81B36AA8E5","019cf811-1857-745d-94b9-07b500eb24b2","019cf80d-4266-7117-8a51-54e13c84aca4","","603","
                <div class=""stimulus-container"">
                    <img src=""images/schematic_sequence/interview_scheme/interview_scheme_3.png"" class=""exp-image"">
                    <div class=""question-area"">
                        <p style=""font-size: 20px; font-weight: bold; margin: 0;"">Is there a person in this image?</p>
                    </div>
                </div>","1","main_experiment_trial","3","interview_scheme","schematic_sequence","","","","",""
"","","","","","html-keyboard-response","128","423604","0.0-128.0","08B5FC34B26E412592E2CF81B36AA8E5","019cf811-1857-745d-94b9-07b500eb24b2","019cf80d-4266-7117-8a51-54e13c84aca4","","null","
                <div class=""stimulus-container"">
                    <img src=""images/schematic_sequence/interview_scheme/interview_scheme_4.png"" class=""exp-image"">
                    <div class=""question-area""></div> 
                </div>","null","","","","","","","","",""
"","","","","","html-button-response","129","424104","0.0-129.0","08B5FC34B26E412592E2CF81B36AA8E5","019cf811-1857-745d-94b9-07b500eb24b2","019cf80d-4266-7117-8a51-54e13c84aca4","","498","
                <div class=""stimulus-container"">
                    <img src=""images/schematic_sequence/interview_scheme/interview_scheme_4.png"" class=""exp-image"">
                    <div class=""question-area"">
                        <p style=""font-size: 20px; font-weight: bold; margin: 0;"">Is there a person in this image?</p>
                    </div>
                </div>","1","main_experiment_trial","4","interview_scheme","schematic_sequence","","","","",""
"","","","","","html-keyboard-response","130","429117","0.0-130.0","08B5FC34B26E412592E2CF81B36AA8E5","019cf811-1857-745d-94b9-07b500eb24b2","019cf80d-4266-7117-8a51-54e13c84aca4","","null","
                <div class=""stimulus-container"">
                    <img src=""images/schematic_sequence/interview_scheme/interview_scheme_5.png"" class=""exp-image"">
                    <div class=""question-area""></div> 
                </div>","null","","","","","","","","",""
"","","","","","html-button-response","131","429628","0.0-131.0","08B5FC34B26E412592E2CF81B36AA8E5","019cf811-1857-745d-94b9-07b500eb24b2","019cf80d-4266-7117-8a51-54e13c84aca4","","510","
                <div class=""stimulus-container"">
                    <img src=""images/schematic_sequence/interview_scheme/interview_scheme_5.png"" class=""exp-image"">
                    <div class=""question-area"">
                        <p style=""font-size: 20px; font-weight: bold; margin: 0;"">Is there a person in this image?</p>
                    </div>
                </div>","0","main_experiment_trial","5","interview_scheme","schematic_sequence","","","","",""
"","","","","","html-keyboard-response","132","434636","0.0-132.0","08B5FC34B26E412592E2CF81B36AA8E5","019cf811-1857-745d-94b9-07b500eb24b2","019cf80d-4266-7117-8a51-54e13c84aca4","","null","
                <div class=""stimulus-container"">
                    <img src=""images/schematic_sequence/interview_scheme/interview_scheme_6.png"" class=""exp-image"">
                    <div class=""question-area""></div> 
                </div>","null","","","","","","","","",""
"","","","","","html-button-response","133","435196","0.0-133.0","08B5FC34B26E412592E2CF81B36AA8E5","019cf811-1857-745d-94b9-07b500eb24b2","019cf80d-4266-7117-8a51-54e13c84aca4","","558","
                <div class=""stimulus-container"">
                    <img src=""images/schematic_sequence/interview_scheme/interview_scheme_6.png"" class=""exp-image"">
                    <div class=""question-area"">
                        <p style=""font-size: 20px; font-weight: bold; margin: 0;"">Is there a person in this image?</p>
                    </div>
                </div>","0","main_experiment_trial","6","interview_scheme","schematic_sequence","","","","",""
"","","","","","html-keyboard-response","134","440204","0.0-134.0","08B5FC34B26E412592E2CF81B36AA8E5","019cf811-1857-745d-94b9-07b500eb24b2","019cf80d-4266-7117-8a51-54e13c84aca4","","null","
                <div class=""stimulus-container"">
                    <img src=""images/schematic_sequence/interview_scheme/interview_scheme_7.png"" class=""exp-image"">
                    <div class=""question-area""></div> 
                </div>","null","","","","","","","","",""
"","","","","","html-button-response","135","441122","0.0-135.0","08B5FC34B26E412592E2CF81B36AA8E5","019cf811-1857-745d-94b9-07b500eb24b2","019cf80d-4266-7117-8a51-54e13c84aca4","","917","
                <div class=""stimulus-container"">
                    <img src=""images/schematic_sequence/interview_scheme/interview_scheme_7.png"" class=""exp-image"">
                    <div class=""question-area"">
                        <p style=""font-size: 20px; font-weight: bold; margin: 0;"">Is there a person in this image?</p>
                    </div>
                </div>","0","main_experiment_trial","7","interview_scheme","schematic_sequence","","","","",""
"","","","","","html-keyboard-response","136","446131","0.0-136.0","08B5FC34B26E412592E2CF81B36AA8E5","019cf811-1857-745d-94b9-07b500eb24b2","019cf80d-4266-7117-8a51-54e13c84aca4","","null","
                <div class=""stimulus-container"">
                    <img src=""images/schematic_sequence/interview_scheme/interview_scheme_8.png"" class=""exp-image"">
                    <div class=""question-area""></div> 
                </div>","null","","","","","","","","",""
"","","","","","html-button-response","137","446867","0.0-137.0","08B5FC34B26E412592E2CF81B36AA8E5","019cf811-1857-745d-94b9-07b500eb24b2","019cf80d-4266-7117-8a51-54e13c84aca4","","735","
                <div class=""stimulus-container"">
                    <img src=""images/schematic_sequence/interview_scheme/interview_scheme_8.png"" class=""exp-image"">
                    <div class=""question-area"">
                        <p style=""font-size: 20px; font-weight: bold; margin: 0;"">Is there a person in this image?</p>
                    </div>
                </div>","0","main_experiment_trial","8","interview_scheme","schematic_sequence","","","","",""
"","","","","","html-keyboard-response","138","451875","0.0-138.0","08B5FC34B26E412592E2CF81B36AA8E5","019cf811-1857-745d-94b9-07b500eb24b2","019cf80d-4266-7117-8a51-54e13c84aca4","","null","
                <div class=""stimulus-container"">
                    <img src=""images/schematic_sequence/interview_scheme/interview_scheme_9.png"" class=""exp-image"">
                    <div class=""question-area""></div> 
                </div>","null","","","","","","","","",""
"","","","","","html-button-response","139","452320","0.0-139.0","08B5FC34B26E412592E2CF81B36AA8E5","019cf811-1857-745d-94b9-07b500eb24b2","019cf80d-4266-7117-8a51-54e13c84aca4","","444","
                <div class=""stimulus-container"">
                    <img src=""images/schematic_sequence/interview_scheme/interview_scheme_9.png"" class=""exp-image"">
                    <div class=""question-area"">
                        <p style=""font-size: 20px; font-weight: bold; margin: 0;"">Is there a person in this image?</p>
                    </div>
                </div>","0","main_experiment_trial","9","interview_scheme","schematic_sequence","","","","",""
"","","","","","html-keyboard-response","140","457335","0.0-140.0","08B5FC34B26E412592E2CF81B36AA8E5","019cf811-1857-745d-94b9-07b500eb24b2","019cf80d-4266-7117-8a51-54e13c84aca4","","null","
                <div class=""stimulus-container"">
                    <img src=""images/schematic_sequence/interview_scheme/interview_scheme_ten.png"" class=""exp-image"">
                    <div class=""question-area""></div> 
                </div>","null","","","","","","","","",""
"","","","","","html-button-response","141","457848","0.0-141.0","08B5FC34B26E412592E2CF81B36AA8E5","019cf811-1857-745d-94b9-07b500eb24b2","019cf80d-4266-7117-8a51-54e13c84aca4","","512","
                <div class=""stimulus-container"">
                    <img src=""images/schematic_sequence/interview_scheme/interview_scheme_ten.png"" class=""exp-image"">
                    <div class=""question-area"">
                        <p style=""font-size: 20px; font-weight: bold; margin: 0;"">Is there a person in this image?</p>
                    </div>
                </div>","0","main_experiment_trial","ten","interview_scheme","schematic_sequence","","","","",""
"","","","","","html-keyboard-response","142","458855","0.0-142.0","08B5FC34B26E412592E2CF81B36AA8E5","019cf811-1857-745d-94b9-07b500eb24b2","019cf80d-4266-7117-8a51-54e13c84aca4","","null","<div style=""background-color: white; width: 100vw; height: 100vh;""></div>","null","","","","","","","","",""
"","","","","","html-keyboard-response","143","463868","0.0-143.0","08B5FC34B26E412592E2CF81B36AA8E5","019cf811-1857-745d-94b9-07b500eb24b2","019cf80d-4266-7117-8a51-54e13c84aca4","","null","
                <div class=""stimulus-container"">
                    <img src=""images/schematic_sequence/hotel_scheme/hotel_scheme_1.png"" class=""exp-image"">
                    <div class=""question-area""></div> 
                </div>","null","","","","","","","","",""
"","","","","","html-button-response","144","464525","0.0-144.0","08B5FC34B26E412592E2CF81B36AA8E5","019cf811-1857-745d-94b9-07b500eb24b2","019cf80d-4266-7117-8a51-54e13c84aca4","","657","
                <div class=""stimulus-container"">
                    <img src=""images/schematic_sequence/hotel_scheme/hotel_scheme_1.png"" class=""exp-image"">
                    <div class=""question-area"">
                        <p style=""font-size: 20px; font-weight: bold; margin: 0;"">Is there a person in this image?</p>
                    </div>
                </div>","1","main_experiment_trial","1","hotel_scheme","schematic_sequence","","","","",""
"","","","","","html-keyboard-response","145","469535","0.0-145.0","08B5FC34B26E412592E2CF81B36AA8E5","019cf811-1857-745d-94b9-07b500eb24b2","019cf80d-4266-7117-8a51-54e13c84aca4","","null","
                <div class=""stimulus-container"">
                    <img src=""images/schematic_sequence/hotel_scheme/hotel_scheme_2.png"" class=""exp-image"">
                    <div class=""question-area""></div> 
                </div>","null","","","","","","","","",""
"","","","","","html-button-response","146","470130","0.0-146.0","08B5FC34B26E412592E2CF81B36AA8E5","019cf811-1857-745d-94b9-07b500eb24b2","019cf80d-4266-7117-8a51-54e13c84aca4","","594","
                <div class=""stimulus-container"">
                    <img src=""images/schematic_sequence/hotel_scheme/hotel_scheme_2.png"" class=""exp-image"">
                    <div class=""question-area"">
                        <p style=""font-size: 20px; font-weight: bold; margin: 0;"">Is there a person in this image?</p>
                    </div>
                </div>","0","main_experiment_trial","2","hotel_scheme","schematic_sequence","","","","",""
"","","","","","html-keyboard-response","147","475141","0.0-147.0","08B5FC34B26E412592E2CF81B36AA8E5","019cf811-1857-745d-94b9-07b500eb24b2","019cf80d-4266-7117-8a51-54e13c84aca4","","null","
                <div class=""stimulus-container"">
                    <img src=""images/schematic_sequence/hotel_scheme/hotel_scheme_3.png"" class=""exp-image"">
                    <div class=""question-area""></div> 
                </div>","null","","","","","","","","",""
"","","","","","html-button-response","148","475684","0.0-148.0","08B5FC34B26E412592E2CF81B36AA8E5","019cf811-1857-745d-94b9-07b500eb24b2","019cf80d-4266-7117-8a51-54e13c84aca4","","542","
                <div class=""stimulus-container"">
                    <img src=""images/schematic_sequence/hotel_scheme/hotel_scheme_3.png"" class=""exp-image"">
                    <div class=""question-area"">
                        <p style=""font-size: 20px; font-weight: bold; margin: 0;"">Is there a person in this image?</p>
                    </div>
                </div>","0","main_experiment_trial","3","hotel_scheme","schematic_sequence","","","","",""
"","","","","","html-keyboard-response","149","480698","0.0-149.0","08B5FC34B26E412592E2CF81B36AA8E5","019cf811-1857-745d-94b9-07b500eb24b2","019cf80d-4266-7117-8a51-54e13c84aca4","","null","
                <div class=""stimulus-container"">
                    <img src=""images/schematic_sequence/hotel_scheme/hotel_scheme_4.png"" class=""exp-image"">
                    <div class=""question-area""></div> 
                </div>","null","","","","","","","","",""
"","","","","","html-button-response","150","481490","0.0-150.0","08B5FC34B26E412592E2CF81B36AA8E5","019cf811-1857-745d-94b9-07b500eb24b2","019cf80d-4266-7117-8a51-54e13c84aca4","","791","
                <div class=""stimulus-container"">
                    <img src=""images/schematic_sequence/hotel_scheme/hotel_scheme_4.png"" class=""exp-image"">
                    <div class=""question-area"">
                        <p style=""font-size: 20px; font-weight: bold; margin: 0;"">Is there a person in this image?</p>
                    </div>
                </div>","1","main_experiment_trial","4","hotel_scheme","schematic_sequence","","","","",""
"","","","","","html-keyboard-response","151","486496","0.0-151.0","08B5FC34B26E412592E2CF81B36AA8E5","019cf811-1857-745d-94b9-07b500eb24b2","019cf80d-4266-7117-8a51-54e13c84aca4","","null","
                <div class=""stimulus-container"">
                    <img src=""images/schematic_sequence/hotel_scheme/hotel_scheme_5.png"" class=""exp-image"">
                    <div class=""question-area""></div> 
                </div>","null","","","","","","","","",""
"","","","","","html-button-response","152","487288","0.0-152.0","08B5FC34B26E412592E2CF81B36AA8E5","019cf811-1857-745d-94b9-07b500eb24b2","019cf80d-4266-7117-8a51-54e13c84aca4","","790","
                <div class=""stimulus-container"">
                    <img src=""images/schematic_sequence/hotel_scheme/hotel_scheme_5.png"" class=""exp-image"">
                    <div class=""question-area"">
                        <p style=""font-size: 20px; font-weight: bold; margin: 0;"">Is there a person in this image?</p>
                    </div>
                </div>","0","main_experiment_trial","5","hotel_scheme","schematic_sequence","","","","",""
"","","","","","html-keyboard-response","153","492290","0.0-153.0","08B5FC34B26E412592E2CF81B36AA8E5","019cf811-1857-745d-94b9-07b500eb24b2","019cf80d-4266-7117-8a51-54e13c84aca4","","null","
                <div class=""stimulus-container"">
                    <img src=""images/schematic_sequence/hotel_scheme/hotel_scheme_6.png"" class=""exp-image"">
                    <div class=""question-area""></div> 
                </div>","null","","","","","","","","",""
"","","","","","html-button-response","154","493082","0.0-154.0","08B5FC34B26E412592E2CF81B36AA8E5","019cf811-1857-745d-94b9-07b500eb24b2","019cf80d-4266-7117-8a51-54e13c84aca4","","790","
                <div class=""stimulus-container"">
                    <img src=""images/schematic_sequence/hotel_scheme/hotel_scheme_6.png"" class=""exp-image"">
                    <div class=""question-area"">
                        <p style=""font-size: 20px; font-weight: bold; margin: 0;"">Is there a person in this image?</p>
                    </div>
                </div>","0","main_experiment_trial","6","hotel_scheme","schematic_sequence","","","","",""
"","","","","","html-keyboard-response","155","498088","0.0-155.0","08B5FC34B26E412592E2CF81B36AA8E5","019cf811-1857-745d-94b9-07b500eb24b2","019cf80d-4266-7117-8a51-54e13c84aca4","","null","
                <div class=""stimulus-container"">
                    <img src=""images/schematic_sequence/hotel_scheme/hotel_scheme_7.png"" class=""exp-image"">
                    <div class=""question-area""></div> 
                </div>","null","","","","","","","","",""
"","","","","","html-button-response","156","498656","0.0-156.0","08B5FC34B26E412592E2CF81B36AA8E5","019cf811-1857-745d-94b9-07b500eb24b2","019cf80d-4266-7117-8a51-54e13c84aca4","","567","
                <div class=""stimulus-container"">
                    <img src=""images/schematic_sequence/hotel_scheme/hotel_scheme_7.png"" class=""exp-image"">
                    <div class=""question-area"">
                        <p style=""font-size: 20px; font-weight: bold; margin: 0;"">Is there a person in this image?</p>
                    </div>
                </div>","0","main_experiment_trial","7","hotel_scheme","schematic_sequence","","","","",""
"","","","","","html-keyboard-response","157","503663","0.0-157.0","08B5FC34B26E412592E2CF81B36AA8E5","019cf811-1857-745d-94b9-07b500eb24b2","019cf80d-4266-7117-8a51-54e13c84aca4","","null","
                <div class=""stimulus-container"">
                    <img src=""images/schematic_sequence/hotel_scheme/hotel_scheme_8.png"" class=""exp-image"">
                    <div class=""question-area""></div> 
                </div>","null","","","","","","","","",""
"","","","","","html-button-response","158","504124","0.0-158.0","08B5FC34B26E412592E2CF81B36AA8E5","019cf811-1857-745d-94b9-07b500eb24b2","019cf80d-4266-7117-8a51-54e13c84aca4","","459","
                <div class=""stimulus-container"">
                    <img src=""images/schematic_sequence/hotel_scheme/hotel_scheme_8.png"" class=""exp-image"">
                    <div class=""question-area"">
                        <p style=""font-size: 20px; font-weight: bold; margin: 0;"">Is there a person in this image?</p>
                    </div>
                </div>","0","main_experiment_trial","8","hotel_scheme","schematic_sequence","","","","",""
"","","","","","html-keyboard-response","159","509139","0.0-159.0","08B5FC34B26E412592E2CF81B36AA8E5","019cf811-1857-745d-94b9-07b500eb24b2","019cf80d-4266-7117-8a51-54e13c84aca4","","null","
                <div class=""stimulus-container"">
                    <img src=""images/schematic_sequence/hotel_scheme/hotel_scheme_9.png"" class=""exp-image"">
                    <div class=""question-area""></div> 
                </div>","null","","","","","","","","",""
"","","","","","html-button-response","160","509626","0.0-160.0","08B5FC34B26E412592E2CF81B36AA8E5","019cf811-1857-745d-94b9-07b500eb24b2","019cf80d-4266-7117-8a51-54e13c84aca4","","486","
                <div class=""stimulus-container"">
                    <img src=""images/schematic_sequence/hotel_scheme/hotel_scheme_9.png"" class=""exp-image"">
                    <div class=""question-area"">
                        <p style=""font-size: 20px; font-weight: bold; margin: 0;"">Is there a person in this image?</p>
                    </div>
                </div>","0","main_experiment_trial","9","hotel_scheme","schematic_sequence","","","","",""
"","","","","","html-keyboard-response","161","514640","0.0-161.0","08B5FC34B26E412592E2CF81B36AA8E5","019cf811-1857-745d-94b9-07b500eb24b2","019cf80d-4266-7117-8a51-54e13c84aca4","","null","
                <div class=""stimulus-container"">
                    <img src=""images/schematic_sequence/hotel_scheme/hotel_scheme_ten.png"" class=""exp-image"">
                    <div class=""question-area""></div> 
                </div>","null","","","","","","","","",""
"","","","","","html-button-response","162","515492","0.0-162.0","08B5FC34B26E412592E2CF81B36AA8E5","019cf811-1857-745d-94b9-07b500eb24b2","019cf80d-4266-7117-8a51-54e13c84aca4","","850","
                <div class=""stimulus-container"">
                    <img src=""images/schematic_sequence/hotel_scheme/hotel_scheme_ten.png"" class=""exp-image"">
                    <div class=""question-area"">
                        <p style=""font-size: 20px; font-weight: bold; margin: 0;"">Is there a person in this image?</p>
                    </div>
                </div>","0","main_experiment_trial","ten","hotel_scheme","schematic_sequence","","","","",""
"","","","","","html-keyboard-response","163","516496","0.0-163.0","08B5FC34B26E412592E2CF81B36AA8E5","019cf811-1857-745d-94b9-07b500eb24b2","019cf80d-4266-7117-8a51-54e13c84aca4","","null","<div style=""background-color: white; width: 100vw; height: 100vh;""></div>","null","","","","","","","","",""
"","","","","","html-keyboard-response","164","521502","0.0-164.0","08B5FC34B26E412592E2CF81B36AA8E5","019cf811-1857-745d-94b9-07b500eb24b2","019cf80d-4266-7117-8a51-54e13c84aca4","","null","
                <div class=""stimulus-container"">
                    <img src=""images/schematic_sequence/flight_scheme/flight_scheme_1.png"" class=""exp-image"">
                    <div class=""question-area""></div> 
                </div>","null","","","","","","","","",""
"","","","","","html-button-response","165","522052","0.0-165.0","08B5FC34B26E412592E2CF81B36AA8E5","019cf811-1857-745d-94b9-07b500eb24b2","019cf80d-4266-7117-8a51-54e13c84aca4","","548","
                <div class=""stimulus-container"">
                    <img src=""images/schematic_sequence/flight_scheme/flight_scheme_1.png"" class=""exp-image"">
                    <div class=""question-area"">
                        <p style=""font-size: 20px; font-weight: bold; margin: 0;"">Is there a person in this image?</p>
                    </div>
                </div>","0","main_experiment_trial","1","flight_scheme","schematic_sequence","","","","",""
"","","","","","html-keyboard-response","166","527069","0.0-166.0","08B5FC34B26E412592E2CF81B36AA8E5","019cf811-1857-745d-94b9-07b500eb24b2","019cf80d-4266-7117-8a51-54e13c84aca4","","null","
                <div class=""stimulus-container"">
                    <img src=""images/schematic_sequence/flight_scheme/flight_scheme_2.png"" class=""exp-image"">
                    <div class=""question-area""></div> 
                </div>","null","","","","","","","","",""
"","","","","","html-button-response","167","528136","0.0-167.0","08B5FC34B26E412592E2CF81B36AA8E5","019cf811-1857-745d-94b9-07b500eb24b2","019cf80d-4266-7117-8a51-54e13c84aca4","","1065","
                <div class=""stimulus-container"">
                    <img src=""images/schematic_sequence/flight_scheme/flight_scheme_2.png"" class=""exp-image"">
                    <div class=""question-area"">
                        <p style=""font-size: 20px; font-weight: bold; margin: 0;"">Is there a person in this image?</p>
                    </div>
                </div>","1","main_experiment_trial","2","flight_scheme","schematic_sequence","","","","",""
"","","","","","html-keyboard-response","168","533147","0.0-168.0","08B5FC34B26E412592E2CF81B36AA8E5","019cf811-1857-745d-94b9-07b500eb24b2","019cf80d-4266-7117-8a51-54e13c84aca4","","null","
                <div class=""stimulus-container"">
                    <img src=""images/schematic_sequence/flight_scheme/flight_scheme_3.png"" class=""exp-image"">
                    <div class=""question-area""></div> 
                </div>","null","","","","","","","","",""
"","","","","","html-button-response","169","533660","0.0-169.0","08B5FC34B26E412592E2CF81B36AA8E5","019cf811-1857-745d-94b9-07b500eb24b2","019cf80d-4266-7117-8a51-54e13c84aca4","","513","
                <div class=""stimulus-container"">
                    <img src=""images/schematic_sequence/flight_scheme/flight_scheme_3.png"" class=""exp-image"">
                    <div class=""question-area"">
                        <p style=""font-size: 20px; font-weight: bold; margin: 0;"">Is there a person in this image?</p>
                    </div>
                </div>","0","main_experiment_trial","3","flight_scheme","schematic_sequence","","","","",""
"","","","","","html-keyboard-response","170","538665","0.0-170.0","08B5FC34B26E412592E2CF81B36AA8E5","019cf811-1857-745d-94b9-07b500eb24b2","019cf80d-4266-7117-8a51-54e13c84aca4","","null","
                <div class=""stimulus-container"">
                    <img src=""images/schematic_sequence/flight_scheme/flight_scheme_4.png"" class=""exp-image"">
                    <div class=""question-area""></div> 
                </div>","null","","","","","","","","",""
"","","","","","html-button-response","171","539132","0.0-171.0","08B5FC34B26E412592E2CF81B36AA8E5","019cf811-1857-745d-94b9-07b500eb24b2","019cf80d-4266-7117-8a51-54e13c84aca4","","466","
                <div class=""stimulus-container"">
                    <img src=""images/schematic_sequence/flight_scheme/flight_scheme_4.png"" class=""exp-image"">
                    <div class=""question-area"">
                        <p style=""font-size: 20px; font-weight: bold; margin: 0;"">Is there a person in this image?</p>
                    </div>
                </div>","0","main_experiment_trial","4","flight_scheme","schematic_sequence","","","","",""
"","","","","","html-keyboard-response","172","544136","0.0-172.0","08B5FC34B26E412592E2CF81B36AA8E5","019cf811-1857-745d-94b9-07b500eb24b2","019cf80d-4266-7117-8a51-54e13c84aca4","","null","
                <div class=""stimulus-container"">
                    <img src=""images/schematic_sequence/flight_scheme/flight_scheme_5.png"" class=""exp-image"">
                    <div class=""question-area""></div> 
                </div>","null","","","","","","","","",""
"","","","","","html-button-response","173","545074","0.0-173.0","08B5FC34B26E412592E2CF81B36AA8E5","019cf811-1857-745d-94b9-07b500eb24b2","019cf80d-4266-7117-8a51-54e13c84aca4","","937","
                <div class=""stimulus-container"">
                    <img src=""images/schematic_sequence/flight_scheme/flight_scheme_5.png"" class=""exp-image"">
                    <div class=""question-area"">
                        <p style=""font-size: 20px; font-weight: bold; margin: 0;"">Is there a person in this image?</p>
                    </div>
                </div>","0","main_experiment_trial","5","flight_scheme","schematic_sequence","","","","",""
"","","","","","html-keyboard-response","174","550091","0.0-174.0","08B5FC34B26E412592E2CF81B36AA8E5","019cf811-1857-745d-94b9-07b500eb24b2","019cf80d-4266-7117-8a51-54e13c84aca4","","null","
                <div class=""stimulus-container"">
                    <img src=""images/schematic_sequence/flight_scheme/flight_scheme_6.png"" class=""exp-image"">
                    <div class=""question-area""></div> 
                </div>","null","","","","","","","","",""
"","","","","","html-button-response","175","551112","0.0-175.0","08B5FC34B26E412592E2CF81B36AA8E5","019cf811-1857-745d-94b9-07b500eb24b2","019cf80d-4266-7117-8a51-54e13c84aca4","","1019","
                <div class=""stimulus-container"">
                    <img src=""images/schematic_sequence/flight_scheme/flight_scheme_6.png"" class=""exp-image"">
                    <div class=""question-area"">
                        <p style=""font-size: 20px; font-weight: bold; margin: 0;"">Is there a person in this image?</p>
                    </div>
                </div>","1","main_experiment_trial","6","flight_scheme","schematic_sequence","","","","",""
"","","","","","html-keyboard-response","176","556118","0.0-176.0","08B5FC34B26E412592E2CF81B36AA8E5","019cf811-1857-745d-94b9-07b500eb24b2","019cf80d-4266-7117-8a51-54e13c84aca4","","null","
                <div class=""stimulus-container"">
                    <img src=""images/schematic_sequence/flight_scheme/flight_scheme_7.png"" class=""exp-image"">
                    <div class=""question-area""></div> 
                </div>","null","","","","","","","","",""
"","","","","","html-button-response","177","556830","0.0-177.0","08B5FC34B26E412592E2CF81B36AA8E5","019cf811-1857-745d-94b9-07b500eb24b2","019cf80d-4266-7117-8a51-54e13c84aca4","","711","
                <div class=""stimulus-container"">
                    <img src=""images/schematic_sequence/flight_scheme/flight_scheme_7.png"" class=""exp-image"">
                    <div class=""question-area"">
                        <p style=""font-size: 20px; font-weight: bold; margin: 0;"">Is there a person in this image?</p>
                    </div>
                </div>","0","main_experiment_trial","7","flight_scheme","schematic_sequence","","","","",""
"","","","","","html-keyboard-response","178","561831","0.0-178.0","08B5FC34B26E412592E2CF81B36AA8E5","019cf811-1857-745d-94b9-07b500eb24b2","019cf80d-4266-7117-8a51-54e13c84aca4","","null","
                <div class=""stimulus-container"">
                    <img src=""images/schematic_sequence/flight_scheme/flight_scheme_8.png"" class=""exp-image"">
                    <div class=""question-area""></div> 
                </div>","null","","","","","","","","",""
"","","","","","html-button-response","179","562832","0.0-179.0","08B5FC34B26E412592E2CF81B36AA8E5","019cf811-1857-745d-94b9-07b500eb24b2","019cf80d-4266-7117-8a51-54e13c84aca4","","1000","
                <div class=""stimulus-container"">
                    <img src=""images/schematic_sequence/flight_scheme/flight_scheme_8.png"" class=""exp-image"">
                    <div class=""question-area"">
                        <p style=""font-size: 20px; font-weight: bold; margin: 0;"">Is there a person in this image?</p>
                    </div>
                </div>","1","main_experiment_trial","8","flight_scheme","schematic_sequence","","","","",""
"","","","","","html-keyboard-response","180","567842","0.0-180.0","08B5FC34B26E412592E2CF81B36AA8E5","019cf811-1857-745d-94b9-07b500eb24b2","019cf80d-4266-7117-8a51-54e13c84aca4","","null","
                <div class=""stimulus-container"">
                    <img src=""images/schematic_sequence/flight_scheme/flight_scheme_9.png"" class=""exp-image"">
                    <div class=""question-area""></div> 
                </div>","null","","","","","","","","",""
"","","","","","html-button-response","181","568406","0.0-181.0","08B5FC34B26E412592E2CF81B36AA8E5","019cf811-1857-745d-94b9-07b500eb24b2","019cf80d-4266-7117-8a51-54e13c84aca4","","563","
                <div class=""stimulus-container"">
                    <img src=""images/schematic_sequence/flight_scheme/flight_scheme_9.png"" class=""exp-image"">
                    <div class=""question-area"">
