"success","timeout","failed_images","failed_audio","failed_video","trial_type","trial_index","time_elapsed","internal_node_id","subject_id","study_id","session_id","view_history","rt","stimulus","response","task","image_index","folder","sequence_type","presentation_order","valuable_image_index","reward_type","distance_from_x","target_X","chosen_image_index","is_x_plus_dist","correct_choice"
"true","false","[]","[]","[]","preload","0","1825","0.0-0.0","9E52411BDA604A8E9DAC5C821448B462","019cfc9e-b2d9-769a-a692-9c808b2f44e3","019cfc7b-6c7b-7b1b-afe7-acad8efc6711","","","","","","","","","","","","","","","",""
"","","","","","instructions","1","3381","0.0-1.0","9E52411BDA604A8E9DAC5C821448B462","019cfc9e-b2d9-769a-a692-9c808b2f44e3","019cfc7b-6c7b-7b1b-afe7-acad8efc6711","[{""page_index"":0,""viewing_time"":1555}]","1555","","","","","","","","","","","","","",""
"","","","","","instructions","2","8399","0.0-2.0","9E52411BDA604A8E9DAC5C821448B462","019cfc9e-b2d9-769a-a692-9c808b2f44e3","019cfc7b-6c7b-7b1b-afe7-acad8efc6711","[{""page_index"":0,""viewing_time"":5017}]","5018","","","","","","","","","","","","","",""
"true","","","","","fullscreen","3","11338","0.0-3.0","9E52411BDA604A8E9DAC5C821448B462","019cfc9e-b2d9-769a-a692-9c808b2f44e3","019cfc7b-6c7b-7b1b-afe7-acad8efc6711","","1934","","","","","","","","","","","","","",""
"","","","","","instructions","4","16237","0.0-4.0","9E52411BDA604A8E9DAC5C821448B462","019cfc9e-b2d9-769a-a692-9c808b2f44e3","019cfc7b-6c7b-7b1b-afe7-acad8efc6711","[{""page_index"":0,""viewing_time"":4898}]","4898","","","","","","","","","","","","","",""
"","","","","","instructions","5","20258","0.0-5.0","9E52411BDA604A8E9DAC5C821448B462","019cfc9e-b2d9-769a-a692-9c808b2f44e3","019cfc7b-6c7b-7b1b-afe7-acad8efc6711","[{""page_index"":0,""viewing_time"":4021}]","4021","","","","","","","","","","","","","",""
"","","","","","html-keyboard-response","6","24267","0.0-6.0","9E52411BDA604A8E9DAC5C821448B462","019cfc9e-b2d9-769a-a692-9c808b2f44e3","019cfc7b-6c7b-7b1b-afe7-acad8efc6711","","null","
                <div class=""stimulus-container"">
                    <img src=""images/instructions/movie_1.png"" class=""exp-image"">
                    <div class=""question-area""></div> 
                </div>","null","","","","","","","","","","","",""
"","","","","","html-button-response","7","26487","0.0-7.0","9E52411BDA604A8E9DAC5C821448B462","019cfc9e-b2d9-769a-a692-9c808b2f44e3","019cfc7b-6c7b-7b1b-afe7-acad8efc6711","","2219","
                <div class=""stimulus-container"">
                    <img src=""images/instructions/movie_1.png"" class=""exp-image"">
                    <div class=""question-area"">
                        <p style=""font-size: 20px; font-weight: bold; margin: 0;"">Was there a person in this image?</p>
                    </div>
                </div>","0","example_question","1","","","","","","","","","",""
"","","","","","html-keyboard-response","8","30492","0.0-8.0","9E52411BDA604A8E9DAC5C821448B462","019cfc9e-b2d9-769a-a692-9c808b2f44e3","019cfc7b-6c7b-7b1b-afe7-acad8efc6711","","null","
                <div class=""stimulus-container"">
                    <img src=""images/instructions/movie_2.png"" class=""exp-image"">
                    <div class=""question-area""></div> 
                </div>","null","","","","","","","","","","","",""
"","","","","","html-button-response","9","32933","0.0-9.0","9E52411BDA604A8E9DAC5C821448B462","019cfc9e-b2d9-769a-a692-9c808b2f44e3","019cfc7b-6c7b-7b1b-afe7-acad8efc6711","","2440","
                <div class=""stimulus-container"">
                    <img src=""images/instructions/movie_2.png"" class=""exp-image"">
                    <div class=""question-area"">
                        <p style=""font-size: 20px; font-weight: bold; margin: 0;"">Was there a person in this image?</p>
                    </div>
                </div>","0","example_question","2","","","","","","","","","",""
"","","","","","html-keyboard-response","10","36936","0.0-10.0","9E52411BDA604A8E9DAC5C821448B462","019cfc9e-b2d9-769a-a692-9c808b2f44e3","019cfc7b-6c7b-7b1b-afe7-acad8efc6711","","null","
                <div class=""stimulus-container"">
                    <img src=""images/instructions/movie_3.png"" class=""exp-image"">
                    <div class=""question-area""></div> 
                </div>","null","","","","","","","","","","","",""
"","","","","","html-button-response","11","37400","0.0-11.0","9E52411BDA604A8E9DAC5C821448B462","019cfc9e-b2d9-769a-a692-9c808b2f44e3","019cfc7b-6c7b-7b1b-afe7-acad8efc6711","","462","
                <div class=""stimulus-container"">
                    <img src=""images/instructions/movie_3.png"" class=""exp-image"">
                    <div class=""question-area"">
                        <p style=""font-size: 20px; font-weight: bold; margin: 0;"">Was there a person in this image?</p>
                    </div>
                </div>","0","example_question","3","","","","","","","","","",""
"","","","","","html-keyboard-response","12","41408","0.0-12.0","9E52411BDA604A8E9DAC5C821448B462","019cfc9e-b2d9-769a-a692-9c808b2f44e3","019cfc7b-6c7b-7b1b-afe7-acad8efc6711","","null","
                <div class=""stimulus-container"">
                    <img src=""images/instructions/movie_4.png"" class=""exp-image"">
                    <div class=""question-area""></div> 
                </div>","null","","","","","","","","","","","",""
"","","","","","html-button-response","13","41877","0.0-13.0","9E52411BDA604A8E9DAC5C821448B462","019cfc9e-b2d9-769a-a692-9c808b2f44e3","019cfc7b-6c7b-7b1b-afe7-acad8efc6711","","469","
                <div class=""stimulus-container"">
                    <img src=""images/instructions/movie_4.png"" class=""exp-image"">
                    <div class=""question-area"">
                        <p style=""font-size: 20px; font-weight: bold; margin: 0;"">Was there a person in this image?</p>
                    </div>
                </div>","0","example_question","4","","","","","","","","","",""
"","","","","","instructions","14","42915","0.0-14.0","9E52411BDA604A8E9DAC5C821448B462","019cfc9e-b2d9-769a-a692-9c808b2f44e3","019cfc7b-6c7b-7b1b-afe7-acad8efc6711","[{""page_index"":0,""viewing_time"":1038}]","1038","","","","","","","","","","","","","",""
"","","","","","instructions","15","46344","0.0-15.0","9E52411BDA604A8E9DAC5C821448B462","019cfc9e-b2d9-769a-a692-9c808b2f44e3","019cfc7b-6c7b-7b1b-afe7-acad8efc6711","[{""page_index"":0,""viewing_time"":3429}]","3429","","","","","","","","","","","","","",""
"","","","","","html-keyboard-response","16","51347","0.0-16.0","9E52411BDA604A8E9DAC5C821448B462","019cfc9e-b2d9-769a-a692-9c808b2f44e3","019cfc7b-6c7b-7b1b-afe7-acad8efc6711","","null","<div style=""background-color: white; width: 100vw; height: 100vh;""></div>","null","","","","","","","","","","","",""
"","","","","","html-keyboard-response","17","56358","0.0-17.0","9E52411BDA604A8E9DAC5C821448B462","019cfc9e-b2d9-769a-a692-9c808b2f44e3","019cfc7b-6c7b-7b1b-afe7-acad8efc6711","","null","
                <div class=""stimulus-container"">
                    <img src=""images/schematic_sequence/interview_scheme/interview_scheme_1.png"" class=""exp-image"">
                    <div class=""question-area""></div> 
                </div>","null","","","","","","","","","","","",""
"","","","","","html-button-response","18","57157","0.0-18.0","9E52411BDA604A8E9DAC5C821448B462","019cfc9e-b2d9-769a-a692-9c808b2f44e3","019cfc7b-6c7b-7b1b-afe7-acad8efc6711","","798","
                <div class=""stimulus-container"">
                    <img src=""images/schematic_sequence/interview_scheme/interview_scheme_1.png"" class=""exp-image"">
                    <div class=""question-area"">
                        <p style=""font-size: 20px; font-weight: bold; margin: 0;"">Is there a person in this image?</p>
                    </div>
                </div>","1","main_experiment_trial","1","interview_scheme","schematic_sequence","chronological","","","","","","",""
"","","","","","html-keyboard-response","19","62167","0.0-19.0","9E52411BDA604A8E9DAC5C821448B462","019cfc9e-b2d9-769a-a692-9c808b2f44e3","019cfc7b-6c7b-7b1b-afe7-acad8efc6711","","null","
                <div class=""stimulus-container"">
                    <img src=""images/schematic_sequence/interview_scheme/interview_scheme_2.png"" class=""exp-image"">
                    <div class=""question-area""></div> 
                </div>","null","","","","","","","","","","","",""
"","","","","","html-button-response","20","62738","0.0-20.0","9E52411BDA604A8E9DAC5C821448B462","019cfc9e-b2d9-769a-a692-9c808b2f44e3","019cfc7b-6c7b-7b1b-afe7-acad8efc6711","","570","
                <div class=""stimulus-container"">
                    <img src=""images/schematic_sequence/interview_scheme/interview_scheme_2.png"" class=""exp-image"">
                    <div class=""question-area"">
                        <p style=""font-size: 20px; font-weight: bold; margin: 0;"">Is there a person in this image?</p>
                    </div>
                </div>","1","main_experiment_trial","2","interview_scheme","schematic_sequence","chronological","","","","","","",""
"","","","","","html-keyboard-response","21","67743","0.0-21.0","9E52411BDA604A8E9DAC5C821448B462","019cfc9e-b2d9-769a-a692-9c808b2f44e3","019cfc7b-6c7b-7b1b-afe7-acad8efc6711","","null","
                <div class=""stimulus-container"">
                    <img src=""images/schematic_sequence/interview_scheme/interview_scheme_3.png"" class=""exp-image"">
                    <div class=""question-area""></div> 
                </div>","null","","","","","","","","","","","",""
"","","","","","html-button-response","22","68168","0.0-22.0","9E52411BDA604A8E9DAC5C821448B462","019cfc9e-b2d9-769a-a692-9c808b2f44e3","019cfc7b-6c7b-7b1b-afe7-acad8efc6711","","424","
                <div class=""stimulus-container"">
                    <img src=""images/schematic_sequence/interview_scheme/interview_scheme_3.png"" class=""exp-image"">
                    <div class=""question-area"">
                        <p style=""font-size: 20px; font-weight: bold; margin: 0;"">Is there a person in this image?</p>
                    </div>
                </div>","1","main_experiment_trial","3","interview_scheme","schematic_sequence","chronological","","","","","","",""
"","","","","","html-keyboard-response","23","73179","0.0-23.0","9E52411BDA604A8E9DAC5C821448B462","019cfc9e-b2d9-769a-a692-9c808b2f44e3","019cfc7b-6c7b-7b1b-afe7-acad8efc6711","","null","
                <div class=""stimulus-container"">
                    <img src=""images/schematic_sequence/interview_scheme/interview_scheme_4.png"" class=""exp-image"">
                    <div class=""question-area""></div> 
                </div>","null","","","","","","","","","","","",""
"","","","","","html-button-response","24","73574","0.0-24.0","9E52411BDA604A8E9DAC5C821448B462","019cfc9e-b2d9-769a-a692-9c808b2f44e3","019cfc7b-6c7b-7b1b-afe7-acad8efc6711","","394","
                <div class=""stimulus-container"">
                    <img src=""images/schematic_sequence/interview_scheme/interview_scheme_4.png"" class=""exp-image"">
                    <div class=""question-area"">
                        <p style=""font-size: 20px; font-weight: bold; margin: 0;"">Is there a person in this image?</p>
                    </div>
                </div>","1","main_experiment_trial","4","interview_scheme","schematic_sequence","chronological","","","","","","",""
"","","","","","html-keyboard-response","25","78574","0.0-25.0","9E52411BDA604A8E9DAC5C821448B462","019cfc9e-b2d9-769a-a692-9c808b2f44e3","019cfc7b-6c7b-7b1b-afe7-acad8efc6711","","null","
                <div class=""stimulus-container"">
                    <img src=""images/schematic_sequence/interview_scheme/interview_scheme_5.png"" class=""exp-image"">
                    <div class=""question-area""></div> 
                </div>","null","","","","","","","","","","","",""
"","","","","","html-button-response","26","79040","0.0-26.0","9E52411BDA604A8E9DAC5C821448B462","019cfc9e-b2d9-769a-a692-9c808b2f44e3","019cfc7b-6c7b-7b1b-afe7-acad8efc6711","","465","
                <div class=""stimulus-container"">
                    <img src=""images/schematic_sequence/interview_scheme/interview_scheme_5.png"" class=""exp-image"">
                    <div class=""question-area"">
                        <p style=""font-size: 20px; font-weight: bold; margin: 0;"">Is there a person in this image?</p>
                    </div>
                </div>","0","main_experiment_trial","5","interview_scheme","schematic_sequence","chronological","","","","","","",""
"","","","","","html-keyboard-response","27","84041","0.0-27.0","9E52411BDA604A8E9DAC5C821448B462","019cfc9e-b2d9-769a-a692-9c808b2f44e3","019cfc7b-6c7b-7b1b-afe7-acad8efc6711","","null","
                <div class=""stimulus-container"">
                    <img src=""images/schematic_sequence/interview_scheme/interview_scheme_6.png"" class=""exp-image"">
                    <div class=""question-area""></div> 
                </div>","null","","","","","","","","","","","",""
"","","","","","html-button-response","28","86505","0.0-28.0","9E52411BDA604A8E9DAC5C821448B462","019cfc9e-b2d9-769a-a692-9c808b2f44e3","019cfc7b-6c7b-7b1b-afe7-acad8efc6711","","2463","
                <div class=""stimulus-container"">
                    <img src=""images/schematic_sequence/interview_scheme/interview_scheme_6.png"" class=""exp-image"">
                    <div class=""question-area"">
                        <p style=""font-size: 20px; font-weight: bold; margin: 0;"">Is there a person in this image?</p>
                    </div>
                </div>","0","main_experiment_trial","6","interview_scheme","schematic_sequence","chronological","","","","","","",""
"","","","","","html-keyboard-response","29","91518","0.0-29.0","9E52411BDA604A8E9DAC5C821448B462","019cfc9e-b2d9-769a-a692-9c808b2f44e3","019cfc7b-6c7b-7b1b-afe7-acad8efc6711","","null","
                <div class=""stimulus-container"">
                    <img src=""images/schematic_sequence/interview_scheme/interview_scheme_7.png"" class=""exp-image"">
                    <div class=""question-area""></div> 
                </div>","null","","","","","","","","","","","",""
"","","","","","html-button-response","30","92318","0.0-30.0","9E52411BDA604A8E9DAC5C821448B462","019cfc9e-b2d9-769a-a692-9c808b2f44e3","019cfc7b-6c7b-7b1b-afe7-acad8efc6711","","799","
                <div class=""stimulus-container"">
                    <img src=""images/schematic_sequence/interview_scheme/interview_scheme_7.png"" class=""exp-image"">
                    <div class=""question-area"">
                        <p style=""font-size: 20px; font-weight: bold; margin: 0;"">Is there a person in this image?</p>
                    </div>
                </div>","0","main_experiment_trial","7","interview_scheme","schematic_sequence","chronological","","","","","","",""
"","","","","","html-keyboard-response","31","97322","0.0-31.0","9E52411BDA604A8E9DAC5C821448B462","019cfc9e-b2d9-769a-a692-9c808b2f44e3","019cfc7b-6c7b-7b1b-afe7-acad8efc6711","","null","
                <div class=""stimulus-container"">
                    <img src=""images/schematic_sequence/interview_scheme/interview_scheme_8.png"" class=""exp-image"">
                    <div class=""question-area""></div> 
                </div>","null","","","","","","","","","","","",""
"","","","","","html-button-response","32","98524","0.0-32.0","9E52411BDA604A8E9DAC5C821448B462","019cfc9e-b2d9-769a-a692-9c808b2f44e3","019cfc7b-6c7b-7b1b-afe7-acad8efc6711","","1202","
                <div class=""stimulus-container"">
                    <img src=""images/schematic_sequence/interview_scheme/interview_scheme_8.png"" class=""exp-image"">
                    <div class=""question-area"">
                        <p style=""font-size: 20px; font-weight: bold; margin: 0;"">Is there a person in this image?</p>
                    </div>
                </div>","0","main_experiment_trial","8","interview_scheme","schematic_sequence","chronological","","","","","","",""
"","","","","","html-keyboard-response","33","103531","0.0-33.0","9E52411BDA604A8E9DAC5C821448B462","019cfc9e-b2d9-769a-a692-9c808b2f44e3","019cfc7b-6c7b-7b1b-afe7-acad8efc6711","","null","
                <div class=""stimulus-container"">
                    <img src=""images/schematic_sequence/interview_scheme/interview_scheme_9.png"" class=""exp-image"">
                    <div class=""question-area""></div> 
                </div>","null","","","","","","","","","","","",""
"","","","","","html-button-response","34","104009","0.0-34.0","9E52411BDA604A8E9DAC5C821448B462","019cfc9e-b2d9-769a-a692-9c808b2f44e3","019cfc7b-6c7b-7b1b-afe7-acad8efc6711","","478","
                <div class=""stimulus-container"">
                    <img src=""images/schematic_sequence/interview_scheme/interview_scheme_9.png"" class=""exp-image"">
                    <div class=""question-area"">
                        <p style=""font-size: 20px; font-weight: bold; margin: 0;"">Is there a person in this image?</p>
                    </div>
                </div>","0","main_experiment_trial","9","interview_scheme","schematic_sequence","chronological","","","","","","",""
"","","","","","html-keyboard-response","35","109023","0.0-35.0","9E52411BDA604A8E9DAC5C821448B462","019cfc9e-b2d9-769a-a692-9c808b2f44e3","019cfc7b-6c7b-7b1b-afe7-acad8efc6711","","null","
                <div class=""stimulus-container"">
                    <img src=""images/schematic_sequence/interview_scheme/interview_scheme_ten.png"" class=""exp-image"">
                    <div class=""question-area""></div> 
                </div>","null","","","","","","","","","","","",""
"","","","","","html-button-response","36","109428","0.0-36.0","9E52411BDA604A8E9DAC5C821448B462","019cfc9e-b2d9-769a-a692-9c808b2f44e3","019cfc7b-6c7b-7b1b-afe7-acad8efc6711","","405","
                <div class=""stimulus-container"">
                    <img src=""images/schematic_sequence/interview_scheme/interview_scheme_ten.png"" class=""exp-image"">
                    <div class=""question-area"">
                        <p style=""font-size: 20px; font-weight: bold; margin: 0;"">Is there a person in this image?</p>
                    </div>
                </div>","0","main_experiment_trial","ten","interview_scheme","schematic_sequence","chronological","","","","","","",""
"","","","","","html-keyboard-response","37","114432","0.0-37.0","9E52411BDA604A8E9DAC5C821448B462","019cfc9e-b2d9-769a-a692-9c808b2f44e3","019cfc7b-6c7b-7b1b-afe7-acad8efc6711","","null","<div style=""background-color: white; width: 100vw; height: 100vh;""></div>","null","","","","","","","","","","","",""
"","","","","","html-keyboard-response","38","119446","0.0-38.0","9E52411BDA604A8E9DAC5C821448B462","019cfc9e-b2d9-769a-a692-9c808b2f44e3","019cfc7b-6c7b-7b1b-afe7-acad8efc6711","","null","
                <div class=""stimulus-container"">
                    <img src=""images/causal_sequence/the_performance_causal/the_performance_causal_1.png"" class=""exp-image"">
                    <div class=""question-area""></div> 
                </div>","null","","","","","","","","","","","",""
"","","","","","html-button-response","39","120161","0.0-39.0","9E52411BDA604A8E9DAC5C821448B462","019cfc9e-b2d9-769a-a692-9c808b2f44e3","019cfc7b-6c7b-7b1b-afe7-acad8efc6711","","715","
                <div class=""stimulus-container"">
                    <img src=""images/causal_sequence/the_performance_causal/the_performance_causal_1.png"" class=""exp-image"">
                    <div class=""question-area"">
                        <p style=""font-size: 20px; font-weight: bold; margin: 0;"">Is there a person in this image?</p>
                    </div>
                </div>","0","main_experiment_trial","1","the_performance_causal","causal_sequence","chronological","","","","","","",""
"","","","","","html-keyboard-response","40","125177","0.0-40.0","9E52411BDA604A8E9DAC5C821448B462","019cfc9e-b2d9-769a-a692-9c808b2f44e3","019cfc7b-6c7b-7b1b-afe7-acad8efc6711","","null","
                <div class=""stimulus-container"">
                    <img src=""images/causal_sequence/the_performance_causal/the_performance_causal_2.png"" class=""exp-image"">
                    <div class=""question-area""></div> 
                </div>","null","","","","","","","","","","","",""
"","","","","","html-button-response","41","125557","0.0-41.0","9E52411BDA604A8E9DAC5C821448B462","019cfc9e-b2d9-769a-a692-9c808b2f44e3","019cfc7b-6c7b-7b1b-afe7-acad8efc6711","","380","
                <div class=""stimulus-container"">
                    <img src=""images/causal_sequence/the_performance_causal/the_performance_causal_2.png"" class=""exp-image"">
                    <div class=""question-area"">
                        <p style=""font-size: 20px; font-weight: bold; margin: 0;"">Is there a person in this image?</p>
                    </div>
                </div>","0","main_experiment_trial","2","the_performance_causal","causal_sequence","chronological","","","","","","",""
"","","","","","html-keyboard-response","42","130570","0.0-42.0","9E52411BDA604A8E9DAC5C821448B462","019cfc9e-b2d9-769a-a692-9c808b2f44e3","019cfc7b-6c7b-7b1b-afe7-acad8efc6711","","null","
                <div class=""stimulus-container"">
                    <img src=""images/causal_sequence/the_performance_causal/the_performance_causal_3.png"" class=""exp-image"">
                    <div class=""question-area""></div> 
                </div>","null","","","","","","","","","","","",""
"","","","","","html-button-response","43","130951","0.0-43.0","9E52411BDA604A8E9DAC5C821448B462","019cfc9e-b2d9-769a-a692-9c808b2f44e3","019cfc7b-6c7b-7b1b-afe7-acad8efc6711","","382","
                <div class=""stimulus-container"">
                    <img src=""images/causal_sequence/the_performance_causal/the_performance_causal_3.png"" class=""exp-image"">
                    <div class=""question-area"">
                        <p style=""font-size: 20px; font-weight: bold; margin: 0;"">Is there a person in this image?</p>
                    </div>
                </div>","0","main_experiment_trial","3","the_performance_causal","causal_sequence","chronological","","","","","","",""
"","","","","","html-keyboard-response","44","135967","0.0-44.0","9E52411BDA604A8E9DAC5C821448B462","019cfc9e-b2d9-769a-a692-9c808b2f44e3","019cfc7b-6c7b-7b1b-afe7-acad8efc6711","","null","
                <div class=""stimulus-container"">
                    <img src=""images/causal_sequence/the_performance_causal/the_performance_causal_4.png"" class=""exp-image"">
                    <div class=""question-area""></div> 
                </div>","null","","","","","","","","","","","",""
"","","","","","html-button-response","45","136446","0.0-45.0","9E52411BDA604A8E9DAC5C821448B462","019cfc9e-b2d9-769a-a692-9c808b2f44e3","019cfc7b-6c7b-7b1b-afe7-acad8efc6711","","479","
                <div class=""stimulus-container"">
                    <img src=""images/causal_sequence/the_performance_causal/the_performance_causal_4.png"" class=""exp-image"">
                    <div class=""question-area"">
                        <p style=""font-size: 20px; font-weight: bold; margin: 0;"">Is there a person in this image?</p>
                    </div>
                </div>","0","main_experiment_trial","4","the_performance_causal","causal_sequence","chronological","","","","","","",""
"","","","","","html-keyboard-response","46","141454","0.0-46.0","9E52411BDA604A8E9DAC5C821448B462","019cfc9e-b2d9-769a-a692-9c808b2f44e3","019cfc7b-6c7b-7b1b-afe7-acad8efc6711","","null","
                <div class=""stimulus-container"">
                    <img src=""images/causal_sequence/the_performance_causal/the_performance_causal_5.png"" class=""exp-image"">
                    <div class=""question-area""></div> 
                </div>","null","","","","","","","","","","","",""
"","","","","","html-button-response","47","141898","0.0-47.0","9E52411BDA604A8E9DAC5C821448B462","019cfc9e-b2d9-769a-a692-9c808b2f44e3","019cfc7b-6c7b-7b1b-afe7-acad8efc6711","","444","
                <div class=""stimulus-container"">
                    <img src=""images/causal_sequence/the_performance_causal/the_performance_causal_5.png"" class=""exp-image"">
                    <div class=""question-area"">
                        <p style=""font-size: 20px; font-weight: bold; margin: 0;"">Is there a person in this image?</p>
                    </div>
                </div>","0","main_experiment_trial","5","the_performance_causal","causal_sequence","chronological","","","","","","",""
"","","","","","html-keyboard-response","48","146914","0.0-48.0","9E52411BDA604A8E9DAC5C821448B462","019cfc9e-b2d9-769a-a692-9c808b2f44e3","019cfc7b-6c7b-7b1b-afe7-acad8efc6711","","null","
                <div class=""stimulus-container"">
                    <img src=""images/causal_sequence/the_performance_causal/the_performance_causal_6.png"" class=""exp-image"">
                    <div class=""question-area""></div> 
                </div>","null","","","","","","","","","","","",""
"","","","","","html-button-response","49","147485","0.0-49.0","9E52411BDA604A8E9DAC5C821448B462","019cfc9e-b2d9-769a-a692-9c808b2f44e3","019cfc7b-6c7b-7b1b-afe7-acad8efc6711","","570","
                <div class=""stimulus-container"">
                    <img src=""images/causal_sequence/the_performance_causal/the_performance_causal_6.png"" class=""exp-image"">
                    <div class=""question-area"">
                        <p style=""font-size: 20px; font-weight: bold; margin: 0;"">Is there a person in this image?</p>
                    </div>
                </div>","0","main_experiment_trial","6","the_performance_causal","causal_sequence","chronological","","","","","","",""
"","","","","","html-keyboard-response","50","152489","0.0-50.0","9E52411BDA604A8E9DAC5C821448B462","019cfc9e-b2d9-769a-a692-9c808b2f44e3","019cfc7b-6c7b-7b1b-afe7-acad8efc6711","","null","
                <div class=""stimulus-container"">
                    <img src=""images/causal_sequence/the_performance_causal/the_performance_causal_7.png"" class=""exp-image"">
                    <div class=""question-area""></div> 
                </div>","null","","","","","","","","","","","",""
"","","","","","html-button-response","51","155132","0.0-51.0","9E52411BDA604A8E9DAC5C821448B462","019cfc9e-b2d9-769a-a692-9c808b2f44e3","019cfc7b-6c7b-7b1b-afe7-acad8efc6711","","2643","
                <div class=""stimulus-container"">
                    <img src=""images/causal_sequence/the_performance_causal/the_performance_causal_7.png"" class=""exp-image"">
                    <div class=""question-area"">
                        <p style=""font-size: 20px; font-weight: bold; margin: 0;"">Is there a person in this image?</p>
                    </div>
                </div>","0","main_experiment_trial","7","the_performance_causal","causal_sequence","chronological","","","","","","",""
"","","","","","html-keyboard-response","52","160135","0.0-52.0","9E52411BDA604A8E9DAC5C821448B462","019cfc9e-b2d9-769a-a692-9c808b2f44e3","019cfc7b-6c7b-7b1b-afe7-acad8efc6711","","null","
                <div class=""stimulus-container"">
                    <img src=""images/causal_sequence/the_performance_causal/the_performance_causal_8.png"" class=""exp-image"">
                    <div class=""question-area""></div> 
                </div>","null","","","","","","","","","","","",""
"","","","","","html-button-response","53","160521","0.0-53.0","9E52411BDA604A8E9DAC5C821448B462","019cfc9e-b2d9-769a-a692-9c808b2f44e3","019cfc7b-6c7b-7b1b-afe7-acad8efc6711","","385","
                <div class=""stimulus-container"">
                    <img src=""images/causal_sequence/the_performance_causal/the_performance_causal_8.png"" class=""exp-image"">
                    <div class=""question-area"">
                        <p style=""font-size: 20px; font-weight: bold; margin: 0;"">Is there a person in this image?</p>
                    </div>
                </div>","0","main_experiment_trial","8","the_performance_causal","causal_sequence","chronological","","","","","","",""
"","","","","","html-keyboard-response","54","165533","0.0-54.0","9E52411BDA604A8E9DAC5C821448B462","019cfc9e-b2d9-769a-a692-9c808b2f44e3","019cfc7b-6c7b-7b1b-afe7-acad8efc6711","","null","
                <div class=""stimulus-container"">
                    <img src=""images/causal_sequence/the_performance_causal/the_performance_causal_9.png"" class=""exp-image"">
                    <div class=""question-area""></div> 
                </div>","null","","","","","","","","","","","",""
"","","","","","html-button-response","55","165951","0.0-55.0","9E52411BDA604A8E9DAC5C821448B462","019cfc9e-b2d9-769a-a692-9c808b2f44e3","019cfc7b-6c7b-7b1b-afe7-acad8efc6711","","418","
                <div class=""stimulus-container"">
                    <img src=""images/causal_sequence/the_performance_causal/the_performance_causal_9.png"" class=""exp-image"">
                    <div class=""question-area"">
                        <p style=""font-size: 20px; font-weight: bold; margin: 0;"">Is there a person in this image?</p>
                    </div>
                </div>","0","main_experiment_trial","9","the_performance_causal","causal_sequence","chronological","","","","","","",""
"","","","","","html-keyboard-response","56","170963","0.0-56.0","9E52411BDA604A8E9DAC5C821448B462","019cfc9e-b2d9-769a-a692-9c808b2f44e3","019cfc7b-6c7b-7b1b-afe7-acad8efc6711","","null","
                <div class=""stimulus-container"">
                    <img src=""images/causal_sequence/the_performance_causal/the_performance_causal_ten.png"" class=""exp-image"">
                    <div class=""question-area""></div> 
                </div>","null","","","","","","","","","","","",""
"","","","","","html-button-response","57","171387","0.0-57.0","9E52411BDA604A8E9DAC5C821448B462","019cfc9e-b2d9-769a-a692-9c808b2f44e3","019cfc7b-6c7b-7b1b-afe7-acad8efc6711","","424","
                <div class=""stimulus-container"">
                    <img src=""images/causal_sequence/the_performance_causal/the_performance_causal_ten.png"" class=""exp-image"">
                    <div class=""question-area"">
                        <p style=""font-size: 20px; font-weight: bold; margin: 0;"">Is there a person in this image?</p>
                    </div>
                </div>","0","main_experiment_trial","ten","the_performance_causal","causal_sequence","chronological","","","","","","",""
"","","","","","html-keyboard-response","58","176394","0.0-58.0","9E52411BDA604A8E9DAC5C821448B462","019cfc9e-b2d9-769a-a692-9c808b2f44e3","019cfc7b-6c7b-7b1b-afe7-acad8efc6711","","null","<div style=""background-color: white; width: 100vw; height: 100vh;""></div>","null","","","","","","","","","","","",""
"","","","","","html-keyboard-response","59","181395","0.0-59.0","9E52411BDA604A8E9DAC5C821448B462","019cfc9e-b2d9-769a-a692-9c808b2f44e3","019cfc7b-6c7b-7b1b-afe7-acad8efc6711","","null","
                <div class=""stimulus-container"">
                    <img src=""images/semantic_sequence/physical_activity_semantic/physical_activity_semantic_1.png"" class=""exp-image"">
                    <div class=""question-area""></div> 
                </div>","null","","","","","","","","","","","",""
"","","","","","html-button-response","60","181823","0.0-60.0","9E52411BDA604A8E9DAC5C821448B462","019cfc9e-b2d9-769a-a692-9c808b2f44e3","019cfc7b-6c7b-7b1b-afe7-acad8efc6711","","427","
                <div class=""stimulus-container"">
                    <img src=""images/semantic_sequence/physical_activity_semantic/physical_activity_semantic_1.png"" class=""exp-image"">
                    <div class=""question-area"">
                        <p style=""font-size: 20px; font-weight: bold; margin: 0;"">Is there a person in this image?</p>
                    </div>
                </div>","0","main_experiment_trial","1","physical_activity_semantic","semantic_sequence","chronological","","","","","","",""
"","","","","","html-keyboard-response","61","186837","0.0-61.0","9E52411BDA604A8E9DAC5C821448B462","019cfc9e-b2d9-769a-a692-9c808b2f44e3","019cfc7b-6c7b-7b1b-afe7-acad8efc6711","","null","
                <div class=""stimulus-container"">
                    <img src=""images/semantic_sequence/physical_activity_semantic/physical_activity_semantic_2.png"" class=""exp-image"">
                    <div class=""question-area""></div> 
                </div>","null","","","","","","","","","","","",""
"","","","","","html-button-response","62","187223","0.0-62.0","9E52411BDA604A8E9DAC5C821448B462","019cfc9e-b2d9-769a-a692-9c808b2f44e3","019cfc7b-6c7b-7b1b-afe7-acad8efc6711","","385","
                <div class=""stimulus-container"">
                    <img src=""images/semantic_sequence/physical_activity_semantic/physical_activity_semantic_2.png"" class=""exp-image"">
                    <div class=""question-area"">
                        <p style=""font-size: 20px; font-weight: bold; margin: 0;"">Is there a person in this image?</p>
                    </div>
                </div>","0","main_experiment_trial","2","physical_activity_semantic","semantic_sequence","chronological","","","","","","",""
"","","","","","html-keyboard-response","63","192233","0.0-63.0","9E52411BDA604A8E9DAC5C821448B462","019cfc9e-b2d9-769a-a692-9c808b2f44e3","019cfc7b-6c7b-7b1b-afe7-acad8efc6711","","null","
                <div class=""stimulus-container"">
                    <img src=""images/semantic_sequence/physical_activity_semantic/physical_activity_semantic_3.png"" class=""exp-image"">
                    <div class=""question-area""></div> 
                </div>","null","","","","","","","","","","","",""
"","","","","","html-button-response","64","192606","0.0-64.0","9E52411BDA604A8E9DAC5C821448B462","019cfc9e-b2d9-769a-a692-9c808b2f44e3","019cfc7b-6c7b-7b1b-afe7-acad8efc6711","","373","
                <div class=""stimulus-container"">
                    <img src=""images/semantic_sequence/physical_activity_semantic/physical_activity_semantic_3.png"" class=""exp-image"">
                    <div class=""question-area"">
                        <p style=""font-size: 20px; font-weight: bold; margin: 0;"">Is there a person in this image?</p>
                    </div>
                </div>","0","main_experiment_trial","3","physical_activity_semantic","semantic_sequence","chronological","","","","","","",""
"","","","","","html-keyboard-response","65","197609","0.0-65.0","9E52411BDA604A8E9DAC5C821448B462","019cfc9e-b2d9-769a-a692-9c808b2f44e3","019cfc7b-6c7b-7b1b-afe7-acad8efc6711","","null","
                <div class=""stimulus-container"">
                    <img src=""images/semantic_sequence/physical_activity_semantic/physical_activity_semantic_4.png"" class=""exp-image"">
                    <div class=""question-area""></div> 
                </div>","null","","","","","","","","","","","",""
"","","","","","html-button-response","66","197985","0.0-66.0","9E52411BDA604A8E9DAC5C821448B462","019cfc9e-b2d9-769a-a692-9c808b2f44e3","019cfc7b-6c7b-7b1b-afe7-acad8efc6711","","375","
                <div class=""stimulus-container"">
                    <img src=""images/semantic_sequence/physical_activity_semantic/physical_activity_semantic_4.png"" class=""exp-image"">
                    <div class=""question-area"">
                        <p style=""font-size: 20px; font-weight: bold; margin: 0;"">Is there a person in this image?</p>
                    </div>
                </div>","0","main_experiment_trial","4","physical_activity_semantic","semantic_sequence","chronological","","","","","","",""
"","","","","","html-keyboard-response","67","203002","0.0-67.0","9E52411BDA604A8E9DAC5C821448B462","019cfc9e-b2d9-769a-a692-9c808b2f44e3","019cfc7b-6c7b-7b1b-afe7-acad8efc6711","","null","
                <div class=""stimulus-container"">
                    <img src=""images/semantic_sequence/physical_activity_semantic/physical_activity_semantic_5.png"" class=""exp-image"">
                    <div class=""question-area""></div> 
                </div>","null","","","","","","","","","","","",""
"","","","","","html-button-response","68","204811","0.0-68.0","9E52411BDA604A8E9DAC5C821448B462","019cfc9e-b2d9-769a-a692-9c808b2f44e3","019cfc7b-6c7b-7b1b-afe7-acad8efc6711","","1809","
                <div class=""stimulus-container"">
                    <img src=""images/semantic_sequence/physical_activity_semantic/physical_activity_semantic_5.png"" class=""exp-image"">
                    <div class=""question-area"">
                        <p style=""font-size: 20px; font-weight: bold; margin: 0;"">Is there a person in this image?</p>
                    </div>
                </div>","0","main_experiment_trial","5","physical_activity_semantic","semantic_sequence","chronological","","","","","","",""
"","","","","","html-keyboard-response","69","209816","0.0-69.0","9E52411BDA604A8E9DAC5C821448B462","019cfc9e-b2d9-769a-a692-9c808b2f44e3","019cfc7b-6c7b-7b1b-afe7-acad8efc6711","","null","
                <div class=""stimulus-container"">
                    <img src=""images/semantic_sequence/physical_activity_semantic/physical_activity_semantic_6.png"" class=""exp-image"">
                    <div class=""question-area""></div> 
                </div>","null","","","","","","","","","","","",""
"","","","","","html-button-response","70","210516","0.0-70.0","9E52411BDA604A8E9DAC5C821448B462","019cfc9e-b2d9-769a-a692-9c808b2f44e3","019cfc7b-6c7b-7b1b-afe7-acad8efc6711","","700","
                <div class=""stimulus-container"">
                    <img src=""images/semantic_sequence/physical_activity_semantic/physical_activity_semantic_6.png"" class=""exp-image"">
                    <div class=""question-area"">
                        <p style=""font-size: 20px; font-weight: bold; margin: 0;"">Is there a person in this image?</p>
                    </div>
                </div>","0","main_experiment_trial","6","physical_activity_semantic","semantic_sequence","chronological","","","","","","",""
"","","","","","html-keyboard-response","71","215528","0.0-71.0","9E52411BDA604A8E9DAC5C821448B462","019cfc9e-b2d9-769a-a692-9c808b2f44e3","019cfc7b-6c7b-7b1b-afe7-acad8efc6711","","null","
                <div class=""stimulus-container"">
                    <img src=""images/semantic_sequence/physical_activity_semantic/physical_activity_semantic_7.png"" class=""exp-image"">
                    <div class=""question-area""></div> 
                </div>","null","","","","","","","","","","","",""
"","","","","","html-button-response","72","216153","0.0-72.0","9E52411BDA604A8E9DAC5C821448B462","019cfc9e-b2d9-769a-a692-9c808b2f44e3","019cfc7b-6c7b-7b1b-afe7-acad8efc6711","","625","
                <div class=""stimulus-container"">
                    <img src=""images/semantic_sequence/physical_activity_semantic/physical_activity_semantic_7.png"" class=""exp-image"">
                    <div class=""question-area"">
                        <p style=""font-size: 20px; font-weight: bold; margin: 0;"">Is there a person in this image?</p>
                    </div>
                </div>","0","main_experiment_trial","7","physical_activity_semantic","semantic_sequence","chronological","","","","","","",""
"","","","","","html-keyboard-response","73","221157","0.0-73.0","9E52411BDA604A8E9DAC5C821448B462","019cfc9e-b2d9-769a-a692-9c808b2f44e3","019cfc7b-6c7b-7b1b-afe7-acad8efc6711","","null","
                <div class=""stimulus-container"">
                    <img src=""images/semantic_sequence/physical_activity_semantic/physical_activity_semantic_8.png"" class=""exp-image"">
                    <div class=""question-area""></div> 
                </div>","null","","","","","","","","","","","",""
"","","","","","html-button-response","74","221556","0.0-74.0","9E52411BDA604A8E9DAC5C821448B462","019cfc9e-b2d9-769a-a692-9c808b2f44e3","019cfc7b-6c7b-7b1b-afe7-acad8efc6711","","399","
                <div class=""stimulus-container"">
                    <img src=""images/semantic_sequence/physical_activity_semantic/physical_activity_semantic_8.png"" class=""exp-image"">
                    <div class=""question-area"">
                        <p style=""font-size: 20px; font-weight: bold; margin: 0;"">Is there a person in this image?</p>
                    </div>
                </div>","0","main_experiment_trial","8","physical_activity_semantic","semantic_sequence","chronological","","","","","","",""
"","","","","","html-keyboard-response","75","226568","0.0-75.0","9E52411BDA604A8E9DAC5C821448B462","019cfc9e-b2d9-769a-a692-9c808b2f44e3","019cfc7b-6c7b-7b1b-afe7-acad8efc6711","","null","
                <div class=""stimulus-container"">
                    <img src=""images/semantic_sequence/physical_activity_semantic/physical_activity_semantic_9.png"" class=""exp-image"">
                    <div class=""question-area""></div> 
                </div>","null","","","","","","","","","","","",""
"","","","","","html-button-response","76","226989","0.0-76.0","9E52411BDA604A8E9DAC5C821448B462","019cfc9e-b2d9-769a-a692-9c808b2f44e3","019cfc7b-6c7b-7b1b-afe7-acad8efc6711","","421","
                <div class=""stimulus-container"">
                    <img src=""images/semantic_sequence/physical_activity_semantic/physical_activity_semantic_9.png"" class=""exp-image"">
                    <div class=""question-area"">
                        <p style=""font-size: 20px; font-weight: bold; margin: 0;"">Is there a person in this image?</p>
                    </div>
                </div>","0","main_experiment_trial","9","physical_activity_semantic","semantic_sequence","chronological","","","","","","",""
"","","","","","html-keyboard-response","77","232004","0.0-77.0","9E52411BDA604A8E9DAC5C821448B462","019cfc9e-b2d9-769a-a692-9c808b2f44e3","019cfc7b-6c7b-7b1b-afe7-acad8efc6711","","null","
                <div class=""stimulus-container"">
                    <img src=""images/semantic_sequence/physical_activity_semantic/physical_activity_semantic_ten.png"" class=""exp-image"">
                    <div class=""question-area""></div> 
                </div>","null","","","","","","","","","","","",""
"","","","","","html-button-response","78","232403","0.0-78.0","9E52411BDA604A8E9DAC5C821448B462","019cfc9e-b2d9-769a-a692-9c808b2f44e3","019cfc7b-6c7b-7b1b-afe7-acad8efc6711","","397","
                <div class=""stimulus-container"">
                    <img src=""images/semantic_sequence/physical_activity_semantic/physical_activity_semantic_ten.png"" class=""exp-image"">
                    <div class=""question-area"">
                        <p style=""font-size: 20px; font-weight: bold; margin: 0;"">Is there a person in this image?</p>
                    </div>
                </div>","0","main_experiment_trial","ten","physical_activity_semantic","semantic_sequence","chronological","","","","","","",""
"","","","","","html-keyboard-response","79","237405","0.0-79.0","9E52411BDA604A8E9DAC5C821448B462","019cfc9e-b2d9-769a-a692-9c808b2f44e3","019cfc7b-6c7b-7b1b-afe7-acad8efc6711","","null","<div style=""background-color: white; width: 100vw; height: 100vh;""></div>","null","","","","","","","","","","","",""
"","","","","","html-keyboard-response","80","242411","0.0-80.0","9E52411BDA604A8E9DAC5C821448B462","019cfc9e-b2d9-769a-a692-9c808b2f44e3","019cfc7b-6c7b-7b1b-afe7-acad8efc6711","","null","
                <div class=""stimulus-container"">
                    <img src=""images/semantic_sequence/kitchen_operations_semantic/kitchen_operations_semantic_1.png"" class=""exp-image"">
                    <div class=""question-area""></div> 
                </div>","null","","","","","","","","","","","",""
"","","","","","html-button-response","81","243203","0.0-81.0","9E52411BDA604A8E9DAC5C821448B462","019cfc9e-b2d9-769a-a692-9c808b2f44e3","019cfc7b-6c7b-7b1b-afe7-acad8efc6711","","791","
                <div class=""stimulus-container"">
                    <img src=""images/semantic_sequence/kitchen_operations_semantic/kitchen_operations_semantic_1.png"" class=""exp-image"">
                    <div class=""question-area"">
                        <p style=""font-size: 20px; font-weight: bold; margin: 0;"">Is there a person in this image?</p>
                    </div>
                </div>","0","main_experiment_trial","1","kitchen_operations_semantic","semantic_sequence","chronological","","","","","","",""
"","","","","","html-keyboard-response","82","248207","0.0-82.0","9E52411BDA604A8E9DAC5C821448B462","019cfc9e-b2d9-769a-a692-9c808b2f44e3","019cfc7b-6c7b-7b1b-afe7-acad8efc6711","","null","
                <div class=""stimulus-container"">
                    <img src=""images/semantic_sequence/kitchen_operations_semantic/kitchen_operations_semantic_2.png"" class=""exp-image"">
                    <div class=""question-area""></div> 
                </div>","null","","","","","","","","","","","",""
"","","","","","html-button-response","83","248603","0.0-83.0","9E52411BDA604A8E9DAC5C821448B462","019cfc9e-b2d9-769a-a692-9c808b2f44e3","019cfc7b-6c7b-7b1b-afe7-acad8efc6711","","395","
                <div class=""stimulus-container"">
                    <img src=""images/semantic_sequence/kitchen_operations_semantic/kitchen_operations_semantic_2.png"" class=""exp-image"">
                    <div class=""question-area"">
                        <p style=""font-size: 20px; font-weight: bold; margin: 0;"">Is there a person in this image?</p>
                    </div>
                </div>","0","main_experiment_trial","2","kitchen_operations_semantic","semantic_sequence","chronological","","","","","","",""
"","","","","","html-keyboard-response","84","253604","0.0-84.0","9E52411BDA604A8E9DAC5C821448B462","019cfc9e-b2d9-769a-a692-9c808b2f44e3","019cfc7b-6c7b-7b1b-afe7-acad8efc6711","","null","
                <div class=""stimulus-container"">
                    <img src=""images/semantic_sequence/kitchen_operations_semantic/kitchen_operations_semantic_3.png"" class=""exp-image"">
                    <div class=""question-area""></div> 
                </div>","null","","","","","","","","","","","",""
"","","","","","html-button-response","85","253983","0.0-85.0","9E52411BDA604A8E9DAC5C821448B462","019cfc9e-b2d9-769a-a692-9c808b2f44e3","019cfc7b-6c7b-7b1b-afe7-acad8efc6711","","379","
                <div class=""stimulus-container"">
                    <img src=""images/semantic_sequence/kitchen_operations_semantic/kitchen_operations_semantic_3.png"" class=""exp-image"">
                    <div class=""question-area"">
                        <p style=""font-size: 20px; font-weight: bold; margin: 0;"">Is there a person in this image?</p>
                    </div>
                </div>","0","main_experiment_trial","3","kitchen_operations_semantic","semantic_sequence","chronological","","","","","","",""
"","","","","","html-keyboard-response","86","258991","0.0-86.0","9E52411BDA604A8E9DAC5C821448B462","019cfc9e-b2d9-769a-a692-9c808b2f44e3","019cfc7b-6c7b-7b1b-afe7-acad8efc6711","","null","
                <div class=""stimulus-container"">
                    <img src=""images/semantic_sequence/kitchen_operations_semantic/kitchen_operations_semantic_4.png"" class=""exp-image"">
                    <div class=""question-area""></div> 
                </div>","null","","","","","","","","","","","",""
"","","","","","html-button-response","87","259471","0.0-87.0","9E52411BDA604A8E9DAC5C821448B462","019cfc9e-b2d9-769a-a692-9c808b2f44e3","019cfc7b-6c7b-7b1b-afe7-acad8efc6711","","480","
                <div class=""stimulus-container"">
                    <img src=""images/semantic_sequence/kitchen_operations_semantic/kitchen_operations_semantic_4.png"" class=""exp-image"">
                    <div class=""question-area"">
                        <p style=""font-size: 20px; font-weight: bold; margin: 0;"">Is there a person in this image?</p>
                    </div>
                </div>","0","main_experiment_trial","4","kitchen_operations_semantic","semantic_sequence","chronological","","","","","","",""
"","","","","","html-keyboard-response","88","264479","0.0-88.0","9E52411BDA604A8E9DAC5C821448B462","019cfc9e-b2d9-769a-a692-9c808b2f44e3","019cfc7b-6c7b-7b1b-afe7-acad8efc6711","","null","
                <div class=""stimulus-container"">
                    <img src=""images/semantic_sequence/kitchen_operations_semantic/kitchen_operations_semantic_5.png"" class=""exp-image"">
                    <div class=""question-area""></div> 
                </div>","null","","","","","","","","","","","",""
"","","","","","html-button-response","89","265840","0.0-89.0","9E52411BDA604A8E9DAC5C821448B462","019cfc9e-b2d9-769a-a692-9c808b2f44e3","019cfc7b-6c7b-7b1b-afe7-acad8efc6711","","1361","
                <div class=""stimulus-container"">
                    <img src=""images/semantic_sequence/kitchen_operations_semantic/kitchen_operations_semantic_5.png"" class=""exp-image"">
                    <div class=""question-area"">
                        <p style=""font-size: 20px; font-weight: bold; margin: 0;"">Is there a person in this image?</p>
                    </div>
                </div>","0","main_experiment_trial","5","kitchen_operations_semantic","semantic_sequence","chronological","","","","","","",""
"","","","","","html-keyboard-response","90","270852","0.0-90.0","9E52411BDA604A8E9DAC5C821448B462","019cfc9e-b2d9-769a-a692-9c808b2f44e3","019cfc7b-6c7b-7b1b-afe7-acad8efc6711","","null","
                <div class=""stimulus-container"">
                    <img src=""images/semantic_sequence/kitchen_operations_semantic/kitchen_operations_semantic_6.png"" class=""exp-image"">
                    <div class=""question-area""></div> 
                </div>","null","","","","","","","","","","","",""
"","","","","","html-button-response","91","271257","0.0-91.0","9E52411BDA604A8E9DAC5C821448B462","019cfc9e-b2d9-769a-a692-9c808b2f44e3","019cfc7b-6c7b-7b1b-afe7-acad8efc6711","","404","
                <div class=""stimulus-container"">
                    <img src=""images/semantic_sequence/kitchen_operations_semantic/kitchen_operations_semantic_6.png"" class=""exp-image"">
                    <div class=""question-area"">
                        <p style=""font-size: 20px; font-weight: bold; margin: 0;"">Is there a person in this image?</p>
                    </div>
                </div>","0","main_experiment_trial","6","kitchen_operations_semantic","semantic_sequence","chronological","","","","","","",""
"","","","","","html-keyboard-response","92","276258","0.0-92.0","9E52411BDA604A8E9DAC5C821448B462","019cfc9e-b2d9-769a-a692-9c808b2f44e3","019cfc7b-6c7b-7b1b-afe7-acad8efc6711","","null","
                <div class=""stimulus-container"">
                    <img src=""images/semantic_sequence/kitchen_operations_semantic/kitchen_operations_semantic_7.png"" class=""exp-image"">
                    <div class=""question-area""></div> 
                </div>","null","","","","","","","","","","","",""
"","","","","","html-button-response","93","276646","0.0-93.0","9E52411BDA604A8E9DAC5C821448B462","019cfc9e-b2d9-769a-a692-9c808b2f44e3","019cfc7b-6c7b-7b1b-afe7-acad8efc6711","","387","
                <div class=""stimulus-container"">
                    <img src=""images/semantic_sequence/kitchen_operations_semantic/kitchen_operations_semantic_7.png"" class=""exp-image"">
                    <div class=""question-area"">
                        <p style=""font-size: 20px; font-weight: bold; margin: 0;"">Is there a person in this image?</p>
                    </div>
                </div>","0","main_experiment_trial","7","kitchen_operations_semantic","semantic_sequence","chronological","","","","","","",""
"","","","","","html-keyboard-response","94","281654","0.0-94.0","9E52411BDA604A8E9DAC5C821448B462","019cfc9e-b2d9-769a-a692-9c808b2f44e3","019cfc7b-6c7b-7b1b-afe7-acad8efc6711","","null","
                <div class=""stimulus-container"">
                    <img src=""images/semantic_sequence/kitchen_operations_semantic/kitchen_operations_semantic_8.png"" class=""exp-image"">
                    <div class=""question-area""></div> 
                </div>","null","","","","","","","","","","","",""
"","","","","","html-button-response","95","282058","0.0-95.0","9E52411BDA604A8E9DAC5C821448B462","019cfc9e-b2d9-769a-a692-9c808b2f44e3","019cfc7b-6c7b-7b1b-afe7-acad8efc6711","","404","
                <div class=""stimulus-container"">
                    <img src=""images/semantic_sequence/kitchen_operations_semantic/kitchen_operations_semantic_8.png"" class=""exp-image"">
                    <div class=""question-area"">
                        <p style=""font-size: 20px; font-weight: bold; margin: 0;"">Is there a person in this image?</p>
                    </div>
                </div>","0","main_experiment_trial","8","kitchen_operations_semantic","semantic_sequence","chronological","","","","","","",""
"","","","","","html-keyboard-response","96","287072","0.0-96.0","9E52411BDA604A8E9DAC5C821448B462","019cfc9e-b2d9-769a-a692-9c808b2f44e3","019cfc7b-6c7b-7b1b-afe7-acad8efc6711","","null","
                <div class=""stimulus-container"">
                    <img src=""images/semantic_sequence/kitchen_operations_semantic/kitchen_operations_semantic_9.png"" class=""exp-image"">
                    <div class=""question-area""></div> 
                </div>","null","","","","","","","","","","","",""
"","","","","","html-button-response","97","287834","0.0-97.0","9E52411BDA604A8E9DAC5C821448B462","019cfc9e-b2d9-769a-a692-9c808b2f44e3","019cfc7b-6c7b-7b1b-afe7-acad8efc6711","","761","
                <div class=""stimulus-container"">
                    <img src=""images/semantic_sequence/kitchen_operations_semantic/kitchen_operations_semantic_9.png"" class=""exp-image"">
                    <div class=""question-area"">
                        <p style=""font-size: 20px; font-weight: bold; margin: 0;"">Is there a person in this image?</p>
                    </div>
                </div>","0","main_experiment_trial","9","kitchen_operations_semantic","semantic_sequence","chronological","","","","","","",""
"","","","","","html-keyboard-response","98","292839","0.0-98.0","9E52411BDA604A8E9DAC5C821448B462","019cfc9e-b2d9-769a-a692-9c808b2f44e3","019cfc7b-6c7b-7b1b-afe7-acad8efc6711","","null","
                <div class=""stimulus-container"">
                    <img src=""images/semantic_sequence/kitchen_operations_semantic/kitchen_operations_semantic_ten.png"" class=""exp-image"">
                    <div class=""question-area""></div> 
                </div>","null","","","","","","","","","","","",""
"","","","","","html-button-response","99","294035","0.0-99.0","9E52411BDA604A8E9DAC5C821448B462","019cfc9e-b2d9-769a-a692-9c808b2f44e3","019cfc7b-6c7b-7b1b-afe7-acad8efc6711","","1196","
                <div class=""stimulus-container"">
                    <img src=""images/semantic_sequence/kitchen_operations_semantic/kitchen_operations_semantic_ten.png"" class=""exp-image"">
                    <div class=""question-area"">
                        <p style=""font-size: 20px; font-weight: bold; margin: 0;"">Is there a person in this image?</p>
                    </div>
                </div>","0","main_experiment_trial","ten","kitchen_operations_semantic","semantic_sequence","chronological","","","","","","",""
"","","","","","html-keyboard-response","100","299048","0.0-100.0","9E52411BDA604A8E9DAC5C821448B462","019cfc9e-b2d9-769a-a692-9c808b2f44e3","019cfc7b-6c7b-7b1b-afe7-acad8efc6711","","null","<div style=""background-color: white; width: 100vw; height: 100vh;""></div>","null","","","","","","","","","","","",""
"","","","","","html-keyboard-response","101","304059","0.0-101.0","9E52411BDA604A8E9DAC5C821448B462","019cfc9e-b2d9-769a-a692-9c808b2f44e3","019cfc7b-6c7b-7b1b-afe7-acad8efc6711","","null","
                <div class=""stimulus-container"">
                    <img src=""images/schematic_sequence/restaurant_scheme/restaurant_scheme_1.png"" class=""exp-image"">
                    <div class=""question-area""></div> 
                </div>","null","","","","","","","","","","","",""
"","","","","","html-button-response","102","304577","0.0-102.0","9E52411BDA604A8E9DAC5C821448B462","019cfc9e-b2d9-769a-a692-9c808b2f44e3","019cfc7b-6c7b-7b1b-afe7-acad8efc6711","","518","
                <div class=""stimulus-container"">
                    <img src=""images/schematic_sequence/restaurant_scheme/restaurant_scheme_1.png"" class=""exp-image"">
                    <div class=""question-area"">
                        <p style=""font-size: 20px; font-weight: bold; margin: 0;"">Is there a person in this image?</p>
                    </div>
                </div>","0","main_experiment_trial","1","restaurant_scheme","schematic_sequence","chronological","","","","","","",""
"","","","","","html-keyboard-response","103","309587","0.0-103.0","9E52411BDA604A8E9DAC5C821448B462","019cfc9e-b2d9-769a-a692-9c808b2f44e3","019cfc7b-6c7b-7b1b-afe7-acad8efc6711","","null","
                <div class=""stimulus-container"">
                    <img src=""images/schematic_sequence/restaurant_scheme/restaurant_scheme_2.png"" class=""exp-image"">
                    <div class=""question-area""></div> 
                </div>","null","","","","","","","","","","","",""
"","","","","","html-button-response","104","311761","0.0-104.0","9E52411BDA604A8E9DAC5C821448B462","019cfc9e-b2d9-769a-a692-9c808b2f44e3","019cfc7b-6c7b-7b1b-afe7-acad8efc6711","","2173","
                <div class=""stimulus-container"">
                    <img src=""images/schematic_sequence/restaurant_scheme/restaurant_scheme_2.png"" class=""exp-image"">
                    <div class=""question-area"">
                        <p style=""font-size: 20px; font-weight: bold; margin: 0;"">Is there a person in this image?</p>
                    </div>
                </div>","1","main_experiment_trial","2","restaurant_scheme","schematic_sequence","chronological","","","","","","",""
"","","","","","html-keyboard-response","105","316765","0.0-105.0","9E52411BDA604A8E9DAC5C821448B462","019cfc9e-b2d9-769a-a692-9c808b2f44e3","019cfc7b-6c7b-7b1b-afe7-acad8efc6711","","null","
                <div class=""stimulus-container"">
                    <img src=""images/schematic_sequence/restaurant_scheme/restaurant_scheme_3.png"" class=""exp-image"">
                    <div class=""question-area""></div> 
                </div>","null","","","","","","","","","","","",""
"","","","","","html-button-response","106","318799","0.0-106.0","9E52411BDA604A8E9DAC5C821448B462","019cfc9e-b2d9-769a-a692-9c808b2f44e3","019cfc7b-6c7b-7b1b-afe7-acad8efc6711","","2033","
                <div class=""stimulus-container"">
                    <img src=""images/schematic_sequence/restaurant_scheme/restaurant_scheme_3.png"" class=""exp-image"">
                    <div class=""question-area"">
                        <p style=""font-size: 20px; font-weight: bold; margin: 0;"">Is there a person in this image?</p>
                    </div>
                </div>","1","main_experiment_trial","3","restaurant_scheme","schematic_sequence","chronological","","","","","","",""
"","","","","","html-keyboard-response","107","323809","0.0-107.0","9E52411BDA604A8E9DAC5C821448B462","019cfc9e-b2d9-769a-a692-9c808b2f44e3","019cfc7b-6c7b-7b1b-afe7-acad8efc6711","","null","
                <div class=""stimulus-container"">
                    <img src=""images/schematic_sequence/restaurant_scheme/restaurant_scheme_4.png"" class=""exp-image"">
                    <div class=""question-area""></div> 
                </div>","null","","","","","","","","","","","",""
"","","","","","html-button-response","108","324223","0.0-108.0","9E52411BDA604A8E9DAC5C821448B462","019cfc9e-b2d9-769a-a692-9c808b2f44e3","019cfc7b-6c7b-7b1b-afe7-acad8efc6711","","414","
                <div class=""stimulus-container"">
                    <img src=""images/schematic_sequence/restaurant_scheme/restaurant_scheme_4.png"" class=""exp-image"">
                    <div class=""question-area"">
                        <p style=""font-size: 20px; font-weight: bold; margin: 0;"">Is there a person in this image?</p>
                    </div>
                </div>","0","main_experiment_trial","4","restaurant_scheme","schematic_sequence","chronological","","","","","","",""
"","","","","","html-keyboard-response","109","329229","0.0-109.0","9E52411BDA604A8E9DAC5C821448B462","019cfc9e-b2d9-769a-a692-9c808b2f44e3","019cfc7b-6c7b-7b1b-afe7-acad8efc6711","","null","
                <div class=""stimulus-container"">
                    <img src=""images/schematic_sequence/restaurant_scheme/restaurant_scheme_5.png"" class=""exp-image"">
                    <div class=""question-area""></div> 
                </div>","null","","","","","","","","","","","",""
"","","","","","html-button-response","110","329885","0.0-110.0","9E52411BDA604A8E9DAC5C821448B462","019cfc9e-b2d9-769a-a692-9c808b2f44e3","019cfc7b-6c7b-7b1b-afe7-acad8efc6711","","655","
                <div class=""stimulus-container"">
                    <img src=""images/schematic_sequence/restaurant_scheme/restaurant_scheme_5.png"" class=""exp-image"">
                    <div class=""question-area"">
                        <p style=""font-size: 20px; font-weight: bold; margin: 0;"">Is there a person in this image?</p>
                    </div>
                </div>","0","main_experiment_trial","5","restaurant_scheme","schematic_sequence","chronological","","","","","","",""
"","","","","","html-keyboard-response","111","334896","0.0-111.0","9E52411BDA604A8E9DAC5C821448B462","019cfc9e-b2d9-769a-a692-9c808b2f44e3","019cfc7b-6c7b-7b1b-afe7-acad8efc6711","","null","
                <div class=""stimulus-container"">
                    <img src=""images/schematic_sequence/restaurant_scheme/restaurant_scheme_6.png"" class=""exp-image"">
                    <div class=""question-area""></div> 
                </div>","null","","","","","","","","","","","",""
"","","","","","html-button-response","112","335346","0.0-112.0","9E52411BDA604A8E9DAC5C821448B462","019cfc9e-b2d9-769a-a692-9c808b2f44e3","019cfc7b-6c7b-7b1b-afe7-acad8efc6711","","449","
                <div class=""stimulus-container"">
                    <img src=""images/schematic_sequence/restaurant_scheme/restaurant_scheme_6.png"" class=""exp-image"">
                    <div class=""question-area"">
                        <p style=""font-size: 20px; font-weight: bold; margin: 0;"">Is there a person in this image?</p>
                    </div>
                </div>","1","main_experiment_trial","6","restaurant_scheme","schematic_sequence","chronological","","","","","","",""
"","","","","","html-keyboard-response","113","340361","0.0-113.0","9E52411BDA604A8E9DAC5C821448B462","019cfc9e-b2d9-769a-a692-9c808b2f44e3","019cfc7b-6c7b-7b1b-afe7-acad8efc6711","","null","
                <div class=""stimulus-container"">
                    <img src=""images/schematic_sequence/restaurant_scheme/restaurant_scheme_7.png"" class=""exp-image"">
                    <div class=""question-area""></div> 
                </div>","null","","","","","","","","","","","",""
"","","","","","html-button-response","114","341140","0.0-114.0","9E52411BDA604A8E9DAC5C821448B462","019cfc9e-b2d9-769a-a692-9c808b2f44e3","019cfc7b-6c7b-7b1b-afe7-acad8efc6711","","779","
                <div class=""stimulus-container"">
                    <img src=""images/schematic_sequence/restaurant_scheme/restaurant_scheme_7.png"" class=""exp-image"">
                    <div class=""question-area"">
                        <p style=""font-size: 20px; font-weight: bold; margin: 0;"">Is there a person in this image?</p>
                    </div>
                </div>","1","main_experiment_trial","7","restaurant_scheme","schematic_sequence","chronological","","","","","","",""
"","","","","","html-keyboard-response","115","346154","0.0-115.0","9E52411BDA604A8E9DAC5C821448B462","019cfc9e-b2d9-769a-a692-9c808b2f44e3","019cfc7b-6c7b-7b1b-afe7-acad8efc6711","","null","
                <div class=""stimulus-container"">
                    <img src=""images/schematic_sequence/restaurant_scheme/restaurant_scheme_8.png"" class=""exp-image"">
                    <div class=""question-area""></div> 
                </div>","null","","","","","","","","","","","",""
"","","","","","html-button-response","116","348085","0.0-116.0","9E52411BDA604A8E9DAC5C821448B462","019cfc9e-b2d9-769a-a692-9c808b2f44e3","019cfc7b-6c7b-7b1b-afe7-acad8efc6711","","1930","
                <div class=""stimulus-container"">
                    <img src=""images/schematic_sequence/restaurant_scheme/restaurant_scheme_8.png"" class=""exp-image"">
                    <div class=""question-area"">
                        <p style=""font-size: 20px; font-weight: bold; margin: 0;"">Is there a person in this image?</p>
                    </div>
                </div>","1","main_experiment_trial","8","restaurant_scheme","schematic_sequence","chronological","","","","","","",""
"","","","","","html-keyboard-response","117","353097","0.0-117.0","9E52411BDA604A8E9DAC5C821448B462","019cfc9e-b2d9-769a-a692-9c808b2f44e3","019cfc7b-6c7b-7b1b-afe7-acad8efc6711","","null","
                <div class=""stimulus-container"">
                    <img src=""images/schematic_sequence/restaurant_scheme/restaurant_scheme_9.png"" class=""exp-image"">
                    <div class=""question-area""></div> 
                </div>","null","","","","","","","","","","","",""
"","","","","","html-button-response","118","353934","0.0-118.0","9E52411BDA604A8E9DAC5C821448B462","019cfc9e-b2d9-769a-a692-9c808b2f44e3","019cfc7b-6c7b-7b1b-afe7-acad8efc6711","","836","
                <div class=""stimulus-container"">
                    <img src=""images/schematic_sequence/restaurant_scheme/restaurant_scheme_9.png"" class=""exp-image"">
                    <div class=""question-area"">
                        <p style=""font-size: 20px; font-weight: bold; margin: 0;"">Is there a person in this image?</p>
                    </div>
                </div>","0","main_experiment_trial","9","restaurant_scheme","schematic_sequence","chronological","","","","","","",""
"","","","","","html-keyboard-response","119","358950","0.0-119.0","9E52411BDA604A8E9DAC5C821448B462","019cfc9e-b2d9-769a-a692-9c808b2f44e3","019cfc7b-6c7b-7b1b-afe7-acad8efc6711","","null","
                <div class=""stimulus-container"">
                    <img src=""images/schematic_sequence/restaurant_scheme/restaurant_scheme_ten.png"" class=""exp-image"">
                    <div class=""question-area""></div> 
                </div>","null","","","","","","","","","","","",""
"","","","","","html-button-response","120","360872","0.0-120.0","9E52411BDA604A8E9DAC5C821448B462","019cfc9e-b2d9-769a-a692-9c808b2f44e3","019cfc7b-6c7b-7b1b-afe7-acad8efc6711","","1921","
                <div class=""stimulus-container"">
                    <img src=""images/schematic_sequence/restaurant_scheme/restaurant_scheme_ten.png"" class=""exp-image"">
                    <div class=""question-area"">
                        <p style=""font-size: 20px; font-weight: bold; margin: 0;"">Is there a person in this image?</p>
                    </div>
                </div>","0","main_experiment_trial","ten","restaurant_scheme","schematic_sequence","chronological","","","","","","",""
"","","","","","html-keyboard-response","121","365885","0.0-121.0","9E52411BDA604A8E9DAC5C821448B462","019cfc9e-b2d9-769a-a692-9c808b2f44e3","019cfc7b-6c7b-7b1b-afe7-acad8efc6711","","null","<div style=""background-color: white; width: 100vw; height: 100vh;""></div>","null","","","","","","","","","","","",""
"","","","","","html-keyboard-response","122","370895","0.0-122.0","9E52411BDA604A8E9DAC5C821448B462","019cfc9e-b2d9-769a-a692-9c808b2f44e3","019cfc7b-6c7b-7b1b-afe7-acad8efc6711","","null","
                <div class=""stimulus-container"">
                    <img src=""images/causal_sequence/dog_causal/dog_causal_1.png"" class=""exp-image"">
                    <div class=""question-area""></div> 
                </div>","null","","","","","","","","","","","",""
"","","","","","html-button-response","123","371333","0.0-123.0","9E52411BDA604A8E9DAC5C821448B462","019cfc9e-b2d9-769a-a692-9c808b2f44e3","019cfc7b-6c7b-7b1b-afe7-acad8efc6711","","438","
                <div class=""stimulus-container"">
                    <img src=""images/causal_sequence/dog_causal/dog_causal_1.png"" class=""exp-image"">
                    <div class=""question-area"">
                        <p style=""font-size: 20px; font-weight: bold; margin: 0;"">Is there a person in this image?</p>
                    </div>
                </div>","0","main_experiment_trial","1","dog_causal","causal_sequence","chronological","","","","","","",""
"","","","","","html-keyboard-response","124","376337","0.0-124.0","9E52411BDA604A8E9DAC5C821448B462","019cfc9e-b2d9-769a-a692-9c808b2f44e3","019cfc7b-6c7b-7b1b-afe7-acad8efc6711","","null","
                <div class=""stimulus-container"">
                    <img src=""images/causal_sequence/dog_causal/dog_causal_2.png"" class=""exp-image"">
                    <div class=""question-area""></div> 
                </div>","null","","","","","","","","","","","",""
"","","","","","html-button-response","125","377900","0.0-125.0","9E52411BDA604A8E9DAC5C821448B462","019cfc9e-b2d9-769a-a692-9c808b2f44e3","019cfc7b-6c7b-7b1b-afe7-acad8efc6711","","1562","
                <div class=""stimulus-container"">
                    <img src=""images/causal_sequence/dog_causal/dog_causal_2.png"" class=""exp-image"">
                    <div class=""question-area"">
                        <p style=""font-size: 20px; font-weight: bold; margin: 0;"">Is there a person in this image?</p>
                    </div>
                </div>","0","main_experiment_trial","2","dog_causal","causal_sequence","chronological","","","","","","",""
"","","","","","html-keyboard-response","126","382911","0.0-126.0","9E52411BDA604A8E9DAC5C821448B462","019cfc9e-b2d9-769a-a692-9c808b2f44e3","019cfc7b-6c7b-7b1b-afe7-acad8efc6711","","null","
                <div class=""stimulus-container"">
                    <img src=""images/causal_sequence/dog_causal/dog_causal_3.png"" class=""exp-image"">
                    <div class=""question-area""></div> 
                </div>","null","","","","","","","","","","","",""
"","","","","","html-button-response","127","383352","0.0-127.0","9E52411BDA604A8E9DAC5C821448B462","019cfc9e-b2d9-769a-a692-9c808b2f44e3","019cfc7b-6c7b-7b1b-afe7-acad8efc6711","","440","
                <div class=""stimulus-container"">
                    <img src=""images/causal_sequence/dog_causal/dog_causal_3.png"" class=""exp-image"">
                    <div class=""question-area"">
                        <p style=""font-size: 20px; font-weight: bold; margin: 0;"">Is there a person in this image?</p>
                    </div>
                </div>","0","main_experiment_trial","3","dog_causal","causal_sequence","chronological","","","","","","",""
"","","","","","html-keyboard-response","128","388363","0.0-128.0","9E52411BDA604A8E9DAC5C821448B462","019cfc9e-b2d9-769a-a692-9c808b2f44e3","019cfc7b-6c7b-7b1b-afe7-acad8efc6711","","null","
                <div class=""stimulus-container"">
                    <img src=""images/causal_sequence/dog_causal/dog_causal_4.png"" class=""exp-image"">
                    <div class=""question-area""></div> 
                </div>","null","","","","","","","","","","","",""
"","","","","","html-button-response","129","390179","0.0-129.0","9E52411BDA604A8E9DAC5C821448B462","019cfc9e-b2d9-769a-a692-9c808b2f44e3","019cfc7b-6c7b-7b1b-afe7-acad8efc6711","","1815","
                <div class=""stimulus-container"">
                    <img src=""images/causal_sequence/dog_causal/dog_causal_4.png"" class=""exp-image"">
                    <div class=""question-area"">
                        <p style=""font-size: 20px; font-weight: bold; margin: 0;"">Is there a person in this image?</p>
                    </div>
                </div>","0","main_experiment_trial","4","dog_causal","causal_sequence","chronological","","","","","","",""
"","","","","","html-keyboard-response","130","395189","0.0-130.0","9E52411BDA604A8E9DAC5C821448B462","019cfc9e-b2d9-769a-a692-9c808b2f44e3","019cfc7b-6c7b-7b1b-afe7-acad8efc6711","","null","
                <div class=""stimulus-container"">
                    <img src=""images/causal_sequence/dog_causal/dog_causal_5.png"" class=""exp-image"">
                    <div class=""question-area""></div> 
                </div>","null","","","","","","","","","","","",""
"","","","","","html-button-response","131","396267","0.0-131.0","9E52411BDA604A8E9DAC5C821448B462","019cfc9e-b2d9-769a-a692-9c808b2f44e3","019cfc7b-6c7b-7b1b-afe7-acad8efc6711","","1078","
                <div class=""stimulus-container"">
                    <img src=""images/causal_sequence/dog_causal/dog_causal_5.png"" class=""exp-image"">
                    <div class=""question-area"">
                        <p style=""font-size: 20px; font-weight: bold; margin: 0;"">Is there a person in this image?</p>
                    </div>
                </div>","0","main_experiment_trial","5","dog_causal","causal_sequence","chronological","","","","","","",""
"","","","","","html-keyboard-response","132","401283","0.0-132.0","9E52411BDA604A8E9DAC5C821448B462","019cfc9e-b2d9-769a-a692-9c808b2f44e3","019cfc7b-6c7b-7b1b-afe7-acad8efc6711","","null","
                <div class=""stimulus-container"">
                    <img src=""images/causal_sequence/dog_causal/dog_causal_6.png"" class=""exp-image"">
                    <div class=""question-area""></div> 
                </div>","null","","","","","","","","","","","",""
"","","","","","html-button-response","133","402116","0.0-133.0","9E52411BDA604A8E9DAC5C821448B462","019cfc9e-b2d9-769a-a692-9c808b2f44e3","019cfc7b-6c7b-7b1b-afe7-acad8efc6711","","832","
                <div class=""stimulus-container"">
                    <img src=""images/causal_sequence/dog_causal/dog_causal_6.png"" class=""exp-image"">
                    <div class=""question-area"">
                        <p style=""font-size: 20px; font-weight: bold; margin: 0;"">Is there a person in this image?</p>
                    </div>
                </div>","0","main_experiment_trial","6","dog_causal","causal_sequence","chronological","","","","","","",""
"","","","","","html-keyboard-response","134","407121","0.0-134.0","9E52411BDA604A8E9DAC5C821448B462","019cfc9e-b2d9-769a-a692-9c808b2f44e3","019cfc7b-6c7b-7b1b-afe7-acad8efc6711","","null","
                <div class=""stimulus-container"">
                    <img src=""images/causal_sequence/dog_causal/dog_causal_7.png"" class=""exp-image"">
                    <div class=""question-area""></div> 
                </div>","null","","","","","","","","","","","",""
"","","","","","html-button-response","135","408469","0.0-135.0","9E52411BDA604A8E9DAC5C821448B462","019cfc9e-b2d9-769a-a692-9c808b2f44e3","019cfc7b-6c7b-7b1b-afe7-acad8efc6711","","1347","
                <div class=""stimulus-container"">
                    <img src=""images/causal_sequence/dog_causal/dog_causal_7.png"" class=""exp-image"">
                    <div class=""question-area"">
                        <p style=""font-size: 20px; font-weight: bold; margin: 0;"">Is there a person in this image?</p>
                    </div>
                </div>","0","main_experiment_trial","7","dog_causal","causal_sequence","chronological","","","","","","",""
"","","","","","html-keyboard-response","136","413478","0.0-136.0","9E52411BDA604A8E9DAC5C821448B462","019cfc9e-b2d9-769a-a692-9c808b2f44e3","019cfc7b-6c7b-7b1b-afe7-acad8efc6711","","null","
                <div class=""stimulus-container"">
                    <img src=""images/causal_sequence/dog_causal/dog_causal_8.png"" class=""exp-image"">
                    <div class=""question-area""></div> 
                </div>","null","","","","","","","","","","","",""
"","","","","","html-button-response","137","414501","0.0-137.0","9E52411BDA604A8E9DAC5C821448B462","019cfc9e-b2d9-769a-a692-9c808b2f44e3","019cfc7b-6c7b-7b1b-afe7-acad8efc6711","","1022","
                <div class=""stimulus-container"">
                    <img src=""images/causal_sequence/dog_causal/dog_causal_8.png"" class=""exp-image"">
                    <div class=""question-area"">
                        <p style=""font-size: 20px; font-weight: bold; margin: 0;"">Is there a person in this image?</p>
                    </div>
                </div>","0","main_experiment_trial","8","dog_causal","causal_sequence","chronological","","","","","","",""
"","","","","","html-keyboard-response","138","419511","0.0-138.0","9E52411BDA604A8E9DAC5C821448B462","019cfc9e-b2d9-769a-a692-9c808b2f44e3","019cfc7b-6c7b-7b1b-afe7-acad8efc6711","","null","
                <div class=""stimulus-container"">
                    <img src=""images/causal_sequence/dog_causal/dog_causal_9.png"" class=""exp-image"">
                    <div class=""question-area""></div> 
                </div>","null","","","","","","","","","","","",""
"","","","","","html-button-response","139","419892","0.0-139.0","9E52411BDA604A8E9DAC5C821448B462","019cfc9e-b2d9-769a-a692-9c808b2f44e3","019cfc7b-6c7b-7b1b-afe7-acad8efc6711","","380","
                <div class=""stimulus-container"">
                    <img src=""images/causal_sequence/dog_causal/dog_causal_9.png"" class=""exp-image"">
                    <div class=""question-area"">
                        <p style=""font-size: 20px; font-weight: bold; margin: 0;"">Is there a person in this image?</p>
                    </div>
                </div>","0","main_experiment_trial","9","dog_causal","causal_sequence","chronological","","","","","","",""
"","","","","","html-keyboard-response","140","424896","0.0-140.0","9E52411BDA604A8E9DAC5C821448B462","019cfc9e-b2d9-769a-a692-9c808b2f44e3","019cfc7b-6c7b-7b1b-afe7-acad8efc6711","","null","
                <div class=""stimulus-container"">
                    <img src=""images/causal_sequence/dog_causal/dog_causal_ten.png"" class=""exp-image"">
                    <div class=""question-area""></div> 
                </div>","null","","","","","","","","","","","",""
"","","","","","html-button-response","141","425351","0.0-141.0","9E52411BDA604A8E9DAC5C821448B462","019cfc9e-b2d9-769a-a692-9c808b2f44e3","019cfc7b-6c7b-7b1b-afe7-acad8efc6711","","454","
                <div class=""stimulus-container"">
                    <img src=""images/causal_sequence/dog_causal/dog_causal_ten.png"" class=""exp-image"">
                    <div class=""question-area"">
                        <p style=""font-size: 20px; font-weight: bold; margin: 0;"">Is there a person in this image?</p>
                    </div>
                </div>","0","main_experiment_trial","ten","dog_causal","causal_sequence","chronological","","","","","","",""
"","","","","","html-keyboard-response","142","430362","0.0-142.0","9E52411BDA604A8E9DAC5C821448B462","019cfc9e-b2d9-769a-a692-9c808b2f44e3","019cfc7b-6c7b-7b1b-afe7-acad8efc6711","","null","<div style=""background-color: white; width: 100vw; height: 100vh;""></div>","null","","","","","","","","","","","",""
"","","","","","html-keyboard-response","143","435365","0.0-143.0","9E52411BDA604A8E9DAC5C821448B462","019cfc9e-b2d9-769a-a692-9c808b2f44e3","019cfc7b-6c7b-7b1b-afe7-acad8efc6711","","null","
                <div class=""stimulus-container"">
                    <img src=""images/causal_sequence/coin_causal/coin_causal_1.png"" class=""exp-image"">
                    <div class=""question-area""></div> 
                </div>","null","","","","","","","","","","","",""
"","","","","","html-button-response","144","438264","0.0-144.0","9E52411BDA604A8E9DAC5C821448B462","019cfc9e-b2d9-769a-a692-9c808b2f44e3","019cfc7b-6c7b-7b1b-afe7-acad8efc6711","","2898","
                <div class=""stimulus-container"">
                    <img src=""images/causal_sequence/coin_causal/coin_causal_1.png"" class=""exp-image"">
                    <div class=""question-area"">
                        <p style=""font-size: 20px; font-weight: bold; margin: 0;"">Is there a person in this image?</p>
                    </div>
                </div>","0","main_experiment_trial","1","coin_causal","causal_sequence","chronological","","","","","","",""
"","","","","","html-keyboard-response","145","443277","0.0-145.0","9E52411BDA604A8E9DAC5C821448B462","019cfc9e-b2d9-769a-a692-9c808b2f44e3","019cfc7b-6c7b-7b1b-afe7-acad8efc6711","","null","
                <div class=""stimulus-container"">
                    <img src=""images/causal_sequence/coin_causal/coin_causal_2.png"" class=""exp-image"">
                    <div class=""question-area""></div> 
                </div>","null","","","","","","","","","","","",""
"","","","","","html-button-response","146","444856","0.0-146.0","9E52411BDA604A8E9DAC5C821448B462","019cfc9e-b2d9-769a-a692-9c808b2f44e3","019cfc7b-6c7b-7b1b-afe7-acad8efc6711","","1579","
                <div class=""stimulus-container"">
                    <img src=""images/causal_sequence/coin_causal/coin_causal_2.png"" class=""exp-image"">
                    <div class=""question-area"">
                        <p style=""font-size: 20px; font-weight: bold; margin: 0;"">Is there a person in this image?</p>
                    </div>
                </div>","0","main_experiment_trial","2","coin_causal","causal_sequence","chronological","","","","","","",""
"","","","","","html-keyboard-response","147","449865","0.0-147.0","9E52411BDA604A8E9DAC5C821448B462","019cfc9e-b2d9-769a-a692-9c808b2f44e3","019cfc7b-6c7b-7b1b-afe7-acad8efc6711","","null","
                <div class=""stimulus-container"">
                    <img src=""images/causal_sequence/coin_causal/coin_causal_3.png"" class=""exp-image"">
                    <div class=""question-area""></div> 
                </div>","null","","","","","","","","","","","",""
"","","","","","html-button-response","148","451593","0.0-148.0","9E52411BDA604A8E9DAC5C821448B462","019cfc9e-b2d9-769a-a692-9c808b2f44e3","019cfc7b-6c7b-7b1b-afe7-acad8efc6711","","1727","
                <div class=""stimulus-container"">
                    <img src=""images/causal_sequence/coin_causal/coin_causal_3.png"" class=""exp-image"">
                    <div class=""question-area"">
                        <p style=""font-size: 20px; font-weight: bold; margin: 0;"">Is there a person in this image?</p>
                    </div>
                </div>","0","main_experiment_trial","3","coin_causal","causal_sequence","chronological","","","","","","",""
"","","","","","html-keyboard-response","149","456607","0.0-149.0","9E52411BDA604A8E9DAC5C821448B462","019cfc9e-b2d9-769a-a692-9c808b2f44e3","019cfc7b-6c7b-7b1b-afe7-acad8efc6711","","null","
                <div class=""stimulus-container"">
                    <img src=""images/causal_sequence/coin_causal/coin_causal_4.png"" class=""exp-image"">
                    <div class=""question-area""></div> 
                </div>","null","","","","","","","","","","","",""
"","","","","","html-button-response","150","459622","0.0-150.0","9E52411BDA604A8E9DAC5C821448B462","019cfc9e-b2d9-769a-a692-9c808b2f44e3","019cfc7b-6c7b-7b1b-afe7-acad8efc6711","","null","
                <div class=""stimulus-container"">
                    <img src=""images/causal_sequence/coin_causal/coin_causal_4.png"" class=""exp-image"">
                    <div class=""question-area"">
                        <p style=""font-size: 20px; font-weight: bold; margin: 0;"">Is there a person in this image?</p>
                    </div>
                </div>","null","main_experiment_trial","4","coin_causal","causal_sequence","chronological","","","","","","",""
"","","","","","html-keyboard-response","151","464630","0.0-151.0","9E52411BDA604A8E9DAC5C821448B462","019cfc9e-b2d9-769a-a692-9c808b2f44e3","019cfc7b-6c7b-7b1b-afe7-acad8efc6711","","null","
                <div class=""stimulus-container"">
                    <img src=""images/causal_sequence/coin_causal/coin_causal_5.png"" class=""exp-image"">
                    <div class=""question-area""></div> 
                </div>","null","","","","","","","","","","","",""
"","","","","","html-button-response","152","467634","0.0-152.0","9E52411BDA604A8E9DAC5C821448B462","019cfc9e-b2d9-769a-a692-9c808b2f44e3","019cfc7b-6c7b-7b1b-afe7-acad8efc6711","","null","
                <div class=""stimulus-container"">
                    <img src=""images/causal_sequence/coin_causal/coin_causal_5.png"" class=""exp-image"">
                    <div class=""question-area"">
                        <p style=""font-size: 20px; font-weight: bold; margin: 0;"">Is there a person in this image?</p>
                    </div>
                </div>","null","main_experiment_trial","5","coin_causal","causal_sequence","chronological","","","","","","",""
"","","","","","html-keyboard-response","153","472635","0.0-153.0","9E52411BDA604A8E9DAC5C821448B462","019cfc9e-b2d9-769a-a692-9c808b2f44e3","019cfc7b-6c7b-7b1b-afe7-acad8efc6711","","null","
                <div class=""stimulus-container"">
                    <img src=""images/causal_sequence/coin_causal/coin_causal_6.png"" class=""exp-image"">
                    <div class=""question-area""></div> 
                </div>","null","","","","","","","","","","","",""
"","","","","","html-button-response","154","473653","0.0-154.0","9E52411BDA604A8E9DAC5C821448B462","019cfc9e-b2d9-769a-a692-9c808b2f44e3","019cfc7b-6c7b-7b1b-afe7-acad8efc6711","","1017","
                <div class=""stimulus-container"">
                    <img src=""images/causal_sequence/coin_causal/coin_causal_6.png"" class=""exp-image"">
                    <div class=""question-area"">
                        <p style=""font-size: 20px; font-weight: bold; margin: 0;"">Is there a person in this image?</p>
                    </div>
                </div>","0","main_experiment_trial","6","coin_causal","causal_sequence","chronological","","","","","","",""
"","","","","","html-keyboard-response","155","478657","0.0-155.0","9E52411BDA604A8E9DAC5C821448B462","019cfc9e-b2d9-769a-a692-9c808b2f44e3","019cfc7b-6c7b-7b1b-afe7-acad8efc6711","","null","
                <div class=""stimulus-container"">
                    <img src=""images/causal_sequence/coin_causal/coin_causal_7.png"" class=""exp-image"">
                    <div class=""question-area""></div> 
                </div>","null","","","","","","","","","","","",""
"","","","","","html-button-response","156","479508","0.0-156.0","9E52411BDA604A8E9DAC5C821448B462","019cfc9e-b2d9-769a-a692-9c808b2f44e3","019cfc7b-6c7b-7b1b-afe7-acad8efc6711","","850","
                <div class=""stimulus-container"">
                    <img src=""images/causal_sequence/coin_causal/coin_causal_7.png"" class=""exp-image"">
                    <div class=""question-area"">
                        <p style=""font-size: 20px; font-weight: bold; margin: 0;"">Is there a person in this image?</p>
                    </div>
                </div>","1","main_experiment_trial","7","coin_causal","causal_sequence","chronological","","","","","","",""
"","","","","","html-keyboard-response","157","484515","0.0-157.0","9E52411BDA604A8E9DAC5C821448B462","019cfc9e-b2d9-769a-a692-9c808b2f44e3","019cfc7b-6c7b-7b1b-afe7-acad8efc6711","","null","
                <div class=""stimulus-container"">
                    <img src=""images/causal_sequence/coin_causal/coin_causal_8.png"" class=""exp-image"">
                    <div class=""question-area""></div> 
                </div>","null","","","","","","","","","","","",""
"","","","","","html-button-response","158","485558","0.0-158.0","9E52411BDA604A8E9DAC5C821448B462","019cfc9e-b2d9-769a-a692-9c808b2f44e3","019cfc7b-6c7b-7b1b-afe7-acad8efc6711","","1043","
                <div class=""stimulus-container"">
                    <img src=""images/causal_sequence/coin_causal/coin_causal_8.png"" class=""exp-image"">
                    <div class=""question-area"">
                        <p style=""font-size: 20px; font-weight: bold; margin: 0;"">Is there a person in this image?</p>
                    </div>
                </div>","0","main_experiment_trial","8","coin_causal","causal_sequence","chronological","","","","","","",""
"","","","","","html-keyboard-response","159","490574","0.0-159.0","9E52411BDA604A8E9DAC5C821448B462","019cfc9e-b2d9-769a-a692-9c808b2f44e3","019cfc7b-6c7b-7b1b-afe7-acad8efc6711","","null","
                <div class=""stimulus-container"">
                    <img src=""images/causal_sequence/coin_causal/coin_causal_9.png"" class=""exp-image"">
                    <div class=""question-area""></div> 
                </div>","null","","","","","","","","","","","",""
"","","","","","html-button-response","160","490959","0.0-160.0","9E52411BDA604A8E9DAC5C821448B462","019cfc9e-b2d9-769a-a692-9c808b2f44e3","019cfc7b-6c7b-7b1b-afe7-acad8efc6711","","384","
                <div class=""stimulus-container"">
                    <img src=""images/causal_sequence/coin_causal/coin_causal_9.png"" class=""exp-image"">
                    <div class=""question-area"">
                        <p style=""font-size: 20px; font-weight: bold; margin: 0;"">Is there a person in this image?</p>
                    </div>
                </div>","0","main_experiment_trial","9","coin_causal","causal_sequence","chronological","","","","","","",""
"","","","","","html-keyboard-response","161","495973","0.0-161.0","9E52411BDA604A8E9DAC5C821448B462","019cfc9e-b2d9-769a-a692-9c808b2f44e3","019cfc7b-6c7b-7b1b-afe7-acad8efc6711","","null","
                <div class=""stimulus-container"">
                    <img src=""images/causal_sequence/coin_causal/coin_causal_ten.png"" class=""exp-image"">
                    <div class=""question-area""></div> 
                </div>","null","","","","","","","","","","","",""
"","","","","","html-button-response","162","497080","0.0-162.0","9E52411BDA604A8E9DAC5C821448B462","019cfc9e-b2d9-769a-a692-9c808b2f44e3","019cfc7b-6c7b-7b1b-afe7-acad8efc6711","","1106","
                <div class=""stimulus-container"">
                    <img src=""images/causal_sequence/coin_causal/coin_causal_ten.png"" class=""exp-image"">
                    <div class=""question-area"">
                        <p style=""font-size: 20px; font-weight: bold; margin: 0;"">Is there a person in this image?</p>
                    </div>
                </div>","0","main_experiment_trial","ten","coin_causal","causal_sequence","chronological","","","","","","",""
"","","","","","html-keyboard-response","163","502092","0.0-163.0","9E52411BDA604A8E9DAC5C821448B462","019cfc9e-b2d9-769a-a692-9c808b2f44e3","019cfc7b-6c7b-7b1b-afe7-acad8efc6711","","null","<div style=""background-color: white; width: 100vw; height: 100vh;""></div>","null","","","","","","","","","","","",""
"","","","","","html-keyboard-response","164","507105","0.0-164.0","9E52411BDA604A8E9DAC5C821448B462","019cfc9e-b2d9-769a-a692-9c808b2f44e3","019cfc7b-6c7b-7b1b-afe7-acad8efc6711","","null","
                <div class=""stimulus-container"">
                    <img src=""images/semantic_sequence/self_care_activities_semantic/self_care_activities_semantic_1.png"" class=""exp-image"">
                    <div class=""question-area""></div> 
                </div>","null","","","","","","","","","","","",""
"","","","","","html-button-response","165","507852","0.0-165.0","9E52411BDA604A8E9DAC5C821448B462","019cfc9e-b2d9-769a-a692-9c808b2f44e3","019cfc7b-6c7b-7b1b-afe7-acad8efc6711","","746","
                <div class=""stimulus-container"">
                    <img src=""images/semantic_sequence/self_care_activities_semantic/self_care_activities_semantic_1.png"" class=""exp-image"">
                    <div class=""question-area"">
                        <p style=""font-size: 20px; font-weight: bold; margin: 0;"">Is there a person in this image?</p>
                    </div>
                </div>","0","main_experiment_trial","1","self_care_activities_semantic","semantic_sequence","chronological","","","","","","",""
"","","","","","html-keyboard-response","166","512859","0.0-166.0","9E52411BDA604A8E9DAC5C821448B462","019cfc9e-b2d9-769a-a692-9c808b2f44e3","019cfc7b-6c7b-7b1b-afe7-acad8efc6711","","null","
                <div class=""stimulus-container"">
                    <img src=""images/semantic_sequence/self_care_activities_semantic/self_care_activities_semantic_2.png"" class=""exp-image"">
                    <div class=""question-area""></div> 
                </div>","null","","","","","","","","","","","",""
"","","","","","html-button-response","167","513281","0.0-167.0","9E52411BDA604A8E9DAC5C821448B462","019cfc9e-b2d9-769a-a692-9c808b2f44e3","019cfc7b-6c7b-7b1b-afe7-acad8efc6711","","421","
                <div class=""stimulus-container"">
                    <img src=""images/semantic_sequence/self_care_activities_semantic/self_care_activities_semantic_2.png"" class=""exp-image"">
                    <div class=""question-area"">
                        <p style=""font-size: 20px; font-weight: bold; margin: 0;"">Is there a person in this image?</p>
                    </div>
                </div>","0","main_experiment_trial","2","self_care_activities_semantic","semantic_sequence","chronological","","","","","","",""
"","","","","","html-keyboard-response","168","518282","0.0-168.0","9E52411BDA604A8E9DAC5C821448B462","019cfc9e-b2d9-769a-a692-9c808b2f44e3","019cfc7b-6c7b-7b1b-afe7-acad8efc6711","","null","
                <div class=""stimulus-container"">
                    <img src=""images/semantic_sequence/self_care_activities_semantic/self_care_activities_semantic_3.png"" class=""exp-image"">
                    <div class=""question-area""></div> 
                </div>","null","","","","","","","","","","","",""
"","","","","","html-button-response","169","518653","0.0-169.0","9E52411BDA604A8E9DAC5C821448B462","019cfc9e-b2d9-769a-a692-9c808b2f44e3","019cfc7b-6c7b-7b1b-afe7-acad8efc6711","","370","
                <div class=""stimulus-container"">
                    <img src=""images/semantic_sequence/self_care_activities_semantic/self_care_activities_semantic_3.png"" class=""exp-image"">
                    <div class=""question-area"">
                        <p style=""font-size: 20px; font-weight: bold; margin: 0;"">Is there a person in this image?</p>
                    </div>
                </div>","0","main_experiment_trial","3","self_care_activities_semantic","semantic_sequence","chronological","","","","","","",""
"","","","","","html-keyboard-response","170","523654","0.0-170.0","9E52411BDA604A8E9DAC5C821448B462","019cfc9e-b2d9-769a-a692-9c808b2f44e3","019cfc7b-6c7b-7b1b-afe7-acad8efc6711","","null","
                <div class=""stimulus-container"">
                    <img src=""images/semantic_sequence/self_care_activities_semantic/self_care_activities_semantic_4.png"" class=""exp-image"">
                    <div class=""question-area""></div> 
                </div>","null","","","","","","","","","","","",""
"","","","","","html-button-response","171","524128","0.0-171.0","9E52411BDA604A8E9DAC5C821448B462","019cfc9e-b2d9-769a-a692-9c808b2f44e3","019cfc7b-6c7b-7b1b-afe7-acad8efc6711","","473","
                <div class=""stimulus-container"">
                    <img src=""images/semantic_sequence/self_care_activities_semantic/self_care_activities_semantic_4.png"" class=""exp-image"">
                    <div class=""question-area"">
                        <p style=""font-size: 20px; font-weight: bold; margin: 0;"">Is there a person in this image?</p>
                    </div>
                </div>","0","main_experiment_trial","4","self_care_activities_semantic","semantic_sequence","chronological","","","","","","",""
"","","","","","html-keyboard-response","172","529141","0.0-172.0","9E52411BDA604A8E9DAC5C821448B462","019cfc9e-b2d9-769a-a692-9c808b2f44e3","019cfc7b-6c7b-7b1b-afe7-acad8efc6711","","null","
                <div class=""stimulus-container"">
                    <img src=""images/semantic_sequence/self_care_activities_semantic/self_care_activities_semantic_5.png"" class=""exp-image"">
                    <div class=""question-area""></div> 
                </div>","null","","","","","","","","","","","",""
"","","","","","html-button-response","173","529609","0.0-173.0","9E52411BDA604A8E9DAC5C821448B462","019cfc9e-b2d9-769a-a692-9c808b2f44e3","019cfc7b-6c7b-7b1b-afe7-acad8efc6711","","467","
                <div class=""stimulus-container"">
                    <img src=""images/semantic_sequence/self_care_activities_semantic/self_care_activities_semantic_5.png"" class=""exp-image"">
                    <div class=""question-area"">
                        <p style=""font-size: 20px; font-weight: bold; margin: 0;"">Is there a person in this image?</p>
                    </div>
                </div>","0","main_experiment_trial","5","self_care_activities_semantic","semantic_sequence","chronological","","","","","","",""
"","","","","","html-keyboard-response","174","534613","0.0-174.0","9E52411BDA604A8E9DAC5C821448B462","019cfc9e-b2d9-769a-a692-9c808b2f44e3","019cfc7b-6c7b-7b1b-afe7-acad8efc6711","","null","
                <div class=""stimulus-container"">
                    <img src=""images/semantic_sequence/self_care_activities_semantic/self_care_activities_semantic_6.png"" class=""exp-image"">
                    <div class=""question-area""></div> 
                </div>","null","","","","","","","","","","","",""
"","","","","","html-button-response","175","537162","0.0-175.0","9E52411BDA604A8E9DAC5C821448B462","019cfc9e-b2d9-769a-a692-9c808b2f44e3","019cfc7b-6c7b-7b1b-afe7-acad8efc6711","","2548","
                <div class=""stimulus-container"">
                    <img src=""images/semantic_sequence/self_care_activities_semantic/self_care_activities_semantic_6.png"" class=""exp-image"">
                    <div class=""question-area"">
                        <p style=""font-size: 20px; font-weight: bold; margin: 0;"">Is there a person in this image?</p>
                    </div>
                </div>","1","main_experiment_trial","6","self_care_activities_semantic","semantic_sequence","chronological","","","","","","",""
"","","","","","html-keyboard-response","176","542169","0.0-176.0","9E52411BDA604A8E9DAC5C821448B462","019cfc9e-b2d9-769a-a692-9c808b2f44e3","019cfc7b-6c7b-7b1b-afe7-acad8efc6711","","null","
                <div class=""stimulus-container"">
                    <img src=""images/semantic_sequence/self_care_activities_semantic/self_care_activities_semantic_7.png"" class=""exp-image"">
