"success","timeout","failed_images","failed_audio","failed_video","trial_type","trial_index","time_elapsed","internal_node_id","subject_id","study_id","session_id","view_history","rt","stimulus","response","task","image_index","folder","valuable_image_index","reward_type","valuable_X","chosen_image_index","distance_from_X"
"false","false","[]","[]","[]","preload","0","53165","0.0-0.0","3EFE9A331E6B4EC2BA8AB84C72D42F12","019ce886-42ac-7994-9992-9530a31eb681","019ce875-66c2-7f0b-b5e8-086c75889f84","","","","","","","","","","","",""
"","","","","","instructions","1","61740","0.0-1.0","3EFE9A331E6B4EC2BA8AB84C72D42F12","019ce886-42ac-7994-9992-9530a31eb681","019ce875-66c2-7f0b-b5e8-086c75889f84","[{""page_index"":0,""viewing_time"":8573}]","8574","","","","","","","","","",""
"","","","","","instructions","2","70378","0.0-2.0","3EFE9A331E6B4EC2BA8AB84C72D42F12","019ce886-42ac-7994-9992-9530a31eb681","019ce875-66c2-7f0b-b5e8-086c75889f84","[{""page_index"":0,""viewing_time"":8637}]","8638","","","","","","","","","",""
"true","","","","","fullscreen","3","85703","0.0-3.0","3EFE9A331E6B4EC2BA8AB84C72D42F12","019ce886-42ac-7994-9992-9530a31eb681","019ce875-66c2-7f0b-b5e8-086c75889f84","","14301","","","","","","","","","",""
"","","","","","instructions","4","97816","0.0-4.0","3EFE9A331E6B4EC2BA8AB84C72D42F12","019ce886-42ac-7994-9992-9530a31eb681","019ce875-66c2-7f0b-b5e8-086c75889f84","[{""page_index"":0,""viewing_time"":12112}]","12112","","","","","","","","","",""
"","","","","","instructions","5","112369","0.0-5.0","3EFE9A331E6B4EC2BA8AB84C72D42F12","019ce886-42ac-7994-9992-9530a31eb681","019ce875-66c2-7f0b-b5e8-086c75889f84","[{""page_index"":0,""viewing_time"":14552}]","14552","","","","","","","","","",""
"","","","","","html-keyboard-response","6","116371","0.0-6.0","3EFE9A331E6B4EC2BA8AB84C72D42F12","019ce886-42ac-7994-9992-9530a31eb681","019ce875-66c2-7f0b-b5e8-086c75889f84","","null","
                <div class=""stimulus-container"">
                    <img src=""images/instructions/movie_1.png"" class=""exp-image"">
                    <div class=""question-area""></div> 
                </div>","null","","","","","","","",""
"","","","","","html-button-response","7","119386","0.0-7.0","3EFE9A331E6B4EC2BA8AB84C72D42F12","019ce886-42ac-7994-9992-9530a31eb681","019ce875-66c2-7f0b-b5e8-086c75889f84","","null","
                <div class=""stimulus-container"">
                    <img src=""images/instructions/movie_1.png"" class=""exp-image"">
                    <div class=""question-area"">
                        <p style=""font-size: 20px; font-weight: bold; margin: 0;"">Was there a person in this image?</p>
                    </div>
                </div>","null","example_question","1","","","","","",""
"","","","","","html-keyboard-response","8","123397","0.0-8.0","3EFE9A331E6B4EC2BA8AB84C72D42F12","019ce886-42ac-7994-9992-9530a31eb681","019ce875-66c2-7f0b-b5e8-086c75889f84","","null","
                <div class=""stimulus-container"">
                    <img src=""images/instructions/movie_2.png"" class=""exp-image"">
                    <div class=""question-area""></div> 
                </div>","null","","","","","","","",""
"","","","","","html-button-response","9","125180","0.0-9.0","3EFE9A331E6B4EC2BA8AB84C72D42F12","019ce886-42ac-7994-9992-9530a31eb681","019ce875-66c2-7f0b-b5e8-086c75889f84","","1781","
                <div class=""stimulus-container"">
                    <img src=""images/instructions/movie_2.png"" class=""exp-image"">
                    <div class=""question-area"">
                        <p style=""font-size: 20px; font-weight: bold; margin: 0;"">Was there a person in this image?</p>
                    </div>
                </div>","0","example_question","2","","","","","",""
"","","","","","html-keyboard-response","10","129190","0.0-10.0","3EFE9A331E6B4EC2BA8AB84C72D42F12","019ce886-42ac-7994-9992-9530a31eb681","019ce875-66c2-7f0b-b5e8-086c75889f84","","null","
                <div class=""stimulus-container"">
                    <img src=""images/instructions/movie_3.png"" class=""exp-image"">
                    <div class=""question-area""></div> 
                </div>","null","","","","","","","",""
"","","","","","html-button-response","11","129855","0.0-11.0","3EFE9A331E6B4EC2BA8AB84C72D42F12","019ce886-42ac-7994-9992-9530a31eb681","019ce875-66c2-7f0b-b5e8-086c75889f84","","664","
                <div class=""stimulus-container"">
                    <img src=""images/instructions/movie_3.png"" class=""exp-image"">
                    <div class=""question-area"">
                        <p style=""font-size: 20px; font-weight: bold; margin: 0;"">Was there a person in this image?</p>
                    </div>
                </div>","0","example_question","3","","","","","",""
"","","","","","html-keyboard-response","12","133860","0.0-12.0","3EFE9A331E6B4EC2BA8AB84C72D42F12","019ce886-42ac-7994-9992-9530a31eb681","019ce875-66c2-7f0b-b5e8-086c75889f84","","null","
                <div class=""stimulus-container"">
                    <img src=""images/instructions/movie_4.png"" class=""exp-image"">
                    <div class=""question-area""></div> 
                </div>","null","","","","","","","",""
"","","","","","html-button-response","13","134557","0.0-13.0","3EFE9A331E6B4EC2BA8AB84C72D42F12","019ce886-42ac-7994-9992-9530a31eb681","019ce875-66c2-7f0b-b5e8-086c75889f84","","695","
                <div class=""stimulus-container"">
                    <img src=""images/instructions/movie_4.png"" class=""exp-image"">
                    <div class=""question-area"">
                        <p style=""font-size: 20px; font-weight: bold; margin: 0;"">Was there a person in this image?</p>
                    </div>
                </div>","0","example_question","4","","","","","",""
"","","","","","instructions","14","137248","0.0-14.0","3EFE9A331E6B4EC2BA8AB84C72D42F12","019ce886-42ac-7994-9992-9530a31eb681","019ce875-66c2-7f0b-b5e8-086c75889f84","[{""page_index"":0,""viewing_time"":2691}]","2691","","","","","","","","","",""
"","","","","","html-keyboard-response","15","138250","0.0-15.0","3EFE9A331E6B4EC2BA8AB84C72D42F12","019ce886-42ac-7994-9992-9530a31eb681","019ce875-66c2-7f0b-b5e8-086c75889f84","","null","<div style=""background-color: gray; width: 100vw; height: 100vh;""></div>","null","","","","","","","",""
"","","","","","html-keyboard-response","16","143265","0.0-16.0","3EFE9A331E6B4EC2BA8AB84C72D42F12","019ce886-42ac-7994-9992-9530a31eb681","019ce875-66c2-7f0b-b5e8-086c75889f84","","null","
                    <div class=""stimulus-container"">
                        <img src=""images/causal_sequence/saving_a_cat_causal/saving_a_cat_causal_1.png"" class=""exp-image"">
                        <div class=""question-area""></div> 
                    </div>","null","","","","","","","",""
"","","","","","html-button-response","17","144486","0.0-17.0","3EFE9A331E6B4EC2BA8AB84C72D42F12","019ce886-42ac-7994-9992-9530a31eb681","019ce875-66c2-7f0b-b5e8-086c75889f84","","1220","
                    <div class=""stimulus-container"">
                        <img src=""images/causal_sequence/saving_a_cat_causal/saving_a_cat_causal_1.png"" class=""exp-image"">
                        <div class=""question-area"">
                            <p style=""font-size: 20px; font-weight: bold; margin: 0;"">Is there a person in this image?</p>
                        </div>
                    </div>","0","main_causal_task","1","saving_a_cat_causal","","","","",""
"","","","","","html-keyboard-response","18","149500","0.0-18.0","3EFE9A331E6B4EC2BA8AB84C72D42F12","019ce886-42ac-7994-9992-9530a31eb681","019ce875-66c2-7f0b-b5e8-086c75889f84","","null","
                    <div class=""stimulus-container"">
                        <img src=""images/causal_sequence/saving_a_cat_causal/saving_a_cat_causal_2.png"" class=""exp-image"">
                        <div class=""question-area""></div> 
                    </div>","null","","","","","","","",""
"","","","","","html-button-response","19","150635","0.0-19.0","3EFE9A331E6B4EC2BA8AB84C72D42F12","019ce886-42ac-7994-9992-9530a31eb681","019ce875-66c2-7f0b-b5e8-086c75889f84","","1134","
                    <div class=""stimulus-container"">
                        <img src=""images/causal_sequence/saving_a_cat_causal/saving_a_cat_causal_2.png"" class=""exp-image"">
                        <div class=""question-area"">
                            <p style=""font-size: 20px; font-weight: bold; margin: 0;"">Is there a person in this image?</p>
                        </div>
                    </div>","1","main_causal_task","2","saving_a_cat_causal","","","","",""
"","","","","","html-keyboard-response","20","155640","0.0-20.0","3EFE9A331E6B4EC2BA8AB84C72D42F12","019ce886-42ac-7994-9992-9530a31eb681","019ce875-66c2-7f0b-b5e8-086c75889f84","","null","
                    <div class=""stimulus-container"">
                        <img src=""images/causal_sequence/saving_a_cat_causal/saving_a_cat_causal_3.png"" class=""exp-image"">
                        <div class=""question-area""></div> 
                    </div>","null","","","","","","","",""
"","","","","","html-button-response","21","157085","0.0-21.0","3EFE9A331E6B4EC2BA8AB84C72D42F12","019ce886-42ac-7994-9992-9530a31eb681","019ce875-66c2-7f0b-b5e8-086c75889f84","","1443","
                    <div class=""stimulus-container"">
                        <img src=""images/causal_sequence/saving_a_cat_causal/saving_a_cat_causal_3.png"" class=""exp-image"">
                        <div class=""question-area"">
                            <p style=""font-size: 20px; font-weight: bold; margin: 0;"">Is there a person in this image?</p>
                        </div>
                    </div>","1","main_causal_task","3","saving_a_cat_causal","","","","",""
"","","","","","html-keyboard-response","22","162087","0.0-22.0","3EFE9A331E6B4EC2BA8AB84C72D42F12","019ce886-42ac-7994-9992-9530a31eb681","019ce875-66c2-7f0b-b5e8-086c75889f84","","null","
                    <div class=""stimulus-container"">
                        <img src=""images/causal_sequence/saving_a_cat_causal/saving_a_cat_causal_4.png"" class=""exp-image"">
                        <div class=""question-area""></div> 
                    </div>","null","","","","","","","",""
"","","","","","html-button-response","23","163150","0.0-23.0","3EFE9A331E6B4EC2BA8AB84C72D42F12","019ce886-42ac-7994-9992-9530a31eb681","019ce875-66c2-7f0b-b5e8-086c75889f84","","1063","
                    <div class=""stimulus-container"">
                        <img src=""images/causal_sequence/saving_a_cat_causal/saving_a_cat_causal_4.png"" class=""exp-image"">
                        <div class=""question-area"">
                            <p style=""font-size: 20px; font-weight: bold; margin: 0;"">Is there a person in this image?</p>
                        </div>
                    </div>","0","main_causal_task","4","saving_a_cat_causal","","","","",""
"","","","","","html-keyboard-response","24","168174","0.0-24.0","3EFE9A331E6B4EC2BA8AB84C72D42F12","019ce886-42ac-7994-9992-9530a31eb681","019ce875-66c2-7f0b-b5e8-086c75889f84","","null","
                    <div class=""stimulus-container"">
                        <img src=""images/causal_sequence/saving_a_cat_causal/saving_a_cat_causal_5.png"" class=""exp-image"">
                        <div class=""question-area""></div> 
                    </div>","null","","","","","","","",""
"","","","","","html-button-response","25","169610","0.0-25.0","3EFE9A331E6B4EC2BA8AB84C72D42F12","019ce886-42ac-7994-9992-9530a31eb681","019ce875-66c2-7f0b-b5e8-086c75889f84","","1435","
                    <div class=""stimulus-container"">
                        <img src=""images/causal_sequence/saving_a_cat_causal/saving_a_cat_causal_5.png"" class=""exp-image"">
                        <div class=""question-area"">
                            <p style=""font-size: 20px; font-weight: bold; margin: 0;"">Is there a person in this image?</p>
                        </div>
                    </div>","0","main_causal_task","5","saving_a_cat_causal","","","","",""
"","","","","","html-keyboard-response","26","174619","0.0-26.0","3EFE9A331E6B4EC2BA8AB84C72D42F12","019ce886-42ac-7994-9992-9530a31eb681","019ce875-66c2-7f0b-b5e8-086c75889f84","","null","
                    <div class=""stimulus-container"">
                        <img src=""images/causal_sequence/saving_a_cat_causal/saving_a_cat_causal_6.png"" class=""exp-image"">
                        <div class=""question-area""></div> 
                    </div>","null","","","","","","","",""
"","","","","","html-button-response","27","175536","0.0-27.0","3EFE9A331E6B4EC2BA8AB84C72D42F12","019ce886-42ac-7994-9992-9530a31eb681","019ce875-66c2-7f0b-b5e8-086c75889f84","","916","
                    <div class=""stimulus-container"">
                        <img src=""images/causal_sequence/saving_a_cat_causal/saving_a_cat_causal_6.png"" class=""exp-image"">
                        <div class=""question-area"">
                            <p style=""font-size: 20px; font-weight: bold; margin: 0;"">Is there a person in this image?</p>
                        </div>
                    </div>","0","main_causal_task","6","saving_a_cat_causal","","","","",""
"","","","","","html-keyboard-response","28","180548","0.0-28.0","3EFE9A331E6B4EC2BA8AB84C72D42F12","019ce886-42ac-7994-9992-9530a31eb681","019ce875-66c2-7f0b-b5e8-086c75889f84","","null","
                    <div class=""stimulus-container"">
                        <img src=""images/causal_sequence/saving_a_cat_causal/saving_a_cat_causal_7.png"" class=""exp-image"">
                        <div class=""question-area""></div> 
                    </div>","null","","","","","","","",""
"","","","","","html-button-response","29","181302","0.0-29.0","3EFE9A331E6B4EC2BA8AB84C72D42F12","019ce886-42ac-7994-9992-9530a31eb681","019ce875-66c2-7f0b-b5e8-086c75889f84","","753","
                    <div class=""stimulus-container"">
                        <img src=""images/causal_sequence/saving_a_cat_causal/saving_a_cat_causal_7.png"" class=""exp-image"">
                        <div class=""question-area"">
                            <p style=""font-size: 20px; font-weight: bold; margin: 0;"">Is there a person in this image?</p>
                        </div>
                    </div>","0","main_causal_task","7","saving_a_cat_causal","","","","",""
"","","","","","html-keyboard-response","30","186304","0.0-30.0","3EFE9A331E6B4EC2BA8AB84C72D42F12","019ce886-42ac-7994-9992-9530a31eb681","019ce875-66c2-7f0b-b5e8-086c75889f84","","null","
                    <div class=""stimulus-container"">
                        <img src=""images/causal_sequence/saving_a_cat_causal/saving_a_cat_causal_8.png"" class=""exp-image"">
                        <div class=""question-area""></div> 
                    </div>","null","","","","","","","",""
"","","","","","html-button-response","31","187881","0.0-31.0","3EFE9A331E6B4EC2BA8AB84C72D42F12","019ce886-42ac-7994-9992-9530a31eb681","019ce875-66c2-7f0b-b5e8-086c75889f84","","1576","
                    <div class=""stimulus-container"">
                        <img src=""images/causal_sequence/saving_a_cat_causal/saving_a_cat_causal_8.png"" class=""exp-image"">
                        <div class=""question-area"">
                            <p style=""font-size: 20px; font-weight: bold; margin: 0;"">Is there a person in this image?</p>
                        </div>
                    </div>","0","main_causal_task","8","saving_a_cat_causal","","","","",""
"","","","","","html-keyboard-response","32","192895","0.0-32.0","3EFE9A331E6B4EC2BA8AB84C72D42F12","019ce886-42ac-7994-9992-9530a31eb681","019ce875-66c2-7f0b-b5e8-086c75889f84","","null","
                    <div class=""stimulus-container"">
                        <img src=""images/causal_sequence/saving_a_cat_causal/saving_a_cat_causal_9.png"" class=""exp-image"">
                        <div class=""question-area""></div> 
                    </div>","null","","","","","","","",""
"","","","","","html-button-response","33","194411","0.0-33.0","3EFE9A331E6B4EC2BA8AB84C72D42F12","019ce886-42ac-7994-9992-9530a31eb681","019ce875-66c2-7f0b-b5e8-086c75889f84","","1515","
                    <div class=""stimulus-container"">
                        <img src=""images/causal_sequence/saving_a_cat_causal/saving_a_cat_causal_9.png"" class=""exp-image"">
                        <div class=""question-area"">
                            <p style=""font-size: 20px; font-weight: bold; margin: 0;"">Is there a person in this image?</p>
                        </div>
                    </div>","0","main_causal_task","9","saving_a_cat_causal","","","","",""
"","","","","","html-keyboard-response","34","195415","0.0-34.0","3EFE9A331E6B4EC2BA8AB84C72D42F12","019ce886-42ac-7994-9992-9530a31eb681","019ce875-66c2-7f0b-b5e8-086c75889f84","","null","<div style=""background-color: gray; width: 100vw; height: 100vh;""></div>","null","","","","","","","",""
"","","","","","html-keyboard-response","35","200431","0.0-35.0","3EFE9A331E6B4EC2BA8AB84C72D42F12","019ce886-42ac-7994-9992-9530a31eb681","019ce875-66c2-7f0b-b5e8-086c75889f84","","null","
                    <div class=""stimulus-container"">
                        <img src=""images/causal_sequence/package_causal/package_causal_1.png"" class=""exp-image"">
                        <div class=""question-area""></div> 
                    </div>","null","","","","","","","",""
"","","","","","html-button-response","36","201675","0.0-36.0","3EFE9A331E6B4EC2BA8AB84C72D42F12","019ce886-42ac-7994-9992-9530a31eb681","019ce875-66c2-7f0b-b5e8-086c75889f84","","1242","
                    <div class=""stimulus-container"">
                        <img src=""images/causal_sequence/package_causal/package_causal_1.png"" class=""exp-image"">
                        <div class=""question-area"">
                            <p style=""font-size: 20px; font-weight: bold; margin: 0;"">Is there a person in this image?</p>
                        </div>
                    </div>","0","main_causal_task","1","package_causal","","","","",""
"","","","","","html-keyboard-response","37","206692","0.0-37.0","3EFE9A331E6B4EC2BA8AB84C72D42F12","019ce886-42ac-7994-9992-9530a31eb681","019ce875-66c2-7f0b-b5e8-086c75889f84","","null","
                    <div class=""stimulus-container"">
                        <img src=""images/causal_sequence/package_causal/package_causal_2.png"" class=""exp-image"">
                        <div class=""question-area""></div> 
                    </div>","null","","","","","","","",""
"","","","","","html-button-response","38","209263","0.0-38.0","3EFE9A331E6B4EC2BA8AB84C72D42F12","019ce886-42ac-7994-9992-9530a31eb681","019ce875-66c2-7f0b-b5e8-086c75889f84","","2570","
                    <div class=""stimulus-container"">
                        <img src=""images/causal_sequence/package_causal/package_causal_2.png"" class=""exp-image"">
                        <div class=""question-area"">
                            <p style=""font-size: 20px; font-weight: bold; margin: 0;"">Is there a person in this image?</p>
                        </div>
                    </div>","0","main_causal_task","2","package_causal","","","","",""
"","","","","","html-keyboard-response","39","214278","0.0-39.0","3EFE9A331E6B4EC2BA8AB84C72D42F12","019ce886-42ac-7994-9992-9530a31eb681","019ce875-66c2-7f0b-b5e8-086c75889f84","","null","
                    <div class=""stimulus-container"">
                        <img src=""images/causal_sequence/package_causal/package_causal_3.png"" class=""exp-image"">
                        <div class=""question-area""></div> 
                    </div>","null","","","","","","","",""
"","","","","","html-button-response","40","217296","0.0-40.0","3EFE9A331E6B4EC2BA8AB84C72D42F12","019ce886-42ac-7994-9992-9530a31eb681","019ce875-66c2-7f0b-b5e8-086c75889f84","","null","
                    <div class=""stimulus-container"">
                        <img src=""images/causal_sequence/package_causal/package_causal_3.png"" class=""exp-image"">
                        <div class=""question-area"">
                            <p style=""font-size: 20px; font-weight: bold; margin: 0;"">Is there a person in this image?</p>
                        </div>
                    </div>","null","main_causal_task","3","package_causal","","","","",""
"","","","","","html-keyboard-response","41","222301","0.0-41.0","3EFE9A331E6B4EC2BA8AB84C72D42F12","019ce886-42ac-7994-9992-9530a31eb681","019ce875-66c2-7f0b-b5e8-086c75889f84","","null","
                    <div class=""stimulus-container"">
                        <img src=""images/causal_sequence/package_causal/package_causal_4.png"" class=""exp-image"">
                        <div class=""question-area""></div> 
                    </div>","null","","","","","","","",""
"","","","","","html-button-response","42","223806","0.0-42.0","3EFE9A331E6B4EC2BA8AB84C72D42F12","019ce886-42ac-7994-9992-9530a31eb681","019ce875-66c2-7f0b-b5e8-086c75889f84","","1504","
                    <div class=""stimulus-container"">
                        <img src=""images/causal_sequence/package_causal/package_causal_4.png"" class=""exp-image"">
                        <div class=""question-area"">
                            <p style=""font-size: 20px; font-weight: bold; margin: 0;"">Is there a person in this image?</p>
                        </div>
                    </div>","1","main_causal_task","4","package_causal","","","","",""
"","","","","","html-keyboard-response","43","228824","0.0-43.0","3EFE9A331E6B4EC2BA8AB84C72D42F12","019ce886-42ac-7994-9992-9530a31eb681","019ce875-66c2-7f0b-b5e8-086c75889f84","","null","
                    <div class=""stimulus-container"">
                        <img src=""images/causal_sequence/package_causal/package_causal_5.png"" class=""exp-image"">
                        <div class=""question-area""></div> 
                    </div>","null","","","","","","","",""
"","","","","","html-button-response","44","230351","0.0-44.0","3EFE9A331E6B4EC2BA8AB84C72D42F12","019ce886-42ac-7994-9992-9530a31eb681","019ce875-66c2-7f0b-b5e8-086c75889f84","","1527","
                    <div class=""stimulus-container"">
                        <img src=""images/causal_sequence/package_causal/package_causal_5.png"" class=""exp-image"">
                        <div class=""question-area"">
                            <p style=""font-size: 20px; font-weight: bold; margin: 0;"">Is there a person in this image?</p>
                        </div>
                    </div>","0","main_causal_task","5","package_causal","","","","",""
"","","","","","html-keyboard-response","45","235364","0.0-45.0","3EFE9A331E6B4EC2BA8AB84C72D42F12","019ce886-42ac-7994-9992-9530a31eb681","019ce875-66c2-7f0b-b5e8-086c75889f84","","null","
                    <div class=""stimulus-container"">
                        <img src=""images/causal_sequence/package_causal/package_causal_6.png"" class=""exp-image"">
                        <div class=""question-area""></div> 
                    </div>","null","","","","","","","",""
"","","","","","html-button-response","46","237102","0.0-46.0","3EFE9A331E6B4EC2BA8AB84C72D42F12","019ce886-42ac-7994-9992-9530a31eb681","019ce875-66c2-7f0b-b5e8-086c75889f84","","1736","
                    <div class=""stimulus-container"">
                        <img src=""images/causal_sequence/package_causal/package_causal_6.png"" class=""exp-image"">
                        <div class=""question-area"">
                            <p style=""font-size: 20px; font-weight: bold; margin: 0;"">Is there a person in this image?</p>
                        </div>
                    </div>","0","main_causal_task","6","package_causal","","","","",""
"","","","","","html-keyboard-response","47","242104","0.0-47.0","3EFE9A331E6B4EC2BA8AB84C72D42F12","019ce886-42ac-7994-9992-9530a31eb681","019ce875-66c2-7f0b-b5e8-086c75889f84","","null","
                    <div class=""stimulus-container"">
                        <img src=""images/causal_sequence/package_causal/package_causal_7.png"" class=""exp-image"">
                        <div class=""question-area""></div> 
                    </div>","null","","","","","","","",""
"","","","","","html-button-response","48","244468","0.0-48.0","3EFE9A331E6B4EC2BA8AB84C72D42F12","019ce886-42ac-7994-9992-9530a31eb681","019ce875-66c2-7f0b-b5e8-086c75889f84","","2363","
                    <div class=""stimulus-container"">
                        <img src=""images/causal_sequence/package_causal/package_causal_7.png"" class=""exp-image"">
                        <div class=""question-area"">
                            <p style=""font-size: 20px; font-weight: bold; margin: 0;"">Is there a person in this image?</p>
                        </div>
                    </div>","0","main_causal_task","7","package_causal","","","","",""
"","","","","","html-keyboard-response","49","249484","0.0-49.0","3EFE9A331E6B4EC2BA8AB84C72D42F12","019ce886-42ac-7994-9992-9530a31eb681","019ce875-66c2-7f0b-b5e8-086c75889f84","","null","
                    <div class=""stimulus-container"">
                        <img src=""images/causal_sequence/package_causal/package_causal_8.png"" class=""exp-image"">
                        <div class=""question-area""></div> 
                    </div>","null","","","","","","","",""
"","","","","","html-button-response","50","250735","0.0-50.0","3EFE9A331E6B4EC2BA8AB84C72D42F12","019ce886-42ac-7994-9992-9530a31eb681","019ce875-66c2-7f0b-b5e8-086c75889f84","","1250","
                    <div class=""stimulus-container"">
                        <img src=""images/causal_sequence/package_causal/package_causal_8.png"" class=""exp-image"">
                        <div class=""question-area"">
                            <p style=""font-size: 20px; font-weight: bold; margin: 0;"">Is there a person in this image?</p>
                        </div>
                    </div>","0","main_causal_task","8","package_causal","","","","",""
"","","","","","html-keyboard-response","51","255746","0.0-51.0","3EFE9A331E6B4EC2BA8AB84C72D42F12","019ce886-42ac-7994-9992-9530a31eb681","019ce875-66c2-7f0b-b5e8-086c75889f84","","null","
                    <div class=""stimulus-container"">
                        <img src=""images/causal_sequence/package_causal/package_causal_9.png"" class=""exp-image"">
                        <div class=""question-area""></div> 
                    </div>","null","","","","","","","",""
"","","","","","html-button-response","52","257345","0.0-52.0","3EFE9A331E6B4EC2BA8AB84C72D42F12","019ce886-42ac-7994-9992-9530a31eb681","019ce875-66c2-7f0b-b5e8-086c75889f84","","1597","
                    <div class=""stimulus-container"">
                        <img src=""images/causal_sequence/package_causal/package_causal_9.png"" class=""exp-image"">
                        <div class=""question-area"">
                            <p style=""font-size: 20px; font-weight: bold; margin: 0;"">Is there a person in this image?</p>
                        </div>
                    </div>","0","main_causal_task","9","package_causal","","","","",""
"","","","","","html-keyboard-response","53","258358","0.0-53.0","3EFE9A331E6B4EC2BA8AB84C72D42F12","019ce886-42ac-7994-9992-9530a31eb681","019ce875-66c2-7f0b-b5e8-086c75889f84","","null","<div style=""background-color: gray; width: 100vw; height: 100vh;""></div>","null","","","","","","","",""
"","","","","","html-keyboard-response","54","263366","0.0-54.0","3EFE9A331E6B4EC2BA8AB84C72D42F12","019ce886-42ac-7994-9992-9530a31eb681","019ce875-66c2-7f0b-b5e8-086c75889f84","","null","
                    <div class=""stimulus-container"">
                        <img src=""images/causal_sequence/the_performance_causal/the_performance_causal_1.png"" class=""exp-image"">
                        <div class=""question-area""></div> 
                    </div>","null","","","","","","","",""
"","","","","","html-button-response","55","264327","0.0-55.0","3EFE9A331E6B4EC2BA8AB84C72D42F12","019ce886-42ac-7994-9992-9530a31eb681","019ce875-66c2-7f0b-b5e8-086c75889f84","","959","
                    <div class=""stimulus-container"">
                        <img src=""images/causal_sequence/the_performance_causal/the_performance_causal_1.png"" class=""exp-image"">
                        <div class=""question-area"">
                            <p style=""font-size: 20px; font-weight: bold; margin: 0;"">Is there a person in this image?</p>
                        </div>
                    </div>","0","main_causal_task","1","the_performance_causal","","","","",""
"","","","","","html-keyboard-response","56","269328","0.0-56.0","3EFE9A331E6B4EC2BA8AB84C72D42F12","019ce886-42ac-7994-9992-9530a31eb681","019ce875-66c2-7f0b-b5e8-086c75889f84","","null","
                    <div class=""stimulus-container"">
                        <img src=""images/causal_sequence/the_performance_causal/the_performance_causal_2.png"" class=""exp-image"">
                        <div class=""question-area""></div> 
                    </div>","null","","","","","","","",""
"","","","","","html-button-response","57","270454","0.0-57.0","3EFE9A331E6B4EC2BA8AB84C72D42F12","019ce886-42ac-7994-9992-9530a31eb681","019ce875-66c2-7f0b-b5e8-086c75889f84","","1125","
                    <div class=""stimulus-container"">
                        <img src=""images/causal_sequence/the_performance_causal/the_performance_causal_2.png"" class=""exp-image"">
                        <div class=""question-area"">
                            <p style=""font-size: 20px; font-weight: bold; margin: 0;"">Is there a person in this image?</p>
                        </div>
                    </div>","0","main_causal_task","2","the_performance_causal","","","","",""
"","","","","","html-keyboard-response","58","275460","0.0-58.0","3EFE9A331E6B4EC2BA8AB84C72D42F12","019ce886-42ac-7994-9992-9530a31eb681","019ce875-66c2-7f0b-b5e8-086c75889f84","","null","
                    <div class=""stimulus-container"">
                        <img src=""images/causal_sequence/the_performance_causal/the_performance_causal_3.png"" class=""exp-image"">
                        <div class=""question-area""></div> 
                    </div>","null","","","","","","","",""
"","","","","","html-button-response","59","276207","0.0-59.0","3EFE9A331E6B4EC2BA8AB84C72D42F12","019ce886-42ac-7994-9992-9530a31eb681","019ce875-66c2-7f0b-b5e8-086c75889f84","","745","
                    <div class=""stimulus-container"">
                        <img src=""images/causal_sequence/the_performance_causal/the_performance_causal_3.png"" class=""exp-image"">
                        <div class=""question-area"">
                            <p style=""font-size: 20px; font-weight: bold; margin: 0;"">Is there a person in this image?</p>
                        </div>
                    </div>","0","main_causal_task","3","the_performance_causal","","","","",""
"","","","","","html-keyboard-response","60","281210","0.0-60.0","3EFE9A331E6B4EC2BA8AB84C72D42F12","019ce886-42ac-7994-9992-9530a31eb681","019ce875-66c2-7f0b-b5e8-086c75889f84","","null","
                    <div class=""stimulus-container"">
                        <img src=""images/causal_sequence/the_performance_causal/the_performance_causal_4.png"" class=""exp-image"">
                        <div class=""question-area""></div> 
                    </div>","null","","","","","","","",""
"","","","","","html-button-response","61","281967","0.0-61.0","3EFE9A331E6B4EC2BA8AB84C72D42F12","019ce886-42ac-7994-9992-9530a31eb681","019ce875-66c2-7f0b-b5e8-086c75889f84","","755","
                    <div class=""stimulus-container"">
                        <img src=""images/causal_sequence/the_performance_causal/the_performance_causal_4.png"" class=""exp-image"">
                        <div class=""question-area"">
                            <p style=""font-size: 20px; font-weight: bold; margin: 0;"">Is there a person in this image?</p>
                        </div>
                    </div>","0","main_causal_task","4","the_performance_causal","","","","",""
"","","","","","html-keyboard-response","62","286977","0.0-62.0","3EFE9A331E6B4EC2BA8AB84C72D42F12","019ce886-42ac-7994-9992-9530a31eb681","019ce875-66c2-7f0b-b5e8-086c75889f84","","null","
                    <div class=""stimulus-container"">
                        <img src=""images/causal_sequence/the_performance_causal/the_performance_causal_5.png"" class=""exp-image"">
                        <div class=""question-area""></div> 
                    </div>","null","","","","","","","",""
"","","","","","html-button-response","63","287780","0.0-63.0","3EFE9A331E6B4EC2BA8AB84C72D42F12","019ce886-42ac-7994-9992-9530a31eb681","019ce875-66c2-7f0b-b5e8-086c75889f84","","801","
                    <div class=""stimulus-container"">
                        <img src=""images/causal_sequence/the_performance_causal/the_performance_causal_5.png"" class=""exp-image"">
                        <div class=""question-area"">
                            <p style=""font-size: 20px; font-weight: bold; margin: 0;"">Is there a person in this image?</p>
                        </div>
                    </div>","0","main_causal_task","5","the_performance_causal","","","","",""
"","","","","","html-keyboard-response","64","292787","0.0-64.0","3EFE9A331E6B4EC2BA8AB84C72D42F12","019ce886-42ac-7994-9992-9530a31eb681","019ce875-66c2-7f0b-b5e8-086c75889f84","","null","
                    <div class=""stimulus-container"">
                        <img src=""images/causal_sequence/the_performance_causal/the_performance_causal_6.png"" class=""exp-image"">
                        <div class=""question-area""></div> 
                    </div>","null","","","","","","","",""
"","","","","","html-button-response","65","293909","0.0-65.0","3EFE9A331E6B4EC2BA8AB84C72D42F12","019ce886-42ac-7994-9992-9530a31eb681","019ce875-66c2-7f0b-b5e8-086c75889f84","","1120","
                    <div class=""stimulus-container"">
                        <img src=""images/causal_sequence/the_performance_causal/the_performance_causal_6.png"" class=""exp-image"">
                        <div class=""question-area"">
                            <p style=""font-size: 20px; font-weight: bold; margin: 0;"">Is there a person in this image?</p>
                        </div>
                    </div>","0","main_causal_task","6","the_performance_causal","","","","",""
"","","","","","html-keyboard-response","66","298915","0.0-66.0","3EFE9A331E6B4EC2BA8AB84C72D42F12","019ce886-42ac-7994-9992-9530a31eb681","019ce875-66c2-7f0b-b5e8-086c75889f84","","null","
                    <div class=""stimulus-container"">
                        <img src=""images/causal_sequence/the_performance_causal/the_performance_causal_7.png"" class=""exp-image"">
                        <div class=""question-area""></div> 
                    </div>","null","","","","","","","",""
"","","","","","html-button-response","67","300022","0.0-67.0","3EFE9A331E6B4EC2BA8AB84C72D42F12","019ce886-42ac-7994-9992-9530a31eb681","019ce875-66c2-7f0b-b5e8-086c75889f84","","1105","
                    <div class=""stimulus-container"">
                        <img src=""images/causal_sequence/the_performance_causal/the_performance_causal_7.png"" class=""exp-image"">
                        <div class=""question-area"">
                            <p style=""font-size: 20px; font-weight: bold; margin: 0;"">Is there a person in this image?</p>
                        </div>
                    </div>","0","main_causal_task","7","the_performance_causal","","","","",""
"","","","","","html-keyboard-response","68","305028","0.0-68.0","3EFE9A331E6B4EC2BA8AB84C72D42F12","019ce886-42ac-7994-9992-9530a31eb681","019ce875-66c2-7f0b-b5e8-086c75889f84","","null","
                    <div class=""stimulus-container"">
                        <img src=""images/causal_sequence/the_performance_causal/the_performance_causal_8.png"" class=""exp-image"">
                        <div class=""question-area""></div> 
                    </div>","null","","","","","","","",""
"","","","","","html-button-response","69","306261","0.0-69.0","3EFE9A331E6B4EC2BA8AB84C72D42F12","019ce886-42ac-7994-9992-9530a31eb681","019ce875-66c2-7f0b-b5e8-086c75889f84","","1232","
                    <div class=""stimulus-container"">
                        <img src=""images/causal_sequence/the_performance_causal/the_performance_causal_8.png"" class=""exp-image"">
                        <div class=""question-area"">
                            <p style=""font-size: 20px; font-weight: bold; margin: 0;"">Is there a person in this image?</p>
                        </div>
                    </div>","0","main_causal_task","8","the_performance_causal","","","","",""
"","","","","","html-keyboard-response","70","311266","0.0-70.0","3EFE9A331E6B4EC2BA8AB84C72D42F12","019ce886-42ac-7994-9992-9530a31eb681","019ce875-66c2-7f0b-b5e8-086c75889f84","","null","
                    <div class=""stimulus-container"">
                        <img src=""images/causal_sequence/the_performance_causal/the_performance_causal_9.png"" class=""exp-image"">
                        <div class=""question-area""></div> 
                    </div>","null","","","","","","","",""
"","","","","","html-button-response","71","313013","0.0-71.0","3EFE9A331E6B4EC2BA8AB84C72D42F12","019ce886-42ac-7994-9992-9530a31eb681","019ce875-66c2-7f0b-b5e8-086c75889f84","","1746","
                    <div class=""stimulus-container"">
                        <img src=""images/causal_sequence/the_performance_causal/the_performance_causal_9.png"" class=""exp-image"">
                        <div class=""question-area"">
                            <p style=""font-size: 20px; font-weight: bold; margin: 0;"">Is there a person in this image?</p>
                        </div>
                    </div>","0","main_causal_task","9","the_performance_causal","","","","",""
"","","","","","html-keyboard-response","72","314036","0.0-72.0","3EFE9A331E6B4EC2BA8AB84C72D42F12","019ce886-42ac-7994-9992-9530a31eb681","019ce875-66c2-7f0b-b5e8-086c75889f84","","null","<div style=""background-color: gray; width: 100vw; height: 100vh;""></div>","null","","","","","","","",""
"","","","","","html-keyboard-response","73","319044","0.0-73.0","3EFE9A331E6B4EC2BA8AB84C72D42F12","019ce886-42ac-7994-9992-9530a31eb681","019ce875-66c2-7f0b-b5e8-086c75889f84","","null","
                    <div class=""stimulus-container"">
                        <img src=""images/causal_sequence/museum_causal/museum_causal_1.png"" class=""exp-image"">
                        <div class=""question-area""></div> 
                    </div>","null","","","","","","","",""
"","","","","","html-button-response","74","319894","0.0-74.0","3EFE9A331E6B4EC2BA8AB84C72D42F12","019ce886-42ac-7994-9992-9530a31eb681","019ce875-66c2-7f0b-b5e8-086c75889f84","","848","
                    <div class=""stimulus-container"">
                        <img src=""images/causal_sequence/museum_causal/museum_causal_1.png"" class=""exp-image"">
                        <div class=""question-area"">
                            <p style=""font-size: 20px; font-weight: bold; margin: 0;"">Is there a person in this image?</p>
                        </div>
                    </div>","0","main_causal_task","1","museum_causal","","","","",""
"","","","","","html-keyboard-response","75","324904","0.0-75.0","3EFE9A331E6B4EC2BA8AB84C72D42F12","019ce886-42ac-7994-9992-9530a31eb681","019ce875-66c2-7f0b-b5e8-086c75889f84","","null","
                    <div class=""stimulus-container"">
                        <img src=""images/causal_sequence/museum_causal/museum_causal_2.png"" class=""exp-image"">
                        <div class=""question-area""></div> 
                    </div>","null","","","","","","","",""
"","","","","","html-button-response","76","327010","0.0-76.0","3EFE9A331E6B4EC2BA8AB84C72D42F12","019ce886-42ac-7994-9992-9530a31eb681","019ce875-66c2-7f0b-b5e8-086c75889f84","","2105","
                    <div class=""stimulus-container"">
                        <img src=""images/causal_sequence/museum_causal/museum_causal_2.png"" class=""exp-image"">
                        <div class=""question-area"">
                            <p style=""font-size: 20px; font-weight: bold; margin: 0;"">Is there a person in this image?</p>
                        </div>
                    </div>","1","main_causal_task","2","museum_causal","","","","",""
"","","","","","html-keyboard-response","77","332029","0.0-77.0","3EFE9A331E6B4EC2BA8AB84C72D42F12","019ce886-42ac-7994-9992-9530a31eb681","019ce875-66c2-7f0b-b5e8-086c75889f84","","null","
                    <div class=""stimulus-container"">
                        <img src=""images/causal_sequence/museum_causal/museum_causal_3.png"" class=""exp-image"">
                        <div class=""question-area""></div> 
                    </div>","null","","","","","","","",""
"","","","","","html-button-response","78","335036","0.0-78.0","3EFE9A331E6B4EC2BA8AB84C72D42F12","019ce886-42ac-7994-9992-9530a31eb681","019ce875-66c2-7f0b-b5e8-086c75889f84","","null","
                    <div class=""stimulus-container"">
                        <img src=""images/causal_sequence/museum_causal/museum_causal_3.png"" class=""exp-image"">
                        <div class=""question-area"">
                            <p style=""font-size: 20px; font-weight: bold; margin: 0;"">Is there a person in this image?</p>
                        </div>
                    </div>","null","main_causal_task","3","museum_causal","","","","",""
"","","","","","html-keyboard-response","79","340038","0.0-79.0","3EFE9A331E6B4EC2BA8AB84C72D42F12","019ce886-42ac-7994-9992-9530a31eb681","019ce875-66c2-7f0b-b5e8-086c75889f84","","null","
                    <div class=""stimulus-container"">
                        <img src=""images/causal_sequence/museum_causal/museum_causal_4.png"" class=""exp-image"">
                        <div class=""question-area""></div> 
                    </div>","null","","","","","","","",""
"","","","","","html-button-response","80","341743","0.0-80.0","3EFE9A331E6B4EC2BA8AB84C72D42F12","019ce886-42ac-7994-9992-9530a31eb681","019ce875-66c2-7f0b-b5e8-086c75889f84","","1705","
                    <div class=""stimulus-container"">
                        <img src=""images/causal_sequence/museum_causal/museum_causal_4.png"" class=""exp-image"">
                        <div class=""question-area"">
                            <p style=""font-size: 20px; font-weight: bold; margin: 0;"">Is there a person in this image?</p>
                        </div>
                    </div>","1","main_causal_task","4","museum_causal","","","","",""
"","","","","","html-keyboard-response","81","346756","0.0-81.0","3EFE9A331E6B4EC2BA8AB84C72D42F12","019ce886-42ac-7994-9992-9530a31eb681","019ce875-66c2-7f0b-b5e8-086c75889f84","","null","
                    <div class=""stimulus-container"">
                        <img src=""images/causal_sequence/museum_causal/museum_causal_5.png"" class=""exp-image"">
                        <div class=""question-area""></div> 
                    </div>","null","","","","","","","",""
"","","","","","html-button-response","82","347716","0.0-82.0","3EFE9A331E6B4EC2BA8AB84C72D42F12","019ce886-42ac-7994-9992-9530a31eb681","019ce875-66c2-7f0b-b5e8-086c75889f84","","959","
                    <div class=""stimulus-container"">
                        <img src=""images/causal_sequence/museum_causal/museum_causal_5.png"" class=""exp-image"">
                        <div class=""question-area"">
                            <p style=""font-size: 20px; font-weight: bold; margin: 0;"">Is there a person in this image?</p>
                        </div>
                    </div>","0","main_causal_task","5","museum_causal","","","","",""
"","","","","","html-keyboard-response","83","352730","0.0-83.0","3EFE9A331E6B4EC2BA8AB84C72D42F12","019ce886-42ac-7994-9992-9530a31eb681","019ce875-66c2-7f0b-b5e8-086c75889f84","","null","
                    <div class=""stimulus-container"">
                        <img src=""images/causal_sequence/museum_causal/museum_causal_6.png"" class=""exp-image"">
                        <div class=""question-area""></div> 
                    </div>","null","","","","","","","",""
"","","","","","html-button-response","84","354180","0.0-84.0","3EFE9A331E6B4EC2BA8AB84C72D42F12","019ce886-42ac-7994-9992-9530a31eb681","019ce875-66c2-7f0b-b5e8-086c75889f84","","1448","
                    <div class=""stimulus-container"">
                        <img src=""images/causal_sequence/museum_causal/museum_causal_6.png"" class=""exp-image"">
                        <div class=""question-area"">
                            <p style=""font-size: 20px; font-weight: bold; margin: 0;"">Is there a person in this image?</p>
                        </div>
                    </div>","0","main_causal_task","6","museum_causal","","","","",""
"","","","","","html-keyboard-response","85","359189","0.0-85.0","3EFE9A331E6B4EC2BA8AB84C72D42F12","019ce886-42ac-7994-9992-9530a31eb681","019ce875-66c2-7f0b-b5e8-086c75889f84","","null","
                    <div class=""stimulus-container"">
                        <img src=""images/causal_sequence/museum_causal/museum_causal_7.png"" class=""exp-image"">
                        <div class=""question-area""></div> 
                    </div>","null","","","","","","","",""
"","","","","","html-button-response","86","360293","0.0-86.0","3EFE9A331E6B4EC2BA8AB84C72D42F12","019ce886-42ac-7994-9992-9530a31eb681","019ce875-66c2-7f0b-b5e8-086c75889f84","","1103","
                    <div class=""stimulus-container"">
                        <img src=""images/causal_sequence/museum_causal/museum_causal_7.png"" class=""exp-image"">
                        <div class=""question-area"">
                            <p style=""font-size: 20px; font-weight: bold; margin: 0;"">Is there a person in this image?</p>
                        </div>
                    </div>","1","main_causal_task","7","museum_causal","","","","",""
"","","","","","html-keyboard-response","87","365305","0.0-87.0","3EFE9A331E6B4EC2BA8AB84C72D42F12","019ce886-42ac-7994-9992-9530a31eb681","019ce875-66c2-7f0b-b5e8-086c75889f84","","null","
                    <div class=""stimulus-container"">
                        <img src=""images/causal_sequence/museum_causal/museum_causal_8.png"" class=""exp-image"">
                        <div class=""question-area""></div> 
                    </div>","null","","","","","","","",""
"","","","","","html-button-response","88","366790","0.0-88.0","3EFE9A331E6B4EC2BA8AB84C72D42F12","019ce886-42ac-7994-9992-9530a31eb681","019ce875-66c2-7f0b-b5e8-086c75889f84","","1484","
                    <div class=""stimulus-container"">
                        <img src=""images/causal_sequence/museum_causal/museum_causal_8.png"" class=""exp-image"">
                        <div class=""question-area"">
                            <p style=""font-size: 20px; font-weight: bold; margin: 0;"">Is there a person in this image?</p>
                        </div>
                    </div>","0","main_causal_task","8","museum_causal","","","","",""
"","","","","","html-keyboard-response","89","371792","0.0-89.0","3EFE9A331E6B4EC2BA8AB84C72D42F12","019ce886-42ac-7994-9992-9530a31eb681","019ce875-66c2-7f0b-b5e8-086c75889f84","","null","
                    <div class=""stimulus-container"">
                        <img src=""images/causal_sequence/museum_causal/museum_causal_9.png"" class=""exp-image"">
                        <div class=""question-area""></div> 
                    </div>","null","","","","","","","",""
"","","","","","html-button-response","90","372949","0.0-90.0","3EFE9A331E6B4EC2BA8AB84C72D42F12","019ce886-42ac-7994-9992-9530a31eb681","019ce875-66c2-7f0b-b5e8-086c75889f84","","1157","
                    <div class=""stimulus-container"">
                        <img src=""images/causal_sequence/museum_causal/museum_causal_9.png"" class=""exp-image"">
                        <div class=""question-area"">
                            <p style=""font-size: 20px; font-weight: bold; margin: 0;"">Is there a person in this image?</p>
                        </div>
                    </div>","1","main_causal_task","9","museum_causal","","","","",""
"","","","","","html-keyboard-response","91","373970","0.0-91.0","3EFE9A331E6B4EC2BA8AB84C72D42F12","019ce886-42ac-7994-9992-9530a31eb681","019ce875-66c2-7f0b-b5e8-086c75889f84","","null","<div style=""background-color: gray; width: 100vw; height: 100vh;""></div>","null","","","","","","","",""
"","","","","","html-keyboard-response","92","378980","0.0-92.0","3EFE9A331E6B4EC2BA8AB84C72D42F12","019ce886-42ac-7994-9992-9530a31eb681","019ce875-66c2-7f0b-b5e8-086c75889f84","","null","
                    <div class=""stimulus-container"">
                        <img src=""images/causal_sequence/dog_causal/dog_causal_1.png"" class=""exp-image"">
                        <div class=""question-area""></div> 
                    </div>","null","","","","","","","",""
"","","","","","html-button-response","93","381370","0.0-93.0","3EFE9A331E6B4EC2BA8AB84C72D42F12","019ce886-42ac-7994-9992-9530a31eb681","019ce875-66c2-7f0b-b5e8-086c75889f84","","2389","
                    <div class=""stimulus-container"">
                        <img src=""images/causal_sequence/dog_causal/dog_causal_1.png"" class=""exp-image"">
                        <div class=""question-area"">
                            <p style=""font-size: 20px; font-weight: bold; margin: 0;"">Is there a person in this image?</p>
                        </div>
                    </div>","0","main_causal_task","1","dog_causal","","","","",""
"","","","","","html-keyboard-response","94","386380","0.0-94.0","3EFE9A331E6B4EC2BA8AB84C72D42F12","019ce886-42ac-7994-9992-9530a31eb681","019ce875-66c2-7f0b-b5e8-086c75889f84","","null","
                    <div class=""stimulus-container"">
                        <img src=""images/causal_sequence/dog_causal/dog_causal_2.png"" class=""exp-image"">
                        <div class=""question-area""></div> 
                    </div>","null","","","","","","","",""
"","","","","","html-button-response","95","387421","0.0-95.0","3EFE9A331E6B4EC2BA8AB84C72D42F12","019ce886-42ac-7994-9992-9530a31eb681","019ce875-66c2-7f0b-b5e8-086c75889f84","","1040","
                    <div class=""stimulus-container"">
                        <img src=""images/causal_sequence/dog_causal/dog_causal_2.png"" class=""exp-image"">
                        <div class=""question-area"">
                            <p style=""font-size: 20px; font-weight: bold; margin: 0;"">Is there a person in this image?</p>
                        </div>
                    </div>","0","main_causal_task","2","dog_causal","","","","",""
"","","","","","html-keyboard-response","96","392433","0.0-96.0","3EFE9A331E6B4EC2BA8AB84C72D42F12","019ce886-42ac-7994-9992-9530a31eb681","019ce875-66c2-7f0b-b5e8-086c75889f84","","null","
                    <div class=""stimulus-container"">
                        <img src=""images/causal_sequence/dog_causal/dog_causal_3.png"" class=""exp-image"">
                        <div class=""question-area""></div> 
                    </div>","null","","","","","","","",""
"","","","","","html-button-response","97","393445","0.0-97.0","3EFE9A331E6B4EC2BA8AB84C72D42F12","019ce886-42ac-7994-9992-9530a31eb681","019ce875-66c2-7f0b-b5e8-086c75889f84","","1011","
                    <div class=""stimulus-container"">
                        <img src=""images/causal_sequence/dog_causal/dog_causal_3.png"" class=""exp-image"">
                        <div class=""question-area"">
                            <p style=""font-size: 20px; font-weight: bold; margin: 0;"">Is there a person in this image?</p>
                        </div>
                    </div>","0","main_causal_task","3","dog_causal","","","","",""
"","","","","","html-keyboard-response","98","398464","0.0-98.0","3EFE9A331E6B4EC2BA8AB84C72D42F12","019ce886-42ac-7994-9992-9530a31eb681","019ce875-66c2-7f0b-b5e8-086c75889f84","","null","
                    <div class=""stimulus-container"">
                        <img src=""images/causal_sequence/dog_causal/dog_causal_4.png"" class=""exp-image"">
                        <div class=""question-area""></div> 
                    </div>","null","","","","","","","",""
"","","","","","html-button-response","99","401471","0.0-99.0","3EFE9A331E6B4EC2BA8AB84C72D42F12","019ce886-42ac-7994-9992-9530a31eb681","019ce875-66c2-7f0b-b5e8-086c75889f84","","null","
                    <div class=""stimulus-container"">
                        <img src=""images/causal_sequence/dog_causal/dog_causal_4.png"" class=""exp-image"">
                        <div class=""question-area"">
                            <p style=""font-size: 20px; font-weight: bold; margin: 0;"">Is there a person in this image?</p>
                        </div>
                    </div>","null","main_causal_task","4","dog_causal","","","","",""
"","","","","","html-keyboard-response","100","406476","0.0-100.0","3EFE9A331E6B4EC2BA8AB84C72D42F12","019ce886-42ac-7994-9992-9530a31eb681","019ce875-66c2-7f0b-b5e8-086c75889f84","","null","
                    <div class=""stimulus-container"">
                        <img src=""images/causal_sequence/dog_causal/dog_causal_5.png"" class=""exp-image"">
                        <div class=""question-area""></div> 
                    </div>","null","","","","","","","",""
"","","","","","html-button-response","101","407456","0.0-101.0","3EFE9A331E6B4EC2BA8AB84C72D42F12","019ce886-42ac-7994-9992-9530a31eb681","019ce875-66c2-7f0b-b5e8-086c75889f84","","980","
                    <div class=""stimulus-container"">
                        <img src=""images/causal_sequence/dog_causal/dog_causal_5.png"" class=""exp-image"">
                        <div class=""question-area"">
                            <p style=""font-size: 20px; font-weight: bold; margin: 0;"">Is there a person in this image?</p>
                        </div>
                    </div>","0","main_causal_task","5","dog_causal","","","","",""
"","","","","","html-keyboard-response","102","412461","0.0-102.0","3EFE9A331E6B4EC2BA8AB84C72D42F12","019ce886-42ac-7994-9992-9530a31eb681","019ce875-66c2-7f0b-b5e8-086c75889f84","","null","
                    <div class=""stimulus-container"">
                        <img src=""images/causal_sequence/dog_causal/dog_causal_6.png"" class=""exp-image"">
                        <div class=""question-area""></div> 
                    </div>","null","","","","","","","",""
"","","","","","html-button-response","103","413503","0.0-103.0","3EFE9A331E6B4EC2BA8AB84C72D42F12","019ce886-42ac-7994-9992-9530a31eb681","019ce875-66c2-7f0b-b5e8-086c75889f84","","1041","
                    <div class=""stimulus-container"">
                        <img src=""images/causal_sequence/dog_causal/dog_causal_6.png"" class=""exp-image"">
                        <div class=""question-area"">
                            <p style=""font-size: 20px; font-weight: bold; margin: 0;"">Is there a person in this image?</p>
                        </div>
                    </div>","0","main_causal_task","6","dog_causal","","","","",""
"","","","","","html-keyboard-response","104","418511","0.0-104.0","3EFE9A331E6B4EC2BA8AB84C72D42F12","019ce886-42ac-7994-9992-9530a31eb681","019ce875-66c2-7f0b-b5e8-086c75889f84","","null","
                    <div class=""stimulus-container"">
                        <img src=""images/causal_sequence/dog_causal/dog_causal_7.png"" class=""exp-image"">
                        <div class=""question-area""></div> 
                    </div>","null","","","","","","","",""
"","","","","","html-button-response","105","419699","0.0-105.0","3EFE9A331E6B4EC2BA8AB84C72D42F12","019ce886-42ac-7994-9992-9530a31eb681","019ce875-66c2-7f0b-b5e8-086c75889f84","","1187","
                    <div class=""stimulus-container"">
                        <img src=""images/causal_sequence/dog_causal/dog_causal_7.png"" class=""exp-image"">
                        <div class=""question-area"">
                            <p style=""font-size: 20px; font-weight: bold; margin: 0;"">Is there a person in this image?</p>
                        </div>
                    </div>","0","main_causal_task","7","dog_causal","","","","",""
"","","","","","html-keyboard-response","106","424720","0.0-106.0","3EFE9A331E6B4EC2BA8AB84C72D42F12","019ce886-42ac-7994-9992-9530a31eb681","019ce875-66c2-7f0b-b5e8-086c75889f84","","null","
                    <div class=""stimulus-container"">
                        <img src=""images/causal_sequence/dog_causal/dog_causal_8.png"" class=""exp-image"">
                        <div class=""question-area""></div> 
                    </div>","null","","","","","","","",""
"","","","","","html-button-response","107","425763","0.0-107.0","3EFE9A331E6B4EC2BA8AB84C72D42F12","019ce886-42ac-7994-9992-9530a31eb681","019ce875-66c2-7f0b-b5e8-086c75889f84","","1042","
                    <div class=""stimulus-container"">
                        <img src=""images/causal_sequence/dog_causal/dog_causal_8.png"" class=""exp-image"">
                        <div class=""question-area"">
                            <p style=""font-size: 20px; font-weight: bold; margin: 0;"">Is there a person in this image?</p>
                        </div>
                    </div>","0","main_causal_task","8","dog_causal","","","","",""
"","","","","","html-keyboard-response","108","430781","0.0-108.0","3EFE9A331E6B4EC2BA8AB84C72D42F12","019ce886-42ac-7994-9992-9530a31eb681","019ce875-66c2-7f0b-b5e8-086c75889f84","","null","
                    <div class=""stimulus-container"">
                        <img src=""images/causal_sequence/dog_causal/dog_causal_9.png"" class=""exp-image"">
                        <div class=""question-area""></div> 
                    </div>","null","","","","","","","",""
"","","","","","html-button-response","109","431804","0.0-109.0","3EFE9A331E6B4EC2BA8AB84C72D42F12","019ce886-42ac-7994-9992-9530a31eb681","019ce875-66c2-7f0b-b5e8-086c75889f84","","1021","
                    <div class=""stimulus-container"">
                        <img src=""images/causal_sequence/dog_causal/dog_causal_9.png"" class=""exp-image"">
                        <div class=""question-area"">
                            <p style=""font-size: 20px; font-weight: bold; margin: 0;"">Is there a person in this image?</p>
                        </div>
                    </div>","0","main_causal_task","9","dog_causal","","","","",""
"","","","","","html-keyboard-response","110","432818","0.0-110.0","3EFE9A331E6B4EC2BA8AB84C72D42F12","019ce886-42ac-7994-9992-9530a31eb681","019ce875-66c2-7f0b-b5e8-086c75889f84","","null","<div style=""background-color: gray; width: 100vw; height: 100vh;""></div>","null","","","","","","","",""
"","","","","","html-keyboard-response","111","437832","0.0-111.0","3EFE9A331E6B4EC2BA8AB84C72D42F12","019ce886-42ac-7994-9992-9530a31eb681","019ce875-66c2-7f0b-b5e8-086c75889f84","","null","
                    <div class=""stimulus-container"">
                        <img src=""images/causal_sequence/coin_causal/coin_causal_1.png"" class=""exp-image"">
                        <div class=""question-area""></div> 
                    </div>","null","","","","","","","",""
"","","","","","html-button-response","112","438650","0.0-112.0","3EFE9A331E6B4EC2BA8AB84C72D42F12","019ce886-42ac-7994-9992-9530a31eb681","019ce875-66c2-7f0b-b5e8-086c75889f84","","817","
                    <div class=""stimulus-container"">
                        <img src=""images/causal_sequence/coin_causal/coin_causal_1.png"" class=""exp-image"">
                        <div class=""question-area"">
                            <p style=""font-size: 20px; font-weight: bold; margin: 0;"">Is there a person in this image?</p>
                        </div>
                    </div>","0","main_causal_task","1","coin_causal","","","","",""
"","","","","","html-keyboard-response","113","443663","0.0-113.0","3EFE9A331E6B4EC2BA8AB84C72D42F12","019ce886-42ac-7994-9992-9530a31eb681","019ce875-66c2-7f0b-b5e8-086c75889f84","","null","
                    <div class=""stimulus-container"">
                        <img src=""images/causal_sequence/coin_causal/coin_causal_2.png"" class=""exp-image"">
                        <div class=""question-area""></div> 
                    </div>","null","","","","","","","",""
"","","","","","html-button-response","114","444303","0.0-114.0","3EFE9A331E6B4EC2BA8AB84C72D42F12","019ce886-42ac-7994-9992-9530a31eb681","019ce875-66c2-7f0b-b5e8-086c75889f84","","639","
                    <div class=""stimulus-container"">
                        <img src=""images/causal_sequence/coin_causal/coin_causal_2.png"" class=""exp-image"">
                        <div class=""question-area"">
                            <p style=""font-size: 20px; font-weight: bold; margin: 0;"">Is there a person in this image?</p>
                        </div>
                    </div>","0","main_causal_task","2","coin_causal","","","","",""
"","","","","","html-keyboard-response","115","449328","0.0-115.0","3EFE9A331E6B4EC2BA8AB84C72D42F12","019ce886-42ac-7994-9992-9530a31eb681","019ce875-66c2-7f0b-b5e8-086c75889f84","","null","
                    <div class=""stimulus-container"">
                        <img src=""images/causal_sequence/coin_causal/coin_causal_3.png"" class=""exp-image"">
                        <div class=""question-area""></div> 
                    </div>","null","","","","","","","",""
"","","","","","html-button-response","116","449962","0.0-116.0","3EFE9A331E6B4EC2BA8AB84C72D42F12","019ce886-42ac-7994-9992-9530a31eb681","019ce875-66c2-7f0b-b5e8-086c75889f84","","633","
                    <div class=""stimulus-container"">
                        <img src=""images/causal_sequence/coin_causal/coin_causal_3.png"" class=""exp-image"">
                        <div class=""question-area"">
                            <p style=""font-size: 20px; font-weight: bold; margin: 0;"">Is there a person in this image?</p>
                        </div>
                    </div>","0","main_causal_task","3","coin_causal","","","","",""
"","","","","","html-keyboard-response","117","454973","0.0-117.0","3EFE9A331E6B4EC2BA8AB84C72D42F12","019ce886-42ac-7994-9992-9530a31eb681","019ce875-66c2-7f0b-b5e8-086c75889f84","","null","
                    <div class=""stimulus-container"">
                        <img src=""images/causal_sequence/coin_causal/coin_causal_4.png"" class=""exp-image"">
                        <div class=""question-area""></div> 
                    </div>","null","","","","","","","",""
"","","","","","html-button-response","118","456183","0.0-118.0","3EFE9A331E6B4EC2BA8AB84C72D42F12","019ce886-42ac-7994-9992-9530a31eb681","019ce875-66c2-7f0b-b5e8-086c75889f84","","1208","
                    <div class=""stimulus-container"">
                        <img src=""images/causal_sequence/coin_causal/coin_causal_4.png"" class=""exp-image"">
                        <div class=""question-area"">
                            <p style=""font-size: 20px; font-weight: bold; margin: 0;"">Is there a person in this image?</p>
                        </div>
                    </div>","0","main_causal_task","4","coin_causal","","","","",""
"","","","","","html-keyboard-response","119","461187","0.0-119.0","3EFE9A331E6B4EC2BA8AB84C72D42F12","019ce886-42ac-7994-9992-9530a31eb681","019ce875-66c2-7f0b-b5e8-086c75889f84","","null","
                    <div class=""stimulus-container"">
                        <img src=""images/causal_sequence/coin_causal/coin_causal_5.png"" class=""exp-image"">
                        <div class=""question-area""></div> 
                    </div>","null","","","","","","","",""
"","","","","","html-button-response","120","462737","0.0-120.0","3EFE9A331E6B4EC2BA8AB84C72D42F12","019ce886-42ac-7994-9992-9530a31eb681","019ce875-66c2-7f0b-b5e8-086c75889f84","","1549","
                    <div class=""stimulus-container"">
                        <img src=""images/causal_sequence/coin_causal/coin_causal_5.png"" class=""exp-image"">
                        <div class=""question-area"">
                            <p style=""font-size: 20px; font-weight: bold; margin: 0;"">Is there a person in this image?</p>
                        </div>
                    </div>","0","main_causal_task","5","coin_causal","","","","",""
"","","","","","html-keyboard-response","121","467755","0.0-121.0","3EFE9A331E6B4EC2BA8AB84C72D42F12","019ce886-42ac-7994-9992-9530a31eb681","019ce875-66c2-7f0b-b5e8-086c75889f84","","null","
                    <div class=""stimulus-container"">
                        <img src=""images/causal_sequence/coin_causal/coin_causal_6.png"" class=""exp-image"">
                        <div class=""question-area""></div> 
                    </div>","null","","","","","","","",""
"","","","","","html-button-response","122","469690","0.0-122.0","3EFE9A331E6B4EC2BA8AB84C72D42F12","019ce886-42ac-7994-9992-9530a31eb681","019ce875-66c2-7f0b-b5e8-086c75889f84","","1934","
                    <div class=""stimulus-container"">
                        <img src=""images/causal_sequence/coin_causal/coin_causal_6.png"" class=""exp-image"">
                        <div class=""question-area"">
                            <p style=""font-size: 20px; font-weight: bold; margin: 0;"">Is there a person in this image?</p>
                        </div>
                    </div>","0","main_causal_task","6","coin_causal","","","","",""
"","","","","","html-keyboard-response","123","474696","0.0-123.0","3EFE9A331E6B4EC2BA8AB84C72D42F12","019ce886-42ac-7994-9992-9530a31eb681","019ce875-66c2-7f0b-b5e8-086c75889f84","","null","
                    <div class=""stimulus-container"">
                        <img src=""images/causal_sequence/coin_causal/coin_causal_7.png"" class=""exp-image"">
                        <div class=""question-area""></div> 
                    </div>","null","","","","","","","",""
"","","","","","html-button-response","124","475916","0.0-124.0","3EFE9A331E6B4EC2BA8AB84C72D42F12","019ce886-42ac-7994-9992-9530a31eb681","019ce875-66c2-7f0b-b5e8-086c75889f84","","1219","
                    <div class=""stimulus-container"">
                        <img src=""images/causal_sequence/coin_causal/coin_causal_7.png"" class=""exp-image"">
                        <div class=""question-area"">
                            <p style=""font-size: 20px; font-weight: bold; margin: 0;"">Is there a person in this image?</p>
                        </div>
                    </div>","1","main_causal_task","7","coin_causal","","","","",""
"","","","","","html-keyboard-response","125","480920","0.0-125.0","3EFE9A331E6B4EC2BA8AB84C72D42F12","019ce886-42ac-7994-9992-9530a31eb681","019ce875-66c2-7f0b-b5e8-086c75889f84","","null","
                    <div class=""stimulus-container"">
                        <img src=""images/causal_sequence/coin_causal/coin_causal_8.png"" class=""exp-image"">
                        <div class=""question-area""></div> 
                    </div>","null","","","","","","","",""
"","","","","","html-button-response","126","482803","0.0-126.0","3EFE9A331E6B4EC2BA8AB84C72D42F12","019ce886-42ac-7994-9992-9530a31eb681","019ce875-66c2-7f0b-b5e8-086c75889f84","","1882","
                    <div class=""stimulus-container"">
                        <img src=""images/causal_sequence/coin_causal/coin_causal_8.png"" class=""exp-image"">
                        <div class=""question-area"">
                            <p style=""font-size: 20px; font-weight: bold; margin: 0;"">Is there a person in this image?</p>
                        </div>
                    </div>","0","main_causal_task","8","coin_causal","","","","",""
"","","","","","html-keyboard-response","127","487820","0.0-127.0","3EFE9A331E6B4EC2BA8AB84C72D42F12","019ce886-42ac-7994-9992-9530a31eb681","019ce875-66c2-7f0b-b5e8-086c75889f84","","null","
                    <div class=""stimulus-container"">
                        <img src=""images/causal_sequence/coin_causal/coin_causal_9.png"" class=""exp-image"">
                        <div class=""question-area""></div> 
                    </div>","null","","","","","","","",""
"","","","","","html-button-response","128","489414","0.0-128.0","3EFE9A331E6B4EC2BA8AB84C72D42F12","019ce886-42ac-7994-9992-9530a31eb681","019ce875-66c2-7f0b-b5e8-086c75889f84","","1593","
                    <div class=""stimulus-container"">
                        <img src=""images/causal_sequence/coin_causal/coin_causal_9.png"" class=""exp-image"">
                        <div class=""question-area"">
                            <p style=""font-size: 20px; font-weight: bold; margin: 0;"">Is there a person in this image?</p>
                        </div>
                    </div>","0","main_causal_task","9","coin_causal","","","","",""
"","","","","","instructions","129","492451","0.0-129.0","3EFE9A331E6B4EC2BA8AB84C72D42F12","019ce886-42ac-7994-9992-9530a31eb681","019ce875-66c2-7f0b-b5e8-086c75889f84","[{""page_index"":0,""viewing_time"":3037}]","3037","","","","","","","","","",""
"","","","","","instructions","130","502739","0.0-130.0","3EFE9A331E6B4EC2BA8AB84C72D42F12","019ce886-42ac-7994-9992-9530a31eb681","019ce875-66c2-7f0b-b5e8-086c75889f84","[{""page_index"":0,""viewing_time"":10287}]","10287","","","","","","","","","",""
"","","","","","html-button-response","131","507062","0.0-131.0-0.0","3EFE9A331E6B4EC2BA8AB84C72D42F12","019ce886-42ac-7994-9992-9530a31eb681","019ce875-66c2-7f0b-b5e8-086c75889f84","","4322","
                <div style=""margin-bottom:20px;""><h3>Example: Valuable Image</h3></div>
                <div class=""stimulus-container"" style=""display: flex; align-items: center; justify-content: center; gap: 30px;"">
                    <img src=""images/instructions/movie_1.png"" class=""exp-image"">
                    <div style=""font-size: 35px; font-weight: bold; color: green; border: 5px solid green; padding: 20px; border-radius: 15px; background-color: #f0fff0;"">
                        WORTH<br>$1
                    </div>
                </div>
                <div class=""question-area""><p>Was there a person in this image?</p></div>","0","","","","","","","",""
"","","","","","html-button-response","132","510568","0.0-131.0-1.0","3EFE9A331E6B4EC2BA8AB84C72D42F12","019ce886-42ac-7994-9992-9530a31eb681","019ce875-66c2-7f0b-b5e8-086c75889f84","","3505","
                <div style=""margin-bottom:20px;""><h3>Example: Neutral Image</h3></div>
                <div class=""stimulus-container"" style=""display: flex; align-items: center; justify-content: center; gap: 30px;"">
                    <img src=""images/instructions/movie_2.png"" class=""exp-image"">
                    <div style=""font-size: 35px; font-weight: bold; color: grey; border: 5px solid grey; padding: 20px; border-radius: 15px; background-color: #f0f0f0;"">
                        NEUTRAL<br>VALUE
                    </div>
                </div>
                <div class=""question-area""><p>Was there a person in this image?</p></div>","0","","","","","","","",""
"","","","","","html-keyboard-response","133","518580","0.0-132.0","3EFE9A331E6B4EC2BA8AB84C72D42F12","019ce886-42ac-7994-9992-9530a31eb681","019ce875-66c2-7f0b-b5e8-086c75889f84","","null","
            <div class=""stimulus-container"" style=""display: flex; align-items: center; justify-content: center; gap: 30px;"">
                <img src=""images/causal_sequence/coin_causal/coin_causal_4.png"" class=""exp-image"">
                <div style=""font-size: 40px; font-weight: bold; color: green; border: 5px solid green; padding: 25px; border-radius: 15px; background-color: #f0fff0;"">
                    WORTH<br>$1
                </div>
            </div>
            <div class=""question-area""></div>","null","","","","","","","",""
"","","","","","html-button-response","134","520160","0.0-133.0","3EFE9A331E6B4EC2BA8AB84C72D42F12","019ce886-42ac-7994-9992-9530a31eb681","019ce875-66c2-7f0b-b5e8-086c75889f84","","1577","
            <div class=""stimulus-container"" style=""display: flex; align-items: center; justify-content: center; gap: 30px;"">
                <img src=""images/causal_sequence/coin_causal/coin_causal_4.png"" class=""exp-image"">
                <div style=""font-size: 40px; font-weight: bold; color: green; border: 5px solid green; padding: 25px; border-radius: 15px; background-color: #f0fff0;"">
                    WORTH<br>$1
                </div>
            </div>
            <div class=""question-area"">
                <p style=""font-size: 20px; font-weight: bold; margin: 0;"">Was there a person in this image?</p>
            </div>","0","part2_value_learning","","coin_causal","4","valuable","","",""
"","","","","","html-keyboard-response","135","528165","0.0-134.0","3EFE9A331E6B4EC2BA8AB84C72D42F12","019ce886-42ac-7994-9992-9530a31eb681","019ce875-66c2-7f0b-b5e8-086c75889f84","","null","
            <div class=""stimulus-container"" style=""display: flex; align-items: center; justify-content: center; gap: 30px;"">
                <img src=""images/causal_sequence/package_causal/package_causal_3.png"" class=""exp-image"">
                <div style=""font-size: 40px; font-weight: bold; color: green; border: 5px solid green; padding: 25px; border-radius: 15px; background-color: #f0fff0;"">
                    WORTH<br>$1
                </div>
            </div>
            <div class=""question-area""></div>","null","","","","","","","",""
"","","","","","html-button-response","136","529165","0.0-135.0","3EFE9A331E6B4EC2BA8AB84C72D42F12","019ce886-42ac-7994-9992-9530a31eb681","019ce875-66c2-7f0b-b5e8-086c75889f84","","999","
            <div class=""stimulus-container"" style=""display: flex; align-items: center; justify-content: center; gap: 30px;"">
                <img src=""images/causal_sequence/package_causal/package_causal_3.png"" class=""exp-image"">
                <div style=""font-size: 40px; font-weight: bold; color: green; border: 5px solid green; padding: 25px; border-radius: 15px; background-color: #f0fff0;"">
                    WORTH<br>$1
                </div>
            </div>
            <div class=""question-area"">
                <p style=""font-size: 20px; font-weight: bold; margin: 0;"">Was there a person in this image?</p>
            </div>","0","part2_value_learning","","package_causal","3","valuable","","",""
"","","","","","html-keyboard-response","137","537188","0.0-136.0","3EFE9A331E6B4EC2BA8AB84C72D42F12","019ce886-42ac-7994-9992-9530a31eb681","019ce875-66c2-7f0b-b5e8-086c75889f84","","null","
            <div class=""stimulus-container"" style=""display: flex; align-items: center; justify-content: center; gap: 30px;"">
                <img src=""images/causal_sequence/saving_a_cat_causal/saving_a_cat_causal_5.png"" class=""exp-image"">
                <div style=""font-size: 40px; font-weight: bold; color: green; border: 5px solid green; padding: 25px; border-radius: 15px; background-color: #f0fff0;"">
                    WORTH<br>$1
                </div>
            </div>
            <div class=""question-area""></div>","null","","","","","","","",""
"","","","","","html-button-response","138","538053","0.0-137.0","3EFE9A331E6B4EC2BA8AB84C72D42F12","019ce886-42ac-7994-9992-9530a31eb681","019ce875-66c2-7f0b-b5e8-086c75889f84","","864","
            <div class=""stimulus-container"" style=""display: flex; align-items: center; justify-content: center; gap: 30px;"">
                <img src=""images/causal_sequence/saving_a_cat_causal/saving_a_cat_causal_5.png"" class=""exp-image"">
                <div style=""font-size: 40px; font-weight: bold; color: green; border: 5px solid green; padding: 25px; border-radius: 15px; background-color: #f0fff0;"">
                    WORTH<br>$1
                </div>
            </div>
            <div class=""question-area"">
                <p style=""font-size: 20px; font-weight: bold; margin: 0;"">Was there a person in this image?</p>
            </div>","0","part2_value_learning","","saving_a_cat_causal","5","valuable","","",""
"","","","","","html-keyboard-response","139","546064","0.0-138.0","3EFE9A331E6B4EC2BA8AB84C72D42F12","019ce886-42ac-7994-9992-9530a31eb681","019ce875-66c2-7f0b-b5e8-086c75889f84","","null","
            <div class=""stimulus-container"" style=""display: flex; align-items: center; justify-content: center; gap: 30px;"">
                <img src=""images/causal_sequence/the_performance_causal/the_performance_causal_4.png"" class=""exp-image"">
                <div style=""font-size: 40px; font-weight: bold; color: grey; border: 5px solid grey; padding: 25px; border-radius: 15px; background-color: #f0f0f0;"">
                    NEUTRAL<br>VALUE
                </div>
            </div>
            <div class=""question-area""></div>","null","","","","","","","",""
"","","","","","html-button-response","140","547604","0.0-139.0","3EFE9A331E6B4EC2BA8AB84C72D42F12","019ce886-42ac-7994-9992-9530a31eb681","019ce875-66c2-7f0b-b5e8-086c75889f84","","1540","
            <div class=""stimulus-container"" style=""display: flex; align-items: center; justify-content: center; gap: 30px;"">
                <img src=""images/causal_sequence/the_performance_causal/the_performance_causal_4.png"" class=""exp-image"">
                <div style=""font-size: 40px; font-weight: bold; color: grey; border: 5px solid grey; padding: 25px; border-radius: 15px; background-color: #f0f0f0;"">
                    NEUTRAL<br>VALUE
                </div>
            </div>
            <div class=""question-area"">
                <p style=""font-size: 20px; font-weight: bold; margin: 0;"">Was there a person in this image?</p>
            </div>","0","part2_value_learning","","the_performance_causal","4","neutral","","",""
"","","","","","html-keyboard-response","141","555612","0.0-140.0","3EFE9A331E6B4EC2BA8AB84C72D42F12","019ce886-42ac-7994-9992-9530a31eb681","019ce875-66c2-7f0b-b5e8-086c75889f84","","null","
            <div class=""stimulus-container"" style=""display: flex; align-items: center; justify-content: center; gap: 30px;"">
                <img src=""images/causal_sequence/museum_causal/museum_causal_5.png"" class=""exp-image"">
                <div style=""font-size: 40px; font-weight: bold; color: grey; border: 5px solid grey; padding: 25px; border-radius: 15px; background-color: #f0f0f0;"">
                    NEUTRAL<br>VALUE
                </div>
            </div>
            <div class=""question-area""></div>","null","","","","","","","",""
"","","","","","html-button-response","142","557647","0.0-141.0","3EFE9A331E6B4EC2BA8AB84C72D42F12","019ce886-42ac-7994-9992-9530a31eb681","019ce875-66c2-7f0b-b5e8-086c75889f84","","2034","
            <div class=""stimulus-container"" style=""display: flex; align-items: center; justify-content: center; gap: 30px;"">
                <img src=""images/causal_sequence/museum_causal/museum_causal_5.png"" class=""exp-image"">
                <div style=""font-size: 40px; font-weight: bold; color: grey; border: 5px solid grey; padding: 25px; border-radius: 15px; background-color: #f0f0f0;"">
                    NEUTRAL<br>VALUE
                </div>
            </div>
            <div class=""question-area"">
                <p style=""font-size: 20px; font-weight: bold; margin: 0;"">Was there a person in this image?</p>
            </div>","0","part2_value_learning","","museum_causal","5","neutral","","",""
"","","","","","html-keyboard-response","143","565651","0.0-142.0","3EFE9A331E6B4EC2BA8AB84C72D42F12","019ce886-42ac-7994-9992-9530a31eb681","019ce875-66c2-7f0b-b5e8-086c75889f84","","null","
            <div class=""stimulus-container"" style=""display: flex; align-items: center; justify-content: center; gap: 30px;"">
                <img src=""images/causal_sequence/dog_causal/dog_causal_6.png"" class=""exp-image"">
                <div style=""font-size: 40px; font-weight: bold; color: grey; border: 5px solid grey; padding: 25px; border-radius: 15px; background-color: #f0f0f0;"">
                    NEUTRAL<br>VALUE
                </div>
            </div>
            <div class=""question-area""></div>","null","","","","","","","",""
"","","","","","html-button-response","144","566610","0.0-143.0","3EFE9A331E6B4EC2BA8AB84C72D42F12","019ce886-42ac-7994-9992-9530a31eb681","019ce875-66c2-7f0b-b5e8-086c75889f84","","957","
            <div class=""stimulus-container"" style=""display: flex; align-items: center; justify-content: center; gap: 30px;"">
                <img src=""images/causal_sequence/dog_causal/dog_causal_6.png"" class=""exp-image"">
                <div style=""font-size: 40px; font-weight: bold; color: grey; border: 5px solid grey; padding: 25px; border-radius: 15px; background-color: #f0f0f0;"">
                    NEUTRAL<br>VALUE
                </div>
            </div>
            <div class=""question-area"">
                <p style=""font-size: 20px; font-weight: bold; margin: 0;"">Was there a person in this image?</p>
            </div>","0","part2_value_learning","","dog_causal","6","neutral","","",""
"","","","","","instructions","145","570058","0.0-144.0","3EFE9A331E6B4EC2BA8AB84C72D42F12","019ce886-42ac-7994-9992-9530a31eb681","019ce875-66c2-7f0b-b5e8-086c75889f84","[{""page_index"":0,""viewing_time"":3447}]","3448","","","","","","","","","",""
"","","","","","html-keyboard-response","146","580068","0.0-145.0-0.0","3EFE9A331E6B4EC2BA8AB84C72D42F12","019ce886-42ac-7994-9992-9530a31eb681","019ce875-66c2-7f0b-b5e8-086c75889f84","","null","
                        <div style=""font-family: Arial; margin-bottom: 20px;""><h3>Which image is more valuable?</h3></div>
                        <div class=""stimulus-container"" style=""display: flex; width: 1100px; justify-content: center; gap: 50px;"">
                            <img src=""images/causal_sequence/package_causal/package_causal_2.png"" class=""exp-image"">
                            <img src=""images/causal_sequence/package_causal/package_causal_4.png"" class=""exp-image"">
                        </div>","null","","","","","","","",""
"","","","","","html-button-response","147","582069","0.0-145.0-1.0","3EFE9A331E6B4EC2BA8AB84C72D42F12","019ce886-42ac-7994-9992-9530a31eb681","019ce875-66c2-7f0b-b5e8-086c75889f84","","1999","
                        <div style=""font-family: Arial; margin-bottom: 20px;""><h3>Which image is more valuable?</h3></div>
                        <div class=""stimulus-container"" style=""display: flex; width: 1100px; justify-content: center; gap: 50px;"">
                            <img src=""images/causal_sequence/package_causal/package_causal_2.png"" class=""exp-image"">
                            <img src=""images/causal_sequence/package_causal/package_causal_4.png"" class=""exp-image"">
                        </div>","0","part3_final_choice","","package_causal","","valuable","3","2","-1"
"","","","","","html-keyboard-response","148","592072","0.0-146.0-0.0","3EFE9A331E6B4EC2BA8AB84C72D42F12","019ce886-42ac-7994-9992-9530a31eb681","019ce875-66c2-7f0b-b5e8-086c75889f84","","null","
                        <div style=""font-family: Arial; margin-bottom: 20px;""><h3>Which image is more valuable?</h3></div>
                        <div class=""stimulus-container"" style=""display: flex; width: 1100px; justify-content: center; gap: 50px;"">
                            <img src=""images/causal_sequence/the_performance_causal/the_performance_causal_3.png"" class=""exp-image"">
                            <img src=""images/causal_sequence/the_performance_causal/the_performance_causal_5.png"" class=""exp-image"">
                        </div>","null","","","","","","","",""
"","","","","","html-button-response","149","593495","0.0-146.0-1.0","3EFE9A331E6B4EC2BA8AB84C72D42F12","019ce886-42ac-7994-9992-9530a31eb681","019ce875-66c2-7f0b-b5e8-086c75889f84","","1421","
                        <div style=""font-family: Arial; margin-bottom: 20px;""><h3>Which image is more valuable?</h3></div>
                        <div class=""stimulus-container"" style=""display: flex; width: 1100px; justify-content: center; gap: 50px;"">
                            <img src=""images/causal_sequence/the_performance_causal/the_performance_causal_3.png"" class=""exp-image"">
                            <img src=""images/causal_sequence/the_performance_causal/the_performance_causal_5.png"" class=""exp-image"">
                        </div>","0","part3_final_choice","","the_performance_causal","","neutral","4","3","-1"
"","","","","","html-keyboard-response","150","603516","0.0-147.0-0.0","3EFE9A331E6B4EC2BA8AB84C72D42F12","019ce886-42ac-7994-9992-9530a31eb681","019ce875-66c2-7f0b-b5e8-086c75889f84","","null","
                        <div style=""font-family: Arial; margin-bottom: 20px;""><h3>Which image is more valuable?</h3></div>
                        <div class=""stimulus-container"" style=""display: flex; width: 1100px; justify-content: center; gap: 50px;"">
                            <img src=""images/causal_sequence/museum_causal/museum_causal_6.png"" class=""exp-image"">
                            <img src=""images/causal_sequence/museum_causal/museum_causal_4.png"" class=""exp-image"">
                        </div>","null","","","","","","","",""
"","","","","","html-button-response","151","606163","0.0-147.0-1.0","3EFE9A331E6B4EC2BA8AB84C72D42F12","019ce886-42ac-7994-9992-9530a31eb681","019ce875-66c2-7f0b-b5e8-086c75889f84","","2646","
                        <div style=""font-family: Arial; margin-bottom: 20px;""><h3>Which image is more valuable?</h3></div>
                        <div class=""stimulus-container"" style=""display: flex; width: 1100px; justify-content: center; gap: 50px;"">
                            <img src=""images/causal_sequence/museum_causal/museum_causal_6.png"" class=""exp-image"">
                            <img src=""images/causal_sequence/museum_causal/museum_causal_4.png"" class=""exp-image"">
                        </div>","0","part3_final_choice","","museum_causal","","neutral","5","6","1"
"","","","","","html-keyboard-response","152","616191","0.0-148.0-0.0","3EFE9A331E6B4EC2BA8AB84C72D42F12","019ce886-42ac-7994-9992-9530a31eb681","019ce875-66c2-7f0b-b5e8-086c75889f84","","null","
                        <div style=""font-family: Arial; margin-bottom: 20px;""><h3>Which image is more valuable?</h3></div>
                        <div class=""stimulus-container"" style=""display: flex; width: 1100px; justify-content: center; gap: 50px;"">
                            <img src=""images/causal_sequence/dog_causal/dog_causal_5.png"" class=""exp-image"">
                            <img src=""images/causal_sequence/dog_causal/dog_causal_7.png"" class=""exp-image"">
                        </div>","null","","","","","","","",""
"","","","","","html-button-response","153","618268","0.0-148.0-1.0","3EFE9A331E6B4EC2BA8AB84C72D42F12","019ce886-42ac-7994-9992-9530a31eb681","019ce875-66c2-7f0b-b5e8-086c75889f84","","2076","
                        <div style=""font-family: Arial; margin-bottom: 20px;""><h3>Which image is more valuable?</h3></div>
                        <div class=""stimulus-container"" style=""display: flex; width: 1100px; justify-content: center; gap: 50px;"">
                            <img src=""images/causal_sequence/dog_causal/dog_causal_5.png"" class=""exp-image"">
                            <img src=""images/causal_sequence/dog_causal/dog_causal_7.png"" class=""exp-image"">
                        </div>","0","part3_final_choice","","dog_causal","","neutral","6","5","-1"
"","","","","","html-keyboard-response","154","628286","0.0-149.0-0.0","3EFE9A331E6B4EC2BA8AB84C72D42F12","019ce886-42ac-7994-9992-9530a31eb681","019ce875-66c2-7f0b-b5e8-086c75889f84","","null","
                        <div style=""font-family: Arial; margin-bottom: 20px;""><h3>Which image is more valuable?</h3></div>
                        <div class=""stimulus-container"" style=""display: flex; width: 1100px; justify-content: center; gap: 50px;"">
                            <img src=""images/causal_sequence/coin_causal/coin_causal_5.png"" class=""exp-image"">
                            <img src=""images/causal_sequence/coin_causal/coin_causal_3.png"" class=""exp-image"">
                        </div>","null","","","","","","","",""
"","","","","","html-button-response","155","629159","0.0-149.0-1.0","3EFE9A331E6B4EC2BA8AB84C72D42F12","019ce886-42ac-7994-9992-9530a31eb681","019ce875-66c2-7f0b-b5e8-086c75889f84","","872","
                        <div style=""font-family: Arial; margin-bottom: 20px;""><h3>Which image is more valuable?</h3></div>
                        <div class=""stimulus-container"" style=""display: flex; width: 1100px; justify-content: center; gap: 50px;"">
                            <img src=""images/causal_sequence/coin_causal/coin_causal_5.png"" class=""exp-image"">
                            <img src=""images/causal_sequence/coin_causal/coin_causal_3.png"" class=""exp-image"">
                        </div>","0","part3_final_choice","","coin_causal","","valuable","4","5","1"
"","","","","","html-keyboard-response","156","639174","0.0-150.0-0.0","3EFE9A331E6B4EC2BA8AB84C72D42F12","019ce886-42ac-7994-9992-9530a31eb681","019ce875-66c2-7f0b-b5e8-086c75889f84","","null","
                        <div style=""font-family: Arial; margin-bottom: 20px;""><h3>Which image is more valuable?</h3></div>
                        <div class=""stimulus-container"" style=""display: flex; width: 1100px; justify-content: center; gap: 50px;"">
                            <img src=""images/causal_sequence/saving_a_cat_causal/saving_a_cat_causal_6.png"" class=""exp-image"">
                            <img src=""images/causal_sequence/saving_a_cat_causal/saving_a_cat_causal_4.png"" class=""exp-image"">
                        </div>","null","","","","","","","",""
"","","","","","html-button-response","157","640502","0.0-150.0-1.0","3EFE9A331E6B4EC2BA8AB84C72D42F12","019ce886-42ac-7994-9992-9530a31eb681","019ce875-66c2-7f0b-b5e8-086c75889f84","","1327","
                        <div style=""font-family: Arial; margin-bottom: 20px;""><h3>Which image is more valuable?</h3></div>
                        <div class=""stimulus-container"" style=""display: flex; width: 1100px; justify-content: center; gap: 50px;"">
                            <img src=""images/causal_sequence/saving_a_cat_causal/saving_a_cat_causal_6.png"" class=""exp-image"">
                            <img src=""images/causal_sequence/saving_a_cat_causal/saving_a_cat_causal_4.png"" class=""exp-image"">
                        </div>","1","part3_final_choice","","saving_a_cat_causal","","valuable","5","4","-1"
"","","","","","survey-text","158","729177","0.0-151.0","3EFE9A331E6B4EC2BA8AB84C72D42F12","019ce886-42ac-7994-9992-9530a31eb681","019ce875-66c2-7f0b-b5e8-086c75889f84","","88666","","{""gender"":""FEMALE"",""age"":""35"",""decision_strategy"":""I looked for whichever one of the pairs had good focus on the people present."",""consistency_check"":""I used the same logic for all pairs.""}","demographics_and_strategy","","","","","","",""
"","","","","","instructions","159","737459","0.0-152.0","3EFE9A331E6B4EC2BA8AB84C72D42F12","019ce886-42ac-7994-9992-9530a31eb681","019ce875-66c2-7f0b-b5e8-086c75889f84","[{""page_index"":0,""viewing_time"":8280}]","8281","","","","","","","","","",""
