"success","timeout","failed_images","failed_audio","failed_video","trial_type","trial_index","time_elapsed","internal_node_id","subject_id","study_id","session_id","view_history","rt","stimulus","response","task","image_index","folder","sequence_type","presentation_order","valuable_image_index","reward_type","distance_from_x","target_X","chosen_image_index","is_x_plus_dist","correct_choice"
"true","false","[]","[]","[]","preload","0","7213","0.0-0.0","76CD189190A442A8B1B2BFF67C5A5D5F","019cfa2e-3c2b-7f3a-bff7-860af2dee9fb","019cfa18-54b6-74d4-8209-5fe92d2edcd5","","","","","","","","","","","","","","","",""
"","","","","","instructions","1","8939","0.0-1.0","76CD189190A442A8B1B2BFF67C5A5D5F","019cfa2e-3c2b-7f3a-bff7-860af2dee9fb","019cfa18-54b6-74d4-8209-5fe92d2edcd5","[{""page_index"":0,""viewing_time"":1724}]","1724","","","","","","","","","","","","","",""
"","","","","","instructions","2","22520","0.0-2.0","76CD189190A442A8B1B2BFF67C5A5D5F","019cfa2e-3c2b-7f3a-bff7-860af2dee9fb","019cfa18-54b6-74d4-8209-5fe92d2edcd5","[{""page_index"":0,""viewing_time"":13580}]","13581","","","","","","","","","","","","","",""
"true","","","","","fullscreen","3","26474","0.0-3.0","76CD189190A442A8B1B2BFF67C5A5D5F","019cfa2e-3c2b-7f3a-bff7-860af2dee9fb","019cfa18-54b6-74d4-8209-5fe92d2edcd5","","2949","","","","","","","","","","","","","",""
"","","","","","instructions","4","30515","0.0-4.0","76CD189190A442A8B1B2BFF67C5A5D5F","019cfa2e-3c2b-7f3a-bff7-860af2dee9fb","019cfa18-54b6-74d4-8209-5fe92d2edcd5","[{""page_index"":0,""viewing_time"":4041}]","4041","","","","","","","","","","","","","",""
"","","","","","instructions","5","35084","0.0-5.0","76CD189190A442A8B1B2BFF67C5A5D5F","019cfa2e-3c2b-7f3a-bff7-860af2dee9fb","019cfa18-54b6-74d4-8209-5fe92d2edcd5","[{""page_index"":0,""viewing_time"":4569}]","4569","","","","","","","","","","","","","",""
"","","","","","html-keyboard-response","6","39086","0.0-6.0","76CD189190A442A8B1B2BFF67C5A5D5F","019cfa2e-3c2b-7f3a-bff7-860af2dee9fb","019cfa18-54b6-74d4-8209-5fe92d2edcd5","","null","
                <div class=""stimulus-container"">
                    <img src=""images/instructions/movie_1.png"" class=""exp-image"">
                    <div class=""question-area""></div> 
                </div>","null","","","","","","","","","","","",""
"","","","","","html-button-response","7","40936","0.0-7.0","76CD189190A442A8B1B2BFF67C5A5D5F","019cfa2e-3c2b-7f3a-bff7-860af2dee9fb","019cfa18-54b6-74d4-8209-5fe92d2edcd5","","1849","
                <div class=""stimulus-container"">
                    <img src=""images/instructions/movie_1.png"" class=""exp-image"">
                    <div class=""question-area"">
                        <p style=""font-size: 20px; font-weight: bold; margin: 0;"">Was there a person in this image?</p>
                    </div>
                </div>","0","example_question","1","","","","","","","","","",""
"","","","","","html-keyboard-response","8","44949","0.0-8.0","76CD189190A442A8B1B2BFF67C5A5D5F","019cfa2e-3c2b-7f3a-bff7-860af2dee9fb","019cfa18-54b6-74d4-8209-5fe92d2edcd5","","null","
                <div class=""stimulus-container"">
                    <img src=""images/instructions/movie_2.png"" class=""exp-image"">
                    <div class=""question-area""></div> 
                </div>","null","","","","","","","","","","","",""
"","","","","","html-button-response","9","46044","0.0-9.0","76CD189190A442A8B1B2BFF67C5A5D5F","019cfa2e-3c2b-7f3a-bff7-860af2dee9fb","019cfa18-54b6-74d4-8209-5fe92d2edcd5","","1094","
                <div class=""stimulus-container"">
                    <img src=""images/instructions/movie_2.png"" class=""exp-image"">
                    <div class=""question-area"">
                        <p style=""font-size: 20px; font-weight: bold; margin: 0;"">Was there a person in this image?</p>
                    </div>
                </div>","1","example_question","2","","","","","","","","","",""
"","","","","","html-keyboard-response","10","50046","0.0-10.0","76CD189190A442A8B1B2BFF67C5A5D5F","019cfa2e-3c2b-7f3a-bff7-860af2dee9fb","019cfa18-54b6-74d4-8209-5fe92d2edcd5","","null","
                <div class=""stimulus-container"">
                    <img src=""images/instructions/movie_3.png"" class=""exp-image"">
                    <div class=""question-area""></div> 
                </div>","null","","","","","","","","","","","",""
"","","","","","html-button-response","11","50780","0.0-11.0","76CD189190A442A8B1B2BFF67C5A5D5F","019cfa2e-3c2b-7f3a-bff7-860af2dee9fb","019cfa18-54b6-74d4-8209-5fe92d2edcd5","","733","
                <div class=""stimulus-container"">
                    <img src=""images/instructions/movie_3.png"" class=""exp-image"">
                    <div class=""question-area"">
                        <p style=""font-size: 20px; font-weight: bold; margin: 0;"">Was there a person in this image?</p>
                    </div>
                </div>","0","example_question","3","","","","","","","","","",""
"","","","","","html-keyboard-response","12","54781","0.0-12.0","76CD189190A442A8B1B2BFF67C5A5D5F","019cfa2e-3c2b-7f3a-bff7-860af2dee9fb","019cfa18-54b6-74d4-8209-5fe92d2edcd5","","null","
                <div class=""stimulus-container"">
                    <img src=""images/instructions/movie_4.png"" class=""exp-image"">
                    <div class=""question-area""></div> 
                </div>","null","","","","","","","","","","","",""
"","","","","","html-button-response","13","55636","0.0-13.0","76CD189190A442A8B1B2BFF67C5A5D5F","019cfa2e-3c2b-7f3a-bff7-860af2dee9fb","019cfa18-54b6-74d4-8209-5fe92d2edcd5","","854","
                <div class=""stimulus-container"">
                    <img src=""images/instructions/movie_4.png"" class=""exp-image"">
                    <div class=""question-area"">
                        <p style=""font-size: 20px; font-weight: bold; margin: 0;"">Was there a person in this image?</p>
                    </div>
                </div>","0","example_question","4","","","","","","","","","",""
"","","","","","instructions","14","57241","0.0-14.0","76CD189190A442A8B1B2BFF67C5A5D5F","019cfa2e-3c2b-7f3a-bff7-860af2dee9fb","019cfa18-54b6-74d4-8209-5fe92d2edcd5","[{""page_index"":0,""viewing_time"":1605}]","1605","","","","","","","","","","","","","",""
"","","","","","instructions","15","60841","0.0-15.0","76CD189190A442A8B1B2BFF67C5A5D5F","019cfa2e-3c2b-7f3a-bff7-860af2dee9fb","019cfa18-54b6-74d4-8209-5fe92d2edcd5","[{""page_index"":0,""viewing_time"":3599}]","3599","","","","","","","","","","","","","",""
"","","","","","html-keyboard-response","16","65852","0.0-16.0","76CD189190A442A8B1B2BFF67C5A5D5F","019cfa2e-3c2b-7f3a-bff7-860af2dee9fb","019cfa18-54b6-74d4-8209-5fe92d2edcd5","","null","<div style=""background-color: white; width: 100vw; height: 100vh;""></div>","null","","","","","","","","","","","",""
"","","","","","html-keyboard-response","17","66864","0.0-17.0","76CD189190A442A8B1B2BFF67C5A5D5F","019cfa2e-3c2b-7f3a-bff7-860af2dee9fb","019cfa18-54b6-74d4-8209-5fe92d2edcd5","","null","
                <div class=""stimulus-container"">
                    <img src=""images/semantic_sequence/physical_activity_semantic/physical_activity_semantic_1.png"" class=""exp-image"">
                    <div class=""question-area""></div> 
                </div>","null","","","","","","","","","","","",""
"","","","","","html-button-response","18","67818","0.0-18.0","76CD189190A442A8B1B2BFF67C5A5D5F","019cfa2e-3c2b-7f3a-bff7-860af2dee9fb","019cfa18-54b6-74d4-8209-5fe92d2edcd5","","954","
                <div class=""stimulus-container"">
                    <img src=""images/semantic_sequence/physical_activity_semantic/physical_activity_semantic_1.png"" class=""exp-image"">
                    <div class=""question-area"">
                        <p style=""font-size: 20px; font-weight: bold; margin: 0;"">Is there a person in this image?</p>
                    </div>
                </div>","0","main_experiment_trial","1","physical_activity_semantic","semantic_sequence","chronological","","","","","","",""
"","","","","","html-keyboard-response","19","68823","0.0-19.0","76CD189190A442A8B1B2BFF67C5A5D5F","019cfa2e-3c2b-7f3a-bff7-860af2dee9fb","019cfa18-54b6-74d4-8209-5fe92d2edcd5","","null","
                <div class=""stimulus-container"">
                    <img src=""images/semantic_sequence/physical_activity_semantic/physical_activity_semantic_2.png"" class=""exp-image"">
                    <div class=""question-area""></div> 
                </div>","null","","","","","","","","","","","",""
"","","","","","html-button-response","20","70206","0.0-20.0","76CD189190A442A8B1B2BFF67C5A5D5F","019cfa2e-3c2b-7f3a-bff7-860af2dee9fb","019cfa18-54b6-74d4-8209-5fe92d2edcd5","","1382","
                <div class=""stimulus-container"">
                    <img src=""images/semantic_sequence/physical_activity_semantic/physical_activity_semantic_2.png"" class=""exp-image"">
                    <div class=""question-area"">
                        <p style=""font-size: 20px; font-weight: bold; margin: 0;"">Is there a person in this image?</p>
                    </div>
                </div>","0","main_experiment_trial","2","physical_activity_semantic","semantic_sequence","chronological","","","","","","",""
"","","","","","html-keyboard-response","21","71211","0.0-21.0","76CD189190A442A8B1B2BFF67C5A5D5F","019cfa2e-3c2b-7f3a-bff7-860af2dee9fb","019cfa18-54b6-74d4-8209-5fe92d2edcd5","","null","
                <div class=""stimulus-container"">
                    <img src=""images/semantic_sequence/physical_activity_semantic/physical_activity_semantic_3.png"" class=""exp-image"">
                    <div class=""question-area""></div> 
                </div>","null","","","","","","","","","","","",""
"","","","","","html-button-response","22","72065","0.0-22.0","76CD189190A442A8B1B2BFF67C5A5D5F","019cfa2e-3c2b-7f3a-bff7-860af2dee9fb","019cfa18-54b6-74d4-8209-5fe92d2edcd5","","854","
                <div class=""stimulus-container"">
                    <img src=""images/semantic_sequence/physical_activity_semantic/physical_activity_semantic_3.png"" class=""exp-image"">
                    <div class=""question-area"">
                        <p style=""font-size: 20px; font-weight: bold; margin: 0;"">Is there a person in this image?</p>
                    </div>
                </div>","0","main_experiment_trial","3","physical_activity_semantic","semantic_sequence","chronological","","","","","","",""
"","","","","","html-keyboard-response","23","73072","0.0-23.0","76CD189190A442A8B1B2BFF67C5A5D5F","019cfa2e-3c2b-7f3a-bff7-860af2dee9fb","019cfa18-54b6-74d4-8209-5fe92d2edcd5","","null","
                <div class=""stimulus-container"">
                    <img src=""images/semantic_sequence/physical_activity_semantic/physical_activity_semantic_4.png"" class=""exp-image"">
                    <div class=""question-area""></div> 
                </div>","null","","","","","","","","","","","",""
"","","","","","html-button-response","24","74278","0.0-24.0","76CD189190A442A8B1B2BFF67C5A5D5F","019cfa2e-3c2b-7f3a-bff7-860af2dee9fb","019cfa18-54b6-74d4-8209-5fe92d2edcd5","","1205","
                <div class=""stimulus-container"">
                    <img src=""images/semantic_sequence/physical_activity_semantic/physical_activity_semantic_4.png"" class=""exp-image"">
                    <div class=""question-area"">
                        <p style=""font-size: 20px; font-weight: bold; margin: 0;"">Is there a person in this image?</p>
                    </div>
                </div>","0","main_experiment_trial","4","physical_activity_semantic","semantic_sequence","chronological","","","","","","",""
"","","","","","html-keyboard-response","25","75292","0.0-25.0","76CD189190A442A8B1B2BFF67C5A5D5F","019cfa2e-3c2b-7f3a-bff7-860af2dee9fb","019cfa18-54b6-74d4-8209-5fe92d2edcd5","","null","
                <div class=""stimulus-container"">
                    <img src=""images/semantic_sequence/physical_activity_semantic/physical_activity_semantic_5.png"" class=""exp-image"">
                    <div class=""question-area""></div> 
                </div>","null","","","","","","","","","","","",""
"","","","","","html-button-response","26","76270","0.0-26.0","76CD189190A442A8B1B2BFF67C5A5D5F","019cfa2e-3c2b-7f3a-bff7-860af2dee9fb","019cfa18-54b6-74d4-8209-5fe92d2edcd5","","977","
                <div class=""stimulus-container"">
                    <img src=""images/semantic_sequence/physical_activity_semantic/physical_activity_semantic_5.png"" class=""exp-image"">
                    <div class=""question-area"">
                        <p style=""font-size: 20px; font-weight: bold; margin: 0;"">Is there a person in this image?</p>
                    </div>
                </div>","0","main_experiment_trial","5","physical_activity_semantic","semantic_sequence","chronological","","","","","","",""
"","","","","","html-keyboard-response","27","77277","0.0-27.0","76CD189190A442A8B1B2BFF67C5A5D5F","019cfa2e-3c2b-7f3a-bff7-860af2dee9fb","019cfa18-54b6-74d4-8209-5fe92d2edcd5","","null","
                <div class=""stimulus-container"">
                    <img src=""images/semantic_sequence/physical_activity_semantic/physical_activity_semantic_6.png"" class=""exp-image"">
                    <div class=""question-area""></div> 
                </div>","null","","","","","","","","","","","",""
"","","","","","html-button-response","28","78175","0.0-28.0","76CD189190A442A8B1B2BFF67C5A5D5F","019cfa2e-3c2b-7f3a-bff7-860af2dee9fb","019cfa18-54b6-74d4-8209-5fe92d2edcd5","","898","
                <div class=""stimulus-container"">
                    <img src=""images/semantic_sequence/physical_activity_semantic/physical_activity_semantic_6.png"" class=""exp-image"">
                    <div class=""question-area"">
                        <p style=""font-size: 20px; font-weight: bold; margin: 0;"">Is there a person in this image?</p>
                    </div>
                </div>","0","main_experiment_trial","6","physical_activity_semantic","semantic_sequence","chronological","","","","","","",""
"","","","","","html-keyboard-response","29","79191","0.0-29.0","76CD189190A442A8B1B2BFF67C5A5D5F","019cfa2e-3c2b-7f3a-bff7-860af2dee9fb","019cfa18-54b6-74d4-8209-5fe92d2edcd5","","null","
                <div class=""stimulus-container"">
                    <img src=""images/semantic_sequence/physical_activity_semantic/physical_activity_semantic_7.png"" class=""exp-image"">
                    <div class=""question-area""></div> 
                </div>","null","","","","","","","","","","","",""
"","","","","","html-button-response","30","80074","0.0-30.0","76CD189190A442A8B1B2BFF67C5A5D5F","019cfa2e-3c2b-7f3a-bff7-860af2dee9fb","019cfa18-54b6-74d4-8209-5fe92d2edcd5","","883","
                <div class=""stimulus-container"">
                    <img src=""images/semantic_sequence/physical_activity_semantic/physical_activity_semantic_7.png"" class=""exp-image"">
                    <div class=""question-area"">
                        <p style=""font-size: 20px; font-weight: bold; margin: 0;"">Is there a person in this image?</p>
                    </div>
                </div>","0","main_experiment_trial","7","physical_activity_semantic","semantic_sequence","chronological","","","","","","",""
"","","","","","html-keyboard-response","31","81084","0.0-31.0","76CD189190A442A8B1B2BFF67C5A5D5F","019cfa2e-3c2b-7f3a-bff7-860af2dee9fb","019cfa18-54b6-74d4-8209-5fe92d2edcd5","","null","
                <div class=""stimulus-container"">
                    <img src=""images/semantic_sequence/physical_activity_semantic/physical_activity_semantic_8.png"" class=""exp-image"">
                    <div class=""question-area""></div> 
                </div>","null","","","","","","","","","","","",""
"","","","","","html-button-response","32","81915","0.0-32.0","76CD189190A442A8B1B2BFF67C5A5D5F","019cfa2e-3c2b-7f3a-bff7-860af2dee9fb","019cfa18-54b6-74d4-8209-5fe92d2edcd5","","831","
                <div class=""stimulus-container"">
                    <img src=""images/semantic_sequence/physical_activity_semantic/physical_activity_semantic_8.png"" class=""exp-image"">
                    <div class=""question-area"">
                        <p style=""font-size: 20px; font-weight: bold; margin: 0;"">Is there a person in this image?</p>
                    </div>
                </div>","0","main_experiment_trial","8","physical_activity_semantic","semantic_sequence","chronological","","","","","","",""
"","","","","","html-keyboard-response","33","82931","0.0-33.0","76CD189190A442A8B1B2BFF67C5A5D5F","019cfa2e-3c2b-7f3a-bff7-860af2dee9fb","019cfa18-54b6-74d4-8209-5fe92d2edcd5","","null","
                <div class=""stimulus-container"">
                    <img src=""images/semantic_sequence/physical_activity_semantic/physical_activity_semantic_9.png"" class=""exp-image"">
                    <div class=""question-area""></div> 
                </div>","null","","","","","","","","","","","",""
"","","","","","html-button-response","34","83703","0.0-34.0","76CD189190A442A8B1B2BFF67C5A5D5F","019cfa2e-3c2b-7f3a-bff7-860af2dee9fb","019cfa18-54b6-74d4-8209-5fe92d2edcd5","","771","
                <div class=""stimulus-container"">
                    <img src=""images/semantic_sequence/physical_activity_semantic/physical_activity_semantic_9.png"" class=""exp-image"">
                    <div class=""question-area"">
                        <p style=""font-size: 20px; font-weight: bold; margin: 0;"">Is there a person in this image?</p>
                    </div>
                </div>","0","main_experiment_trial","9","physical_activity_semantic","semantic_sequence","chronological","","","","","","",""
"","","","","","html-keyboard-response","35","84717","0.0-35.0","76CD189190A442A8B1B2BFF67C5A5D5F","019cfa2e-3c2b-7f3a-bff7-860af2dee9fb","019cfa18-54b6-74d4-8209-5fe92d2edcd5","","null","
                <div class=""stimulus-container"">
                    <img src=""images/semantic_sequence/physical_activity_semantic/physical_activity_semantic_ten.png"" class=""exp-image"">
                    <div class=""question-area""></div> 
                </div>","null","","","","","","","","","","","",""
"","","","","","html-button-response","36","85474","0.0-36.0","76CD189190A442A8B1B2BFF67C5A5D5F","019cfa2e-3c2b-7f3a-bff7-860af2dee9fb","019cfa18-54b6-74d4-8209-5fe92d2edcd5","","756","
                <div class=""stimulus-container"">
                    <img src=""images/semantic_sequence/physical_activity_semantic/physical_activity_semantic_ten.png"" class=""exp-image"">
                    <div class=""question-area"">
                        <p style=""font-size: 20px; font-weight: bold; margin: 0;"">Is there a person in this image?</p>
                    </div>
                </div>","0","main_experiment_trial","ten","physical_activity_semantic","semantic_sequence","chronological","","","","","","",""
"","","","","","html-keyboard-response","37","90478","0.0-37.0","76CD189190A442A8B1B2BFF67C5A5D5F","019cfa2e-3c2b-7f3a-bff7-860af2dee9fb","019cfa18-54b6-74d4-8209-5fe92d2edcd5","","null","<div style=""background-color: white; width: 100vw; height: 100vh;""></div>","null","","","","","","","","","","","",""
"","","","","","html-keyboard-response","38","91487","0.0-38.0","76CD189190A442A8B1B2BFF67C5A5D5F","019cfa2e-3c2b-7f3a-bff7-860af2dee9fb","019cfa18-54b6-74d4-8209-5fe92d2edcd5","","null","
                <div class=""stimulus-container"">
                    <img src=""images/semantic_sequence/using_technology_semantic/using_technology_semantic_1.png"" class=""exp-image"">
                    <div class=""question-area""></div> 
                </div>","null","","","","","","","","","","","",""
"","","","","","html-button-response","39","92511","0.0-39.0","76CD189190A442A8B1B2BFF67C5A5D5F","019cfa2e-3c2b-7f3a-bff7-860af2dee9fb","019cfa18-54b6-74d4-8209-5fe92d2edcd5","","1023","
                <div class=""stimulus-container"">
                    <img src=""images/semantic_sequence/using_technology_semantic/using_technology_semantic_1.png"" class=""exp-image"">
                    <div class=""question-area"">
                        <p style=""font-size: 20px; font-weight: bold; margin: 0;"">Is there a person in this image?</p>
                    </div>
                </div>","0","main_experiment_trial","1","using_technology_semantic","semantic_sequence","chronological","","","","","","",""
"","","","","","html-keyboard-response","40","93519","0.0-40.0","76CD189190A442A8B1B2BFF67C5A5D5F","019cfa2e-3c2b-7f3a-bff7-860af2dee9fb","019cfa18-54b6-74d4-8209-5fe92d2edcd5","","null","
                <div class=""stimulus-container"">
                    <img src=""images/semantic_sequence/using_technology_semantic/using_technology_semantic_2.png"" class=""exp-image"">
                    <div class=""question-area""></div> 
                </div>","null","","","","","","","","","","","",""
"","","","","","html-button-response","41","94155","0.0-41.0","76CD189190A442A8B1B2BFF67C5A5D5F","019cfa2e-3c2b-7f3a-bff7-860af2dee9fb","019cfa18-54b6-74d4-8209-5fe92d2edcd5","","635","
                <div class=""stimulus-container"">
                    <img src=""images/semantic_sequence/using_technology_semantic/using_technology_semantic_2.png"" class=""exp-image"">
                    <div class=""question-area"">
                        <p style=""font-size: 20px; font-weight: bold; margin: 0;"">Is there a person in this image?</p>
                    </div>
                </div>","0","main_experiment_trial","2","using_technology_semantic","semantic_sequence","chronological","","","","","","",""
"","","","","","html-keyboard-response","42","95166","0.0-42.0","76CD189190A442A8B1B2BFF67C5A5D5F","019cfa2e-3c2b-7f3a-bff7-860af2dee9fb","019cfa18-54b6-74d4-8209-5fe92d2edcd5","","null","
                <div class=""stimulus-container"">
                    <img src=""images/semantic_sequence/using_technology_semantic/using_technology_semantic_3.png"" class=""exp-image"">
                    <div class=""question-area""></div> 
                </div>","null","","","","","","","","","","","",""
"","","","","","html-button-response","43","96203","0.0-43.0","76CD189190A442A8B1B2BFF67C5A5D5F","019cfa2e-3c2b-7f3a-bff7-860af2dee9fb","019cfa18-54b6-74d4-8209-5fe92d2edcd5","","1037","
                <div class=""stimulus-container"">
                    <img src=""images/semantic_sequence/using_technology_semantic/using_technology_semantic_3.png"" class=""exp-image"">
                    <div class=""question-area"">
                        <p style=""font-size: 20px; font-weight: bold; margin: 0;"">Is there a person in this image?</p>
                    </div>
                </div>","0","main_experiment_trial","3","using_technology_semantic","semantic_sequence","chronological","","","","","","",""
"","","","","","html-keyboard-response","44","97216","0.0-44.0","76CD189190A442A8B1B2BFF67C5A5D5F","019cfa2e-3c2b-7f3a-bff7-860af2dee9fb","019cfa18-54b6-74d4-8209-5fe92d2edcd5","","null","
                <div class=""stimulus-container"">
                    <img src=""images/semantic_sequence/using_technology_semantic/using_technology_semantic_4.png"" class=""exp-image"">
                    <div class=""question-area""></div> 
                </div>","null","","","","","","","","","","","",""
"","","","","","html-button-response","45","97782","0.0-45.0","76CD189190A442A8B1B2BFF67C5A5D5F","019cfa2e-3c2b-7f3a-bff7-860af2dee9fb","019cfa18-54b6-74d4-8209-5fe92d2edcd5","","565","
                <div class=""stimulus-container"">
                    <img src=""images/semantic_sequence/using_technology_semantic/using_technology_semantic_4.png"" class=""exp-image"">
                    <div class=""question-area"">
                        <p style=""font-size: 20px; font-weight: bold; margin: 0;"">Is there a person in this image?</p>
                    </div>
                </div>","0","main_experiment_trial","4","using_technology_semantic","semantic_sequence","chronological","","","","","","",""
"","","","","","html-keyboard-response","46","98795","0.0-46.0","76CD189190A442A8B1B2BFF67C5A5D5F","019cfa2e-3c2b-7f3a-bff7-860af2dee9fb","019cfa18-54b6-74d4-8209-5fe92d2edcd5","","null","
                <div class=""stimulus-container"">
                    <img src=""images/semantic_sequence/using_technology_semantic/using_technology_semantic_5.png"" class=""exp-image"">
                    <div class=""question-area""></div> 
                </div>","null","","","","","","","","","","","",""
"","","","","","html-button-response","47","99917","0.0-47.0","76CD189190A442A8B1B2BFF67C5A5D5F","019cfa2e-3c2b-7f3a-bff7-860af2dee9fb","019cfa18-54b6-74d4-8209-5fe92d2edcd5","","1122","
                <div class=""stimulus-container"">
                    <img src=""images/semantic_sequence/using_technology_semantic/using_technology_semantic_5.png"" class=""exp-image"">
                    <div class=""question-area"">
                        <p style=""font-size: 20px; font-weight: bold; margin: 0;"">Is there a person in this image?</p>
                    </div>
                </div>","0","main_experiment_trial","5","using_technology_semantic","semantic_sequence","chronological","","","","","","",""
"","","","","","html-keyboard-response","48","100923","0.0-48.0","76CD189190A442A8B1B2BFF67C5A5D5F","019cfa2e-3c2b-7f3a-bff7-860af2dee9fb","019cfa18-54b6-74d4-8209-5fe92d2edcd5","","null","
                <div class=""stimulus-container"">
                    <img src=""images/semantic_sequence/using_technology_semantic/using_technology_semantic_6.png"" class=""exp-image"">
                    <div class=""question-area""></div> 
                </div>","null","","","","","","","","","","","",""
"","","","","","html-button-response","49","101823","0.0-49.0","76CD189190A442A8B1B2BFF67C5A5D5F","019cfa2e-3c2b-7f3a-bff7-860af2dee9fb","019cfa18-54b6-74d4-8209-5fe92d2edcd5","","900","
                <div class=""stimulus-container"">
                    <img src=""images/semantic_sequence/using_technology_semantic/using_technology_semantic_6.png"" class=""exp-image"">
                    <div class=""question-area"">
                        <p style=""font-size: 20px; font-weight: bold; margin: 0;"">Is there a person in this image?</p>
                    </div>
                </div>","0","main_experiment_trial","6","using_technology_semantic","semantic_sequence","chronological","","","","","","",""
"","","","","","html-keyboard-response","50","102829","0.0-50.0","76CD189190A442A8B1B2BFF67C5A5D5F","019cfa2e-3c2b-7f3a-bff7-860af2dee9fb","019cfa18-54b6-74d4-8209-5fe92d2edcd5","","null","
                <div class=""stimulus-container"">
                    <img src=""images/semantic_sequence/using_technology_semantic/using_technology_semantic_7.png"" class=""exp-image"">
                    <div class=""question-area""></div> 
                </div>","null","","","","","","","","","","","",""
"","","","","","html-button-response","51","103554","0.0-51.0","76CD189190A442A8B1B2BFF67C5A5D5F","019cfa2e-3c2b-7f3a-bff7-860af2dee9fb","019cfa18-54b6-74d4-8209-5fe92d2edcd5","","725","
                <div class=""stimulus-container"">
                    <img src=""images/semantic_sequence/using_technology_semantic/using_technology_semantic_7.png"" class=""exp-image"">
                    <div class=""question-area"">
                        <p style=""font-size: 20px; font-weight: bold; margin: 0;"">Is there a person in this image?</p>
                    </div>
                </div>","0","main_experiment_trial","7","using_technology_semantic","semantic_sequence","chronological","","","","","","",""
"","","","","","html-keyboard-response","52","104569","0.0-52.0","76CD189190A442A8B1B2BFF67C5A5D5F","019cfa2e-3c2b-7f3a-bff7-860af2dee9fb","019cfa18-54b6-74d4-8209-5fe92d2edcd5","","null","
                <div class=""stimulus-container"">
                    <img src=""images/semantic_sequence/using_technology_semantic/using_technology_semantic_8.png"" class=""exp-image"">
                    <div class=""question-area""></div> 
                </div>","null","","","","","","","","","","","",""
"","","","","","html-button-response","53","105190","0.0-53.0","76CD189190A442A8B1B2BFF67C5A5D5F","019cfa2e-3c2b-7f3a-bff7-860af2dee9fb","019cfa18-54b6-74d4-8209-5fe92d2edcd5","","620","
                <div class=""stimulus-container"">
                    <img src=""images/semantic_sequence/using_technology_semantic/using_technology_semantic_8.png"" class=""exp-image"">
                    <div class=""question-area"">
                        <p style=""font-size: 20px; font-weight: bold; margin: 0;"">Is there a person in this image?</p>
                    </div>
                </div>","0","main_experiment_trial","8","using_technology_semantic","semantic_sequence","chronological","","","","","","",""
"","","","","","html-keyboard-response","54","106198","0.0-54.0","76CD189190A442A8B1B2BFF67C5A5D5F","019cfa2e-3c2b-7f3a-bff7-860af2dee9fb","019cfa18-54b6-74d4-8209-5fe92d2edcd5","","null","
                <div class=""stimulus-container"">
                    <img src=""images/semantic_sequence/using_technology_semantic/using_technology_semantic_9.png"" class=""exp-image"">
                    <div class=""question-area""></div> 
                </div>","null","","","","","","","","","","","",""
"","","","","","html-button-response","55","106771","0.0-55.0","76CD189190A442A8B1B2BFF67C5A5D5F","019cfa2e-3c2b-7f3a-bff7-860af2dee9fb","019cfa18-54b6-74d4-8209-5fe92d2edcd5","","572","
                <div class=""stimulus-container"">
                    <img src=""images/semantic_sequence/using_technology_semantic/using_technology_semantic_9.png"" class=""exp-image"">
                    <div class=""question-area"">
                        <p style=""font-size: 20px; font-weight: bold; margin: 0;"">Is there a person in this image?</p>
                    </div>
                </div>","0","main_experiment_trial","9","using_technology_semantic","semantic_sequence","chronological","","","","","","",""
"","","","","","html-keyboard-response","56","107783","0.0-56.0","76CD189190A442A8B1B2BFF67C5A5D5F","019cfa2e-3c2b-7f3a-bff7-860af2dee9fb","019cfa18-54b6-74d4-8209-5fe92d2edcd5","","null","
                <div class=""stimulus-container"">
                    <img src=""images/semantic_sequence/using_technology_semantic/using_technology_semantic_ten.png"" class=""exp-image"">
                    <div class=""question-area""></div> 
                </div>","null","","","","","","","","","","","",""
"","","","","","html-button-response","57","108290","0.0-57.0","76CD189190A442A8B1B2BFF67C5A5D5F","019cfa2e-3c2b-7f3a-bff7-860af2dee9fb","019cfa18-54b6-74d4-8209-5fe92d2edcd5","","506","
                <div class=""stimulus-container"">
                    <img src=""images/semantic_sequence/using_technology_semantic/using_technology_semantic_ten.png"" class=""exp-image"">
                    <div class=""question-area"">
                        <p style=""font-size: 20px; font-weight: bold; margin: 0;"">Is there a person in this image?</p>
                    </div>
                </div>","0","main_experiment_trial","ten","using_technology_semantic","semantic_sequence","chronological","","","","","","",""
"","","","","","html-keyboard-response","58","113304","0.0-58.0","76CD189190A442A8B1B2BFF67C5A5D5F","019cfa2e-3c2b-7f3a-bff7-860af2dee9fb","019cfa18-54b6-74d4-8209-5fe92d2edcd5","","null","<div style=""background-color: white; width: 100vw; height: 100vh;""></div>","null","","","","","","","","","","","",""
"","","","","","html-keyboard-response","59","114314","0.0-59.0","76CD189190A442A8B1B2BFF67C5A5D5F","019cfa2e-3c2b-7f3a-bff7-860af2dee9fb","019cfa18-54b6-74d4-8209-5fe92d2edcd5","","null","
                <div class=""stimulus-container"">
                    <img src=""images/causal_sequence/saving_a_cat_causal/saving_a_cat_causal_1.png"" class=""exp-image"">
                    <div class=""question-area""></div> 
                </div>","null","","","","","","","","","","","",""
"","","","","","html-button-response","60","116123","0.0-60.0","76CD189190A442A8B1B2BFF67C5A5D5F","019cfa2e-3c2b-7f3a-bff7-860af2dee9fb","019cfa18-54b6-74d4-8209-5fe92d2edcd5","","1809","
                <div class=""stimulus-container"">
                    <img src=""images/causal_sequence/saving_a_cat_causal/saving_a_cat_causal_1.png"" class=""exp-image"">
                    <div class=""question-area"">
                        <p style=""font-size: 20px; font-weight: bold; margin: 0;"">Is there a person in this image?</p>
                    </div>
                </div>","0","main_experiment_trial","1","saving_a_cat_causal","causal_sequence","chronological","","","","","","",""
"","","","","","html-keyboard-response","61","117125","0.0-61.0","76CD189190A442A8B1B2BFF67C5A5D5F","019cfa2e-3c2b-7f3a-bff7-860af2dee9fb","019cfa18-54b6-74d4-8209-5fe92d2edcd5","","null","
                <div class=""stimulus-container"">
                    <img src=""images/causal_sequence/saving_a_cat_causal/saving_a_cat_causal_2.png"" class=""exp-image"">
                    <div class=""question-area""></div> 
                </div>","null","","","","","","","","","","","",""
"","","","","","html-button-response","62","117783","0.0-62.0","76CD189190A442A8B1B2BFF67C5A5D5F","019cfa2e-3c2b-7f3a-bff7-860af2dee9fb","019cfa18-54b6-74d4-8209-5fe92d2edcd5","","657","
                <div class=""stimulus-container"">
                    <img src=""images/causal_sequence/saving_a_cat_causal/saving_a_cat_causal_2.png"" class=""exp-image"">
                    <div class=""question-area"">
                        <p style=""font-size: 20px; font-weight: bold; margin: 0;"">Is there a person in this image?</p>
                    </div>
                </div>","1","main_experiment_trial","2","saving_a_cat_causal","causal_sequence","chronological","","","","","","",""
"","","","","","html-keyboard-response","63","118786","0.0-63.0","76CD189190A442A8B1B2BFF67C5A5D5F","019cfa2e-3c2b-7f3a-bff7-860af2dee9fb","019cfa18-54b6-74d4-8209-5fe92d2edcd5","","null","
                <div class=""stimulus-container"">
                    <img src=""images/causal_sequence/saving_a_cat_causal/saving_a_cat_causal_3.png"" class=""exp-image"">
                    <div class=""question-area""></div> 
                </div>","null","","","","","","","","","","","",""
"","","","","","html-button-response","64","119364","0.0-64.0","76CD189190A442A8B1B2BFF67C5A5D5F","019cfa2e-3c2b-7f3a-bff7-860af2dee9fb","019cfa18-54b6-74d4-8209-5fe92d2edcd5","","577","
                <div class=""stimulus-container"">
                    <img src=""images/causal_sequence/saving_a_cat_causal/saving_a_cat_causal_3.png"" class=""exp-image"">
                    <div class=""question-area"">
                        <p style=""font-size: 20px; font-weight: bold; margin: 0;"">Is there a person in this image?</p>
                    </div>
                </div>","1","main_experiment_trial","3","saving_a_cat_causal","causal_sequence","chronological","","","","","","",""
"","","","","","html-keyboard-response","65","120368","0.0-65.0","76CD189190A442A8B1B2BFF67C5A5D5F","019cfa2e-3c2b-7f3a-bff7-860af2dee9fb","019cfa18-54b6-74d4-8209-5fe92d2edcd5","","null","
                <div class=""stimulus-container"">
                    <img src=""images/causal_sequence/saving_a_cat_causal/saving_a_cat_causal_4.png"" class=""exp-image"">
                    <div class=""question-area""></div> 
                </div>","null","","","","","","","","","","","",""
"","","","","","html-button-response","66","120955","0.0-66.0","76CD189190A442A8B1B2BFF67C5A5D5F","019cfa2e-3c2b-7f3a-bff7-860af2dee9fb","019cfa18-54b6-74d4-8209-5fe92d2edcd5","","586","
                <div class=""stimulus-container"">
                    <img src=""images/causal_sequence/saving_a_cat_causal/saving_a_cat_causal_4.png"" class=""exp-image"">
                    <div class=""question-area"">
                        <p style=""font-size: 20px; font-weight: bold; margin: 0;"">Is there a person in this image?</p>
                    </div>
                </div>","0","main_experiment_trial","4","saving_a_cat_causal","causal_sequence","chronological","","","","","","",""
"","","","","","html-keyboard-response","67","121967","0.0-67.0","76CD189190A442A8B1B2BFF67C5A5D5F","019cfa2e-3c2b-7f3a-bff7-860af2dee9fb","019cfa18-54b6-74d4-8209-5fe92d2edcd5","","null","
                <div class=""stimulus-container"">
                    <img src=""images/causal_sequence/saving_a_cat_causal/saving_a_cat_causal_5.png"" class=""exp-image"">
                    <div class=""question-area""></div> 
                </div>","null","","","","","","","","","","","",""
"","","","","","html-button-response","68","122527","0.0-68.0","76CD189190A442A8B1B2BFF67C5A5D5F","019cfa2e-3c2b-7f3a-bff7-860af2dee9fb","019cfa18-54b6-74d4-8209-5fe92d2edcd5","","560","
                <div class=""stimulus-container"">
                    <img src=""images/causal_sequence/saving_a_cat_causal/saving_a_cat_causal_5.png"" class=""exp-image"">
                    <div class=""question-area"">
                        <p style=""font-size: 20px; font-weight: bold; margin: 0;"">Is there a person in this image?</p>
                    </div>
                </div>","0","main_experiment_trial","5","saving_a_cat_causal","causal_sequence","chronological","","","","","","",""
"","","","","","html-keyboard-response","69","123543","0.0-69.0","76CD189190A442A8B1B2BFF67C5A5D5F","019cfa2e-3c2b-7f3a-bff7-860af2dee9fb","019cfa18-54b6-74d4-8209-5fe92d2edcd5","","null","
                <div class=""stimulus-container"">
                    <img src=""images/causal_sequence/saving_a_cat_causal/saving_a_cat_causal_6.png"" class=""exp-image"">
                    <div class=""question-area""></div> 
                </div>","null","","","","","","","","","","","",""
"","","","","","html-button-response","70","124173","0.0-70.0","76CD189190A442A8B1B2BFF67C5A5D5F","019cfa2e-3c2b-7f3a-bff7-860af2dee9fb","019cfa18-54b6-74d4-8209-5fe92d2edcd5","","629","
                <div class=""stimulus-container"">
                    <img src=""images/causal_sequence/saving_a_cat_causal/saving_a_cat_causal_6.png"" class=""exp-image"">
                    <div class=""question-area"">
                        <p style=""font-size: 20px; font-weight: bold; margin: 0;"">Is there a person in this image?</p>
                    </div>
                </div>","0","main_experiment_trial","6","saving_a_cat_causal","causal_sequence","chronological","","","","","","",""
"","","","","","html-keyboard-response","71","125178","0.0-71.0","76CD189190A442A8B1B2BFF67C5A5D5F","019cfa2e-3c2b-7f3a-bff7-860af2dee9fb","019cfa18-54b6-74d4-8209-5fe92d2edcd5","","null","
                <div class=""stimulus-container"">
                    <img src=""images/causal_sequence/saving_a_cat_causal/saving_a_cat_causal_7.png"" class=""exp-image"">
                    <div class=""question-area""></div> 
                </div>","null","","","","","","","","","","","",""
"","","","","","html-button-response","72","125776","0.0-72.0","76CD189190A442A8B1B2BFF67C5A5D5F","019cfa2e-3c2b-7f3a-bff7-860af2dee9fb","019cfa18-54b6-74d4-8209-5fe92d2edcd5","","597","
                <div class=""stimulus-container"">
                    <img src=""images/causal_sequence/saving_a_cat_causal/saving_a_cat_causal_7.png"" class=""exp-image"">
                    <div class=""question-area"">
                        <p style=""font-size: 20px; font-weight: bold; margin: 0;"">Is there a person in this image?</p>
                    </div>
                </div>","0","main_experiment_trial","7","saving_a_cat_causal","causal_sequence","chronological","","","","","","",""
"","","","","","html-keyboard-response","73","126778","0.0-73.0","76CD189190A442A8B1B2BFF67C5A5D5F","019cfa2e-3c2b-7f3a-bff7-860af2dee9fb","019cfa18-54b6-74d4-8209-5fe92d2edcd5","","null","
                <div class=""stimulus-container"">
                    <img src=""images/causal_sequence/saving_a_cat_causal/saving_a_cat_causal_8.png"" class=""exp-image"">
                    <div class=""question-area""></div> 
                </div>","null","","","","","","","","","","","",""
"","","","","","html-button-response","74","127531","0.0-74.0","76CD189190A442A8B1B2BFF67C5A5D5F","019cfa2e-3c2b-7f3a-bff7-860af2dee9fb","019cfa18-54b6-74d4-8209-5fe92d2edcd5","","752","
                <div class=""stimulus-container"">
                    <img src=""images/causal_sequence/saving_a_cat_causal/saving_a_cat_causal_8.png"" class=""exp-image"">
                    <div class=""question-area"">
                        <p style=""font-size: 20px; font-weight: bold; margin: 0;"">Is there a person in this image?</p>
                    </div>
                </div>","0","main_experiment_trial","8","saving_a_cat_causal","causal_sequence","chronological","","","","","","",""
"","","","","","html-keyboard-response","75","128545","0.0-75.0","76CD189190A442A8B1B2BFF67C5A5D5F","019cfa2e-3c2b-7f3a-bff7-860af2dee9fb","019cfa18-54b6-74d4-8209-5fe92d2edcd5","","null","
                <div class=""stimulus-container"">
                    <img src=""images/causal_sequence/saving_a_cat_causal/saving_a_cat_causal_9.png"" class=""exp-image"">
                    <div class=""question-area""></div> 
                </div>","null","","","","","","","","","","","",""
"","","","","","html-button-response","76","129074","0.0-76.0","76CD189190A442A8B1B2BFF67C5A5D5F","019cfa2e-3c2b-7f3a-bff7-860af2dee9fb","019cfa18-54b6-74d4-8209-5fe92d2edcd5","","528","
                <div class=""stimulus-container"">
                    <img src=""images/causal_sequence/saving_a_cat_causal/saving_a_cat_causal_9.png"" class=""exp-image"">
                    <div class=""question-area"">
                        <p style=""font-size: 20px; font-weight: bold; margin: 0;"">Is there a person in this image?</p>
                    </div>
                </div>","0","main_experiment_trial","9","saving_a_cat_causal","causal_sequence","chronological","","","","","","",""
"","","","","","html-keyboard-response","77","130084","0.0-77.0","76CD189190A442A8B1B2BFF67C5A5D5F","019cfa2e-3c2b-7f3a-bff7-860af2dee9fb","019cfa18-54b6-74d4-8209-5fe92d2edcd5","","null","
                <div class=""stimulus-container"">
                    <img src=""images/causal_sequence/saving_a_cat_causal/saving_a_cat_causal_ten.png"" class=""exp-image"">
                    <div class=""question-area""></div> 
                </div>","null","","","","","","","","","","","",""
"","","","","","html-button-response","78","130663","0.0-78.0","76CD189190A442A8B1B2BFF67C5A5D5F","019cfa2e-3c2b-7f3a-bff7-860af2dee9fb","019cfa18-54b6-74d4-8209-5fe92d2edcd5","","578","
                <div class=""stimulus-container"">
                    <img src=""images/causal_sequence/saving_a_cat_causal/saving_a_cat_causal_ten.png"" class=""exp-image"">
                    <div class=""question-area"">
                        <p style=""font-size: 20px; font-weight: bold; margin: 0;"">Is there a person in this image?</p>
                    </div>
                </div>","0","main_experiment_trial","ten","saving_a_cat_causal","causal_sequence","chronological","","","","","","",""
"","","","","","html-keyboard-response","79","135667","0.0-79.0","76CD189190A442A8B1B2BFF67C5A5D5F","019cfa2e-3c2b-7f3a-bff7-860af2dee9fb","019cfa18-54b6-74d4-8209-5fe92d2edcd5","","null","<div style=""background-color: white; width: 100vw; height: 100vh;""></div>","null","","","","","","","","","","","",""
"","","","","","html-keyboard-response","80","136674","0.0-80.0","76CD189190A442A8B1B2BFF67C5A5D5F","019cfa2e-3c2b-7f3a-bff7-860af2dee9fb","019cfa18-54b6-74d4-8209-5fe92d2edcd5","","null","
                <div class=""stimulus-container"">
                    <img src=""images/semantic_sequence/market_semantic/market_semantic_1.png"" class=""exp-image"">
                    <div class=""question-area""></div> 
                </div>","null","","","","","","","","","","","",""
"","","","","","html-button-response","81","137533","0.0-81.0","76CD189190A442A8B1B2BFF67C5A5D5F","019cfa2e-3c2b-7f3a-bff7-860af2dee9fb","019cfa18-54b6-74d4-8209-5fe92d2edcd5","","858","
                <div class=""stimulus-container"">
                    <img src=""images/semantic_sequence/market_semantic/market_semantic_1.png"" class=""exp-image"">
                    <div class=""question-area"">
                        <p style=""font-size: 20px; font-weight: bold; margin: 0;"">Is there a person in this image?</p>
                    </div>
                </div>","1","main_experiment_trial","1","market_semantic","semantic_sequence","chronological","","","","","","",""
"","","","","","html-keyboard-response","82","138538","0.0-82.0","76CD189190A442A8B1B2BFF67C5A5D5F","019cfa2e-3c2b-7f3a-bff7-860af2dee9fb","019cfa18-54b6-74d4-8209-5fe92d2edcd5","","null","
                <div class=""stimulus-container"">
                    <img src=""images/semantic_sequence/market_semantic/market_semantic_2.png"" class=""exp-image"">
                    <div class=""question-area""></div> 
                </div>","null","","","","","","","","","","","",""
"","","","","","html-button-response","83","139020","0.0-83.0","76CD189190A442A8B1B2BFF67C5A5D5F","019cfa2e-3c2b-7f3a-bff7-860af2dee9fb","019cfa18-54b6-74d4-8209-5fe92d2edcd5","","481","
                <div class=""stimulus-container"">
                    <img src=""images/semantic_sequence/market_semantic/market_semantic_2.png"" class=""exp-image"">
                    <div class=""question-area"">
                        <p style=""font-size: 20px; font-weight: bold; margin: 0;"">Is there a person in this image?</p>
                    </div>
                </div>","1","main_experiment_trial","2","market_semantic","semantic_sequence","chronological","","","","","","",""
"","","","","","html-keyboard-response","84","140028","0.0-84.0","76CD189190A442A8B1B2BFF67C5A5D5F","019cfa2e-3c2b-7f3a-bff7-860af2dee9fb","019cfa18-54b6-74d4-8209-5fe92d2edcd5","","null","
                <div class=""stimulus-container"">
                    <img src=""images/semantic_sequence/market_semantic/market_semantic_3.png"" class=""exp-image"">
                    <div class=""question-area""></div> 
                </div>","null","","","","","","","","","","","",""
"","","","","","html-button-response","85","140561","0.0-85.0","76CD189190A442A8B1B2BFF67C5A5D5F","019cfa2e-3c2b-7f3a-bff7-860af2dee9fb","019cfa18-54b6-74d4-8209-5fe92d2edcd5","","532","
                <div class=""stimulus-container"">
                    <img src=""images/semantic_sequence/market_semantic/market_semantic_3.png"" class=""exp-image"">
                    <div class=""question-area"">
                        <p style=""font-size: 20px; font-weight: bold; margin: 0;"">Is there a person in this image?</p>
                    </div>
                </div>","1","main_experiment_trial","3","market_semantic","semantic_sequence","chronological","","","","","","",""
"","","","","","html-keyboard-response","86","141564","0.0-86.0","76CD189190A442A8B1B2BFF67C5A5D5F","019cfa2e-3c2b-7f3a-bff7-860af2dee9fb","019cfa18-54b6-74d4-8209-5fe92d2edcd5","","null","
                <div class=""stimulus-container"">
                    <img src=""images/semantic_sequence/market_semantic/market_semantic_4.png"" class=""exp-image"">
                    <div class=""question-area""></div> 
                </div>","null","","","","","","","","","","","",""
"","","","","","html-button-response","87","142054","0.0-87.0","76CD189190A442A8B1B2BFF67C5A5D5F","019cfa2e-3c2b-7f3a-bff7-860af2dee9fb","019cfa18-54b6-74d4-8209-5fe92d2edcd5","","489","
                <div class=""stimulus-container"">
                    <img src=""images/semantic_sequence/market_semantic/market_semantic_4.png"" class=""exp-image"">
                    <div class=""question-area"">
                        <p style=""font-size: 20px; font-weight: bold; margin: 0;"">Is there a person in this image?</p>
                    </div>
                </div>","0","main_experiment_trial","4","market_semantic","semantic_sequence","chronological","","","","","","",""
"","","","","","html-keyboard-response","88","143058","0.0-88.0","76CD189190A442A8B1B2BFF67C5A5D5F","019cfa2e-3c2b-7f3a-bff7-860af2dee9fb","019cfa18-54b6-74d4-8209-5fe92d2edcd5","","null","
                <div class=""stimulus-container"">
                    <img src=""images/semantic_sequence/market_semantic/market_semantic_5.png"" class=""exp-image"">
                    <div class=""question-area""></div> 
                </div>","null","","","","","","","","","","","",""
"","","","","","html-button-response","89","143612","0.0-89.0","76CD189190A442A8B1B2BFF67C5A5D5F","019cfa2e-3c2b-7f3a-bff7-860af2dee9fb","019cfa18-54b6-74d4-8209-5fe92d2edcd5","","553","
                <div class=""stimulus-container"">
                    <img src=""images/semantic_sequence/market_semantic/market_semantic_5.png"" class=""exp-image"">
                    <div class=""question-area"">
                        <p style=""font-size: 20px; font-weight: bold; margin: 0;"">Is there a person in this image?</p>
                    </div>
                </div>","1","main_experiment_trial","5","market_semantic","semantic_sequence","chronological","","","","","","",""
"","","","","","html-keyboard-response","90","144624","0.0-90.0","76CD189190A442A8B1B2BFF67C5A5D5F","019cfa2e-3c2b-7f3a-bff7-860af2dee9fb","019cfa18-54b6-74d4-8209-5fe92d2edcd5","","null","
                <div class=""stimulus-container"">
                    <img src=""images/semantic_sequence/market_semantic/market_semantic_6.png"" class=""exp-image"">
                    <div class=""question-area""></div> 
                </div>","null","","","","","","","","","","","",""
"","","","","","html-button-response","91","145129","0.0-91.0","76CD189190A442A8B1B2BFF67C5A5D5F","019cfa2e-3c2b-7f3a-bff7-860af2dee9fb","019cfa18-54b6-74d4-8209-5fe92d2edcd5","","505","
                <div class=""stimulus-container"">
                    <img src=""images/semantic_sequence/market_semantic/market_semantic_6.png"" class=""exp-image"">
                    <div class=""question-area"">
                        <p style=""font-size: 20px; font-weight: bold; margin: 0;"">Is there a person in this image?</p>
                    </div>
                </div>","1","main_experiment_trial","6","market_semantic","semantic_sequence","chronological","","","","","","",""
"","","","","","html-keyboard-response","92","146134","0.0-92.0","76CD189190A442A8B1B2BFF67C5A5D5F","019cfa2e-3c2b-7f3a-bff7-860af2dee9fb","019cfa18-54b6-74d4-8209-5fe92d2edcd5","","null","
                <div class=""stimulus-container"">
                    <img src=""images/semantic_sequence/market_semantic/market_semantic_7.png"" class=""exp-image"">
                    <div class=""question-area""></div> 
                </div>","null","","","","","","","","","","","",""
"","","","","","html-button-response","93","146687","0.0-93.0","76CD189190A442A8B1B2BFF67C5A5D5F","019cfa2e-3c2b-7f3a-bff7-860af2dee9fb","019cfa18-54b6-74d4-8209-5fe92d2edcd5","","553","
                <div class=""stimulus-container"">
                    <img src=""images/semantic_sequence/market_semantic/market_semantic_7.png"" class=""exp-image"">
                    <div class=""question-area"">
                        <p style=""font-size: 20px; font-weight: bold; margin: 0;"">Is there a person in this image?</p>
                    </div>
                </div>","0","main_experiment_trial","7","market_semantic","semantic_sequence","chronological","","","","","","",""
"","","","","","html-keyboard-response","94","147690","0.0-94.0","76CD189190A442A8B1B2BFF67C5A5D5F","019cfa2e-3c2b-7f3a-bff7-860af2dee9fb","019cfa18-54b6-74d4-8209-5fe92d2edcd5","","null","
                <div class=""stimulus-container"">
                    <img src=""images/semantic_sequence/market_semantic/market_semantic_8.png"" class=""exp-image"">
                    <div class=""question-area""></div> 
                </div>","null","","","","","","","","","","","",""
"","","","","","html-button-response","95","148648","0.0-95.0","76CD189190A442A8B1B2BFF67C5A5D5F","019cfa2e-3c2b-7f3a-bff7-860af2dee9fb","019cfa18-54b6-74d4-8209-5fe92d2edcd5","","958","
                <div class=""stimulus-container"">
                    <img src=""images/semantic_sequence/market_semantic/market_semantic_8.png"" class=""exp-image"">
                    <div class=""question-area"">
                        <p style=""font-size: 20px; font-weight: bold; margin: 0;"">Is there a person in this image?</p>
                    </div>
                </div>","1","main_experiment_trial","8","market_semantic","semantic_sequence","chronological","","","","","","",""
"","","","","","html-keyboard-response","96","149659","0.0-96.0","76CD189190A442A8B1B2BFF67C5A5D5F","019cfa2e-3c2b-7f3a-bff7-860af2dee9fb","019cfa18-54b6-74d4-8209-5fe92d2edcd5","","null","
                <div class=""stimulus-container"">
                    <img src=""images/semantic_sequence/market_semantic/market_semantic_9.png"" class=""exp-image"">
                    <div class=""question-area""></div> 
                </div>","null","","","","","","","","","","","",""
"","","","","","html-button-response","97","150213","0.0-97.0","76CD189190A442A8B1B2BFF67C5A5D5F","019cfa2e-3c2b-7f3a-bff7-860af2dee9fb","019cfa18-54b6-74d4-8209-5fe92d2edcd5","","553","
                <div class=""stimulus-container"">
                    <img src=""images/semantic_sequence/market_semantic/market_semantic_9.png"" class=""exp-image"">
                    <div class=""question-area"">
                        <p style=""font-size: 20px; font-weight: bold; margin: 0;"">Is there a person in this image?</p>
                    </div>
                </div>","1","main_experiment_trial","9","market_semantic","semantic_sequence","chronological","","","","","","",""
"","","","","","html-keyboard-response","98","151216","0.0-98.0","76CD189190A442A8B1B2BFF67C5A5D5F","019cfa2e-3c2b-7f3a-bff7-860af2dee9fb","019cfa18-54b6-74d4-8209-5fe92d2edcd5","","null","
                <div class=""stimulus-container"">
                    <img src=""images/semantic_sequence/market_semantic/market_semantic_ten.png"" class=""exp-image"">
                    <div class=""question-area""></div> 
                </div>","null","","","","","","","","","","","",""
"","","","","","html-button-response","99","151801","0.0-99.0","76CD189190A442A8B1B2BFF67C5A5D5F","019cfa2e-3c2b-7f3a-bff7-860af2dee9fb","019cfa18-54b6-74d4-8209-5fe92d2edcd5","","584","
                <div class=""stimulus-container"">
                    <img src=""images/semantic_sequence/market_semantic/market_semantic_ten.png"" class=""exp-image"">
                    <div class=""question-area"">
                        <p style=""font-size: 20px; font-weight: bold; margin: 0;"">Is there a person in this image?</p>
                    </div>
                </div>","1","main_experiment_trial","ten","market_semantic","semantic_sequence","chronological","","","","","","",""
"","","","","","html-keyboard-response","100","156812","0.0-100.0","76CD189190A442A8B1B2BFF67C5A5D5F","019cfa2e-3c2b-7f3a-bff7-860af2dee9fb","019cfa18-54b6-74d4-8209-5fe92d2edcd5","","null","<div style=""background-color: white; width: 100vw; height: 100vh;""></div>","null","","","","","","","","","","","",""
"","","","","","html-keyboard-response","101","157820","0.0-101.0","76CD189190A442A8B1B2BFF67C5A5D5F","019cfa2e-3c2b-7f3a-bff7-860af2dee9fb","019cfa18-54b6-74d4-8209-5fe92d2edcd5","","null","
                <div class=""stimulus-container"">
                    <img src=""images/semantic_sequence/redecorating_a_house_semantic/redecorating_a_house_semantic_1.png"" class=""exp-image"">
                    <div class=""question-area""></div> 
                </div>","null","","","","","","","","","","","",""
"","","","","","html-button-response","102","158395","0.0-102.0","76CD189190A442A8B1B2BFF67C5A5D5F","019cfa2e-3c2b-7f3a-bff7-860af2dee9fb","019cfa18-54b6-74d4-8209-5fe92d2edcd5","","574","
                <div class=""stimulus-container"">
                    <img src=""images/semantic_sequence/redecorating_a_house_semantic/redecorating_a_house_semantic_1.png"" class=""exp-image"">
                    <div class=""question-area"">
                        <p style=""font-size: 20px; font-weight: bold; margin: 0;"">Is there a person in this image?</p>
                    </div>
                </div>","0","main_experiment_trial","1","redecorating_a_house_semantic","semantic_sequence","chronological","","","","","","",""
"","","","","","html-keyboard-response","103","159400","0.0-103.0","76CD189190A442A8B1B2BFF67C5A5D5F","019cfa2e-3c2b-7f3a-bff7-860af2dee9fb","019cfa18-54b6-74d4-8209-5fe92d2edcd5","","null","
                <div class=""stimulus-container"">
                    <img src=""images/semantic_sequence/redecorating_a_house_semantic/redecorating_a_house_semantic_2.png"" class=""exp-image"">
                    <div class=""question-area""></div> 
                </div>","null","","","","","","","","","","","",""
"","","","","","html-button-response","104","159890","0.0-104.0","76CD189190A442A8B1B2BFF67C5A5D5F","019cfa2e-3c2b-7f3a-bff7-860af2dee9fb","019cfa18-54b6-74d4-8209-5fe92d2edcd5","","490","
                <div class=""stimulus-container"">
                    <img src=""images/semantic_sequence/redecorating_a_house_semantic/redecorating_a_house_semantic_2.png"" class=""exp-image"">
                    <div class=""question-area"">
                        <p style=""font-size: 20px; font-weight: bold; margin: 0;"">Is there a person in this image?</p>
                    </div>
                </div>","0","main_experiment_trial","2","redecorating_a_house_semantic","semantic_sequence","chronological","","","","","","",""
"","","","","","html-keyboard-response","105","160893","0.0-105.0","76CD189190A442A8B1B2BFF67C5A5D5F","019cfa2e-3c2b-7f3a-bff7-860af2dee9fb","019cfa18-54b6-74d4-8209-5fe92d2edcd5","","null","
                <div class=""stimulus-container"">
                    <img src=""images/semantic_sequence/redecorating_a_house_semantic/redecorating_a_house_semantic_3.png"" class=""exp-image"">
                    <div class=""question-area""></div> 
                </div>","null","","","","","","","","","","","",""
"","","","","","html-button-response","106","161353","0.0-106.0","76CD189190A442A8B1B2BFF67C5A5D5F","019cfa2e-3c2b-7f3a-bff7-860af2dee9fb","019cfa18-54b6-74d4-8209-5fe92d2edcd5","","459","
                <div class=""stimulus-container"">
                    <img src=""images/semantic_sequence/redecorating_a_house_semantic/redecorating_a_house_semantic_3.png"" class=""exp-image"">
                    <div class=""question-area"">
                        <p style=""font-size: 20px; font-weight: bold; margin: 0;"">Is there a person in this image?</p>
                    </div>
                </div>","0","main_experiment_trial","3","redecorating_a_house_semantic","semantic_sequence","chronological","","","","","","",""
"","","","","","html-keyboard-response","107","162357","0.0-107.0","76CD189190A442A8B1B2BFF67C5A5D5F","019cfa2e-3c2b-7f3a-bff7-860af2dee9fb","019cfa18-54b6-74d4-8209-5fe92d2edcd5","","null","
                <div class=""stimulus-container"">
                    <img src=""images/semantic_sequence/redecorating_a_house_semantic/redecorating_a_house_semantic_4.png"" class=""exp-image"">
                    <div class=""question-area""></div> 
                </div>","null","","","","","","","","","","","",""
"","","","","","html-button-response","108","162790","0.0-108.0","76CD189190A442A8B1B2BFF67C5A5D5F","019cfa2e-3c2b-7f3a-bff7-860af2dee9fb","019cfa18-54b6-74d4-8209-5fe92d2edcd5","","432","
                <div class=""stimulus-container"">
                    <img src=""images/semantic_sequence/redecorating_a_house_semantic/redecorating_a_house_semantic_4.png"" class=""exp-image"">
                    <div class=""question-area"">
                        <p style=""font-size: 20px; font-weight: bold; margin: 0;"">Is there a person in this image?</p>
                    </div>
                </div>","0","main_experiment_trial","4","redecorating_a_house_semantic","semantic_sequence","chronological","","","","","","",""
"","","","","","html-keyboard-response","109","163802","0.0-109.0","76CD189190A442A8B1B2BFF67C5A5D5F","019cfa2e-3c2b-7f3a-bff7-860af2dee9fb","019cfa18-54b6-74d4-8209-5fe92d2edcd5","","null","
                <div class=""stimulus-container"">
                    <img src=""images/semantic_sequence/redecorating_a_house_semantic/redecorating_a_house_semantic_5.png"" class=""exp-image"">
                    <div class=""question-area""></div> 
                </div>","null","","","","","","","","","","","",""
"","","","","","html-button-response","110","164246","0.0-110.0","76CD189190A442A8B1B2BFF67C5A5D5F","019cfa2e-3c2b-7f3a-bff7-860af2dee9fb","019cfa18-54b6-74d4-8209-5fe92d2edcd5","","444","
                <div class=""stimulus-container"">
                    <img src=""images/semantic_sequence/redecorating_a_house_semantic/redecorating_a_house_semantic_5.png"" class=""exp-image"">
                    <div class=""question-area"">
                        <p style=""font-size: 20px; font-weight: bold; margin: 0;"">Is there a person in this image?</p>
                    </div>
                </div>","0","main_experiment_trial","5","redecorating_a_house_semantic","semantic_sequence","chronological","","","","","","",""
"","","","","","html-keyboard-response","111","165258","0.0-111.0","76CD189190A442A8B1B2BFF67C5A5D5F","019cfa2e-3c2b-7f3a-bff7-860af2dee9fb","019cfa18-54b6-74d4-8209-5fe92d2edcd5","","null","
                <div class=""stimulus-container"">
                    <img src=""images/semantic_sequence/redecorating_a_house_semantic/redecorating_a_house_semantic_6.png"" class=""exp-image"">
                    <div class=""question-area""></div> 
                </div>","null","","","","","","","","","","","",""
"","","","","","html-button-response","112","165731","0.0-112.0","76CD189190A442A8B1B2BFF67C5A5D5F","019cfa2e-3c2b-7f3a-bff7-860af2dee9fb","019cfa18-54b6-74d4-8209-5fe92d2edcd5","","472","
                <div class=""stimulus-container"">
                    <img src=""images/semantic_sequence/redecorating_a_house_semantic/redecorating_a_house_semantic_6.png"" class=""exp-image"">
                    <div class=""question-area"">
                        <p style=""font-size: 20px; font-weight: bold; margin: 0;"">Is there a person in this image?</p>
                    </div>
                </div>","0","main_experiment_trial","6","redecorating_a_house_semantic","semantic_sequence","chronological","","","","","","",""
"","","","","","html-keyboard-response","113","166736","0.0-113.0","76CD189190A442A8B1B2BFF67C5A5D5F","019cfa2e-3c2b-7f3a-bff7-860af2dee9fb","019cfa18-54b6-74d4-8209-5fe92d2edcd5","","null","
                <div class=""stimulus-container"">
                    <img src=""images/semantic_sequence/redecorating_a_house_semantic/redecorating_a_house_semantic_7.png"" class=""exp-image"">
                    <div class=""question-area""></div> 
                </div>","null","","","","","","","","","","","",""
"","","","","","html-button-response","114","167195","0.0-114.0","76CD189190A442A8B1B2BFF67C5A5D5F","019cfa2e-3c2b-7f3a-bff7-860af2dee9fb","019cfa18-54b6-74d4-8209-5fe92d2edcd5","","458","
                <div class=""stimulus-container"">
                    <img src=""images/semantic_sequence/redecorating_a_house_semantic/redecorating_a_house_semantic_7.png"" class=""exp-image"">
                    <div class=""question-area"">
                        <p style=""font-size: 20px; font-weight: bold; margin: 0;"">Is there a person in this image?</p>
                    </div>
                </div>","0","main_experiment_trial","7","redecorating_a_house_semantic","semantic_sequence","chronological","","","","","","",""
"","","","","","html-keyboard-response","115","168208","0.0-115.0","76CD189190A442A8B1B2BFF67C5A5D5F","019cfa2e-3c2b-7f3a-bff7-860af2dee9fb","019cfa18-54b6-74d4-8209-5fe92d2edcd5","","null","
                <div class=""stimulus-container"">
                    <img src=""images/semantic_sequence/redecorating_a_house_semantic/redecorating_a_house_semantic_8.png"" class=""exp-image"">
                    <div class=""question-area""></div> 
                </div>","null","","","","","","","","","","","",""
"","","","","","html-button-response","116","168696","0.0-116.0","76CD189190A442A8B1B2BFF67C5A5D5F","019cfa2e-3c2b-7f3a-bff7-860af2dee9fb","019cfa18-54b6-74d4-8209-5fe92d2edcd5","","487","
                <div class=""stimulus-container"">
                    <img src=""images/semantic_sequence/redecorating_a_house_semantic/redecorating_a_house_semantic_8.png"" class=""exp-image"">
                    <div class=""question-area"">
                        <p style=""font-size: 20px; font-weight: bold; margin: 0;"">Is there a person in this image?</p>
                    </div>
                </div>","0","main_experiment_trial","8","redecorating_a_house_semantic","semantic_sequence","chronological","","","","","","",""
"","","","","","html-keyboard-response","117","169702","0.0-117.0","76CD189190A442A8B1B2BFF67C5A5D5F","019cfa2e-3c2b-7f3a-bff7-860af2dee9fb","019cfa18-54b6-74d4-8209-5fe92d2edcd5","","null","
                <div class=""stimulus-container"">
                    <img src=""images/semantic_sequence/redecorating_a_house_semantic/redecorating_a_house_semantic_9.png"" class=""exp-image"">
                    <div class=""question-area""></div> 
                </div>","null","","","","","","","","","","","",""
"","","","","","html-button-response","118","170198","0.0-118.0","76CD189190A442A8B1B2BFF67C5A5D5F","019cfa2e-3c2b-7f3a-bff7-860af2dee9fb","019cfa18-54b6-74d4-8209-5fe92d2edcd5","","496","
                <div class=""stimulus-container"">
                    <img src=""images/semantic_sequence/redecorating_a_house_semantic/redecorating_a_house_semantic_9.png"" class=""exp-image"">
                    <div class=""question-area"">
                        <p style=""font-size: 20px; font-weight: bold; margin: 0;"">Is there a person in this image?</p>
                    </div>
                </div>","0","main_experiment_trial","9","redecorating_a_house_semantic","semantic_sequence","chronological","","","","","","",""
"","","","","","html-keyboard-response","119","171204","0.0-119.0","76CD189190A442A8B1B2BFF67C5A5D5F","019cfa2e-3c2b-7f3a-bff7-860af2dee9fb","019cfa18-54b6-74d4-8209-5fe92d2edcd5","","null","
                <div class=""stimulus-container"">
                    <img src=""images/semantic_sequence/redecorating_a_house_semantic/redecorating_a_house_semantic_ten.png"" class=""exp-image"">
                    <div class=""question-area""></div> 
                </div>","null","","","","","","","","","","","",""
"","","","","","html-button-response","120","171677","0.0-120.0","76CD189190A442A8B1B2BFF67C5A5D5F","019cfa2e-3c2b-7f3a-bff7-860af2dee9fb","019cfa18-54b6-74d4-8209-5fe92d2edcd5","","472","
                <div class=""stimulus-container"">
                    <img src=""images/semantic_sequence/redecorating_a_house_semantic/redecorating_a_house_semantic_ten.png"" class=""exp-image"">
                    <div class=""question-area"">
                        <p style=""font-size: 20px; font-weight: bold; margin: 0;"">Is there a person in this image?</p>
                    </div>
                </div>","0","main_experiment_trial","ten","redecorating_a_house_semantic","semantic_sequence","chronological","","","","","","",""
"","","","","","html-keyboard-response","121","176678","0.0-121.0","76CD189190A442A8B1B2BFF67C5A5D5F","019cfa2e-3c2b-7f3a-bff7-860af2dee9fb","019cfa18-54b6-74d4-8209-5fe92d2edcd5","","null","<div style=""background-color: white; width: 100vw; height: 100vh;""></div>","null","","","","","","","","","","","",""
"","","","","","html-keyboard-response","122","177687","0.0-122.0","76CD189190A442A8B1B2BFF67C5A5D5F","019cfa2e-3c2b-7f3a-bff7-860af2dee9fb","019cfa18-54b6-74d4-8209-5fe92d2edcd5","","null","
                <div class=""stimulus-container"">
                    <img src=""images/causal_sequence/museum_causal/museum_causal_1.png"" class=""exp-image"">
                    <div class=""question-area""></div> 
                </div>","null","","","","","","","","","","","",""
"","","","","","html-button-response","123","178791","0.0-123.0","76CD189190A442A8B1B2BFF67C5A5D5F","019cfa2e-3c2b-7f3a-bff7-860af2dee9fb","019cfa18-54b6-74d4-8209-5fe92d2edcd5","","1104","
                <div class=""stimulus-container"">
                    <img src=""images/causal_sequence/museum_causal/museum_causal_1.png"" class=""exp-image"">
                    <div class=""question-area"">
                        <p style=""font-size: 20px; font-weight: bold; margin: 0;"">Is there a person in this image?</p>
                    </div>
                </div>","0","main_experiment_trial","1","museum_causal","causal_sequence","chronological","","","","","","",""
"","","","","","html-keyboard-response","124","179801","0.0-124.0","76CD189190A442A8B1B2BFF67C5A5D5F","019cfa2e-3c2b-7f3a-bff7-860af2dee9fb","019cfa18-54b6-74d4-8209-5fe92d2edcd5","","null","
                <div class=""stimulus-container"">
                    <img src=""images/causal_sequence/museum_causal/museum_causal_2.png"" class=""exp-image"">
                    <div class=""question-area""></div> 
                </div>","null","","","","","","","","","","","",""
"","","","","","html-button-response","125","180734","0.0-125.0","76CD189190A442A8B1B2BFF67C5A5D5F","019cfa2e-3c2b-7f3a-bff7-860af2dee9fb","019cfa18-54b6-74d4-8209-5fe92d2edcd5","","932","
                <div class=""stimulus-container"">
                    <img src=""images/causal_sequence/museum_causal/museum_causal_2.png"" class=""exp-image"">
                    <div class=""question-area"">
                        <p style=""font-size: 20px; font-weight: bold; margin: 0;"">Is there a person in this image?</p>
                    </div>
                </div>","1","main_experiment_trial","2","museum_causal","causal_sequence","chronological","","","","","","",""
"","","","","","html-keyboard-response","126","181742","0.0-126.0","76CD189190A442A8B1B2BFF67C5A5D5F","019cfa2e-3c2b-7f3a-bff7-860af2dee9fb","019cfa18-54b6-74d4-8209-5fe92d2edcd5","","null","
                <div class=""stimulus-container"">
                    <img src=""images/causal_sequence/museum_causal/museum_causal_3.png"" class=""exp-image"">
                    <div class=""question-area""></div> 
                </div>","null","","","","","","","","","","","",""
"","","","","","html-button-response","127","182735","0.0-127.0","76CD189190A442A8B1B2BFF67C5A5D5F","019cfa2e-3c2b-7f3a-bff7-860af2dee9fb","019cfa18-54b6-74d4-8209-5fe92d2edcd5","","992","
                <div class=""stimulus-container"">
                    <img src=""images/causal_sequence/museum_causal/museum_causal_3.png"" class=""exp-image"">
                    <div class=""question-area"">
                        <p style=""font-size: 20px; font-weight: bold; margin: 0;"">Is there a person in this image?</p>
                    </div>
                </div>","0","main_experiment_trial","3","museum_causal","causal_sequence","chronological","","","","","","",""
"","","","","","html-keyboard-response","128","183747","0.0-128.0","76CD189190A442A8B1B2BFF67C5A5D5F","019cfa2e-3c2b-7f3a-bff7-860af2dee9fb","019cfa18-54b6-74d4-8209-5fe92d2edcd5","","null","
                <div class=""stimulus-container"">
                    <img src=""images/causal_sequence/museum_causal/museum_causal_4.png"" class=""exp-image"">
                    <div class=""question-area""></div> 
                </div>","null","","","","","","","","","","","",""
"","","","","","html-button-response","129","184318","0.0-129.0","76CD189190A442A8B1B2BFF67C5A5D5F","019cfa2e-3c2b-7f3a-bff7-860af2dee9fb","019cfa18-54b6-74d4-8209-5fe92d2edcd5","","570","
                <div class=""stimulus-container"">
                    <img src=""images/causal_sequence/museum_causal/museum_causal_4.png"" class=""exp-image"">
                    <div class=""question-area"">
                        <p style=""font-size: 20px; font-weight: bold; margin: 0;"">Is there a person in this image?</p>
                    </div>
                </div>","1","main_experiment_trial","4","museum_causal","causal_sequence","chronological","","","","","","",""
"","","","","","html-keyboard-response","130","185327","0.0-130.0","76CD189190A442A8B1B2BFF67C5A5D5F","019cfa2e-3c2b-7f3a-bff7-860af2dee9fb","019cfa18-54b6-74d4-8209-5fe92d2edcd5","","null","
                <div class=""stimulus-container"">
                    <img src=""images/causal_sequence/museum_causal/museum_causal_5.png"" class=""exp-image"">
                    <div class=""question-area""></div> 
                </div>","null","","","","","","","","","","","",""
"","","","","","html-button-response","131","185844","0.0-131.0","76CD189190A442A8B1B2BFF67C5A5D5F","019cfa2e-3c2b-7f3a-bff7-860af2dee9fb","019cfa18-54b6-74d4-8209-5fe92d2edcd5","","517","
                <div class=""stimulus-container"">
                    <img src=""images/causal_sequence/museum_causal/museum_causal_5.png"" class=""exp-image"">
                    <div class=""question-area"">
                        <p style=""font-size: 20px; font-weight: bold; margin: 0;"">Is there a person in this image?</p>
                    </div>
                </div>","0","main_experiment_trial","5","museum_causal","causal_sequence","chronological","","","","","","",""
"","","","","","html-keyboard-response","132","186859","0.0-132.0","76CD189190A442A8B1B2BFF67C5A5D5F","019cfa2e-3c2b-7f3a-bff7-860af2dee9fb","019cfa18-54b6-74d4-8209-5fe92d2edcd5","","null","
                <div class=""stimulus-container"">
                    <img src=""images/causal_sequence/museum_causal/museum_causal_6.png"" class=""exp-image"">
                    <div class=""question-area""></div> 
                </div>","null","","","","","","","","","","","",""
"","","","","","html-button-response","133","187481","0.0-133.0","76CD189190A442A8B1B2BFF67C5A5D5F","019cfa2e-3c2b-7f3a-bff7-860af2dee9fb","019cfa18-54b6-74d4-8209-5fe92d2edcd5","","621","
                <div class=""stimulus-container"">
                    <img src=""images/causal_sequence/museum_causal/museum_causal_6.png"" class=""exp-image"">
                    <div class=""question-area"">
                        <p style=""font-size: 20px; font-weight: bold; margin: 0;"">Is there a person in this image?</p>
                    </div>
                </div>","0","main_experiment_trial","6","museum_causal","causal_sequence","chronological","","","","","","",""
"","","","","","html-keyboard-response","134","188488","0.0-134.0","76CD189190A442A8B1B2BFF67C5A5D5F","019cfa2e-3c2b-7f3a-bff7-860af2dee9fb","019cfa18-54b6-74d4-8209-5fe92d2edcd5","","null","
                <div class=""stimulus-container"">
                    <img src=""images/causal_sequence/museum_causal/museum_causal_7.png"" class=""exp-image"">
                    <div class=""question-area""></div> 
                </div>","null","","","","","","","","","","","",""
"","","","","","html-button-response","135","189055","0.0-135.0","76CD189190A442A8B1B2BFF67C5A5D5F","019cfa2e-3c2b-7f3a-bff7-860af2dee9fb","019cfa18-54b6-74d4-8209-5fe92d2edcd5","","566","
                <div class=""stimulus-container"">
                    <img src=""images/causal_sequence/museum_causal/museum_causal_7.png"" class=""exp-image"">
                    <div class=""question-area"">
                        <p style=""font-size: 20px; font-weight: bold; margin: 0;"">Is there a person in this image?</p>
                    </div>
                </div>","1","main_experiment_trial","7","museum_causal","causal_sequence","chronological","","","","","","",""
"","","","","","html-keyboard-response","136","190058","0.0-136.0","76CD189190A442A8B1B2BFF67C5A5D5F","019cfa2e-3c2b-7f3a-bff7-860af2dee9fb","019cfa18-54b6-74d4-8209-5fe92d2edcd5","","null","
                <div class=""stimulus-container"">
                    <img src=""images/causal_sequence/museum_causal/museum_causal_8.png"" class=""exp-image"">
                    <div class=""question-area""></div> 
                </div>","null","","","","","","","","","","","",""
"","","","","","html-button-response","137","190645","0.0-137.0","76CD189190A442A8B1B2BFF67C5A5D5F","019cfa2e-3c2b-7f3a-bff7-860af2dee9fb","019cfa18-54b6-74d4-8209-5fe92d2edcd5","","586","
                <div class=""stimulus-container"">
                    <img src=""images/causal_sequence/museum_causal/museum_causal_8.png"" class=""exp-image"">
                    <div class=""question-area"">
                        <p style=""font-size: 20px; font-weight: bold; margin: 0;"">Is there a person in this image?</p>
                    </div>
                </div>","0","main_experiment_trial","8","museum_causal","causal_sequence","chronological","","","","","","",""
"","","","","","html-keyboard-response","138","191657","0.0-138.0","76CD189190A442A8B1B2BFF67C5A5D5F","019cfa2e-3c2b-7f3a-bff7-860af2dee9fb","019cfa18-54b6-74d4-8209-5fe92d2edcd5","","null","
                <div class=""stimulus-container"">
                    <img src=""images/causal_sequence/museum_causal/museum_causal_9.png"" class=""exp-image"">
                    <div class=""question-area""></div> 
                </div>","null","","","","","","","","","","","",""
"","","","","","html-button-response","139","192185","0.0-139.0","76CD189190A442A8B1B2BFF67C5A5D5F","019cfa2e-3c2b-7f3a-bff7-860af2dee9fb","019cfa18-54b6-74d4-8209-5fe92d2edcd5","","528","
                <div class=""stimulus-container"">
                    <img src=""images/causal_sequence/museum_causal/museum_causal_9.png"" class=""exp-image"">
                    <div class=""question-area"">
                        <p style=""font-size: 20px; font-weight: bold; margin: 0;"">Is there a person in this image?</p>
                    </div>
                </div>","1","main_experiment_trial","9","museum_causal","causal_sequence","chronological","","","","","","",""
"","","","","","html-keyboard-response","140","193195","0.0-140.0","76CD189190A442A8B1B2BFF67C5A5D5F","019cfa2e-3c2b-7f3a-bff7-860af2dee9fb","019cfa18-54b6-74d4-8209-5fe92d2edcd5","","null","
                <div class=""stimulus-container"">
                    <img src=""images/causal_sequence/museum_causal/museum_causal_ten.png"" class=""exp-image"">
                    <div class=""question-area""></div> 
                </div>","null","","","","","","","","","","","",""
"","","","","","html-button-response","141","193790","0.0-141.0","76CD189190A442A8B1B2BFF67C5A5D5F","019cfa2e-3c2b-7f3a-bff7-860af2dee9fb","019cfa18-54b6-74d4-8209-5fe92d2edcd5","","594","
                <div class=""stimulus-container"">
                    <img src=""images/causal_sequence/museum_causal/museum_causal_ten.png"" class=""exp-image"">
                    <div class=""question-area"">
                        <p style=""font-size: 20px; font-weight: bold; margin: 0;"">Is there a person in this image?</p>
                    </div>
                </div>","0","main_experiment_trial","ten","museum_causal","causal_sequence","chronological","","","","","","",""
"","","","","","html-keyboard-response","142","198792","0.0-142.0","76CD189190A442A8B1B2BFF67C5A5D5F","019cfa2e-3c2b-7f3a-bff7-860af2dee9fb","019cfa18-54b6-74d4-8209-5fe92d2edcd5","","null","<div style=""background-color: white; width: 100vw; height: 100vh;""></div>","null","","","","","","","","","","","",""
"","","","","","html-keyboard-response","143","199804","0.0-143.0","76CD189190A442A8B1B2BFF67C5A5D5F","019cfa2e-3c2b-7f3a-bff7-860af2dee9fb","019cfa18-54b6-74d4-8209-5fe92d2edcd5","","null","
                <div class=""stimulus-container"">
                    <img src=""images/semantic_sequence/self_care_activities_semantic/self_care_activities_semantic_1.png"" class=""exp-image"">
                    <div class=""question-area""></div> 
                </div>","null","","","","","","","","","","","",""
"","","","","","html-button-response","144","200663","0.0-144.0","76CD189190A442A8B1B2BFF67C5A5D5F","019cfa2e-3c2b-7f3a-bff7-860af2dee9fb","019cfa18-54b6-74d4-8209-5fe92d2edcd5","","858","
                <div class=""stimulus-container"">
                    <img src=""images/semantic_sequence/self_care_activities_semantic/self_care_activities_semantic_1.png"" class=""exp-image"">
                    <div class=""question-area"">
                        <p style=""font-size: 20px; font-weight: bold; margin: 0;"">Is there a person in this image?</p>
                    </div>
                </div>","0","main_experiment_trial","1","self_care_activities_semantic","semantic_sequence","chronological","","","","","","",""
"","","","","","html-keyboard-response","145","201669","0.0-145.0","76CD189190A442A8B1B2BFF67C5A5D5F","019cfa2e-3c2b-7f3a-bff7-860af2dee9fb","019cfa18-54b6-74d4-8209-5fe92d2edcd5","","null","
                <div class=""stimulus-container"">
                    <img src=""images/semantic_sequence/self_care_activities_semantic/self_care_activities_semantic_2.png"" class=""exp-image"">
                    <div class=""question-area""></div> 
                </div>","null","","","","","","","","","","","",""
"","","","","","html-button-response","146","202229","0.0-146.0","76CD189190A442A8B1B2BFF67C5A5D5F","019cfa2e-3c2b-7f3a-bff7-860af2dee9fb","019cfa18-54b6-74d4-8209-5fe92d2edcd5","","559","
                <div class=""stimulus-container"">
                    <img src=""images/semantic_sequence/self_care_activities_semantic/self_care_activities_semantic_2.png"" class=""exp-image"">
                    <div class=""question-area"">
                        <p style=""font-size: 20px; font-weight: bold; margin: 0;"">Is there a person in this image?</p>
                    </div>
                </div>","0","main_experiment_trial","2","self_care_activities_semantic","semantic_sequence","chronological","","","","","","",""
"","","","","","html-keyboard-response","147","203237","0.0-147.0","76CD189190A442A8B1B2BFF67C5A5D5F","019cfa2e-3c2b-7f3a-bff7-860af2dee9fb","019cfa18-54b6-74d4-8209-5fe92d2edcd5","","null","
                <div class=""stimulus-container"">
                    <img src=""images/semantic_sequence/self_care_activities_semantic/self_care_activities_semantic_3.png"" class=""exp-image"">
                    <div class=""question-area""></div> 
                </div>","null","","","","","","","","","","","",""
"","","","","","html-button-response","148","203881","0.0-148.0","76CD189190A442A8B1B2BFF67C5A5D5F","019cfa2e-3c2b-7f3a-bff7-860af2dee9fb","019cfa18-54b6-74d4-8209-5fe92d2edcd5","","643","
                <div class=""stimulus-container"">
                    <img src=""images/semantic_sequence/self_care_activities_semantic/self_care_activities_semantic_3.png"" class=""exp-image"">
                    <div class=""question-area"">
                        <p style=""font-size: 20px; font-weight: bold; margin: 0;"">Is there a person in this image?</p>
                    </div>
                </div>","0","main_experiment_trial","3","self_care_activities_semantic","semantic_sequence","chronological","","","","","","",""
"","","","","","html-keyboard-response","149","204895","0.0-149.0","76CD189190A442A8B1B2BFF67C5A5D5F","019cfa2e-3c2b-7f3a-bff7-860af2dee9fb","019cfa18-54b6-74d4-8209-5fe92d2edcd5","","null","
                <div class=""stimulus-container"">
                    <img src=""images/semantic_sequence/self_care_activities_semantic/self_care_activities_semantic_4.png"" class=""exp-image"">
                    <div class=""question-area""></div> 
                </div>","null","","","","","","","","","","","",""
"","","","","","html-button-response","150","205583","0.0-150.0","76CD189190A442A8B1B2BFF67C5A5D5F","019cfa2e-3c2b-7f3a-bff7-860af2dee9fb","019cfa18-54b6-74d4-8209-5fe92d2edcd5","","688","
                <div class=""stimulus-container"">
                    <img src=""images/semantic_sequence/self_care_activities_semantic/self_care_activities_semantic_4.png"" class=""exp-image"">
                    <div class=""question-area"">
                        <p style=""font-size: 20px; font-weight: bold; margin: 0;"">Is there a person in this image?</p>
                    </div>
                </div>","0","main_experiment_trial","4","self_care_activities_semantic","semantic_sequence","chronological","","","","","","",""
"","","","","","html-keyboard-response","151","206584","0.0-151.0","76CD189190A442A8B1B2BFF67C5A5D5F","019cfa2e-3c2b-7f3a-bff7-860af2dee9fb","019cfa18-54b6-74d4-8209-5fe92d2edcd5","","null","
                <div class=""stimulus-container"">
                    <img src=""images/semantic_sequence/self_care_activities_semantic/self_care_activities_semantic_5.png"" class=""exp-image"">
                    <div class=""question-area""></div> 
                </div>","null","","","","","","","","","","","",""
"","","","","","html-button-response","152","207044","0.0-152.0","76CD189190A442A8B1B2BFF67C5A5D5F","019cfa2e-3c2b-7f3a-bff7-860af2dee9fb","019cfa18-54b6-74d4-8209-5fe92d2edcd5","","459","
                <div class=""stimulus-container"">
                    <img src=""images/semantic_sequence/self_care_activities_semantic/self_care_activities_semantic_5.png"" class=""exp-image"">
                    <div class=""question-area"">
                        <p style=""font-size: 20px; font-weight: bold; margin: 0;"">Is there a person in this image?</p>
                    </div>
                </div>","0","main_experiment_trial","5","self_care_activities_semantic","semantic_sequence","chronological","","","","","","",""
"","","","","","html-keyboard-response","153","208058","0.0-153.0","76CD189190A442A8B1B2BFF67C5A5D5F","019cfa2e-3c2b-7f3a-bff7-860af2dee9fb","019cfa18-54b6-74d4-8209-5fe92d2edcd5","","null","
                <div class=""stimulus-container"">
                    <img src=""images/semantic_sequence/self_care_activities_semantic/self_care_activities_semantic_6.png"" class=""exp-image"">
                    <div class=""question-area""></div> 
                </div>","null","","","","","","","","","","","",""
"","","","","","html-button-response","154","208609","0.0-154.0","76CD189190A442A8B1B2BFF67C5A5D5F","019cfa2e-3c2b-7f3a-bff7-860af2dee9fb","019cfa18-54b6-74d4-8209-5fe92d2edcd5","","550","
                <div class=""stimulus-container"">
                    <img src=""images/semantic_sequence/self_care_activities_semantic/self_care_activities_semantic_6.png"" class=""exp-image"">
                    <div class=""question-area"">
                        <p style=""font-size: 20px; font-weight: bold; margin: 0;"">Is there a person in this image?</p>
                    </div>
                </div>","1","main_experiment_trial","6","self_care_activities_semantic","semantic_sequence","chronological","","","","","","",""
"","","","","","html-keyboard-response","155","209617","0.0-155.0","76CD189190A442A8B1B2BFF67C5A5D5F","019cfa2e-3c2b-7f3a-bff7-860af2dee9fb","019cfa18-54b6-74d4-8209-5fe92d2edcd5","","null","
                <div class=""stimulus-container"">
                    <img src=""images/semantic_sequence/self_care_activities_semantic/self_care_activities_semantic_7.png"" class=""exp-image"">
                    <div class=""question-area""></div> 
                </div>","null","","","","","","","","","","","",""
"","","","","","html-button-response","156","210087","0.0-156.0","76CD189190A442A8B1B2BFF67C5A5D5F","019cfa2e-3c2b-7f3a-bff7-860af2dee9fb","019cfa18-54b6-74d4-8209-5fe92d2edcd5","","470","
                <div class=""stimulus-container"">
                    <img src=""images/semantic_sequence/self_care_activities_semantic/self_care_activities_semantic_7.png"" class=""exp-image"">
                    <div class=""question-area"">
                        <p style=""font-size: 20px; font-weight: bold; margin: 0;"">Is there a person in this image?</p>
                    </div>
                </div>","0","main_experiment_trial","7","self_care_activities_semantic","semantic_sequence","chronological","","","","","","",""
"","","","","","html-keyboard-response","157","211091","0.0-157.0","76CD189190A442A8B1B2BFF67C5A5D5F","019cfa2e-3c2b-7f3a-bff7-860af2dee9fb","019cfa18-54b6-74d4-8209-5fe92d2edcd5","","null","
                <div class=""stimulus-container"">
                    <img src=""images/semantic_sequence/self_care_activities_semantic/self_care_activities_semantic_8.png"" class=""exp-image"">
                    <div class=""question-area""></div> 
                </div>","null","","","","","","","","","","","",""
"","","","","","html-button-response","158","211677","0.0-158.0","76CD189190A442A8B1B2BFF67C5A5D5F","019cfa2e-3c2b-7f3a-bff7-860af2dee9fb","019cfa18-54b6-74d4-8209-5fe92d2edcd5","","586","
                <div class=""stimulus-container"">
                    <img src=""images/semantic_sequence/self_care_activities_semantic/self_care_activities_semantic_8.png"" class=""exp-image"">
                    <div class=""question-area"">
                        <p style=""font-size: 20px; font-weight: bold; margin: 0;"">Is there a person in this image?</p>
                    </div>
                </div>","0","main_experiment_trial","8","self_care_activities_semantic","semantic_sequence","chronological","","","","","","",""
"","","","","","html-keyboard-response","159","212690","0.0-159.0","76CD189190A442A8B1B2BFF67C5A5D5F","019cfa2e-3c2b-7f3a-bff7-860af2dee9fb","019cfa18-54b6-74d4-8209-5fe92d2edcd5","","null","
                <div class=""stimulus-container"">
                    <img src=""images/semantic_sequence/self_care_activities_semantic/self_care_activities_semantic_9.png"" class=""exp-image"">
                    <div class=""question-area""></div> 
                </div>","null","","","","","","","","","","","",""
"","","","","","html-button-response","160","213298","0.0-160.0","76CD189190A442A8B1B2BFF67C5A5D5F","019cfa2e-3c2b-7f3a-bff7-860af2dee9fb","019cfa18-54b6-74d4-8209-5fe92d2edcd5","","607","
                <div class=""stimulus-container"">
                    <img src=""images/semantic_sequence/self_care_activities_semantic/self_care_activities_semantic_9.png"" class=""exp-image"">
                    <div class=""question-area"">
                        <p style=""font-size: 20px; font-weight: bold; margin: 0;"">Is there a person in this image?</p>
                    </div>
                </div>","0","main_experiment_trial","9","self_care_activities_semantic","semantic_sequence","chronological","","","","","","",""
"","","","","","html-keyboard-response","161","214303","0.0-161.0","76CD189190A442A8B1B2BFF67C5A5D5F","019cfa2e-3c2b-7f3a-bff7-860af2dee9fb","019cfa18-54b6-74d4-8209-5fe92d2edcd5","","null","
                <div class=""stimulus-container"">
                    <img src=""images/semantic_sequence/self_care_activities_semantic/self_care_activities_semantic_ten.png"" class=""exp-image"">
                    <div class=""question-area""></div> 
                </div>","null","","","","","","","","","","","",""
"","","","","","html-button-response","162","215029","0.0-162.0","76CD189190A442A8B1B2BFF67C5A5D5F","019cfa2e-3c2b-7f3a-bff7-860af2dee9fb","019cfa18-54b6-74d4-8209-5fe92d2edcd5","","725","
                <div class=""stimulus-container"">
                    <img src=""images/semantic_sequence/self_care_activities_semantic/self_care_activities_semantic_ten.png"" class=""exp-image"">
                    <div class=""question-area"">
                        <p style=""font-size: 20px; font-weight: bold; margin: 0;"">Is there a person in this image?</p>
                    </div>
                </div>","0","main_experiment_trial","ten","self_care_activities_semantic","semantic_sequence","chronological","","","","","","",""
"","","","","","html-keyboard-response","163","220039","0.0-163.0","76CD189190A442A8B1B2BFF67C5A5D5F","019cfa2e-3c2b-7f3a-bff7-860af2dee9fb","019cfa18-54b6-74d4-8209-5fe92d2edcd5","","null","<div style=""background-color: white; width: 100vw; height: 100vh;""></div>","null","","","","","","","","","","","",""
"","","","","","html-keyboard-response","164","221045","0.0-164.0","76CD189190A442A8B1B2BFF67C5A5D5F","019cfa2e-3c2b-7f3a-bff7-860af2dee9fb","019cfa18-54b6-74d4-8209-5fe92d2edcd5","","null","
                <div class=""stimulus-container"">
                    <img src=""images/causal_sequence/package_causal/package_causal_1.png"" class=""exp-image"">
                    <div class=""question-area""></div> 
                </div>","null","","","","","","","","","","","",""
"","","","","","html-button-response","165","222002","0.0-165.0","76CD189190A442A8B1B2BFF67C5A5D5F","019cfa2e-3c2b-7f3a-bff7-860af2dee9fb","019cfa18-54b6-74d4-8209-5fe92d2edcd5","","957","
                <div class=""stimulus-container"">
                    <img src=""images/causal_sequence/package_causal/package_causal_1.png"" class=""exp-image"">
                    <div class=""question-area"">
                        <p style=""font-size: 20px; font-weight: bold; margin: 0;"">Is there a person in this image?</p>
                    </div>
                </div>","0","main_experiment_trial","1","package_causal","causal_sequence","chronological","","","","","","",""
"","","","","","html-keyboard-response","166","223012","0.0-166.0","76CD189190A442A8B1B2BFF67C5A5D5F","019cfa2e-3c2b-7f3a-bff7-860af2dee9fb","019cfa18-54b6-74d4-8209-5fe92d2edcd5","","null","
                <div class=""stimulus-container"">
                    <img src=""images/causal_sequence/package_causal/package_causal_2.png"" class=""exp-image"">
                    <div class=""question-area""></div> 
                </div>","null","","","","","","","","","","","",""
"","","","","","html-button-response","167","223767","0.0-167.0","76CD189190A442A8B1B2BFF67C5A5D5F","019cfa2e-3c2b-7f3a-bff7-860af2dee9fb","019cfa18-54b6-74d4-8209-5fe92d2edcd5","","754","
                <div class=""stimulus-container"">
                    <img src=""images/causal_sequence/package_causal/package_causal_2.png"" class=""exp-image"">
                    <div class=""question-area"">
                        <p style=""font-size: 20px; font-weight: bold; margin: 0;"">Is there a person in this image?</p>
                    </div>
                </div>","0","main_experiment_trial","2","package_causal","causal_sequence","chronological","","","","","","",""
"","","","","","html-keyboard-response","168","224776","0.0-168.0","76CD189190A442A8B1B2BFF67C5A5D5F","019cfa2e-3c2b-7f3a-bff7-860af2dee9fb","019cfa18-54b6-74d4-8209-5fe92d2edcd5","","null","
                <div class=""stimulus-container"">
                    <img src=""images/causal_sequence/package_causal/package_causal_3.png"" class=""exp-image"">
                    <div class=""question-area""></div> 
                </div>","null","","","","","","","","","","","",""
"","","","","","html-button-response","169","225261","0.0-169.0","76CD189190A442A8B1B2BFF67C5A5D5F","019cfa2e-3c2b-7f3a-bff7-860af2dee9fb","019cfa18-54b6-74d4-8209-5fe92d2edcd5","","484","
                <div class=""stimulus-container"">
                    <img src=""images/causal_sequence/package_causal/package_causal_3.png"" class=""exp-image"">
                    <div class=""question-area"">
                        <p style=""font-size: 20px; font-weight: bold; margin: 0;"">Is there a person in this image?</p>
                    </div>
                </div>","0","main_experiment_trial","3","package_causal","causal_sequence","chronological","","","","","","",""
"","","","","","html-keyboard-response","170","226267","0.0-170.0","76CD189190A442A8B1B2BFF67C5A5D5F","019cfa2e-3c2b-7f3a-bff7-860af2dee9fb","019cfa18-54b6-74d4-8209-5fe92d2edcd5","","null","
                <div class=""stimulus-container"">
                    <img src=""images/causal_sequence/package_causal/package_causal_4.png"" class=""exp-image"">
                    <div class=""question-area""></div> 
                </div>","null","","","","","","","","","","","",""
"","","","","","html-button-response","171","226756","0.0-171.0","76CD189190A442A8B1B2BFF67C5A5D5F","019cfa2e-3c2b-7f3a-bff7-860af2dee9fb","019cfa18-54b6-74d4-8209-5fe92d2edcd5","","488","
                <div class=""stimulus-container"">
                    <img src=""images/causal_sequence/package_causal/package_causal_4.png"" class=""exp-image"">
                    <div class=""question-area"">
                        <p style=""font-size: 20px; font-weight: bold; margin: 0;"">Is there a person in this image?</p>
                    </div>
                </div>","1","main_experiment_trial","4","package_causal","causal_sequence","chronological","","","","","","",""
"","","","","","html-keyboard-response","172","227759","0.0-172.0","76CD189190A442A8B1B2BFF67C5A5D5F","019cfa2e-3c2b-7f3a-bff7-860af2dee9fb","019cfa18-54b6-74d4-8209-5fe92d2edcd5","","null","
                <div class=""stimulus-container"">
                    <img src=""images/causal_sequence/package_causal/package_causal_5.png"" class=""exp-image"">
                    <div class=""question-area""></div> 
                </div>","null","","","","","","","","","","","",""
"","","","","","html-button-response","173","228289","0.0-173.0","76CD189190A442A8B1B2BFF67C5A5D5F","019cfa2e-3c2b-7f3a-bff7-860af2dee9fb","019cfa18-54b6-74d4-8209-5fe92d2edcd5","","530","
                <div class=""stimulus-container"">
                    <img src=""images/causal_sequence/package_causal/package_causal_5.png"" class=""exp-image"">
                    <div class=""question-area"">
                        <p style=""font-size: 20px; font-weight: bold; margin: 0;"">Is there a person in this image?</p>
                    </div>
                </div>","0","main_experiment_trial","5","package_causal","causal_sequence","chronological","","","","","","",""
"","","","","","html-keyboard-response","174","229295","0.0-174.0","76CD189190A442A8B1B2BFF67C5A5D5F","019cfa2e-3c2b-7f3a-bff7-860af2dee9fb","019cfa18-54b6-74d4-8209-5fe92d2edcd5","","null","
                <div class=""stimulus-container"">
                    <img src=""images/causal_sequence/package_causal/package_causal_6.png"" class=""exp-image"">
                    <div class=""question-area""></div> 
                </div>","null","","","","","","","","","","","",""
"","","","","","html-button-response","175","229918","0.0-175.0","76CD189190A442A8B1B2BFF67C5A5D5F","019cfa2e-3c2b-7f3a-bff7-860af2dee9fb","019cfa18-54b6-74d4-8209-5fe92d2edcd5","","623","
                <div class=""stimulus-container"">
