"success","timeout","failed_images","failed_audio","failed_video","trial_type","trial_index","time_elapsed","internal_node_id","subject_id","study_id","session_id","view_history","rt","stimulus","response","task","image_index","folder","sequence_type","presentation_order","valuable_image_index","reward_type","correct_choice","distance_from_x","target_X","chosen_image_index","is_x_plus_dist"
"true","false","[]","[]","[]","preload","0","7690","0.0-0.0","E7E53372E24E45B2B3B896684AA6D978","019dac6a-2311-70e8-b33b-7f928a52fb80","019dac5b-243f-7307-af64-a10f53f1ef70","","","","","","","","","","","","","","","",""
"","","","","","instructions","1","91502","0.0-1.0","E7E53372E24E45B2B3B896684AA6D978","019dac6a-2311-70e8-b33b-7f928a52fb80","019dac5b-243f-7307-af64-a10f53f1ef70","[{""page_index"":0,""viewing_time"":83807}]","83808","","","","","","","","","","","","","",""
"","","","","","instructions","2","109780","0.0-2.0","E7E53372E24E45B2B3B896684AA6D978","019dac6a-2311-70e8-b33b-7f928a52fb80","019dac5b-243f-7307-af64-a10f53f1ef70","[{""page_index"":0,""viewing_time"":18274}]","18275","","","","","","","","","","","","","",""
"true","","","","","fullscreen","3","113219","0.0-3.0","E7E53372E24E45B2B3B896684AA6D978","019dac6a-2311-70e8-b33b-7f928a52fb80","019dac5b-243f-7307-af64-a10f53f1ef70","","2433","","","","","","","","","","","","","",""
"","","","","","instructions","4","159766","0.0-4.0","E7E53372E24E45B2B3B896684AA6D978","019dac6a-2311-70e8-b33b-7f928a52fb80","019dac5b-243f-7307-af64-a10f53f1ef70","[{""page_index"":0,""viewing_time"":46544}]","46545","","","","","","","","","","","","","",""
"","","","","","instructions","5","174808","0.0-5.0","E7E53372E24E45B2B3B896684AA6D978","019dac6a-2311-70e8-b33b-7f928a52fb80","019dac5b-243f-7307-af64-a10f53f1ef70","[{""page_index"":0,""viewing_time"":15040}]","15040","","","","","","","","","","","","","",""
"","","","","","html-keyboard-response","6","178813","0.0-6.0","E7E53372E24E45B2B3B896684AA6D978","019dac6a-2311-70e8-b33b-7f928a52fb80","019dac5b-243f-7307-af64-a10f53f1ef70","","null","
                <div class=""stimulus-container"">
                    <img src=""images/instructions/movie_1.png"" class=""exp-image"">
                    <div class=""question-area""></div> 
                </div>","null","","","","","","","","","","","",""
"","","","","","html-button-response","7","181820","0.0-7.0","E7E53372E24E45B2B3B896684AA6D978","019dac6a-2311-70e8-b33b-7f928a52fb80","019dac5b-243f-7307-af64-a10f53f1ef70","","null","
                <div class=""stimulus-container"">
                    <img src=""images/instructions/movie_1.png"" class=""exp-image"">
                    <div class=""question-area"">
                        <p style=""font-size: 20px; font-weight: bold; margin: 0;"">Was there a person in this image?</p>
                    </div>
                </div>","null","example_question","1","","","","","","","","","",""
"","","","","","html-keyboard-response","8","185823","0.0-8.0","E7E53372E24E45B2B3B896684AA6D978","019dac6a-2311-70e8-b33b-7f928a52fb80","019dac5b-243f-7307-af64-a10f53f1ef70","","null","
                <div class=""stimulus-container"">
                    <img src=""images/instructions/movie_2.png"" class=""exp-image"">
                    <div class=""question-area""></div> 
                </div>","null","","","","","","","","","","","",""
"","","","","","html-button-response","9","188827","0.0-9.0","E7E53372E24E45B2B3B896684AA6D978","019dac6a-2311-70e8-b33b-7f928a52fb80","019dac5b-243f-7307-af64-a10f53f1ef70","","null","
                <div class=""stimulus-container"">
                    <img src=""images/instructions/movie_2.png"" class=""exp-image"">
                    <div class=""question-area"">
                        <p style=""font-size: 20px; font-weight: bold; margin: 0;"">Was there a person in this image?</p>
                    </div>
                </div>","null","example_question","2","","","","","","","","","",""
"","","","","","html-keyboard-response","10","192831","0.0-10.0","E7E53372E24E45B2B3B896684AA6D978","019dac6a-2311-70e8-b33b-7f928a52fb80","019dac5b-243f-7307-af64-a10f53f1ef70","","null","
                <div class=""stimulus-container"">
                    <img src=""images/instructions/movie_3.png"" class=""exp-image"">
                    <div class=""question-area""></div> 
                </div>","null","","","","","","","","","","","",""
"","","","","","html-button-response","11","195835","0.0-11.0","E7E53372E24E45B2B3B896684AA6D978","019dac6a-2311-70e8-b33b-7f928a52fb80","019dac5b-243f-7307-af64-a10f53f1ef70","","null","
                <div class=""stimulus-container"">
                    <img src=""images/instructions/movie_3.png"" class=""exp-image"">
                    <div class=""question-area"">
                        <p style=""font-size: 20px; font-weight: bold; margin: 0;"">Was there a person in this image?</p>
                    </div>
                </div>","null","example_question","3","","","","","","","","","",""
"","","","","","html-keyboard-response","12","199839","0.0-12.0","E7E53372E24E45B2B3B896684AA6D978","019dac6a-2311-70e8-b33b-7f928a52fb80","019dac5b-243f-7307-af64-a10f53f1ef70","","null","
                <div class=""stimulus-container"">
                    <img src=""images/instructions/movie_4.png"" class=""exp-image"">
                    <div class=""question-area""></div> 
                </div>","null","","","","","","","","","","","",""
"","","","","","html-button-response","13","201534","0.0-13.0","E7E53372E24E45B2B3B896684AA6D978","019dac6a-2311-70e8-b33b-7f928a52fb80","019dac5b-243f-7307-af64-a10f53f1ef70","","1692","
                <div class=""stimulus-container"">
                    <img src=""images/instructions/movie_4.png"" class=""exp-image"">
                    <div class=""question-area"">
                        <p style=""font-size: 20px; font-weight: bold; margin: 0;"">Was there a person in this image?</p>
                    </div>
                </div>","0","example_question","4","","","","","","","","","",""
"","","","","","instructions","14","204892","0.0-14.0","E7E53372E24E45B2B3B896684AA6D978","019dac6a-2311-70e8-b33b-7f928a52fb80","019dac5b-243f-7307-af64-a10f53f1ef70","[{""page_index"":0,""viewing_time"":3355}]","3356","","","","","","","","","","","","","",""
"","","","","","instructions","15","214467","0.0-15.0","E7E53372E24E45B2B3B896684AA6D978","019dac6a-2311-70e8-b33b-7f928a52fb80","019dac5b-243f-7307-af64-a10f53f1ef70","[{""page_index"":0,""viewing_time"":9571}]","9572","","","","","","","","","","","","","",""
"","","","","","html-keyboard-response","16","219469","0.0-16.0","E7E53372E24E45B2B3B896684AA6D978","019dac6a-2311-70e8-b33b-7f928a52fb80","019dac5b-243f-7307-af64-a10f53f1ef70","","null","<div style=""background-color: white; width: 100vw; height: 100vh;""></div>","null","","","","","","","","","","","",""
"","","","","","html-keyboard-response","17","224472","0.0-17.0","E7E53372E24E45B2B3B896684AA6D978","019dac6a-2311-70e8-b33b-7f928a52fb80","019dac5b-243f-7307-af64-a10f53f1ef70","","null","
                <div class=""stimulus-container"">
                    <img src=""images/semantic_sequence/self_care_activities_semantic/self_care_activities_semantic_1.png"" class=""exp-image"">
                    <div class=""question-area""></div> 
                </div>","null","","","","","","","","","","","",""
"","","","","","html-button-response","18","225665","0.0-18.0","E7E53372E24E45B2B3B896684AA6D978","019dac6a-2311-70e8-b33b-7f928a52fb80","019dac5b-243f-7307-af64-a10f53f1ef70","","1189","
                <div class=""stimulus-container"">
                    <img src=""images/semantic_sequence/self_care_activities_semantic/self_care_activities_semantic_1.png"" class=""exp-image"">
                    <div class=""question-area"">
                        <p style=""font-size: 20px; font-weight: bold; margin: 0;"">Is there a person in this image?</p>
                    </div>
                </div>","0","main_experiment_trial","1","self_care_activities_semantic","semantic_sequence","chronological","","","","","","",""
"","","","","","html-keyboard-response","19","230669","0.0-19.0","E7E53372E24E45B2B3B896684AA6D978","019dac6a-2311-70e8-b33b-7f928a52fb80","019dac5b-243f-7307-af64-a10f53f1ef70","","null","
                <div class=""stimulus-container"">
                    <img src=""images/semantic_sequence/self_care_activities_semantic/self_care_activities_semantic_2.png"" class=""exp-image"">
                    <div class=""question-area""></div> 
                </div>","null","","","","","","","","","","","",""
"","","","","","html-button-response","20","231378","0.0-20.0","E7E53372E24E45B2B3B896684AA6D978","019dac6a-2311-70e8-b33b-7f928a52fb80","019dac5b-243f-7307-af64-a10f53f1ef70","","706","
                <div class=""stimulus-container"">
                    <img src=""images/semantic_sequence/self_care_activities_semantic/self_care_activities_semantic_2.png"" class=""exp-image"">
                    <div class=""question-area"">
                        <p style=""font-size: 20px; font-weight: bold; margin: 0;"">Is there a person in this image?</p>
                    </div>
                </div>","0","main_experiment_trial","2","self_care_activities_semantic","semantic_sequence","chronological","","","","","","",""
"","","","","","html-keyboard-response","21","236382","0.0-21.0","E7E53372E24E45B2B3B896684AA6D978","019dac6a-2311-70e8-b33b-7f928a52fb80","019dac5b-243f-7307-af64-a10f53f1ef70","","null","
                <div class=""stimulus-container"">
                    <img src=""images/semantic_sequence/self_care_activities_semantic/self_care_activities_semantic_3.png"" class=""exp-image"">
                    <div class=""question-area""></div> 
                </div>","null","","","","","","","","","","","",""
"","","","","","html-button-response","22","237015","0.0-22.0","E7E53372E24E45B2B3B896684AA6D978","019dac6a-2311-70e8-b33b-7f928a52fb80","019dac5b-243f-7307-af64-a10f53f1ef70","","631","
                <div class=""stimulus-container"">
                    <img src=""images/semantic_sequence/self_care_activities_semantic/self_care_activities_semantic_3.png"" class=""exp-image"">
                    <div class=""question-area"">
                        <p style=""font-size: 20px; font-weight: bold; margin: 0;"">Is there a person in this image?</p>
                    </div>
                </div>","0","main_experiment_trial","3","self_care_activities_semantic","semantic_sequence","chronological","","","","","","",""
"","","","","","html-keyboard-response","23","242019","0.0-23.0","E7E53372E24E45B2B3B896684AA6D978","019dac6a-2311-70e8-b33b-7f928a52fb80","019dac5b-243f-7307-af64-a10f53f1ef70","","null","
                <div class=""stimulus-container"">
                    <img src=""images/semantic_sequence/self_care_activities_semantic/self_care_activities_semantic_4.png"" class=""exp-image"">
                    <div class=""question-area""></div> 
                </div>","null","","","","","","","","","","","",""
"","","","","","html-button-response","24","242473","0.0-24.0","E7E53372E24E45B2B3B896684AA6D978","019dac6a-2311-70e8-b33b-7f928a52fb80","019dac5b-243f-7307-af64-a10f53f1ef70","","450","
                <div class=""stimulus-container"">
                    <img src=""images/semantic_sequence/self_care_activities_semantic/self_care_activities_semantic_4.png"" class=""exp-image"">
                    <div class=""question-area"">
                        <p style=""font-size: 20px; font-weight: bold; margin: 0;"">Is there a person in this image?</p>
                    </div>
                </div>","0","main_experiment_trial","4","self_care_activities_semantic","semantic_sequence","chronological","","","","","","",""
"","","","","","html-keyboard-response","25","247477","0.0-25.0","E7E53372E24E45B2B3B896684AA6D978","019dac6a-2311-70e8-b33b-7f928a52fb80","019dac5b-243f-7307-af64-a10f53f1ef70","","null","
                <div class=""stimulus-container"">
                    <img src=""images/semantic_sequence/self_care_activities_semantic/self_care_activities_semantic_5.png"" class=""exp-image"">
                    <div class=""question-area""></div> 
                </div>","null","","","","","","","","","","","",""
"","","","","","html-button-response","26","248079","0.0-26.0","E7E53372E24E45B2B3B896684AA6D978","019dac6a-2311-70e8-b33b-7f928a52fb80","019dac5b-243f-7307-af64-a10f53f1ef70","","598","
                <div class=""stimulus-container"">
                    <img src=""images/semantic_sequence/self_care_activities_semantic/self_care_activities_semantic_5.png"" class=""exp-image"">
                    <div class=""question-area"">
                        <p style=""font-size: 20px; font-weight: bold; margin: 0;"">Is there a person in this image?</p>
                    </div>
                </div>","0","main_experiment_trial","5","self_care_activities_semantic","semantic_sequence","chronological","","","","","","",""
"","","","","","html-keyboard-response","27","253083","0.0-27.0","E7E53372E24E45B2B3B896684AA6D978","019dac6a-2311-70e8-b33b-7f928a52fb80","019dac5b-243f-7307-af64-a10f53f1ef70","","null","
                <div class=""stimulus-container"">
                    <img src=""images/semantic_sequence/self_care_activities_semantic/self_care_activities_semantic_6.png"" class=""exp-image"">
                    <div class=""question-area""></div> 
                </div>","null","","","","","","","","","","","",""
"","","","","","html-button-response","28","253554","0.0-28.0","E7E53372E24E45B2B3B896684AA6D978","019dac6a-2311-70e8-b33b-7f928a52fb80","019dac5b-243f-7307-af64-a10f53f1ef70","","466","
                <div class=""stimulus-container"">
                    <img src=""images/semantic_sequence/self_care_activities_semantic/self_care_activities_semantic_6.png"" class=""exp-image"">
                    <div class=""question-area"">
                        <p style=""font-size: 20px; font-weight: bold; margin: 0;"">Is there a person in this image?</p>
                    </div>
                </div>","0","main_experiment_trial","6","self_care_activities_semantic","semantic_sequence","chronological","","","","","","",""
"","","","","","html-keyboard-response","29","258558","0.0-29.0","E7E53372E24E45B2B3B896684AA6D978","019dac6a-2311-70e8-b33b-7f928a52fb80","019dac5b-243f-7307-af64-a10f53f1ef70","","null","
                <div class=""stimulus-container"">
                    <img src=""images/semantic_sequence/self_care_activities_semantic/self_care_activities_semantic_7.png"" class=""exp-image"">
                    <div class=""question-area""></div> 
                </div>","null","","","","","","","","","","","",""
"","","","","","html-button-response","30","259038","0.0-30.0","E7E53372E24E45B2B3B896684AA6D978","019dac6a-2311-70e8-b33b-7f928a52fb80","019dac5b-243f-7307-af64-a10f53f1ef70","","477","
                <div class=""stimulus-container"">
                    <img src=""images/semantic_sequence/self_care_activities_semantic/self_care_activities_semantic_7.png"" class=""exp-image"">
                    <div class=""question-area"">
                        <p style=""font-size: 20px; font-weight: bold; margin: 0;"">Is there a person in this image?</p>
                    </div>
                </div>","0","main_experiment_trial","7","self_care_activities_semantic","semantic_sequence","chronological","","","","","","",""
"","","","","","html-keyboard-response","31","264041","0.0-31.0","E7E53372E24E45B2B3B896684AA6D978","019dac6a-2311-70e8-b33b-7f928a52fb80","019dac5b-243f-7307-af64-a10f53f1ef70","","null","
                <div class=""stimulus-container"">
                    <img src=""images/semantic_sequence/self_care_activities_semantic/self_care_activities_semantic_8.png"" class=""exp-image"">
                    <div class=""question-area""></div> 
                </div>","null","","","","","","","","","","","",""
"","","","","","html-button-response","32","264452","0.0-32.0","E7E53372E24E45B2B3B896684AA6D978","019dac6a-2311-70e8-b33b-7f928a52fb80","019dac5b-243f-7307-af64-a10f53f1ef70","","407","
                <div class=""stimulus-container"">
                    <img src=""images/semantic_sequence/self_care_activities_semantic/self_care_activities_semantic_8.png"" class=""exp-image"">
                    <div class=""question-area"">
                        <p style=""font-size: 20px; font-weight: bold; margin: 0;"">Is there a person in this image?</p>
                    </div>
                </div>","0","main_experiment_trial","8","self_care_activities_semantic","semantic_sequence","chronological","","","","","","",""
"","","","","","html-keyboard-response","33","269456","0.0-33.0","E7E53372E24E45B2B3B896684AA6D978","019dac6a-2311-70e8-b33b-7f928a52fb80","019dac5b-243f-7307-af64-a10f53f1ef70","","null","
                <div class=""stimulus-container"">
                    <img src=""images/semantic_sequence/self_care_activities_semantic/self_care_activities_semantic_9.png"" class=""exp-image"">
                    <div class=""question-area""></div> 
                </div>","null","","","","","","","","","","","",""
"","","","","","html-button-response","34","269918","0.0-34.0","E7E53372E24E45B2B3B896684AA6D978","019dac6a-2311-70e8-b33b-7f928a52fb80","019dac5b-243f-7307-af64-a10f53f1ef70","","458","
                <div class=""stimulus-container"">
                    <img src=""images/semantic_sequence/self_care_activities_semantic/self_care_activities_semantic_9.png"" class=""exp-image"">
                    <div class=""question-area"">
                        <p style=""font-size: 20px; font-weight: bold; margin: 0;"">Is there a person in this image?</p>
                    </div>
                </div>","0","main_experiment_trial","9","self_care_activities_semantic","semantic_sequence","chronological","","","","","","",""
"","","","","","html-keyboard-response","35","274921","0.0-35.0","E7E53372E24E45B2B3B896684AA6D978","019dac6a-2311-70e8-b33b-7f928a52fb80","019dac5b-243f-7307-af64-a10f53f1ef70","","null","
                <div class=""stimulus-container"">
                    <img src=""images/semantic_sequence/self_care_activities_semantic/self_care_activities_semantic_ten.png"" class=""exp-image"">
                    <div class=""question-area""></div> 
                </div>","null","","","","","","","","","","","",""
"","","","","","html-button-response","36","275447","0.0-36.0","E7E53372E24E45B2B3B896684AA6D978","019dac6a-2311-70e8-b33b-7f928a52fb80","019dac5b-243f-7307-af64-a10f53f1ef70","","523","
                <div class=""stimulus-container"">
                    <img src=""images/semantic_sequence/self_care_activities_semantic/self_care_activities_semantic_ten.png"" class=""exp-image"">
                    <div class=""question-area"">
                        <p style=""font-size: 20px; font-weight: bold; margin: 0;"">Is there a person in this image?</p>
                    </div>
                </div>","0","main_experiment_trial","ten","self_care_activities_semantic","semantic_sequence","chronological","","","","","","",""
"","","","","","html-keyboard-response","37","280450","0.0-37.0","E7E53372E24E45B2B3B896684AA6D978","019dac6a-2311-70e8-b33b-7f928a52fb80","019dac5b-243f-7307-af64-a10f53f1ef70","","null","<div style=""background-color: white; width: 100vw; height: 100vh;""></div>","null","","","","","","","","","","","",""
"","","","","","html-keyboard-response","38","285453","0.0-38.0","E7E53372E24E45B2B3B896684AA6D978","019dac6a-2311-70e8-b33b-7f928a52fb80","019dac5b-243f-7307-af64-a10f53f1ef70","","null","
                <div class=""stimulus-container"">
                    <img src=""images/causal_sequence/package_causal/package_causal_1.png"" class=""exp-image"">
                    <div class=""question-area""></div> 
                </div>","null","","","","","","","","","","","",""
"","","","","","html-button-response","39","286441","0.0-39.0","E7E53372E24E45B2B3B896684AA6D978","019dac6a-2311-70e8-b33b-7f928a52fb80","019dac5b-243f-7307-af64-a10f53f1ef70","","985","
                <div class=""stimulus-container"">
                    <img src=""images/causal_sequence/package_causal/package_causal_1.png"" class=""exp-image"">
                    <div class=""question-area"">
                        <p style=""font-size: 20px; font-weight: bold; margin: 0;"">Is there a person in this image?</p>
                    </div>
                </div>","0","main_experiment_trial","1","package_causal","causal_sequence","chronological","","","","","","",""
"","","","","","html-keyboard-response","40","291446","0.0-40.0","E7E53372E24E45B2B3B896684AA6D978","019dac6a-2311-70e8-b33b-7f928a52fb80","019dac5b-243f-7307-af64-a10f53f1ef70","","null","
                <div class=""stimulus-container"">
                    <img src=""images/causal_sequence/package_causal/package_causal_2.png"" class=""exp-image"">
                    <div class=""question-area""></div> 
                </div>","null","","","","","","","","","","","",""
"","","","","","html-button-response","41","292391","0.0-41.0","E7E53372E24E45B2B3B896684AA6D978","019dac6a-2311-70e8-b33b-7f928a52fb80","019dac5b-243f-7307-af64-a10f53f1ef70","","943","
                <div class=""stimulus-container"">
                    <img src=""images/causal_sequence/package_causal/package_causal_2.png"" class=""exp-image"">
                    <div class=""question-area"">
                        <p style=""font-size: 20px; font-weight: bold; margin: 0;"">Is there a person in this image?</p>
                    </div>
                </div>","0","main_experiment_trial","2","package_causal","causal_sequence","chronological","","","","","","",""
"","","","","","html-keyboard-response","42","297394","0.0-42.0","E7E53372E24E45B2B3B896684AA6D978","019dac6a-2311-70e8-b33b-7f928a52fb80","019dac5b-243f-7307-af64-a10f53f1ef70","","null","
                <div class=""stimulus-container"">
                    <img src=""images/causal_sequence/package_causal/package_causal_3.png"" class=""exp-image"">
                    <div class=""question-area""></div> 
                </div>","null","","","","","","","","","","","",""
"","","","","","html-button-response","43","298293","0.0-43.0","E7E53372E24E45B2B3B896684AA6D978","019dac6a-2311-70e8-b33b-7f928a52fb80","019dac5b-243f-7307-af64-a10f53f1ef70","","895","
                <div class=""stimulus-container"">
                    <img src=""images/causal_sequence/package_causal/package_causal_3.png"" class=""exp-image"">
                    <div class=""question-area"">
                        <p style=""font-size: 20px; font-weight: bold; margin: 0;"">Is there a person in this image?</p>
                    </div>
                </div>","0","main_experiment_trial","3","package_causal","causal_sequence","chronological","","","","","","",""
"","","","","","html-keyboard-response","44","303298","0.0-44.0","E7E53372E24E45B2B3B896684AA6D978","019dac6a-2311-70e8-b33b-7f928a52fb80","019dac5b-243f-7307-af64-a10f53f1ef70","","null","
                <div class=""stimulus-container"">
                    <img src=""images/causal_sequence/package_causal/package_causal_4.png"" class=""exp-image"">
                    <div class=""question-area""></div> 
                </div>","null","","","","","","","","","","","",""
"","","","","","html-button-response","45","304082","0.0-45.0","E7E53372E24E45B2B3B896684AA6D978","019dac6a-2311-70e8-b33b-7f928a52fb80","019dac5b-243f-7307-af64-a10f53f1ef70","","780","
                <div class=""stimulus-container"">
                    <img src=""images/causal_sequence/package_causal/package_causal_4.png"" class=""exp-image"">
                    <div class=""question-area"">
                        <p style=""font-size: 20px; font-weight: bold; margin: 0;"">Is there a person in this image?</p>
                    </div>
                </div>","0","main_experiment_trial","4","package_causal","causal_sequence","chronological","","","","","","",""
"","","","","","html-keyboard-response","46","309085","0.0-46.0","E7E53372E24E45B2B3B896684AA6D978","019dac6a-2311-70e8-b33b-7f928a52fb80","019dac5b-243f-7307-af64-a10f53f1ef70","","null","
                <div class=""stimulus-container"">
                    <img src=""images/causal_sequence/package_causal/package_causal_5.png"" class=""exp-image"">
                    <div class=""question-area""></div> 
                </div>","null","","","","","","","","","","","",""
"","","","","","html-button-response","47","309974","0.0-47.0","E7E53372E24E45B2B3B896684AA6D978","019dac6a-2311-70e8-b33b-7f928a52fb80","019dac5b-243f-7307-af64-a10f53f1ef70","","886","
                <div class=""stimulus-container"">
                    <img src=""images/causal_sequence/package_causal/package_causal_5.png"" class=""exp-image"">
                    <div class=""question-area"">
                        <p style=""font-size: 20px; font-weight: bold; margin: 0;"">Is there a person in this image?</p>
                    </div>
                </div>","0","main_experiment_trial","5","package_causal","causal_sequence","chronological","","","","","","",""
"","","","","","html-keyboard-response","48","314977","0.0-48.0","E7E53372E24E45B2B3B896684AA6D978","019dac6a-2311-70e8-b33b-7f928a52fb80","019dac5b-243f-7307-af64-a10f53f1ef70","","null","
                <div class=""stimulus-container"">
                    <img src=""images/causal_sequence/package_causal/package_causal_6.png"" class=""exp-image"">
                    <div class=""question-area""></div> 
                </div>","null","","","","","","","","","","","",""
"","","","","","html-button-response","49","315705","0.0-49.0","E7E53372E24E45B2B3B896684AA6D978","019dac6a-2311-70e8-b33b-7f928a52fb80","019dac5b-243f-7307-af64-a10f53f1ef70","","724","
                <div class=""stimulus-container"">
                    <img src=""images/causal_sequence/package_causal/package_causal_6.png"" class=""exp-image"">
                    <div class=""question-area"">
                        <p style=""font-size: 20px; font-weight: bold; margin: 0;"">Is there a person in this image?</p>
                    </div>
                </div>","0","main_experiment_trial","6","package_causal","causal_sequence","chronological","","","","","","",""
"","","","","","html-keyboard-response","50","320708","0.0-50.0","E7E53372E24E45B2B3B896684AA6D978","019dac6a-2311-70e8-b33b-7f928a52fb80","019dac5b-243f-7307-af64-a10f53f1ef70","","null","
                <div class=""stimulus-container"">
                    <img src=""images/causal_sequence/package_causal/package_causal_7.png"" class=""exp-image"">
                    <div class=""question-area""></div> 
                </div>","null","","","","","","","","","","","",""
"","","","","","html-button-response","51","321325","0.0-51.0","E7E53372E24E45B2B3B896684AA6D978","019dac6a-2311-70e8-b33b-7f928a52fb80","019dac5b-243f-7307-af64-a10f53f1ef70","","614","
                <div class=""stimulus-container"">
                    <img src=""images/causal_sequence/package_causal/package_causal_7.png"" class=""exp-image"">
                    <div class=""question-area"">
                        <p style=""font-size: 20px; font-weight: bold; margin: 0;"">Is there a person in this image?</p>
                    </div>
                </div>","0","main_experiment_trial","7","package_causal","causal_sequence","chronological","","","","","","",""
"","","","","","html-keyboard-response","52","326329","0.0-52.0","E7E53372E24E45B2B3B896684AA6D978","019dac6a-2311-70e8-b33b-7f928a52fb80","019dac5b-243f-7307-af64-a10f53f1ef70","","null","
                <div class=""stimulus-container"">
                    <img src=""images/causal_sequence/package_causal/package_causal_8.png"" class=""exp-image"">
                    <div class=""question-area""></div> 
                </div>","null","","","","","","","","","","","",""
"","","","","","html-button-response","53","327042","0.0-53.0","E7E53372E24E45B2B3B896684AA6D978","019dac6a-2311-70e8-b33b-7f928a52fb80","019dac5b-243f-7307-af64-a10f53f1ef70","","709","
                <div class=""stimulus-container"">
                    <img src=""images/causal_sequence/package_causal/package_causal_8.png"" class=""exp-image"">
                    <div class=""question-area"">
                        <p style=""font-size: 20px; font-weight: bold; margin: 0;"">Is there a person in this image?</p>
                    </div>
                </div>","0","main_experiment_trial","8","package_causal","causal_sequence","chronological","","","","","","",""
"","","","","","html-keyboard-response","54","332046","0.0-54.0","E7E53372E24E45B2B3B896684AA6D978","019dac6a-2311-70e8-b33b-7f928a52fb80","019dac5b-243f-7307-af64-a10f53f1ef70","","null","
                <div class=""stimulus-container"">
                    <img src=""images/causal_sequence/package_causal/package_causal_9.png"" class=""exp-image"">
                    <div class=""question-area""></div> 
                </div>","null","","","","","","","","","","","",""
"","","","","","html-button-response","55","333009","0.0-55.0","E7E53372E24E45B2B3B896684AA6D978","019dac6a-2311-70e8-b33b-7f928a52fb80","019dac5b-243f-7307-af64-a10f53f1ef70","","960","
                <div class=""stimulus-container"">
                    <img src=""images/causal_sequence/package_causal/package_causal_9.png"" class=""exp-image"">
                    <div class=""question-area"">
                        <p style=""font-size: 20px; font-weight: bold; margin: 0;"">Is there a person in this image?</p>
                    </div>
                </div>","0","main_experiment_trial","9","package_causal","causal_sequence","chronological","","","","","","",""
"","","","","","html-keyboard-response","56","338011","0.0-56.0","E7E53372E24E45B2B3B896684AA6D978","019dac6a-2311-70e8-b33b-7f928a52fb80","019dac5b-243f-7307-af64-a10f53f1ef70","","null","
                <div class=""stimulus-container"">
                    <img src=""images/causal_sequence/package_causal/package_causal_ten.png"" class=""exp-image"">
                    <div class=""question-area""></div> 
                </div>","null","","","","","","","","","","","",""
"","","","","","html-button-response","57","339165","0.0-57.0","E7E53372E24E45B2B3B896684AA6D978","019dac6a-2311-70e8-b33b-7f928a52fb80","019dac5b-243f-7307-af64-a10f53f1ef70","","1151","
                <div class=""stimulus-container"">
                    <img src=""images/causal_sequence/package_causal/package_causal_ten.png"" class=""exp-image"">
                    <div class=""question-area"">
                        <p style=""font-size: 20px; font-weight: bold; margin: 0;"">Is there a person in this image?</p>
                    </div>
                </div>","0","main_experiment_trial","ten","package_causal","causal_sequence","chronological","","","","","","",""
"","","","","","html-keyboard-response","58","344169","0.0-58.0","E7E53372E24E45B2B3B896684AA6D978","019dac6a-2311-70e8-b33b-7f928a52fb80","019dac5b-243f-7307-af64-a10f53f1ef70","","null","<div style=""background-color: white; width: 100vw; height: 100vh;""></div>","null","","","","","","","","","","","",""
"","","","","","html-keyboard-response","59","349172","0.0-59.0","E7E53372E24E45B2B3B896684AA6D978","019dac6a-2311-70e8-b33b-7f928a52fb80","019dac5b-243f-7307-af64-a10f53f1ef70","","null","
                <div class=""stimulus-container"">
                    <img src=""images/semantic_sequence/kitchen_operations_semantic/kitchen_operations_semantic_1.png"" class=""exp-image"">
                    <div class=""question-area""></div> 
                </div>","null","","","","","","","","","","","",""
"","","","","","html-button-response","60","350855","0.0-60.0","E7E53372E24E45B2B3B896684AA6D978","019dac6a-2311-70e8-b33b-7f928a52fb80","019dac5b-243f-7307-af64-a10f53f1ef70","","1679","
                <div class=""stimulus-container"">
                    <img src=""images/semantic_sequence/kitchen_operations_semantic/kitchen_operations_semantic_1.png"" class=""exp-image"">
                    <div class=""question-area"">
                        <p style=""font-size: 20px; font-weight: bold; margin: 0;"">Is there a person in this image?</p>
                    </div>
                </div>","0","main_experiment_trial","1","kitchen_operations_semantic","semantic_sequence","chronological","","","","","","",""
"","","","","","html-keyboard-response","61","355859","0.0-61.0","E7E53372E24E45B2B3B896684AA6D978","019dac6a-2311-70e8-b33b-7f928a52fb80","019dac5b-243f-7307-af64-a10f53f1ef70","","null","
                <div class=""stimulus-container"">
                    <img src=""images/semantic_sequence/kitchen_operations_semantic/kitchen_operations_semantic_2.png"" class=""exp-image"">
                    <div class=""question-area""></div> 
                </div>","null","","","","","","","","","","","",""
"","","","","","html-button-response","62","356299","0.0-62.0","E7E53372E24E45B2B3B896684AA6D978","019dac6a-2311-70e8-b33b-7f928a52fb80","019dac5b-243f-7307-af64-a10f53f1ef70","","437","
                <div class=""stimulus-container"">
                    <img src=""images/semantic_sequence/kitchen_operations_semantic/kitchen_operations_semantic_2.png"" class=""exp-image"">
                    <div class=""question-area"">
                        <p style=""font-size: 20px; font-weight: bold; margin: 0;"">Is there a person in this image?</p>
                    </div>
                </div>","0","main_experiment_trial","2","kitchen_operations_semantic","semantic_sequence","chronological","","","","","","",""
"","","","","","html-keyboard-response","63","361303","0.0-63.0","E7E53372E24E45B2B3B896684AA6D978","019dac6a-2311-70e8-b33b-7f928a52fb80","019dac5b-243f-7307-af64-a10f53f1ef70","","null","
                <div class=""stimulus-container"">
                    <img src=""images/semantic_sequence/kitchen_operations_semantic/kitchen_operations_semantic_3.png"" class=""exp-image"">
                    <div class=""question-area""></div> 
                </div>","null","","","","","","","","","","","",""
"","","","","","html-button-response","64","361764","0.0-64.0","E7E53372E24E45B2B3B896684AA6D978","019dac6a-2311-70e8-b33b-7f928a52fb80","019dac5b-243f-7307-af64-a10f53f1ef70","","457","
                <div class=""stimulus-container"">
                    <img src=""images/semantic_sequence/kitchen_operations_semantic/kitchen_operations_semantic_3.png"" class=""exp-image"">
                    <div class=""question-area"">
                        <p style=""font-size: 20px; font-weight: bold; margin: 0;"">Is there a person in this image?</p>
                    </div>
                </div>","0","main_experiment_trial","3","kitchen_operations_semantic","semantic_sequence","chronological","","","","","","",""
"","","","","","html-keyboard-response","65","366768","0.0-65.0","E7E53372E24E45B2B3B896684AA6D978","019dac6a-2311-70e8-b33b-7f928a52fb80","019dac5b-243f-7307-af64-a10f53f1ef70","","null","
                <div class=""stimulus-container"">
                    <img src=""images/semantic_sequence/kitchen_operations_semantic/kitchen_operations_semantic_4.png"" class=""exp-image"">
                    <div class=""question-area""></div> 
                </div>","null","","","","","","","","","","","",""
"","","","","","html-button-response","66","368082","0.0-66.0","E7E53372E24E45B2B3B896684AA6D978","019dac6a-2311-70e8-b33b-7f928a52fb80","019dac5b-243f-7307-af64-a10f53f1ef70","","1311","
                <div class=""stimulus-container"">
                    <img src=""images/semantic_sequence/kitchen_operations_semantic/kitchen_operations_semantic_4.png"" class=""exp-image"">
                    <div class=""question-area"">
                        <p style=""font-size: 20px; font-weight: bold; margin: 0;"">Is there a person in this image?</p>
                    </div>
                </div>","0","main_experiment_trial","4","kitchen_operations_semantic","semantic_sequence","chronological","","","","","","",""
"","","","","","html-keyboard-response","67","373086","0.0-67.0","E7E53372E24E45B2B3B896684AA6D978","019dac6a-2311-70e8-b33b-7f928a52fb80","019dac5b-243f-7307-af64-a10f53f1ef70","","null","
                <div class=""stimulus-container"">
                    <img src=""images/semantic_sequence/kitchen_operations_semantic/kitchen_operations_semantic_5.png"" class=""exp-image"">
                    <div class=""question-area""></div> 
                </div>","null","","","","","","","","","","","",""
"","","","","","html-button-response","68","373590","0.0-68.0","E7E53372E24E45B2B3B896684AA6D978","019dac6a-2311-70e8-b33b-7f928a52fb80","019dac5b-243f-7307-af64-a10f53f1ef70","","501","
                <div class=""stimulus-container"">
                    <img src=""images/semantic_sequence/kitchen_operations_semantic/kitchen_operations_semantic_5.png"" class=""exp-image"">
                    <div class=""question-area"">
                        <p style=""font-size: 20px; font-weight: bold; margin: 0;"">Is there a person in this image?</p>
                    </div>
                </div>","0","main_experiment_trial","5","kitchen_operations_semantic","semantic_sequence","chronological","","","","","","",""
"","","","","","html-keyboard-response","69","378593","0.0-69.0","E7E53372E24E45B2B3B896684AA6D978","019dac6a-2311-70e8-b33b-7f928a52fb80","019dac5b-243f-7307-af64-a10f53f1ef70","","null","
                <div class=""stimulus-container"">
                    <img src=""images/semantic_sequence/kitchen_operations_semantic/kitchen_operations_semantic_6.png"" class=""exp-image"">
                    <div class=""question-area""></div> 
                </div>","null","","","","","","","","","","","",""
"","","","","","html-button-response","70","379010","0.0-70.0","E7E53372E24E45B2B3B896684AA6D978","019dac6a-2311-70e8-b33b-7f928a52fb80","019dac5b-243f-7307-af64-a10f53f1ef70","","414","
                <div class=""stimulus-container"">
                    <img src=""images/semantic_sequence/kitchen_operations_semantic/kitchen_operations_semantic_6.png"" class=""exp-image"">
                    <div class=""question-area"">
                        <p style=""font-size: 20px; font-weight: bold; margin: 0;"">Is there a person in this image?</p>
                    </div>
                </div>","0","main_experiment_trial","6","kitchen_operations_semantic","semantic_sequence","chronological","","","","","","",""
"","","","","","html-keyboard-response","71","384013","0.0-71.0","E7E53372E24E45B2B3B896684AA6D978","019dac6a-2311-70e8-b33b-7f928a52fb80","019dac5b-243f-7307-af64-a10f53f1ef70","","null","
                <div class=""stimulus-container"">
                    <img src=""images/semantic_sequence/kitchen_operations_semantic/kitchen_operations_semantic_7.png"" class=""exp-image"">
                    <div class=""question-area""></div> 
                </div>","null","","","","","","","","","","","",""
"","","","","","html-button-response","72","384445","0.0-72.0","E7E53372E24E45B2B3B896684AA6D978","019dac6a-2311-70e8-b33b-7f928a52fb80","019dac5b-243f-7307-af64-a10f53f1ef70","","427","
                <div class=""stimulus-container"">
                    <img src=""images/semantic_sequence/kitchen_operations_semantic/kitchen_operations_semantic_7.png"" class=""exp-image"">
                    <div class=""question-area"">
                        <p style=""font-size: 20px; font-weight: bold; margin: 0;"">Is there a person in this image?</p>
                    </div>
                </div>","0","main_experiment_trial","7","kitchen_operations_semantic","semantic_sequence","chronological","","","","","","",""
"","","","","","html-keyboard-response","73","389449","0.0-73.0","E7E53372E24E45B2B3B896684AA6D978","019dac6a-2311-70e8-b33b-7f928a52fb80","019dac5b-243f-7307-af64-a10f53f1ef70","","null","
                <div class=""stimulus-container"">
                    <img src=""images/semantic_sequence/kitchen_operations_semantic/kitchen_operations_semantic_8.png"" class=""exp-image"">
                    <div class=""question-area""></div> 
                </div>","null","","","","","","","","","","","",""
"","","","","","html-button-response","74","390045","0.0-74.0","E7E53372E24E45B2B3B896684AA6D978","019dac6a-2311-70e8-b33b-7f928a52fb80","019dac5b-243f-7307-af64-a10f53f1ef70","","593","
                <div class=""stimulus-container"">
                    <img src=""images/semantic_sequence/kitchen_operations_semantic/kitchen_operations_semantic_8.png"" class=""exp-image"">
                    <div class=""question-area"">
                        <p style=""font-size: 20px; font-weight: bold; margin: 0;"">Is there a person in this image?</p>
                    </div>
                </div>","0","main_experiment_trial","8","kitchen_operations_semantic","semantic_sequence","chronological","","","","","","",""
"","","","","","html-keyboard-response","75","395049","0.0-75.0","E7E53372E24E45B2B3B896684AA6D978","019dac6a-2311-70e8-b33b-7f928a52fb80","019dac5b-243f-7307-af64-a10f53f1ef70","","null","
                <div class=""stimulus-container"">
                    <img src=""images/semantic_sequence/kitchen_operations_semantic/kitchen_operations_semantic_9.png"" class=""exp-image"">
                    <div class=""question-area""></div> 
                </div>","null","","","","","","","","","","","",""
"","","","","","html-button-response","76","395509","0.0-76.0","E7E53372E24E45B2B3B896684AA6D978","019dac6a-2311-70e8-b33b-7f928a52fb80","019dac5b-243f-7307-af64-a10f53f1ef70","","456","
                <div class=""stimulus-container"">
                    <img src=""images/semantic_sequence/kitchen_operations_semantic/kitchen_operations_semantic_9.png"" class=""exp-image"">
                    <div class=""question-area"">
                        <p style=""font-size: 20px; font-weight: bold; margin: 0;"">Is there a person in this image?</p>
                    </div>
                </div>","0","main_experiment_trial","9","kitchen_operations_semantic","semantic_sequence","chronological","","","","","","",""
"","","","","","html-keyboard-response","77","400513","0.0-77.0","E7E53372E24E45B2B3B896684AA6D978","019dac6a-2311-70e8-b33b-7f928a52fb80","019dac5b-243f-7307-af64-a10f53f1ef70","","null","
                <div class=""stimulus-container"">
                    <img src=""images/semantic_sequence/kitchen_operations_semantic/kitchen_operations_semantic_ten.png"" class=""exp-image"">
                    <div class=""question-area""></div> 
                </div>","null","","","","","","","","","","","",""
"","","","","","html-button-response","78","400966","0.0-78.0","E7E53372E24E45B2B3B896684AA6D978","019dac6a-2311-70e8-b33b-7f928a52fb80","019dac5b-243f-7307-af64-a10f53f1ef70","","449","
                <div class=""stimulus-container"">
                    <img src=""images/semantic_sequence/kitchen_operations_semantic/kitchen_operations_semantic_ten.png"" class=""exp-image"">
                    <div class=""question-area"">
                        <p style=""font-size: 20px; font-weight: bold; margin: 0;"">Is there a person in this image?</p>
                    </div>
                </div>","0","main_experiment_trial","ten","kitchen_operations_semantic","semantic_sequence","chronological","","","","","","",""
"","","","","","html-keyboard-response","79","405969","0.0-79.0","E7E53372E24E45B2B3B896684AA6D978","019dac6a-2311-70e8-b33b-7f928a52fb80","019dac5b-243f-7307-af64-a10f53f1ef70","","null","<div style=""background-color: white; width: 100vw; height: 100vh;""></div>","null","","","","","","","","","","","",""
"","","","","","html-keyboard-response","80","410971","0.0-80.0","E7E53372E24E45B2B3B896684AA6D978","019dac6a-2311-70e8-b33b-7f928a52fb80","019dac5b-243f-7307-af64-a10f53f1ef70","","null","
                <div class=""stimulus-container"">
                    <img src=""images/causal_sequence/the_performance_causal/the_performance_causal_1.png"" class=""exp-image"">
                    <div class=""question-area""></div> 
                </div>","null","","","","","","","","","","","",""
"","","","","","html-button-response","81","411993","0.0-81.0","E7E53372E24E45B2B3B896684AA6D978","019dac6a-2311-70e8-b33b-7f928a52fb80","019dac5b-243f-7307-af64-a10f53f1ef70","","1017","
                <div class=""stimulus-container"">
                    <img src=""images/causal_sequence/the_performance_causal/the_performance_causal_1.png"" class=""exp-image"">
                    <div class=""question-area"">
                        <p style=""font-size: 20px; font-weight: bold; margin: 0;"">Is there a person in this image?</p>
                    </div>
                </div>","0","main_experiment_trial","1","the_performance_causal","causal_sequence","chronological","","","","","","",""
"","","","","","html-keyboard-response","82","416997","0.0-82.0","E7E53372E24E45B2B3B896684AA6D978","019dac6a-2311-70e8-b33b-7f928a52fb80","019dac5b-243f-7307-af64-a10f53f1ef70","","null","
                <div class=""stimulus-container"">
                    <img src=""images/causal_sequence/the_performance_causal/the_performance_causal_2.png"" class=""exp-image"">
                    <div class=""question-area""></div> 
                </div>","null","","","","","","","","","","","",""
"","","","","","html-button-response","83","417433","0.0-83.0","E7E53372E24E45B2B3B896684AA6D978","019dac6a-2311-70e8-b33b-7f928a52fb80","019dac5b-243f-7307-af64-a10f53f1ef70","","432","
                <div class=""stimulus-container"">
                    <img src=""images/causal_sequence/the_performance_causal/the_performance_causal_2.png"" class=""exp-image"">
                    <div class=""question-area"">
                        <p style=""font-size: 20px; font-weight: bold; margin: 0;"">Is there a person in this image?</p>
                    </div>
                </div>","0","main_experiment_trial","2","the_performance_causal","causal_sequence","chronological","","","","","","",""
"","","","","","html-keyboard-response","84","422437","0.0-84.0","E7E53372E24E45B2B3B896684AA6D978","019dac6a-2311-70e8-b33b-7f928a52fb80","019dac5b-243f-7307-af64-a10f53f1ef70","","null","
                <div class=""stimulus-container"">
                    <img src=""images/causal_sequence/the_performance_causal/the_performance_causal_3.png"" class=""exp-image"">
                    <div class=""question-area""></div> 
                </div>","null","","","","","","","","","","","",""
"","","","","","html-button-response","85","422860","0.0-85.0","E7E53372E24E45B2B3B896684AA6D978","019dac6a-2311-70e8-b33b-7f928a52fb80","019dac5b-243f-7307-af64-a10f53f1ef70","","420","
                <div class=""stimulus-container"">
                    <img src=""images/causal_sequence/the_performance_causal/the_performance_causal_3.png"" class=""exp-image"">
                    <div class=""question-area"">
                        <p style=""font-size: 20px; font-weight: bold; margin: 0;"">Is there a person in this image?</p>
                    </div>
                </div>","0","main_experiment_trial","3","the_performance_causal","causal_sequence","chronological","","","","","","",""
"","","","","","html-keyboard-response","86","427863","0.0-86.0","E7E53372E24E45B2B3B896684AA6D978","019dac6a-2311-70e8-b33b-7f928a52fb80","019dac5b-243f-7307-af64-a10f53f1ef70","","null","
                <div class=""stimulus-container"">
                    <img src=""images/causal_sequence/the_performance_causal/the_performance_causal_4.png"" class=""exp-image"">
                    <div class=""question-area""></div> 
                </div>","null","","","","","","","","","","","",""
"","","","","","html-button-response","87","428246","0.0-87.0","E7E53372E24E45B2B3B896684AA6D978","019dac6a-2311-70e8-b33b-7f928a52fb80","019dac5b-243f-7307-af64-a10f53f1ef70","","380","
                <div class=""stimulus-container"">
                    <img src=""images/causal_sequence/the_performance_causal/the_performance_causal_4.png"" class=""exp-image"">
                    <div class=""question-area"">
                        <p style=""font-size: 20px; font-weight: bold; margin: 0;"">Is there a person in this image?</p>
                    </div>
                </div>","0","main_experiment_trial","4","the_performance_causal","causal_sequence","chronological","","","","","","",""
"","","","","","html-keyboard-response","88","433250","0.0-88.0","E7E53372E24E45B2B3B896684AA6D978","019dac6a-2311-70e8-b33b-7f928a52fb80","019dac5b-243f-7307-af64-a10f53f1ef70","","null","
                <div class=""stimulus-container"">
                    <img src=""images/causal_sequence/the_performance_causal/the_performance_causal_5.png"" class=""exp-image"">
                    <div class=""question-area""></div> 
                </div>","null","","","","","","","","","","","",""
"","","","","","html-button-response","89","433689","0.0-89.0","E7E53372E24E45B2B3B896684AA6D978","019dac6a-2311-70e8-b33b-7f928a52fb80","019dac5b-243f-7307-af64-a10f53f1ef70","","435","
                <div class=""stimulus-container"">
                    <img src=""images/causal_sequence/the_performance_causal/the_performance_causal_5.png"" class=""exp-image"">
                    <div class=""question-area"">
                        <p style=""font-size: 20px; font-weight: bold; margin: 0;"">Is there a person in this image?</p>
                    </div>
                </div>","0","main_experiment_trial","5","the_performance_causal","causal_sequence","chronological","","","","","","",""
"","","","","","html-keyboard-response","90","438693","0.0-90.0","E7E53372E24E45B2B3B896684AA6D978","019dac6a-2311-70e8-b33b-7f928a52fb80","019dac5b-243f-7307-af64-a10f53f1ef70","","null","
                <div class=""stimulus-container"">
                    <img src=""images/causal_sequence/the_performance_causal/the_performance_causal_6.png"" class=""exp-image"">
                    <div class=""question-area""></div> 
                </div>","null","","","","","","","","","","","",""
"","","","","","html-button-response","91","439209","0.0-91.0","E7E53372E24E45B2B3B896684AA6D978","019dac6a-2311-70e8-b33b-7f928a52fb80","019dac5b-243f-7307-af64-a10f53f1ef70","","511","
                <div class=""stimulus-container"">
                    <img src=""images/causal_sequence/the_performance_causal/the_performance_causal_6.png"" class=""exp-image"">
                    <div class=""question-area"">
                        <p style=""font-size: 20px; font-weight: bold; margin: 0;"">Is there a person in this image?</p>
                    </div>
                </div>","0","main_experiment_trial","6","the_performance_causal","causal_sequence","chronological","","","","","","",""
"","","","","","html-keyboard-response","92","444214","0.0-92.0","E7E53372E24E45B2B3B896684AA6D978","019dac6a-2311-70e8-b33b-7f928a52fb80","019dac5b-243f-7307-af64-a10f53f1ef70","","null","
                <div class=""stimulus-container"">
                    <img src=""images/causal_sequence/the_performance_causal/the_performance_causal_7.png"" class=""exp-image"">
                    <div class=""question-area""></div> 
                </div>","null","","","","","","","","","","","",""
"","","","","","html-button-response","93","444735","0.0-93.0","E7E53372E24E45B2B3B896684AA6D978","019dac6a-2311-70e8-b33b-7f928a52fb80","019dac5b-243f-7307-af64-a10f53f1ef70","","518","
                <div class=""stimulus-container"">
                    <img src=""images/causal_sequence/the_performance_causal/the_performance_causal_7.png"" class=""exp-image"">
                    <div class=""question-area"">
                        <p style=""font-size: 20px; font-weight: bold; margin: 0;"">Is there a person in this image?</p>
                    </div>
                </div>","0","main_experiment_trial","7","the_performance_causal","causal_sequence","chronological","","","","","","",""
"","","","","","html-keyboard-response","94","449739","0.0-94.0","E7E53372E24E45B2B3B896684AA6D978","019dac6a-2311-70e8-b33b-7f928a52fb80","019dac5b-243f-7307-af64-a10f53f1ef70","","null","
                <div class=""stimulus-container"">
                    <img src=""images/causal_sequence/the_performance_causal/the_performance_causal_8.png"" class=""exp-image"">
                    <div class=""question-area""></div> 
                </div>","null","","","","","","","","","","","",""
"","","","","","html-button-response","95","450432","0.0-95.0","E7E53372E24E45B2B3B896684AA6D978","019dac6a-2311-70e8-b33b-7f928a52fb80","019dac5b-243f-7307-af64-a10f53f1ef70","","689","
                <div class=""stimulus-container"">
                    <img src=""images/causal_sequence/the_performance_causal/the_performance_causal_8.png"" class=""exp-image"">
                    <div class=""question-area"">
                        <p style=""font-size: 20px; font-weight: bold; margin: 0;"">Is there a person in this image?</p>
                    </div>
                </div>","0","main_experiment_trial","8","the_performance_causal","causal_sequence","chronological","","","","","","",""
"","","","","","html-keyboard-response","96","455438","0.0-96.0","E7E53372E24E45B2B3B896684AA6D978","019dac6a-2311-70e8-b33b-7f928a52fb80","019dac5b-243f-7307-af64-a10f53f1ef70","","null","
                <div class=""stimulus-container"">
                    <img src=""images/causal_sequence/the_performance_causal/the_performance_causal_9.png"" class=""exp-image"">
                    <div class=""question-area""></div> 
                </div>","null","","","","","","","","","","","",""
"","","","","","html-button-response","97","455891","0.0-97.0","E7E53372E24E45B2B3B896684AA6D978","019dac6a-2311-70e8-b33b-7f928a52fb80","019dac5b-243f-7307-af64-a10f53f1ef70","","447","
                <div class=""stimulus-container"">
                    <img src=""images/causal_sequence/the_performance_causal/the_performance_causal_9.png"" class=""exp-image"">
                    <div class=""question-area"">
                        <p style=""font-size: 20px; font-weight: bold; margin: 0;"">Is there a person in this image?</p>
                    </div>
                </div>","0","main_experiment_trial","9","the_performance_causal","causal_sequence","chronological","","","","","","",""
"","","","","","html-keyboard-response","98","460896","0.0-98.0","E7E53372E24E45B2B3B896684AA6D978","019dac6a-2311-70e8-b33b-7f928a52fb80","019dac5b-243f-7307-af64-a10f53f1ef70","","null","
                <div class=""stimulus-container"">
                    <img src=""images/causal_sequence/the_performance_causal/the_performance_causal_ten.png"" class=""exp-image"">
                    <div class=""question-area""></div> 
                </div>","null","","","","","","","","","","","",""
"","","","","","html-button-response","99","461339","0.0-99.0","E7E53372E24E45B2B3B896684AA6D978","019dac6a-2311-70e8-b33b-7f928a52fb80","019dac5b-243f-7307-af64-a10f53f1ef70","","440","
                <div class=""stimulus-container"">
                    <img src=""images/causal_sequence/the_performance_causal/the_performance_causal_ten.png"" class=""exp-image"">
                    <div class=""question-area"">
                        <p style=""font-size: 20px; font-weight: bold; margin: 0;"">Is there a person in this image?</p>
                    </div>
                </div>","0","main_experiment_trial","ten","the_performance_causal","causal_sequence","chronological","","","","","","",""
"","","","","","html-keyboard-response","100","466342","0.0-100.0","E7E53372E24E45B2B3B896684AA6D978","019dac6a-2311-70e8-b33b-7f928a52fb80","019dac5b-243f-7307-af64-a10f53f1ef70","","null","<div style=""background-color: white; width: 100vw; height: 100vh;""></div>","null","","","","","","","","","","","",""
"","","","","","html-keyboard-response","101","471346","0.0-101.0","E7E53372E24E45B2B3B896684AA6D978","019dac6a-2311-70e8-b33b-7f928a52fb80","019dac5b-243f-7307-af64-a10f53f1ef70","","null","
                <div class=""stimulus-container"">
                    <img src=""images/semantic_sequence/physical_activity_semantic/physical_activity_semantic_1.png"" class=""exp-image"">
                    <div class=""question-area""></div> 
                </div>","null","","","","","","","","","","","",""
"","","","","","html-button-response","102","472273","0.0-102.0","E7E53372E24E45B2B3B896684AA6D978","019dac6a-2311-70e8-b33b-7f928a52fb80","019dac5b-243f-7307-af64-a10f53f1ef70","","924","
                <div class=""stimulus-container"">
                    <img src=""images/semantic_sequence/physical_activity_semantic/physical_activity_semantic_1.png"" class=""exp-image"">
                    <div class=""question-area"">
                        <p style=""font-size: 20px; font-weight: bold; margin: 0;"">Is there a person in this image?</p>
                    </div>
                </div>","0","main_experiment_trial","1","physical_activity_semantic","semantic_sequence","chronological","","","","","","",""
"","","","","","html-keyboard-response","103","477278","0.0-103.0","E7E53372E24E45B2B3B896684AA6D978","019dac6a-2311-70e8-b33b-7f928a52fb80","019dac5b-243f-7307-af64-a10f53f1ef70","","null","
                <div class=""stimulus-container"">
                    <img src=""images/semantic_sequence/physical_activity_semantic/physical_activity_semantic_2.png"" class=""exp-image"">
                    <div class=""question-area""></div> 
                </div>","null","","","","","","","","","","","",""
"","","","","","html-button-response","104","478339","0.0-104.0","E7E53372E24E45B2B3B896684AA6D978","019dac6a-2311-70e8-b33b-7f928a52fb80","019dac5b-243f-7307-af64-a10f53f1ef70","","1057","
                <div class=""stimulus-container"">
                    <img src=""images/semantic_sequence/physical_activity_semantic/physical_activity_semantic_2.png"" class=""exp-image"">
                    <div class=""question-area"">
                        <p style=""font-size: 20px; font-weight: bold; margin: 0;"">Is there a person in this image?</p>
                    </div>
                </div>","0","main_experiment_trial","2","physical_activity_semantic","semantic_sequence","chronological","","","","","","",""
"","","","","","html-keyboard-response","105","483344","0.0-105.0","E7E53372E24E45B2B3B896684AA6D978","019dac6a-2311-70e8-b33b-7f928a52fb80","019dac5b-243f-7307-af64-a10f53f1ef70","","null","
                <div class=""stimulus-container"">
                    <img src=""images/semantic_sequence/physical_activity_semantic/physical_activity_semantic_3.png"" class=""exp-image"">
                    <div class=""question-area""></div> 
                </div>","null","","","","","","","","","","","",""
"","","","","","html-button-response","106","483761","0.0-106.0","E7E53372E24E45B2B3B896684AA6D978","019dac6a-2311-70e8-b33b-7f928a52fb80","019dac5b-243f-7307-af64-a10f53f1ef70","","414","
                <div class=""stimulus-container"">
                    <img src=""images/semantic_sequence/physical_activity_semantic/physical_activity_semantic_3.png"" class=""exp-image"">
                    <div class=""question-area"">
                        <p style=""font-size: 20px; font-weight: bold; margin: 0;"">Is there a person in this image?</p>
                    </div>
                </div>","0","main_experiment_trial","3","physical_activity_semantic","semantic_sequence","chronological","","","","","","",""
"","","","","","html-keyboard-response","107","488765","0.0-107.0","E7E53372E24E45B2B3B896684AA6D978","019dac6a-2311-70e8-b33b-7f928a52fb80","019dac5b-243f-7307-af64-a10f53f1ef70","","null","
                <div class=""stimulus-container"">
                    <img src=""images/semantic_sequence/physical_activity_semantic/physical_activity_semantic_4.png"" class=""exp-image"">
                    <div class=""question-area""></div> 
                </div>","null","","","","","","","","","","","",""
"","","","","","html-button-response","108","491768","0.0-108.0","E7E53372E24E45B2B3B896684AA6D978","019dac6a-2311-70e8-b33b-7f928a52fb80","019dac5b-243f-7307-af64-a10f53f1ef70","","null","
                <div class=""stimulus-container"">
                    <img src=""images/semantic_sequence/physical_activity_semantic/physical_activity_semantic_4.png"" class=""exp-image"">
                    <div class=""question-area"">
                        <p style=""font-size: 20px; font-weight: bold; margin: 0;"">Is there a person in this image?</p>
                    </div>
                </div>","null","main_experiment_trial","4","physical_activity_semantic","semantic_sequence","chronological","","","","","","",""
"","","","","","html-keyboard-response","109","496772","0.0-109.0","E7E53372E24E45B2B3B896684AA6D978","019dac6a-2311-70e8-b33b-7f928a52fb80","019dac5b-243f-7307-af64-a10f53f1ef70","","null","
                <div class=""stimulus-container"">
                    <img src=""images/semantic_sequence/physical_activity_semantic/physical_activity_semantic_5.png"" class=""exp-image"">
                    <div class=""question-area""></div> 
                </div>","null","","","","","","","","","","","",""
"","","","","","html-button-response","110","498239","0.0-110.0","E7E53372E24E45B2B3B896684AA6D978","019dac6a-2311-70e8-b33b-7f928a52fb80","019dac5b-243f-7307-af64-a10f53f1ef70","","1463","
                <div class=""stimulus-container"">
                    <img src=""images/semantic_sequence/physical_activity_semantic/physical_activity_semantic_5.png"" class=""exp-image"">
                    <div class=""question-area"">
                        <p style=""font-size: 20px; font-weight: bold; margin: 0;"">Is there a person in this image?</p>
                    </div>
                </div>","0","main_experiment_trial","5","physical_activity_semantic","semantic_sequence","chronological","","","","","","",""
"","","","","","html-keyboard-response","111","503244","0.0-111.0","E7E53372E24E45B2B3B896684AA6D978","019dac6a-2311-70e8-b33b-7f928a52fb80","019dac5b-243f-7307-af64-a10f53f1ef70","","null","
                <div class=""stimulus-container"">
                    <img src=""images/semantic_sequence/physical_activity_semantic/physical_activity_semantic_6.png"" class=""exp-image"">
                    <div class=""question-area""></div> 
                </div>","null","","","","","","","","","","","",""
"","","","","","html-button-response","112","504690","0.0-112.0","E7E53372E24E45B2B3B896684AA6D978","019dac6a-2311-70e8-b33b-7f928a52fb80","019dac5b-243f-7307-af64-a10f53f1ef70","","1442","
                <div class=""stimulus-container"">
                    <img src=""images/semantic_sequence/physical_activity_semantic/physical_activity_semantic_6.png"" class=""exp-image"">
                    <div class=""question-area"">
                        <p style=""font-size: 20px; font-weight: bold; margin: 0;"">Is there a person in this image?</p>
                    </div>
                </div>","0","main_experiment_trial","6","physical_activity_semantic","semantic_sequence","chronological","","","","","","",""
"","","","","","html-keyboard-response","113","509696","0.0-113.0","E7E53372E24E45B2B3B896684AA6D978","019dac6a-2311-70e8-b33b-7f928a52fb80","019dac5b-243f-7307-af64-a10f53f1ef70","","null","
                <div class=""stimulus-container"">
                    <img src=""images/semantic_sequence/physical_activity_semantic/physical_activity_semantic_7.png"" class=""exp-image"">
                    <div class=""question-area""></div> 
                </div>","null","","","","","","","","","","","",""
"","","","","","html-button-response","114","510757","0.0-114.0","E7E53372E24E45B2B3B896684AA6D978","019dac6a-2311-70e8-b33b-7f928a52fb80","019dac5b-243f-7307-af64-a10f53f1ef70","","1058","
                <div class=""stimulus-container"">
                    <img src=""images/semantic_sequence/physical_activity_semantic/physical_activity_semantic_7.png"" class=""exp-image"">
                    <div class=""question-area"">
                        <p style=""font-size: 20px; font-weight: bold; margin: 0;"">Is there a person in this image?</p>
                    </div>
                </div>","0","main_experiment_trial","7","physical_activity_semantic","semantic_sequence","chronological","","","","","","",""
"","","","","","html-keyboard-response","115","515761","0.0-115.0","E7E53372E24E45B2B3B896684AA6D978","019dac6a-2311-70e8-b33b-7f928a52fb80","019dac5b-243f-7307-af64-a10f53f1ef70","","null","
                <div class=""stimulus-container"">
                    <img src=""images/semantic_sequence/physical_activity_semantic/physical_activity_semantic_8.png"" class=""exp-image"">
                    <div class=""question-area""></div> 
                </div>","null","","","","","","","","","","","",""
"","","","","","html-button-response","116","516963","0.0-116.0","E7E53372E24E45B2B3B896684AA6D978","019dac6a-2311-70e8-b33b-7f928a52fb80","019dac5b-243f-7307-af64-a10f53f1ef70","","1199","
                <div class=""stimulus-container"">
                    <img src=""images/semantic_sequence/physical_activity_semantic/physical_activity_semantic_8.png"" class=""exp-image"">
                    <div class=""question-area"">
                        <p style=""font-size: 20px; font-weight: bold; margin: 0;"">Is there a person in this image?</p>
                    </div>
                </div>","0","main_experiment_trial","8","physical_activity_semantic","semantic_sequence","chronological","","","","","","",""
"","","","","","html-keyboard-response","117","521967","0.0-117.0","E7E53372E24E45B2B3B896684AA6D978","019dac6a-2311-70e8-b33b-7f928a52fb80","019dac5b-243f-7307-af64-a10f53f1ef70","","null","
                <div class=""stimulus-container"">
                    <img src=""images/semantic_sequence/physical_activity_semantic/physical_activity_semantic_9.png"" class=""exp-image"">
                    <div class=""question-area""></div> 
                </div>","null","","","","","","","","","","","",""
"","","","","","html-button-response","118","522499","0.0-118.0","E7E53372E24E45B2B3B896684AA6D978","019dac6a-2311-70e8-b33b-7f928a52fb80","019dac5b-243f-7307-af64-a10f53f1ef70","","528","
                <div class=""stimulus-container"">
                    <img src=""images/semantic_sequence/physical_activity_semantic/physical_activity_semantic_9.png"" class=""exp-image"">
                    <div class=""question-area"">
                        <p style=""font-size: 20px; font-weight: bold; margin: 0;"">Is there a person in this image?</p>
                    </div>
                </div>","0","main_experiment_trial","9","physical_activity_semantic","semantic_sequence","chronological","","","","","","",""
"","","","","","html-keyboard-response","119","527503","0.0-119.0","E7E53372E24E45B2B3B896684AA6D978","019dac6a-2311-70e8-b33b-7f928a52fb80","019dac5b-243f-7307-af64-a10f53f1ef70","","null","
                <div class=""stimulus-container"">
                    <img src=""images/semantic_sequence/physical_activity_semantic/physical_activity_semantic_ten.png"" class=""exp-image"">
                    <div class=""question-area""></div> 
                </div>","null","","","","","","","","","","","",""
"","","","","","html-button-response","120","528825","0.0-120.0","E7E53372E24E45B2B3B896684AA6D978","019dac6a-2311-70e8-b33b-7f928a52fb80","019dac5b-243f-7307-af64-a10f53f1ef70","","1318","
                <div class=""stimulus-container"">
                    <img src=""images/semantic_sequence/physical_activity_semantic/physical_activity_semantic_ten.png"" class=""exp-image"">
                    <div class=""question-area"">
                        <p style=""font-size: 20px; font-weight: bold; margin: 0;"">Is there a person in this image?</p>
                    </div>
                </div>","0","main_experiment_trial","ten","physical_activity_semantic","semantic_sequence","chronological","","","","","","",""
"","","","","","html-keyboard-response","121","533828","0.0-121.0","E7E53372E24E45B2B3B896684AA6D978","019dac6a-2311-70e8-b33b-7f928a52fb80","019dac5b-243f-7307-af64-a10f53f1ef70","","null","<div style=""background-color: white; width: 100vw; height: 100vh;""></div>","null","","","","","","","","","","","",""
"","","","","","html-keyboard-response","122","538831","0.0-122.0","E7E53372E24E45B2B3B896684AA6D978","019dac6a-2311-70e8-b33b-7f928a52fb80","019dac5b-243f-7307-af64-a10f53f1ef70","","null","
                <div class=""stimulus-container"">
                    <img src=""images/causal_sequence/saving_a_cat_causal/saving_a_cat_causal_1.png"" class=""exp-image"">
                    <div class=""question-area""></div> 
                </div>","null","","","","","","","","","","","",""
"","","","","","html-button-response","123","541835","0.0-123.0","E7E53372E24E45B2B3B896684AA6D978","019dac6a-2311-70e8-b33b-7f928a52fb80","019dac5b-243f-7307-af64-a10f53f1ef70","","null","
                <div class=""stimulus-container"">
                    <img src=""images/causal_sequence/saving_a_cat_causal/saving_a_cat_causal_1.png"" class=""exp-image"">
                    <div class=""question-area"">
                        <p style=""font-size: 20px; font-weight: bold; margin: 0;"">Is there a person in this image?</p>
                    </div>
                </div>","null","main_experiment_trial","1","saving_a_cat_causal","causal_sequence","chronological","","","","","","",""
"","","","","","html-keyboard-response","124","546837","0.0-124.0","E7E53372E24E45B2B3B896684AA6D978","019dac6a-2311-70e8-b33b-7f928a52fb80","019dac5b-243f-7307-af64-a10f53f1ef70","","null","
                <div class=""stimulus-container"">
                    <img src=""images/causal_sequence/saving_a_cat_causal/saving_a_cat_causal_2.png"" class=""exp-image"">
                    <div class=""question-area""></div> 
                </div>","null","","","","","","","","","","","",""
"","","","","","html-button-response","125","547827","0.0-125.0","E7E53372E24E45B2B3B896684AA6D978","019dac6a-2311-70e8-b33b-7f928a52fb80","019dac5b-243f-7307-af64-a10f53f1ef70","","987","
                <div class=""stimulus-container"">
                    <img src=""images/causal_sequence/saving_a_cat_causal/saving_a_cat_causal_2.png"" class=""exp-image"">
                    <div class=""question-area"">
                        <p style=""font-size: 20px; font-weight: bold; margin: 0;"">Is there a person in this image?</p>
                    </div>
                </div>","0","main_experiment_trial","2","saving_a_cat_causal","causal_sequence","chronological","","","","","","",""
"","","","","","html-keyboard-response","126","552832","0.0-126.0","E7E53372E24E45B2B3B896684AA6D978","019dac6a-2311-70e8-b33b-7f928a52fb80","019dac5b-243f-7307-af64-a10f53f1ef70","","null","
                <div class=""stimulus-container"">
                    <img src=""images/causal_sequence/saving_a_cat_causal/saving_a_cat_causal_3.png"" class=""exp-image"">
                    <div class=""question-area""></div> 
                </div>","null","","","","","","","","","","","",""
"","","","","","html-button-response","127","553463","0.0-127.0","E7E53372E24E45B2B3B896684AA6D978","019dac6a-2311-70e8-b33b-7f928a52fb80","019dac5b-243f-7307-af64-a10f53f1ef70","","628","
                <div class=""stimulus-container"">
                    <img src=""images/causal_sequence/saving_a_cat_causal/saving_a_cat_causal_3.png"" class=""exp-image"">
                    <div class=""question-area"">
                        <p style=""font-size: 20px; font-weight: bold; margin: 0;"">Is there a person in this image?</p>
                    </div>
                </div>","0","main_experiment_trial","3","saving_a_cat_causal","causal_sequence","chronological","","","","","","",""
"","","","","","html-keyboard-response","128","558467","0.0-128.0","E7E53372E24E45B2B3B896684AA6D978","019dac6a-2311-70e8-b33b-7f928a52fb80","019dac5b-243f-7307-af64-a10f53f1ef70","","null","
                <div class=""stimulus-container"">
                    <img src=""images/causal_sequence/saving_a_cat_causal/saving_a_cat_causal_4.png"" class=""exp-image"">
                    <div class=""question-area""></div> 
                </div>","null","","","","","","","","","","","",""
"","","","","","html-button-response","129","558930","0.0-129.0","E7E53372E24E45B2B3B896684AA6D978","019dac6a-2311-70e8-b33b-7f928a52fb80","019dac5b-243f-7307-af64-a10f53f1ef70","","460","
                <div class=""stimulus-container"">
                    <img src=""images/causal_sequence/saving_a_cat_causal/saving_a_cat_causal_4.png"" class=""exp-image"">
                    <div class=""question-area"">
                        <p style=""font-size: 20px; font-weight: bold; margin: 0;"">Is there a person in this image?</p>
                    </div>
                </div>","0","main_experiment_trial","4","saving_a_cat_causal","causal_sequence","chronological","","","","","","",""
"","","","","","html-keyboard-response","130","563934","0.0-130.0","E7E53372E24E45B2B3B896684AA6D978","019dac6a-2311-70e8-b33b-7f928a52fb80","019dac5b-243f-7307-af64-a10f53f1ef70","","null","
                <div class=""stimulus-container"">
                    <img src=""images/causal_sequence/saving_a_cat_causal/saving_a_cat_causal_5.png"" class=""exp-image"">
                    <div class=""question-area""></div> 
                </div>","null","","","","","","","","","","","",""
"","","","","","html-button-response","131","564622","0.0-131.0","E7E53372E24E45B2B3B896684AA6D978","019dac6a-2311-70e8-b33b-7f928a52fb80","019dac5b-243f-7307-af64-a10f53f1ef70","","684","
                <div class=""stimulus-container"">
                    <img src=""images/causal_sequence/saving_a_cat_causal/saving_a_cat_causal_5.png"" class=""exp-image"">
                    <div class=""question-area"">
                        <p style=""font-size: 20px; font-weight: bold; margin: 0;"">Is there a person in this image?</p>
                    </div>
                </div>","0","main_experiment_trial","5","saving_a_cat_causal","causal_sequence","chronological","","","","","","",""
"","","","","","html-keyboard-response","132","569626","0.0-132.0","E7E53372E24E45B2B3B896684AA6D978","019dac6a-2311-70e8-b33b-7f928a52fb80","019dac5b-243f-7307-af64-a10f53f1ef70","","null","
                <div class=""stimulus-container"">
                    <img src=""images/causal_sequence/saving_a_cat_causal/saving_a_cat_causal_6.png"" class=""exp-image"">
                    <div class=""question-area""></div> 
                </div>","null","","","","","","","","","","","",""
"","","","","","html-button-response","133","570421","0.0-133.0","E7E53372E24E45B2B3B896684AA6D978","019dac6a-2311-70e8-b33b-7f928a52fb80","019dac5b-243f-7307-af64-a10f53f1ef70","","791","
                <div class=""stimulus-container"">
                    <img src=""images/causal_sequence/saving_a_cat_causal/saving_a_cat_causal_6.png"" class=""exp-image"">
                    <div class=""question-area"">
                        <p style=""font-size: 20px; font-weight: bold; margin: 0;"">Is there a person in this image?</p>
                    </div>
                </div>","0","main_experiment_trial","6","saving_a_cat_causal","causal_sequence","chronological","","","","","","",""
"","","","","","html-keyboard-response","134","575425","0.0-134.0","E7E53372E24E45B2B3B896684AA6D978","019dac6a-2311-70e8-b33b-7f928a52fb80","019dac5b-243f-7307-af64-a10f53f1ef70","","null","
                <div class=""stimulus-container"">
                    <img src=""images/causal_sequence/saving_a_cat_causal/saving_a_cat_causal_7.png"" class=""exp-image"">
                    <div class=""question-area""></div> 
                </div>","null","","","","","","","","","","","",""
"","","","","","html-button-response","135","575861","0.0-135.0","E7E53372E24E45B2B3B896684AA6D978","019dac6a-2311-70e8-b33b-7f928a52fb80","019dac5b-243f-7307-af64-a10f53f1ef70","","433","
                <div class=""stimulus-container"">
                    <img src=""images/causal_sequence/saving_a_cat_causal/saving_a_cat_causal_7.png"" class=""exp-image"">
                    <div class=""question-area"">
                        <p style=""font-size: 20px; font-weight: bold; margin: 0;"">Is there a person in this image?</p>
                    </div>
                </div>","0","main_experiment_trial","7","saving_a_cat_causal","causal_sequence","chronological","","","","","","",""
"","","","","","html-keyboard-response","136","580865","0.0-136.0","E7E53372E24E45B2B3B896684AA6D978","019dac6a-2311-70e8-b33b-7f928a52fb80","019dac5b-243f-7307-af64-a10f53f1ef70","","null","
                <div class=""stimulus-container"">
                    <img src=""images/causal_sequence/saving_a_cat_causal/saving_a_cat_causal_8.png"" class=""exp-image"">
                    <div class=""question-area""></div> 
                </div>","null","","","","","","","","","","","",""
"","","","","","html-button-response","137","581265","0.0-137.0","E7E53372E24E45B2B3B896684AA6D978","019dac6a-2311-70e8-b33b-7f928a52fb80","019dac5b-243f-7307-af64-a10f53f1ef70","","397","
                <div class=""stimulus-container"">
                    <img src=""images/causal_sequence/saving_a_cat_causal/saving_a_cat_causal_8.png"" class=""exp-image"">
                    <div class=""question-area"">
                        <p style=""font-size: 20px; font-weight: bold; margin: 0;"">Is there a person in this image?</p>
                    </div>
                </div>","0","main_experiment_trial","8","saving_a_cat_causal","causal_sequence","chronological","","","","","","",""
"","","","","","html-keyboard-response","138","586269","0.0-138.0","E7E53372E24E45B2B3B896684AA6D978","019dac6a-2311-70e8-b33b-7f928a52fb80","019dac5b-243f-7307-af64-a10f53f1ef70","","null","
                <div class=""stimulus-container"">
                    <img src=""images/causal_sequence/saving_a_cat_causal/saving_a_cat_causal_9.png"" class=""exp-image"">
                    <div class=""question-area""></div> 
                </div>","null","","","","","","","","","","","",""
"","","","","","html-button-response","139","586805","0.0-139.0","E7E53372E24E45B2B3B896684AA6D978","019dac6a-2311-70e8-b33b-7f928a52fb80","019dac5b-243f-7307-af64-a10f53f1ef70","","533","
                <div class=""stimulus-container"">
                    <img src=""images/causal_sequence/saving_a_cat_causal/saving_a_cat_causal_9.png"" class=""exp-image"">
                    <div class=""question-area"">
                        <p style=""font-size: 20px; font-weight: bold; margin: 0;"">Is there a person in this image?</p>
                    </div>
                </div>","0","main_experiment_trial","9","saving_a_cat_causal","causal_sequence","chronological","","","","","","",""
"","","","","","html-keyboard-response","140","591809","0.0-140.0","E7E53372E24E45B2B3B896684AA6D978","019dac6a-2311-70e8-b33b-7f928a52fb80","019dac5b-243f-7307-af64-a10f53f1ef70","","null","
                <div class=""stimulus-container"">
                    <img src=""images/causal_sequence/saving_a_cat_causal/saving_a_cat_causal_ten.png"" class=""exp-image"">
                    <div class=""question-area""></div> 
                </div>","null","","","","","","","","","","","",""
"","","","","","html-button-response","141","592681","0.0-141.0","E7E53372E24E45B2B3B896684AA6D978","019dac6a-2311-70e8-b33b-7f928a52fb80","019dac5b-243f-7307-af64-a10f53f1ef70","","868","
                <div class=""stimulus-container"">
                    <img src=""images/causal_sequence/saving_a_cat_causal/saving_a_cat_causal_ten.png"" class=""exp-image"">
                    <div class=""question-area"">
                        <p style=""font-size: 20px; font-weight: bold; margin: 0;"">Is there a person in this image?</p>
                    </div>
                </div>","0","main_experiment_trial","ten","saving_a_cat_causal","causal_sequence","chronological","","","","","","",""
"","","","","","html-keyboard-response","142","597684","0.0-142.0","E7E53372E24E45B2B3B896684AA6D978","019dac6a-2311-70e8-b33b-7f928a52fb80","019dac5b-243f-7307-af64-a10f53f1ef70","","null","<div style=""background-color: white; width: 100vw; height: 100vh;""></div>","null","","","","","","","","","","","",""
"","","","","","html-keyboard-response","143","602687","0.0-143.0","E7E53372E24E45B2B3B896684AA6D978","019dac6a-2311-70e8-b33b-7f928a52fb80","019dac5b-243f-7307-af64-a10f53f1ef70","","null","
                <div class=""stimulus-container"">
                    <img src=""images/semantic_sequence/visiting_cities_semantic/visiting_cities_semantic_1.png"" class=""exp-image"">
                    <div class=""question-area""></div> 
                </div>","null","","","","","","","","","","","",""
"","","","","","html-button-response","144","604031","0.0-144.0","E7E53372E24E45B2B3B896684AA6D978","019dac6a-2311-70e8-b33b-7f928a52fb80","019dac5b-243f-7307-af64-a10f53f1ef70","","1340","
                <div class=""stimulus-container"">
                    <img src=""images/semantic_sequence/visiting_cities_semantic/visiting_cities_semantic_1.png"" class=""exp-image"">
                    <div class=""question-area"">
                        <p style=""font-size: 20px; font-weight: bold; margin: 0;"">Is there a person in this image?</p>
                    </div>
                </div>","0","main_experiment_trial","1","visiting_cities_semantic","semantic_sequence","chronological","","","","","","",""
"","","","","","html-keyboard-response","145","609035","0.0-145.0","E7E53372E24E45B2B3B896684AA6D978","019dac6a-2311-70e8-b33b-7f928a52fb80","019dac5b-243f-7307-af64-a10f53f1ef70","","null","
                <div class=""stimulus-container"">
                    <img src=""images/semantic_sequence/visiting_cities_semantic/visiting_cities_semantic_2.png"" class=""exp-image"">
                    <div class=""question-area""></div> 
                </div>","null","","","","","","","","","","","",""
"","","","","","html-button-response","146","609675","0.0-146.0","E7E53372E24E45B2B3B896684AA6D978","019dac6a-2311-70e8-b33b-7f928a52fb80","019dac5b-243f-7307-af64-a10f53f1ef70","","637","
                <div class=""stimulus-container"">
                    <img src=""images/semantic_sequence/visiting_cities_semantic/visiting_cities_semantic_2.png"" class=""exp-image"">
                    <div class=""question-area"">
                        <p style=""font-size: 20px; font-weight: bold; margin: 0;"">Is there a person in this image?</p>
                    </div>
                </div>","0","main_experiment_trial","2","visiting_cities_semantic","semantic_sequence","chronological","","","","","","",""
"","","","","","html-keyboard-response","147","614680","0.0-147.0","E7E53372E24E45B2B3B896684AA6D978","019dac6a-2311-70e8-b33b-7f928a52fb80","019dac5b-243f-7307-af64-a10f53f1ef70","","null","
                <div class=""stimulus-container"">
                    <img src=""images/semantic_sequence/visiting_cities_semantic/visiting_cities_semantic_3.png"" class=""exp-image"">
                    <div class=""question-area""></div> 
                </div>","null","","","","","","","","","","","",""
"","","","","","html-button-response","148","615587","0.0-148.0","E7E53372E24E45B2B3B896684AA6D978","019dac6a-2311-70e8-b33b-7f928a52fb80","019dac5b-243f-7307-af64-a10f53f1ef70","","903","
                <div class=""stimulus-container"">
                    <img src=""images/semantic_sequence/visiting_cities_semantic/visiting_cities_semantic_3.png"" class=""exp-image"">
                    <div class=""question-area"">
                        <p style=""font-size: 20px; font-weight: bold; margin: 0;"">Is there a person in this image?</p>
                    </div>
                </div>","0","main_experiment_trial","3","visiting_cities_semantic","semantic_sequence","chronological","","","","","","",""
"","","","","","html-keyboard-response","149","620590","0.0-149.0","E7E53372E24E45B2B3B896684AA6D978","019dac6a-2311-70e8-b33b-7f928a52fb80","019dac5b-243f-7307-af64-a10f53f1ef70","","null","
                <div class=""stimulus-container"">
                    <img src=""images/semantic_sequence/visiting_cities_semantic/visiting_cities_semantic_4.png"" class=""exp-image"">
                    <div class=""question-area""></div> 
                </div>","null","","","","","","","","","","","",""
"","","","","","html-button-response","150","621524","0.0-150.0","E7E53372E24E45B2B3B896684AA6D978","019dac6a-2311-70e8-b33b-7f928a52fb80","019dac5b-243f-7307-af64-a10f53f1ef70","","930","
                <div class=""stimulus-container"">
                    <img src=""images/semantic_sequence/visiting_cities_semantic/visiting_cities_semantic_4.png"" class=""exp-image"">
                    <div class=""question-area"">
                        <p style=""font-size: 20px; font-weight: bold; margin: 0;"">Is there a person in this image?</p>
                    </div>
                </div>","1","main_experiment_trial","4","visiting_cities_semantic","semantic_sequence","chronological","","","","","","",""
"","","","","","html-keyboard-response","151","626527","0.0-151.0","E7E53372E24E45B2B3B896684AA6D978","019dac6a-2311-70e8-b33b-7f928a52fb80","019dac5b-243f-7307-af64-a10f53f1ef70","","null","
                <div class=""stimulus-container"">
                    <img src=""images/semantic_sequence/visiting_cities_semantic/visiting_cities_semantic_5.png"" class=""exp-image"">
                    <div class=""question-area""></div> 
                </div>","null","","","","","","","","","","","",""
"","","","","","html-button-response","152","626969","0.0-152.0","E7E53372E24E45B2B3B896684AA6D978","019dac6a-2311-70e8-b33b-7f928a52fb80","019dac5b-243f-7307-af64-a10f53f1ef70","","438","
                <div class=""stimulus-container"">
                    <img src=""images/semantic_sequence/visiting_cities_semantic/visiting_cities_semantic_5.png"" class=""exp-image"">
                    <div class=""question-area"">
                        <p style=""font-size: 20px; font-weight: bold; margin: 0;"">Is there a person in this image?</p>
                    </div>
                </div>","1","main_experiment_trial","5","visiting_cities_semantic","semantic_sequence","chronological","","","","","","",""
"","","","","","html-keyboard-response","153","631974","0.0-153.0","E7E53372E24E45B2B3B896684AA6D978","019dac6a-2311-70e8-b33b-7f928a52fb80","019dac5b-243f-7307-af64-a10f53f1ef70","","null","
                <div class=""stimulus-container"">
                    <img src=""images/semantic_sequence/visiting_cities_semantic/visiting_cities_semantic_6.png"" class=""exp-image"">
                    <div class=""question-area""></div> 
                </div>","null","","","","","","","","","","","",""
"","","","","","html-button-response","154","632915","0.0-154.0","E7E53372E24E45B2B3B896684AA6D978","019dac6a-2311-70e8-b33b-7f928a52fb80","019dac5b-243f-7307-af64-a10f53f1ef70","","938","
                <div class=""stimulus-container"">
                    <img src=""images/semantic_sequence/visiting_cities_semantic/visiting_cities_semantic_6.png"" class=""exp-image"">
                    <div class=""question-area"">
                        <p style=""font-size: 20px; font-weight: bold; margin: 0;"">Is there a person in this image?</p>
                    </div>
                </div>","1","main_experiment_trial","6","visiting_cities_semantic","semantic_sequence","chronological","","","","","","",""
"","","","","","html-keyboard-response","155","637920","0.0-155.0","E7E53372E24E45B2B3B896684AA6D978","019dac6a-2311-70e8-b33b-7f928a52fb80","019dac5b-243f-7307-af64-a10f53f1ef70","","null","
                <div class=""stimulus-container"">
                    <img src=""images/semantic_sequence/visiting_cities_semantic/visiting_cities_semantic_7.png"" class=""exp-image"">
                    <div class=""question-area""></div> 
                </div>","null","","","","","","","","","","","",""
"","","","","","html-button-response","156","639001","0.0-156.0","E7E53372E24E45B2B3B896684AA6D978","019dac6a-2311-70e8-b33b-7f928a52fb80","019dac5b-243f-7307-af64-a10f53f1ef70","","1078","
                <div class=""stimulus-container"">
                    <img src=""images/semantic_sequence/visiting_cities_semantic/visiting_cities_semantic_7.png"" class=""exp-image"">
                    <div class=""question-area"">
                        <p style=""font-size: 20px; font-weight: bold; margin: 0;"">Is there a person in this image?</p>
                    </div>
                </div>","0","main_experiment_trial","7","visiting_cities_semantic","semantic_sequence","chronological","","","","","","",""
"","","","","","html-keyboard-response","157","644005","0.0-157.0","E7E53372E24E45B2B3B896684AA6D978","019dac6a-2311-70e8-b33b-7f928a52fb80","019dac5b-243f-7307-af64-a10f53f1ef70","","null","
                <div class=""stimulus-container"">
                    <img src=""images/semantic_sequence/visiting_cities_semantic/visiting_cities_semantic_8.png"" class=""exp-image"">
                    <div class=""question-area""></div> 
                </div>","null","","","","","","","","","","","",""
"","","","","","html-button-response","158","644444","0.0-158.0","E7E53372E24E45B2B3B896684AA6D978","019dac6a-2311-70e8-b33b-7f928a52fb80","019dac5b-243f-7307-af64-a10f53f1ef70","","435","
                <div class=""stimulus-container"">
                    <img src=""images/semantic_sequence/visiting_cities_semantic/visiting_cities_semantic_8.png"" class=""exp-image"">
                    <div class=""question-area"">
                        <p style=""font-size: 20px; font-weight: bold; margin: 0;"">Is there a person in this image?</p>
                    </div>
                </div>","0","main_experiment_trial","8","visiting_cities_semantic","semantic_sequence","chronological","","","","","","",""
"","","","","","html-keyboard-response","159","649448","0.0-159.0","E7E53372E24E45B2B3B896684AA6D978","019dac6a-2311-70e8-b33b-7f928a52fb80","019dac5b-243f-7307-af64-a10f53f1ef70","","null","
                <div class=""stimulus-container"">
                    <img src=""images/semantic_sequence/visiting_cities_semantic/visiting_cities_semantic_9.png"" class=""exp-image"">
                    <div class=""question-area""></div> 
                </div>","null","","","","","","","","","","","",""
"","","","","","html-button-response","160","649901","0.0-160.0","E7E53372E24E45B2B3B896684AA6D978","019dac6a-2311-70e8-b33b-7f928a52fb80","019dac5b-243f-7307-af64-a10f53f1ef70","","450","
                <div class=""stimulus-container"">
                    <img src=""images/semantic_sequence/visiting_cities_semantic/visiting_cities_semantic_9.png"" class=""exp-image"">
                    <div class=""question-area"">
                        <p style=""font-size: 20px; font-weight: bold; margin: 0;"">Is there a person in this image?</p>
                    </div>
                </div>","0","main_experiment_trial","9","visiting_cities_semantic","semantic_sequence","chronological","","","","","","",""
"","","","","","html-keyboard-response","161","654905","0.0-161.0","E7E53372E24E45B2B3B896684AA6D978","019dac6a-2311-70e8-b33b-7f928a52fb80","019dac5b-243f-7307-af64-a10f53f1ef70","","null","
                <div class=""stimulus-container"">
                    <img src=""images/semantic_sequence/visiting_cities_semantic/visiting_cities_semantic_ten.png"" class=""exp-image"">
                    <div class=""question-area""></div> 
                </div>","null","","","","","","","","","","","",""
"","","","","","html-button-response","162","655353","0.0-162.0","E7E53372E24E45B2B3B896684AA6D978","019dac6a-2311-70e8-b33b-7f928a52fb80","019dac5b-243f-7307-af64-a10f53f1ef70","","444","
                <div class=""stimulus-container"">
                    <img src=""images/semantic_sequence/visiting_cities_semantic/visiting_cities_semantic_ten.png"" class=""exp-image"">
                    <div class=""question-area"">
                        <p style=""font-size: 20px; font-weight: bold; margin: 0;"">Is there a person in this image?</p>
                    </div>
                </div>","0","main_experiment_trial","ten","visiting_cities_semantic","semantic_sequence","chronological","","","","","","",""
"","","","","","html-keyboard-response","163","660356","0.0-163.0","E7E53372E24E45B2B3B896684AA6D978","019dac6a-2311-70e8-b33b-7f928a52fb80","019dac5b-243f-7307-af64-a10f53f1ef70","","null","<div style=""background-color: white; width: 100vw; height: 100vh;""></div>","null","","","","","","","","","","","",""
"","","","","","html-keyboard-response","164","665359","0.0-164.0","E7E53372E24E45B2B3B896684AA6D978","019dac6a-2311-70e8-b33b-7f928a52fb80","019dac5b-243f-7307-af64-a10f53f1ef70","","null","
                <div class=""stimulus-container"">
                    <img src=""images/causal_sequence/dog_causal/dog_causal_1.png"" class=""exp-image"">
                    <div class=""question-area""></div> 
                </div>","null","","","","","","","","","","","",""
"","","","","","html-button-response","165","666539","0.0-165.0","E7E53372E24E45B2B3B896684AA6D978","019dac6a-2311-70e8-b33b-7f928a52fb80","019dac5b-243f-7307-af64-a10f53f1ef70","","1176","
                <div class=""stimulus-container"">
                    <img src=""images/causal_sequence/dog_causal/dog_causal_1.png"" class=""exp-image"">
                    <div class=""question-area"">
                        <p style=""font-size: 20px; font-weight: bold; margin: 0;"">Is there a person in this image?</p>
                    </div>
                </div>","0","main_experiment_trial","1","dog_causal","causal_sequence","chronological","","","","","","",""
"","","","","","html-keyboard-response","166","671543","0.0-166.0","E7E53372E24E45B2B3B896684AA6D978","019dac6a-2311-70e8-b33b-7f928a52fb80","019dac5b-243f-7307-af64-a10f53f1ef70","","null","
                <div class=""stimulus-container"">
                    <img src=""images/causal_sequence/dog_causal/dog_causal_2.png"" class=""exp-image"">
                    <div class=""question-area""></div> 
                </div>","null","","","","","","","","","","","",""
"","","","","","html-button-response","167","672005","0.0-167.0","E7E53372E24E45B2B3B896684AA6D978","019dac6a-2311-70e8-b33b-7f928a52fb80","019dac5b-243f-7307-af64-a10f53f1ef70","","458","
                <div class=""stimulus-container"">
                    <img src=""images/causal_sequence/dog_causal/dog_causal_2.png"" class=""exp-image"">
                    <div class=""question-area"">
                        <p style=""font-size: 20px; font-weight: bold; margin: 0;"">Is there a person in this image?</p>
                    </div>
                </div>","0","main_experiment_trial","2","dog_causal","causal_sequence","chronological","","","","","","",""
"","","","","","html-keyboard-response","168","677009","0.0-168.0","E7E53372E24E45B2B3B896684AA6D978","019dac6a-2311-70e8-b33b-7f928a52fb80","019dac5b-243f-7307-af64-a10f53f1ef70","","null","
                <div class=""stimulus-container"">
                    <img src=""images/causal_sequence/dog_causal/dog_causal_3.png"" class=""exp-image"">
                    <div class=""question-area""></div> 
                </div>","null","","","","","","","","","","","",""
"","","","","","html-button-response","169","677471","0.0-169.0","E7E53372E24E45B2B3B896684AA6D978","019dac6a-2311-70e8-b33b-7f928a52fb80","019dac5b-243f-7307-af64-a10f53f1ef70","","459","
                <div class=""stimulus-container"">
                    <img src=""images/causal_sequence/dog_causal/dog_causal_3.png"" class=""exp-image"">
                    <div class=""question-area"">
                        <p style=""font-size: 20px; font-weight: bold; margin: 0;"">Is there a person in this image?</p>
                    </div>
                </div>","0","main_experiment_trial","3","dog_causal","causal_sequence","chronological","","","","","","",""
"","","","","","html-keyboard-response","170","682475","0.0-170.0","E7E53372E24E45B2B3B896684AA6D978","019dac6a-2311-70e8-b33b-7f928a52fb80","019dac5b-243f-7307-af64-a10f53f1ef70","","null","
                <div class=""stimulus-container"">
                    <img src=""images/causal_sequence/dog_causal/dog_causal_4.png"" class=""exp-image"">
                    <div class=""question-area""></div> 
                </div>","null","","","","","","","","","","","",""
"","","","","","html-button-response","171","683601","0.0-171.0","E7E53372E24E45B2B3B896684AA6D978","019dac6a-2311-70e8-b33b-7f928a52fb80","019dac5b-243f-7307-af64-a10f53f1ef70","","1122","
                <div class=""stimulus-container"">
                    <img src=""images/causal_sequence/dog_causal/dog_causal_4.png"" class=""exp-image"">
                    <div class=""question-area"">
                        <p style=""font-size: 20px; font-weight: bold; margin: 0;"">Is there a person in this image?</p>
                    </div>
                </div>","0","main_experiment_trial","4","dog_causal","causal_sequence","chronological","","","","","","",""
"","","","","","html-keyboard-response","172","688605","0.0-172.0","E7E53372E24E45B2B3B896684AA6D978","019dac6a-2311-70e8-b33b-7f928a52fb80","019dac5b-243f-7307-af64-a10f53f1ef70","","null","
                <div class=""stimulus-container"">
                    <img src=""images/causal_sequence/dog_causal/dog_causal_5.png"" class=""exp-image"">
                    <div class=""question-area""></div> 
                </div>","null","","","","","","","","","","","",""
"","","","","","html-button-response","173","689221","0.0-173.0","E7E53372E24E45B2B3B896684AA6D978","019dac6a-2311-70e8-b33b-7f928a52fb80","019dac5b-243f-7307-af64-a10f53f1ef70","","613","
                <div class=""stimulus-container"">
                    <img src=""images/causal_sequence/dog_causal/dog_causal_5.png"" class=""exp-image"">
                    <div class=""question-area"">
                        <p style=""font-size: 20px; font-weight: bold; margin: 0;"">Is there a person in this image?</p>
                    </div>
                </div>","0","main_experiment_trial","5","dog_causal","causal_sequence","chronological","","","","","","",""
"","","","","","html-keyboard-response","174","694225","0.0-174.0","E7E53372E24E45B2B3B896684AA6D978","019dac6a-2311-70e8-b33b-7f928a52fb80","019dac5b-243f-7307-af64-a10f53f1ef70","","null","
                <div class=""stimulus-container"">
                    <img src=""images/causal_sequence/dog_causal/dog_causal_6.png"" class=""exp-image"">
                    <div class=""question-area""></div> 
                </div>","null","","","","","","","","","","","",""
