"success","timeout","failed_images","failed_audio","failed_video","trial_type","trial_index","time_elapsed","internal_node_id","view_history","rt","stimulus","response","task","folder","sequence_type","image_index","reward_type","valuable_image_index","target_X","dist_left","dist_right","chosen_image_index","chosen_dist","selected_after_X","correct_choice"
"true","false","[]","[]","[]","preload","0","35468","0.0-0.0","","","","","","","","","","","","","","","","",""
"","","","","","instructions","1","37936","0.0-1.0","[{""page_index"":0,""viewing_time"":2468}]","2468","","","","","","","","","","","","","","",""
"","","","","","instructions","2","171299","0.0-2.0","[{""page_index"":0,""viewing_time"":133362}]","133362","","","","","","","","","","","","","","",""
"true","","","","","fullscreen","3","174196","0.0-3.0","","1880","","","","","","","","","","","","","","",""
"","","","","","instructions","4","178859","0.0-4.0","[{""page_index"":0,""viewing_time"":4662}]","4663","","","","","","","","","","","","","","",""
"","","","","","instructions","5","180697","0.0-5.0","[{""page_index"":0,""viewing_time"":1837}]","1837","","","","","","","","","","","","","","",""
"","","","","","html-keyboard-response","6","183709","0.0-6.0","","null","<div class=""stimulus-container""><img src=""images/instructions/movie_1.png"" class=""exp-image""><div class=""question-area""></div></div>","null","","","","","","","","","","","","",""
"","","","","","html-button-response","7","185887","0.0-7.0","","2176","<div class=""stimulus-container""><img src=""images/instructions/movie_1.png"" class=""exp-image""><div class=""question-area""><p>Is there a person?</p></div></div>","0","","","","","","","","","","","","",""
"","","","","","html-keyboard-response","8","188897","0.0-8.0","","null","<div class=""stimulus-container""><img src=""images/instructions/movie_2.png"" class=""exp-image""><div class=""question-area""></div></div>","null","","","","","","","","","","","","",""
"","","","","","html-button-response","9","189599","0.0-9.0","","701","<div class=""stimulus-container""><img src=""images/instructions/movie_2.png"" class=""exp-image""><div class=""question-area""><p>Is there a person?</p></div></div>","0","","","","","","","","","","","","",""
"","","","","","html-keyboard-response","10","192601","0.0-10.0","","null","<div class=""stimulus-container""><img src=""images/instructions/movie_3.png"" class=""exp-image""><div class=""question-area""></div></div>","null","","","","","","","","","","","","",""
"","","","","","html-button-response","11","193347","0.0-11.0","","746","<div class=""stimulus-container""><img src=""images/instructions/movie_3.png"" class=""exp-image""><div class=""question-area""><p>Is there a person?</p></div></div>","0","","","","","","","","","","","","",""
"","","","","","instructions","12","194623","0.0-12.0","[{""page_index"":0,""viewing_time"":1275}]","1276","","","","","","","","","","","","","","",""
"","","","","","html-keyboard-response","13","196635","0.0-13.0","","null","<div style=""background-color: white; width: 100vw; height: 100vh;""></div>","null","","","","","","","","","","","","",""
"","","","","","html-keyboard-response","14","200636","0.0-14.0","","null","<div class=""stimulus-container""><img src=""images/semantic_sequence/self_care_activities_semantic/self_care_activities_semantic_1.png"" class=""exp-image""></div>","null","","","","","","","","","","","","",""
"","","","","","html-button-response","15","202078","0.0-15.0","","1442","<div class=""stimulus-container""><img src=""images/semantic_sequence/self_care_activities_semantic/self_care_activities_semantic_1.png"" class=""exp-image""><div class=""question-area""><p>Is there a person?</p></div></div>","0","observation","self_care_activities_semantic","semantic_sequence","1","","","","","","","","",""
"","","","","","html-keyboard-response","16","206093","0.0-16.0","","null","<div class=""stimulus-container""><img src=""images/semantic_sequence/self_care_activities_semantic/self_care_activities_semantic_2.png"" class=""exp-image""></div>","null","","","","","","","","","","","","",""
"","","","","","html-button-response","17","206863","0.0-17.0","","768","<div class=""stimulus-container""><img src=""images/semantic_sequence/self_care_activities_semantic/self_care_activities_semantic_2.png"" class=""exp-image""><div class=""question-area""><p>Is there a person?</p></div></div>","0","observation","self_care_activities_semantic","semantic_sequence","2","","","","","","","","",""
"","","","","","html-keyboard-response","18","210867","0.0-18.0","","null","<div class=""stimulus-container""><img src=""images/semantic_sequence/self_care_activities_semantic/self_care_activities_semantic_3.png"" class=""exp-image""></div>","null","","","","","","","","","","","","",""
"","","","","","html-button-response","19","211607","0.0-19.0","","739","<div class=""stimulus-container""><img src=""images/semantic_sequence/self_care_activities_semantic/self_care_activities_semantic_3.png"" class=""exp-image""><div class=""question-area""><p>Is there a person?</p></div></div>","0","observation","self_care_activities_semantic","semantic_sequence","3","","","","","","","","",""
"","","","","","html-keyboard-response","20","215622","0.0-20.0","","null","<div class=""stimulus-container""><img src=""images/semantic_sequence/self_care_activities_semantic/self_care_activities_semantic_4.png"" class=""exp-image""></div>","null","","","","","","","","","","","","",""
"","","","","","html-button-response","21","216411","0.0-21.0","","788","<div class=""stimulus-container""><img src=""images/semantic_sequence/self_care_activities_semantic/self_care_activities_semantic_4.png"" class=""exp-image""><div class=""question-area""><p>Is there a person?</p></div></div>","0","observation","self_care_activities_semantic","semantic_sequence","4","","","","","","","","",""
"","","","","","html-keyboard-response","22","220419","0.0-22.0","","null","<div class=""stimulus-container""><img src=""images/semantic_sequence/self_care_activities_semantic/self_care_activities_semantic_5.png"" class=""exp-image""></div>","null","","","","","","","","","","","","",""
"","","","","","html-button-response","23","220979","0.0-23.0","","560","<div class=""stimulus-container""><img src=""images/semantic_sequence/self_care_activities_semantic/self_care_activities_semantic_5.png"" class=""exp-image""><div class=""question-area""><p>Is there a person?</p></div></div>","0","observation","self_care_activities_semantic","semantic_sequence","5","","","","","","","","",""
"","","","","","html-keyboard-response","24","224992","0.0-24.0","","null","<div class=""stimulus-container""><img src=""images/semantic_sequence/self_care_activities_semantic/self_care_activities_semantic_6.png"" class=""exp-image""></div>","null","","","","","","","","","","","","",""
"","","","","","html-button-response","25","225891","0.0-25.0","","899","<div class=""stimulus-container""><img src=""images/semantic_sequence/self_care_activities_semantic/self_care_activities_semantic_6.png"" class=""exp-image""><div class=""question-area""><p>Is there a person?</p></div></div>","1","observation","self_care_activities_semantic","semantic_sequence","6","","","","","","","","",""
"","","","","","html-keyboard-response","26","229893","0.0-26.0","","null","<div class=""stimulus-container""><img src=""images/semantic_sequence/self_care_activities_semantic/self_care_activities_semantic_7.png"" class=""exp-image""></div>","null","","","","","","","","","","","","",""
"","","","","","html-button-response","27","230731","0.0-27.0","","837","<div class=""stimulus-container""><img src=""images/semantic_sequence/self_care_activities_semantic/self_care_activities_semantic_7.png"" class=""exp-image""><div class=""question-area""><p>Is there a person?</p></div></div>","0","observation","self_care_activities_semantic","semantic_sequence","7","","","","","","","","",""
"","","","","","html-keyboard-response","28","234734","0.0-28.0","","null","<div class=""stimulus-container""><img src=""images/semantic_sequence/self_care_activities_semantic/self_care_activities_semantic_8.png"" class=""exp-image""></div>","null","","","","","","","","","","","","",""
"","","","","","html-button-response","29","235131","0.0-29.0","","397","<div class=""stimulus-container""><img src=""images/semantic_sequence/self_care_activities_semantic/self_care_activities_semantic_8.png"" class=""exp-image""><div class=""question-area""><p>Is there a person?</p></div></div>","0","observation","self_care_activities_semantic","semantic_sequence","8","","","","","","","","",""
"","","","","","html-keyboard-response","30","239133","0.0-30.0","","null","<div class=""stimulus-container""><img src=""images/semantic_sequence/self_care_activities_semantic/self_care_activities_semantic_9.png"" class=""exp-image""></div>","null","","","","","","","","","","","","",""
"","","","","","html-button-response","31","239779","0.0-31.0","","645","<div class=""stimulus-container""><img src=""images/semantic_sequence/self_care_activities_semantic/self_care_activities_semantic_9.png"" class=""exp-image""><div class=""question-area""><p>Is there a person?</p></div></div>","0","observation","self_care_activities_semantic","semantic_sequence","9","","","","","","","","",""
"","","","","","html-keyboard-response","32","243787","0.0-32.0","","null","<div class=""stimulus-container""><img src=""images/semantic_sequence/self_care_activities_semantic/self_care_activities_semantic_ten.png"" class=""exp-image""></div>","null","","","","","","","","","","","","",""
"","","","","","html-button-response","33","244787","0.0-33.0","","999","<div class=""stimulus-container""><img src=""images/semantic_sequence/self_care_activities_semantic/self_care_activities_semantic_ten.png"" class=""exp-image""><div class=""question-area""><p>Is there a person?</p></div></div>","0","observation","self_care_activities_semantic","semantic_sequence","ten","","","","","","","","",""
"","","","","","html-keyboard-response","34","246790","0.0-34.0","","null","<div style=""background-color: white; width: 100vw; height: 100vh;""></div>","null","","","","","","","","","","","","",""
"","","","","","html-keyboard-response","35","250793","0.0-35.0","","null","<div class=""stimulus-container""><img src=""images/semantic_sequence/maintaining_a_car_semantic/maintaining_a_car_semantic_1.png"" class=""exp-image""></div>","null","","","","","","","","","","","","",""
"","","","","","html-button-response","36","268687","0.0-36.0","","17893","<div class=""stimulus-container""><img src=""images/semantic_sequence/maintaining_a_car_semantic/maintaining_a_car_semantic_1.png"" class=""exp-image""><div class=""question-area""><p>Is there a person?</p></div></div>","0","observation","maintaining_a_car_semantic","semantic_sequence","1","","","","","","","","",""
"","","","","","html-keyboard-response","37","272695","0.0-37.0","","null","<div class=""stimulus-container""><img src=""images/semantic_sequence/maintaining_a_car_semantic/maintaining_a_car_semantic_2.png"" class=""exp-image""></div>","null","","","","","","","","","","","","",""
"","","","","","html-button-response","38","274231","0.0-38.0","","1535","<div class=""stimulus-container""><img src=""images/semantic_sequence/maintaining_a_car_semantic/maintaining_a_car_semantic_2.png"" class=""exp-image""><div class=""question-area""><p>Is there a person?</p></div></div>","0","observation","maintaining_a_car_semantic","semantic_sequence","2","","","","","","","","",""
"","","","","","html-keyboard-response","39","278240","0.0-39.0","","null","<div class=""stimulus-container""><img src=""images/semantic_sequence/maintaining_a_car_semantic/maintaining_a_car_semantic_3.png"" class=""exp-image""></div>","null","","","","","","","","","","","","",""
"","","","","","html-button-response","40","279316","0.0-40.0","","1075","<div class=""stimulus-container""><img src=""images/semantic_sequence/maintaining_a_car_semantic/maintaining_a_car_semantic_3.png"" class=""exp-image""><div class=""question-area""><p>Is there a person?</p></div></div>","0","observation","maintaining_a_car_semantic","semantic_sequence","3","","","","","","","","",""
"","","","","","html-keyboard-response","41","283319","0.0-41.0","","null","<div class=""stimulus-container""><img src=""images/semantic_sequence/maintaining_a_car_semantic/maintaining_a_car_semantic_4.png"" class=""exp-image""></div>","null","","","","","","","","","","","","",""
"","","","","","html-button-response","42","283851","0.0-42.0","","532","<div class=""stimulus-container""><img src=""images/semantic_sequence/maintaining_a_car_semantic/maintaining_a_car_semantic_4.png"" class=""exp-image""><div class=""question-area""><p>Is there a person?</p></div></div>","0","observation","maintaining_a_car_semantic","semantic_sequence","4","","","","","","","","",""
"","","","","","html-keyboard-response","43","287859","0.0-43.0","","null","<div class=""stimulus-container""><img src=""images/semantic_sequence/maintaining_a_car_semantic/maintaining_a_car_semantic_5.png"" class=""exp-image""></div>","null","","","","","","","","","","","","",""
"","","","","","html-button-response","44","289508","0.0-44.0","","1648","<div class=""stimulus-container""><img src=""images/semantic_sequence/maintaining_a_car_semantic/maintaining_a_car_semantic_5.png"" class=""exp-image""><div class=""question-area""><p>Is there a person?</p></div></div>","0","observation","maintaining_a_car_semantic","semantic_sequence","5","","","","","","","","",""
"","","","","","html-keyboard-response","45","293508","0.0-45.0","","null","<div class=""stimulus-container""><img src=""images/semantic_sequence/maintaining_a_car_semantic/maintaining_a_car_semantic_6.png"" class=""exp-image""></div>","null","","","","","","","","","","","","",""
"","","","","","html-button-response","46","294051","0.0-46.0","","543","<div class=""stimulus-container""><img src=""images/semantic_sequence/maintaining_a_car_semantic/maintaining_a_car_semantic_6.png"" class=""exp-image""><div class=""question-area""><p>Is there a person?</p></div></div>","0","observation","maintaining_a_car_semantic","semantic_sequence","6","","","","","","","","",""
"","","","","","html-keyboard-response","47","298057","0.0-47.0","","null","<div class=""stimulus-container""><img src=""images/semantic_sequence/maintaining_a_car_semantic/maintaining_a_car_semantic_7.png"" class=""exp-image""></div>","null","","","","","","","","","","","","",""
"","","","","","html-button-response","48","299359","0.0-48.0","","1302","<div class=""stimulus-container""><img src=""images/semantic_sequence/maintaining_a_car_semantic/maintaining_a_car_semantic_7.png"" class=""exp-image""><div class=""question-area""><p>Is there a person?</p></div></div>","0","observation","maintaining_a_car_semantic","semantic_sequence","7","","","","","","","","",""
"","","","","","html-keyboard-response","49","303368","0.0-49.0","","null","<div class=""stimulus-container""><img src=""images/semantic_sequence/maintaining_a_car_semantic/maintaining_a_car_semantic_8.png"" class=""exp-image""></div>","null","","","","","","","","","","","","",""
"","","","","","html-button-response","50","304680","0.0-50.0","","1311","<div class=""stimulus-container""><img src=""images/semantic_sequence/maintaining_a_car_semantic/maintaining_a_car_semantic_8.png"" class=""exp-image""><div class=""question-area""><p>Is there a person?</p></div></div>","0","observation","maintaining_a_car_semantic","semantic_sequence","8","","","","","","","","",""
"","","","","","html-keyboard-response","51","308686","0.0-51.0","","null","<div class=""stimulus-container""><img src=""images/semantic_sequence/maintaining_a_car_semantic/maintaining_a_car_semantic_9.png"" class=""exp-image""></div>","null","","","","","","","","","","","","",""
"","","","","","html-button-response","52","310627","0.0-52.0","","1940","<div class=""stimulus-container""><img src=""images/semantic_sequence/maintaining_a_car_semantic/maintaining_a_car_semantic_9.png"" class=""exp-image""><div class=""question-area""><p>Is there a person?</p></div></div>","0","observation","maintaining_a_car_semantic","semantic_sequence","9","","","","","","","","",""
"","","","","","html-keyboard-response","53","314632","0.0-53.0","","null","<div class=""stimulus-container""><img src=""images/semantic_sequence/maintaining_a_car_semantic/maintaining_a_car_semantic_ten.png"" class=""exp-image""></div>","null","","","","","","","","","","","","",""
"","","","","","html-button-response","54","315557","0.0-54.0","","924","<div class=""stimulus-container""><img src=""images/semantic_sequence/maintaining_a_car_semantic/maintaining_a_car_semantic_ten.png"" class=""exp-image""><div class=""question-area""><p>Is there a person?</p></div></div>","0","observation","maintaining_a_car_semantic","semantic_sequence","ten","","","","","","","","",""
"","","","","","html-keyboard-response","55","317565","0.0-55.0","","null","<div style=""background-color: white; width: 100vw; height: 100vh;""></div>","null","","","","","","","","","","","","",""
"","","","","","html-keyboard-response","56","321574","0.0-56.0","","null","<div class=""stimulus-container""><img src=""images/causal_sequence/saving_a_cat_causal/saving_a_cat_causal_1.png"" class=""exp-image""></div>","null","","","","","","","","","","","","",""
"","","","","","html-button-response","57","322367","0.0-57.0","","792","<div class=""stimulus-container""><img src=""images/causal_sequence/saving_a_cat_causal/saving_a_cat_causal_1.png"" class=""exp-image""><div class=""question-area""><p>Is there a person?</p></div></div>","0","observation","saving_a_cat_causal","causal_sequence","1","","","","","","","","",""
"","","","","","html-keyboard-response","58","326383","0.0-58.0","","null","<div class=""stimulus-container""><img src=""images/causal_sequence/saving_a_cat_causal/saving_a_cat_causal_2.png"" class=""exp-image""></div>","null","","","","","","","","","","","","",""
"","","","","","html-button-response","59","327343","0.0-59.0","","959","<div class=""stimulus-container""><img src=""images/causal_sequence/saving_a_cat_causal/saving_a_cat_causal_2.png"" class=""exp-image""><div class=""question-area""><p>Is there a person?</p></div></div>","1","observation","saving_a_cat_causal","causal_sequence","2","","","","","","","","",""
"","","","","","html-keyboard-response","60","331351","0.0-60.0","","null","<div class=""stimulus-container""><img src=""images/causal_sequence/saving_a_cat_causal/saving_a_cat_causal_3.png"" class=""exp-image""></div>","null","","","","","","","","","","","","",""
"","","","","","html-button-response","61","332315","0.0-61.0","","964","<div class=""stimulus-container""><img src=""images/causal_sequence/saving_a_cat_causal/saving_a_cat_causal_3.png"" class=""exp-image""><div class=""question-area""><p>Is there a person?</p></div></div>","1","observation","saving_a_cat_causal","causal_sequence","3","","","","","","","","",""
"","","","","","html-keyboard-response","62","336331","0.0-62.0","","null","<div class=""stimulus-container""><img src=""images/causal_sequence/saving_a_cat_causal/saving_a_cat_causal_4.png"" class=""exp-image""></div>","null","","","","","","","","","","","","",""
"","","","","","html-button-response","63","337867","0.0-63.0","","1536","<div class=""stimulus-container""><img src=""images/causal_sequence/saving_a_cat_causal/saving_a_cat_causal_4.png"" class=""exp-image""><div class=""question-area""><p>Is there a person?</p></div></div>","0","observation","saving_a_cat_causal","causal_sequence","4","","","","","","","","",""
"","","","","","html-keyboard-response","64","341873","0.0-64.0","","null","<div class=""stimulus-container""><img src=""images/causal_sequence/saving_a_cat_causal/saving_a_cat_causal_5.png"" class=""exp-image""></div>","null","","","","","","","","","","","","",""
"","","","","","html-button-response","65","343059","0.0-65.0","","1186","<div class=""stimulus-container""><img src=""images/causal_sequence/saving_a_cat_causal/saving_a_cat_causal_5.png"" class=""exp-image""><div class=""question-area""><p>Is there a person?</p></div></div>","0","observation","saving_a_cat_causal","causal_sequence","5","","","","","","","","",""
"","","","","","html-keyboard-response","66","347069","0.0-66.0","","null","<div class=""stimulus-container""><img src=""images/causal_sequence/saving_a_cat_causal/saving_a_cat_causal_6.png"" class=""exp-image""></div>","null","","","","","","","","","","","","",""
"","","","","","html-button-response","67","347607","0.0-67.0","","537","<div class=""stimulus-container""><img src=""images/causal_sequence/saving_a_cat_causal/saving_a_cat_causal_6.png"" class=""exp-image""><div class=""question-area""><p>Is there a person?</p></div></div>","0","observation","saving_a_cat_causal","causal_sequence","6","","","","","","","","",""
"","","","","","html-keyboard-response","68","351607","0.0-68.0","","null","<div class=""stimulus-container""><img src=""images/causal_sequence/saving_a_cat_causal/saving_a_cat_causal_7.png"" class=""exp-image""></div>","null","","","","","","","","","","","","",""
"","","","","","html-button-response","69","352455","0.0-69.0","","846","<div class=""stimulus-container""><img src=""images/causal_sequence/saving_a_cat_causal/saving_a_cat_causal_7.png"" class=""exp-image""><div class=""question-area""><p>Is there a person?</p></div></div>","0","observation","saving_a_cat_causal","causal_sequence","7","","","","","","","","",""
"","","","","","html-keyboard-response","70","356460","0.0-70.0","","null","<div class=""stimulus-container""><img src=""images/causal_sequence/saving_a_cat_causal/saving_a_cat_causal_8.png"" class=""exp-image""></div>","null","","","","","","","","","","","","",""
"","","","","","html-button-response","71","358307","0.0-71.0","","1846","<div class=""stimulus-container""><img src=""images/causal_sequence/saving_a_cat_causal/saving_a_cat_causal_8.png"" class=""exp-image""><div class=""question-area""><p>Is there a person?</p></div></div>","0","observation","saving_a_cat_causal","causal_sequence","8","","","","","","","","",""
"","","","","","html-keyboard-response","72","362321","0.0-72.0","","null","<div class=""stimulus-container""><img src=""images/causal_sequence/saving_a_cat_causal/saving_a_cat_causal_9.png"" class=""exp-image""></div>","null","","","","","","","","","","","","",""
"","","","","","html-button-response","73","363507","0.0-73.0","","1185","<div class=""stimulus-container""><img src=""images/causal_sequence/saving_a_cat_causal/saving_a_cat_causal_9.png"" class=""exp-image""><div class=""question-area""><p>Is there a person?</p></div></div>","0","observation","saving_a_cat_causal","causal_sequence","9","","","","","","","","",""
"","","","","","html-keyboard-response","74","367512","0.0-74.0","","null","<div class=""stimulus-container""><img src=""images/causal_sequence/saving_a_cat_causal/saving_a_cat_causal_ten.png"" class=""exp-image""></div>","null","","","","","","","","","","","","",""
"","","","","","html-button-response","75","368671","0.0-75.0","","1159","<div class=""stimulus-container""><img src=""images/causal_sequence/saving_a_cat_causal/saving_a_cat_causal_ten.png"" class=""exp-image""><div class=""question-area""><p>Is there a person?</p></div></div>","0","observation","saving_a_cat_causal","causal_sequence","ten","","","","","","","","",""
"","","","","","html-keyboard-response","76","370686","0.0-76.0","","null","<div style=""background-color: white; width: 100vw; height: 100vh;""></div>","null","","","","","","","","","","","","",""
"","","","","","html-keyboard-response","77","374702","0.0-77.0","","null","<div class=""stimulus-container""><img src=""images/causal_sequence/museum_causal/museum_causal_1.png"" class=""exp-image""></div>","null","","","","","","","","","","","","",""
"","","","","","html-button-response","78","375139","0.0-78.0","","436","<div class=""stimulus-container""><img src=""images/causal_sequence/museum_causal/museum_causal_1.png"" class=""exp-image""><div class=""question-area""><p>Is there a person?</p></div></div>","0","observation","museum_causal","causal_sequence","1","","","","","","","","",""
"","","","","","html-keyboard-response","79","379140","0.0-79.0","","null","<div class=""stimulus-container""><img src=""images/causal_sequence/museum_causal/museum_causal_2.png"" class=""exp-image""></div>","null","","","","","","","","","","","","",""
"","","","","","html-button-response","80","379987","0.0-80.0","","846","<div class=""stimulus-container""><img src=""images/causal_sequence/museum_causal/museum_causal_2.png"" class=""exp-image""><div class=""question-area""><p>Is there a person?</p></div></div>","1","observation","museum_causal","causal_sequence","2","","","","","","","","",""
"","","","","","html-keyboard-response","81","383990","0.0-81.0","","null","<div class=""stimulus-container""><img src=""images/causal_sequence/museum_causal/museum_causal_3.png"" class=""exp-image""></div>","null","","","","","","","","","","","","",""
"","","","","","html-button-response","82","385018","0.0-82.0","","1028","<div class=""stimulus-container""><img src=""images/causal_sequence/museum_causal/museum_causal_3.png"" class=""exp-image""><div class=""question-area""><p>Is there a person?</p></div></div>","0","observation","museum_causal","causal_sequence","3","","","","","","","","",""
"","","","","","html-keyboard-response","83","389019","0.0-83.0","","null","<div class=""stimulus-container""><img src=""images/causal_sequence/museum_causal/museum_causal_4.png"" class=""exp-image""></div>","null","","","","","","","","","","","","",""
"","","","","","html-button-response","84","389755","0.0-84.0","","735","<div class=""stimulus-container""><img src=""images/causal_sequence/museum_causal/museum_causal_4.png"" class=""exp-image""><div class=""question-area""><p>Is there a person?</p></div></div>","1","observation","museum_causal","causal_sequence","4","","","","","","","","",""
"","","","","","html-keyboard-response","85","393768","0.0-85.0","","null","<div class=""stimulus-container""><img src=""images/causal_sequence/museum_causal/museum_causal_5.png"" class=""exp-image""></div>","null","","","","","","","","","","","","",""
"","","","","","html-button-response","86","394699","0.0-86.0","","930","<div class=""stimulus-container""><img src=""images/causal_sequence/museum_causal/museum_causal_5.png"" class=""exp-image""><div class=""question-area""><p>Is there a person?</p></div></div>","0","observation","museum_causal","causal_sequence","5","","","","","","","","",""
"","","","","","html-keyboard-response","87","398714","0.0-87.0","","null","<div class=""stimulus-container""><img src=""images/causal_sequence/museum_causal/museum_causal_6.png"" class=""exp-image""></div>","null","","","","","","","","","","","","",""
"","","","","","html-button-response","88","399539","0.0-88.0","","824","<div class=""stimulus-container""><img src=""images/causal_sequence/museum_causal/museum_causal_6.png"" class=""exp-image""><div class=""question-area""><p>Is there a person?</p></div></div>","0","observation","museum_causal","causal_sequence","6","","","","","","","","",""
"","","","","","html-keyboard-response","89","403552","0.0-89.0","","null","<div class=""stimulus-container""><img src=""images/causal_sequence/museum_causal/museum_causal_7.png"" class=""exp-image""></div>","null","","","","","","","","","","","","",""
"","","","","","html-button-response","90","404063","0.0-90.0","","510","<div class=""stimulus-container""><img src=""images/causal_sequence/museum_causal/museum_causal_7.png"" class=""exp-image""><div class=""question-area""><p>Is there a person?</p></div></div>","1","observation","museum_causal","causal_sequence","7","","","","","","","","",""
"","","","","","html-keyboard-response","91","408064","0.0-91.0","","null","<div class=""stimulus-container""><img src=""images/causal_sequence/museum_causal/museum_causal_8.png"" class=""exp-image""></div>","null","","","","","","","","","","","","",""
"","","","","","html-button-response","92","408679","0.0-92.0","","614","<div class=""stimulus-container""><img src=""images/causal_sequence/museum_causal/museum_causal_8.png"" class=""exp-image""><div class=""question-area""><p>Is there a person?</p></div></div>","0","observation","museum_causal","causal_sequence","8","","","","","","","","",""
"","","","","","html-keyboard-response","93","412695","0.0-93.0","","null","<div class=""stimulus-container""><img src=""images/causal_sequence/museum_causal/museum_causal_9.png"" class=""exp-image""></div>","null","","","","","","","","","","","","",""
"","","","","","html-button-response","94","414403","0.0-94.0","","1707","<div class=""stimulus-container""><img src=""images/causal_sequence/museum_causal/museum_causal_9.png"" class=""exp-image""><div class=""question-area""><p>Is there a person?</p></div></div>","1","observation","museum_causal","causal_sequence","9","","","","","","","","",""
"","","","","","html-keyboard-response","95","418418","0.0-95.0","","null","<div class=""stimulus-container""><img src=""images/causal_sequence/museum_causal/museum_causal_ten.png"" class=""exp-image""></div>","null","","","","","","","","","","","","",""
"","","","","","html-button-response","96","418907","0.0-96.0","","489","<div class=""stimulus-container""><img src=""images/causal_sequence/museum_causal/museum_causal_ten.png"" class=""exp-image""><div class=""question-area""><p>Is there a person?</p></div></div>","0","observation","museum_causal","causal_sequence","ten","","","","","","","","",""
"","","","","","html-keyboard-response","97","420908","0.0-97.0","","null","<div style=""background-color: white; width: 100vw; height: 100vh;""></div>","null","","","","","","","","","","","","",""
"","","","","","html-keyboard-response","98","424920","0.0-98.0","","null","<div class=""stimulus-container""><img src=""images/causal_sequence/package_causal/package_causal_1.png"" class=""exp-image""></div>","null","","","","","","","","","","","","",""
"","","","","","html-button-response","99","425759","0.0-99.0","","838","<div class=""stimulus-container""><img src=""images/causal_sequence/package_causal/package_causal_1.png"" class=""exp-image""><div class=""question-area""><p>Is there a person?</p></div></div>","0","observation","package_causal","causal_sequence","1","","","","","","","","",""
"","","","","","html-keyboard-response","100","429773","0.0-100.0","","null","<div class=""stimulus-container""><img src=""images/causal_sequence/package_causal/package_causal_2.png"" class=""exp-image""></div>","null","","","","","","","","","","","","",""
"","","","","","html-button-response","101","430663","0.0-101.0","","889","<div class=""stimulus-container""><img src=""images/causal_sequence/package_causal/package_causal_2.png"" class=""exp-image""><div class=""question-area""><p>Is there a person?</p></div></div>","0","observation","package_causal","causal_sequence","2","","","","","","","","",""
"","","","","","html-keyboard-response","102","434665","0.0-102.0","","null","<div class=""stimulus-container""><img src=""images/causal_sequence/package_causal/package_causal_3.png"" class=""exp-image""></div>","null","","","","","","","","","","","","",""
"","","","","","html-button-response","103","436035","0.0-103.0","","1369","<div class=""stimulus-container""><img src=""images/causal_sequence/package_causal/package_causal_3.png"" class=""exp-image""><div class=""question-area""><p>Is there a person?</p></div></div>","0","observation","package_causal","causal_sequence","3","","","","","","","","",""
"","","","","","html-keyboard-response","104","440038","0.0-104.0","","null","<div class=""stimulus-container""><img src=""images/causal_sequence/package_causal/package_causal_4.png"" class=""exp-image""></div>","null","","","","","","","","","","","","",""
"","","","","","html-button-response","105","444831","0.0-105.0","","4792","<div class=""stimulus-container""><img src=""images/causal_sequence/package_causal/package_causal_4.png"" class=""exp-image""><div class=""question-area""><p>Is there a person?</p></div></div>","1","observation","package_causal","causal_sequence","4","","","","","","","","",""
"","","","","","html-keyboard-response","106","448840","0.0-106.0","","null","<div class=""stimulus-container""><img src=""images/causal_sequence/package_causal/package_causal_5.png"" class=""exp-image""></div>","null","","","","","","","","","","","","",""
"","","","","","html-button-response","107","449535","0.0-107.0","","694","<div class=""stimulus-container""><img src=""images/causal_sequence/package_causal/package_causal_5.png"" class=""exp-image""><div class=""question-area""><p>Is there a person?</p></div></div>","0","observation","package_causal","causal_sequence","5","","","","","","","","",""
"","","","","","html-keyboard-response","108","453549","0.0-108.0","","null","<div class=""stimulus-container""><img src=""images/causal_sequence/package_causal/package_causal_6.png"" class=""exp-image""></div>","null","","","","","","","","","","","","",""
"","","","","","html-button-response","109","468419","0.0-109.0","","14870","<div class=""stimulus-container""><img src=""images/causal_sequence/package_causal/package_causal_6.png"" class=""exp-image""><div class=""question-area""><p>Is there a person?</p></div></div>","0","observation","package_causal","causal_sequence","6","","","","","","","","",""
"","","","","","html-keyboard-response","110","472422","0.0-110.0","","null","<div class=""stimulus-container""><img src=""images/causal_sequence/package_causal/package_causal_7.png"" class=""exp-image""></div>","null","","","","","","","","","","","","",""
"","","","","","html-button-response","111","473447","0.0-111.0","","1024","<div class=""stimulus-container""><img src=""images/causal_sequence/package_causal/package_causal_7.png"" class=""exp-image""><div class=""question-area""><p>Is there a person?</p></div></div>","0","observation","package_causal","causal_sequence","7","","","","","","","","",""
"","","","","","html-keyboard-response","112","477450","0.0-112.0","","null","<div class=""stimulus-container""><img src=""images/causal_sequence/package_causal/package_causal_8.png"" class=""exp-image""></div>","null","","","","","","","","","","","","",""
"","","","","","html-button-response","113","477919","0.0-113.0","","468","<div class=""stimulus-container""><img src=""images/causal_sequence/package_causal/package_causal_8.png"" class=""exp-image""><div class=""question-area""><p>Is there a person?</p></div></div>","0","observation","package_causal","causal_sequence","8","","","","","","","","",""
"","","","","","html-keyboard-response","114","481932","0.0-114.0","","null","<div class=""stimulus-container""><img src=""images/causal_sequence/package_causal/package_causal_9.png"" class=""exp-image""></div>","null","","","","","","","","","","","","",""
"","","","","","html-button-response","115","482552","0.0-115.0","","619","<div class=""stimulus-container""><img src=""images/causal_sequence/package_causal/package_causal_9.png"" class=""exp-image""><div class=""question-area""><p>Is there a person?</p></div></div>","0","observation","package_causal","causal_sequence","9","","","","","","","","",""
"","","","","","html-keyboard-response","116","486556","0.0-116.0","","null","<div class=""stimulus-container""><img src=""images/causal_sequence/package_causal/package_causal_ten.png"" class=""exp-image""></div>","null","","","","","","","","","","","","",""
"","","","","","html-button-response","117","486999","0.0-117.0","","442","<div class=""stimulus-container""><img src=""images/causal_sequence/package_causal/package_causal_ten.png"" class=""exp-image""><div class=""question-area""><p>Is there a person?</p></div></div>","0","observation","package_causal","causal_sequence","ten","","","","","","","","",""
"","","","","","html-keyboard-response","118","489014","0.0-118.0","","null","<div style=""background-color: white; width: 100vw; height: 100vh;""></div>","null","","","","","","","","","","","","",""
"","","","","","html-keyboard-response","119","493019","0.0-119.0","","null","<div class=""stimulus-container""><img src=""images/semantic_sequence/kitchen_operations_semantic/kitchen_operations_semantic_1.png"" class=""exp-image""></div>","null","","","","","","","","","","","","",""
"","","","","","html-button-response","120","493523","0.0-120.0","","503","<div class=""stimulus-container""><img src=""images/semantic_sequence/kitchen_operations_semantic/kitchen_operations_semantic_1.png"" class=""exp-image""><div class=""question-area""><p>Is there a person?</p></div></div>","0","observation","kitchen_operations_semantic","semantic_sequence","1","","","","","","","","",""
"","","","","","html-keyboard-response","121","497526","0.0-121.0","","null","<div class=""stimulus-container""><img src=""images/semantic_sequence/kitchen_operations_semantic/kitchen_operations_semantic_2.png"" class=""exp-image""></div>","null","","","","","","","","","","","","",""
"","","","","","html-button-response","122","498623","0.0-122.0","","1096","<div class=""stimulus-container""><img src=""images/semantic_sequence/kitchen_operations_semantic/kitchen_operations_semantic_2.png"" class=""exp-image""><div class=""question-area""><p>Is there a person?</p></div></div>","0","observation","kitchen_operations_semantic","semantic_sequence","2","","","","","","","","",""
"","","","","","html-keyboard-response","123","502640","0.0-123.0","","null","<div class=""stimulus-container""><img src=""images/semantic_sequence/kitchen_operations_semantic/kitchen_operations_semantic_3.png"" class=""exp-image""></div>","null","","","","","","","","","","","","",""
"","","","","","html-button-response","124","503054","0.0-124.0","","414","<div class=""stimulus-container""><img src=""images/semantic_sequence/kitchen_operations_semantic/kitchen_operations_semantic_3.png"" class=""exp-image""><div class=""question-area""><p>Is there a person?</p></div></div>","0","observation","kitchen_operations_semantic","semantic_sequence","3","","","","","","","","",""
"","","","","","html-keyboard-response","125","507066","0.0-125.0","","null","<div class=""stimulus-container""><img src=""images/semantic_sequence/kitchen_operations_semantic/kitchen_operations_semantic_4.png"" class=""exp-image""></div>","null","","","","","","","","","","","","",""
"","","","","","html-button-response","126","507632","0.0-126.0","","565","<div class=""stimulus-container""><img src=""images/semantic_sequence/kitchen_operations_semantic/kitchen_operations_semantic_4.png"" class=""exp-image""><div class=""question-area""><p>Is there a person?</p></div></div>","0","observation","kitchen_operations_semantic","semantic_sequence","4","","","","","","","","",""
"","","","","","html-keyboard-response","127","511638","0.0-127.0","","null","<div class=""stimulus-container""><img src=""images/semantic_sequence/kitchen_operations_semantic/kitchen_operations_semantic_5.png"" class=""exp-image""></div>","null","","","","","","","","","","","","",""
"","","","","","html-button-response","128","512335","0.0-128.0","","696","<div class=""stimulus-container""><img src=""images/semantic_sequence/kitchen_operations_semantic/kitchen_operations_semantic_5.png"" class=""exp-image""><div class=""question-area""><p>Is there a person?</p></div></div>","0","observation","kitchen_operations_semantic","semantic_sequence","5","","","","","","","","",""
"","","","","","html-keyboard-response","129","516338","0.0-129.0","","null","<div class=""stimulus-container""><img src=""images/semantic_sequence/kitchen_operations_semantic/kitchen_operations_semantic_6.png"" class=""exp-image""></div>","null","","","","","","","","","","","","",""
"","","","","","html-button-response","130","517206","0.0-130.0","","867","<div class=""stimulus-container""><img src=""images/semantic_sequence/kitchen_operations_semantic/kitchen_operations_semantic_6.png"" class=""exp-image""><div class=""question-area""><p>Is there a person?</p></div></div>","0","observation","kitchen_operations_semantic","semantic_sequence","6","","","","","","","","",""
"","","","","","html-keyboard-response","131","521223","0.0-131.0","","null","<div class=""stimulus-container""><img src=""images/semantic_sequence/kitchen_operations_semantic/kitchen_operations_semantic_7.png"" class=""exp-image""></div>","null","","","","","","","","","","","","",""
"","","","","","html-button-response","132","521751","0.0-132.0","","528","<div class=""stimulus-container""><img src=""images/semantic_sequence/kitchen_operations_semantic/kitchen_operations_semantic_7.png"" class=""exp-image""><div class=""question-area""><p>Is there a person?</p></div></div>","0","observation","kitchen_operations_semantic","semantic_sequence","7","","","","","","","","",""
"","","","","","html-keyboard-response","133","525764","0.0-133.0","","null","<div class=""stimulus-container""><img src=""images/semantic_sequence/kitchen_operations_semantic/kitchen_operations_semantic_8.png"" class=""exp-image""></div>","null","","","","","","","","","","","","",""
"","","","","","html-button-response","134","526367","0.0-134.0","","602","<div class=""stimulus-container""><img src=""images/semantic_sequence/kitchen_operations_semantic/kitchen_operations_semantic_8.png"" class=""exp-image""><div class=""question-area""><p>Is there a person?</p></div></div>","0","observation","kitchen_operations_semantic","semantic_sequence","8","","","","","","","","",""
"","","","","","html-keyboard-response","135","530381","0.0-135.0","","null","<div class=""stimulus-container""><img src=""images/semantic_sequence/kitchen_operations_semantic/kitchen_operations_semantic_9.png"" class=""exp-image""></div>","null","","","","","","","","","","","","",""
"","","","","","html-button-response","136","530815","0.0-136.0","","433","<div class=""stimulus-container""><img src=""images/semantic_sequence/kitchen_operations_semantic/kitchen_operations_semantic_9.png"" class=""exp-image""><div class=""question-area""><p>Is there a person?</p></div></div>","0","observation","kitchen_operations_semantic","semantic_sequence","9","","","","","","","","",""
"","","","","","html-keyboard-response","137","534818","0.0-137.0","","null","<div class=""stimulus-container""><img src=""images/semantic_sequence/kitchen_operations_semantic/kitchen_operations_semantic_ten.png"" class=""exp-image""></div>","null","","","","","","","","","","","","",""
"","","","","","html-button-response","138","535311","0.0-138.0","","492","<div class=""stimulus-container""><img src=""images/semantic_sequence/kitchen_operations_semantic/kitchen_operations_semantic_ten.png"" class=""exp-image""><div class=""question-area""><p>Is there a person?</p></div></div>","0","observation","kitchen_operations_semantic","semantic_sequence","ten","","","","","","","","",""
"","","","","","html-keyboard-response","139","537323","0.0-139.0","","null","<div style=""background-color: white; width: 100vw; height: 100vh;""></div>","null","","","","","","","","","","","","",""
"","","","","","html-keyboard-response","140","541336","0.0-140.0","","null","<div class=""stimulus-container""><img src=""images/semantic_sequence/physical_activity_semantic/physical_activity_semantic_1.png"" class=""exp-image""></div>","null","","","","","","","","","","","","",""
"","","","","","html-button-response","141","544111","0.0-141.0","","2774","<div class=""stimulus-container""><img src=""images/semantic_sequence/physical_activity_semantic/physical_activity_semantic_1.png"" class=""exp-image""><div class=""question-area""><p>Is there a person?</p></div></div>","0","observation","physical_activity_semantic","semantic_sequence","1","","","","","","","","",""
"","","","","","html-keyboard-response","142","548117","0.0-142.0","","null","<div class=""stimulus-container""><img src=""images/semantic_sequence/physical_activity_semantic/physical_activity_semantic_2.png"" class=""exp-image""></div>","null","","","","","","","","","","","","",""
"","","","","","html-button-response","143","550834","0.0-143.0","","2717","<div class=""stimulus-container""><img src=""images/semantic_sequence/physical_activity_semantic/physical_activity_semantic_2.png"" class=""exp-image""><div class=""question-area""><p>Is there a person?</p></div></div>","0","observation","physical_activity_semantic","semantic_sequence","2","","","","","","","","",""
"","","","","","html-keyboard-response","144","554847","0.0-144.0","","null","<div class=""stimulus-container""><img src=""images/semantic_sequence/physical_activity_semantic/physical_activity_semantic_3.png"" class=""exp-image""></div>","null","","","","","","","","","","","","",""
"","","","","","html-button-response","145","555895","0.0-145.0","","1047","<div class=""stimulus-container""><img src=""images/semantic_sequence/physical_activity_semantic/physical_activity_semantic_3.png"" class=""exp-image""><div class=""question-area""><p>Is there a person?</p></div></div>","0","observation","physical_activity_semantic","semantic_sequence","3","","","","","","","","",""
"","","","","","html-keyboard-response","146","559897","0.0-146.0","","null","<div class=""stimulus-container""><img src=""images/semantic_sequence/physical_activity_semantic/physical_activity_semantic_4.png"" class=""exp-image""></div>","null","","","","","","","","","","","","",""
"","","","","","html-button-response","147","560951","0.0-147.0","","1053","<div class=""stimulus-container""><img src=""images/semantic_sequence/physical_activity_semantic/physical_activity_semantic_4.png"" class=""exp-image""><div class=""question-area""><p>Is there a person?</p></div></div>","0","observation","physical_activity_semantic","semantic_sequence","4","","","","","","","","",""
"","","","","","html-keyboard-response","148","564963","0.0-148.0","","null","<div class=""stimulus-container""><img src=""images/semantic_sequence/physical_activity_semantic/physical_activity_semantic_5.png"" class=""exp-image""></div>","null","","","","","","","","","","","","",""
"","","","","","html-button-response","149","565463","0.0-149.0","","500","<div class=""stimulus-container""><img src=""images/semantic_sequence/physical_activity_semantic/physical_activity_semantic_5.png"" class=""exp-image""><div class=""question-area""><p>Is there a person?</p></div></div>","0","observation","physical_activity_semantic","semantic_sequence","5","","","","","","","","",""
"","","","","","html-keyboard-response","150","569470","0.0-150.0","","null","<div class=""stimulus-container""><img src=""images/semantic_sequence/physical_activity_semantic/physical_activity_semantic_6.png"" class=""exp-image""></div>","null","","","","","","","","","","","","",""
"","","","","","html-button-response","151","570131","0.0-151.0","","660","<div class=""stimulus-container""><img src=""images/semantic_sequence/physical_activity_semantic/physical_activity_semantic_6.png"" class=""exp-image""><div class=""question-area""><p>Is there a person?</p></div></div>","0","observation","physical_activity_semantic","semantic_sequence","6","","","","","","","","",""
"","","","","","html-keyboard-response","152","574136","0.0-152.0","","null","<div class=""stimulus-container""><img src=""images/semantic_sequence/physical_activity_semantic/physical_activity_semantic_7.png"" class=""exp-image""></div>","null","","","","","","","","","","","","",""
"","","","","","html-button-response","153","576487","0.0-153.0","","2350","<div class=""stimulus-container""><img src=""images/semantic_sequence/physical_activity_semantic/physical_activity_semantic_7.png"" class=""exp-image""><div class=""question-area""><p>Is there a person?</p></div></div>","0","observation","physical_activity_semantic","semantic_sequence","7","","","","","","","","",""
"","","","","","html-keyboard-response","154","580496","0.0-154.0","","null","<div class=""stimulus-container""><img src=""images/semantic_sequence/physical_activity_semantic/physical_activity_semantic_8.png"" class=""exp-image""></div>","null","","","","","","","","","","","","",""
"","","","","","html-button-response","155","586287","0.0-155.0","","5791","<div class=""stimulus-container""><img src=""images/semantic_sequence/physical_activity_semantic/physical_activity_semantic_8.png"" class=""exp-image""><div class=""question-area""><p>Is there a person?</p></div></div>","0","observation","physical_activity_semantic","semantic_sequence","8","","","","","","","","",""
"","","","","","html-keyboard-response","156","590291","0.0-156.0","","null","<div class=""stimulus-container""><img src=""images/semantic_sequence/physical_activity_semantic/physical_activity_semantic_9.png"" class=""exp-image""></div>","null","","","","","","","","","","","","",""
"","","","","","html-button-response","157","590895","0.0-157.0","","603","<div class=""stimulus-container""><img src=""images/semantic_sequence/physical_activity_semantic/physical_activity_semantic_9.png"" class=""exp-image""><div class=""question-area""><p>Is there a person?</p></div></div>","0","observation","physical_activity_semantic","semantic_sequence","9","","","","","","","","",""
"","","","","","html-keyboard-response","158","594907","0.0-158.0","","null","<div class=""stimulus-container""><img src=""images/semantic_sequence/physical_activity_semantic/physical_activity_semantic_ten.png"" class=""exp-image""></div>","null","","","","","","","","","","","","",""
"","","","","","html-button-response","159","595523","0.0-159.0","","615","<div class=""stimulus-container""><img src=""images/semantic_sequence/physical_activity_semantic/physical_activity_semantic_ten.png"" class=""exp-image""><div class=""question-area""><p>Is there a person?</p></div></div>","0","observation","physical_activity_semantic","semantic_sequence","ten","","","","","","","","",""
"","","","","","html-keyboard-response","160","597530","0.0-160.0","","null","<div style=""background-color: white; width: 100vw; height: 100vh;""></div>","null","","","","","","","","","","","","",""
"","","","","","html-keyboard-response","161","601542","0.0-161.0","","null","<div class=""stimulus-container""><img src=""images/causal_sequence/the_performance_causal/the_performance_causal_1.png"" class=""exp-image""></div>","null","","","","","","","","","","","","",""
"","","","","","html-button-response","162","602071","0.0-162.0","","528","<div class=""stimulus-container""><img src=""images/causal_sequence/the_performance_causal/the_performance_causal_1.png"" class=""exp-image""><div class=""question-area""><p>Is there a person?</p></div></div>","0","observation","the_performance_causal","causal_sequence","1","","","","","","","","",""
"","","","","","html-keyboard-response","163","606074","0.0-163.0","","null","<div class=""stimulus-container""><img src=""images/causal_sequence/the_performance_causal/the_performance_causal_2.png"" class=""exp-image""></div>","null","","","","","","","","","","","","",""
"","","","","","html-button-response","164","608211","0.0-164.0","","2136","<div class=""stimulus-container""><img src=""images/causal_sequence/the_performance_causal/the_performance_causal_2.png"" class=""exp-image""><div class=""question-area""><p>Is there a person?</p></div></div>","0","observation","the_performance_causal","causal_sequence","2","","","","","","","","",""
"","","","","","html-keyboard-response","165","612213","0.0-165.0","","null","<div class=""stimulus-container""><img src=""images/causal_sequence/the_performance_causal/the_performance_causal_3.png"" class=""exp-image""></div>","null","","","","","","","","","","","","",""
"","","","","","html-button-response","166","612555","0.0-166.0","","341","<div class=""stimulus-container""><img src=""images/causal_sequence/the_performance_causal/the_performance_causal_3.png"" class=""exp-image""><div class=""question-area""><p>Is there a person?</p></div></div>","0","observation","the_performance_causal","causal_sequence","3","","","","","","","","",""
"","","","","","html-keyboard-response","167","616559","0.0-167.0","","null","<div class=""stimulus-container""><img src=""images/causal_sequence/the_performance_causal/the_performance_causal_4.png"" class=""exp-image""></div>","null","","","","","","","","","","","","",""
"","","","","","html-button-response","168","616899","0.0-168.0","","339","<div class=""stimulus-container""><img src=""images/causal_sequence/the_performance_causal/the_performance_causal_4.png"" class=""exp-image""><div class=""question-area""><p>Is there a person?</p></div></div>","0","observation","the_performance_causal","causal_sequence","4","","","","","","","","",""
"","","","","","html-keyboard-response","169","620906","0.0-169.0","","null","<div class=""stimulus-container""><img src=""images/causal_sequence/the_performance_causal/the_performance_causal_5.png"" class=""exp-image""></div>","null","","","","","","","","","","","","",""
"","","","","","html-button-response","170","621315","0.0-170.0","","408","<div class=""stimulus-container""><img src=""images/causal_sequence/the_performance_causal/the_performance_causal_5.png"" class=""exp-image""><div class=""question-area""><p>Is there a person?</p></div></div>","0","observation","the_performance_causal","causal_sequence","5","","","","","","","","",""
"","","","","","html-keyboard-response","171","625327","0.0-171.0","","null","<div class=""stimulus-container""><img src=""images/causal_sequence/the_performance_causal/the_performance_causal_6.png"" class=""exp-image""></div>","null","","","","","","","","","","","","",""
"","","","","","html-button-response","172","625875","0.0-172.0","","547","<div class=""stimulus-container""><img src=""images/causal_sequence/the_performance_causal/the_performance_causal_6.png"" class=""exp-image""><div class=""question-area""><p>Is there a person?</p></div></div>","0","observation","the_performance_causal","causal_sequence","6","","","","","","","","",""
"","","","","","html-keyboard-response","173","629892","0.0-173.0","","null","<div class=""stimulus-container""><img src=""images/causal_sequence/the_performance_causal/the_performance_causal_7.png"" class=""exp-image""></div>","null","","","","","","","","","","","","",""
"","","","","","html-button-response","174","630379","0.0-174.0","","486","<div class=""stimulus-container""><img src=""images/causal_sequence/the_performance_causal/the_performance_causal_7.png"" class=""exp-image""><div class=""question-area""><p>Is there a person?</p></div></div>","0","observation","the_performance_causal","causal_sequence","7","","","","","","","","",""
"","","","","","html-keyboard-response","175","634390","0.0-175.0","","null","<div class=""stimulus-container""><img src=""images/causal_sequence/the_performance_causal/the_performance_causal_8.png"" class=""exp-image""></div>","null","","","","","","","","","","","","",""
"","","","","","html-button-response","176","634803","0.0-176.0","","412","<div class=""stimulus-container""><img src=""images/causal_sequence/the_performance_causal/the_performance_causal_8.png"" class=""exp-image""><div class=""question-area""><p>Is there a person?</p></div></div>","0","observation","the_performance_causal","causal_sequence","8","","","","","","","","",""
"","","","","","html-keyboard-response","177","638810","0.0-177.0","","null","<div class=""stimulus-container""><img src=""images/causal_sequence/the_performance_causal/the_performance_causal_9.png"" class=""exp-image""></div>","null","","","","","","","","","","","","",""
"","","","","","html-button-response","178","639259","0.0-178.0","","448","<div class=""stimulus-container""><img src=""images/causal_sequence/the_performance_causal/the_performance_causal_9.png"" class=""exp-image""><div class=""question-area""><p>Is there a person?</p></div></div>","0","observation","the_performance_causal","causal_sequence","9","","","","","","","","",""
"","","","","","html-keyboard-response","179","643264","0.0-179.0","","null","<div class=""stimulus-container""><img src=""images/causal_sequence/the_performance_causal/the_performance_causal_ten.png"" class=""exp-image""></div>","null","","","","","","","","","","","","",""
"","","","","","html-button-response","180","644344","0.0-180.0","","1079","<div class=""stimulus-container""><img src=""images/causal_sequence/the_performance_causal/the_performance_causal_ten.png"" class=""exp-image""><div class=""question-area""><p>Is there a person?</p></div></div>","0","observation","the_performance_causal","causal_sequence","ten","","","","","","","","",""
"","","","","","html-keyboard-response","181","646347","0.0-181.0","","null","<div style=""background-color: white; width: 100vw; height: 100vh;""></div>","null","","","","","","","","","","","","",""
"","","","","","html-keyboard-response","182","650361","0.0-182.0","","null","<div class=""stimulus-container""><img src=""images/semantic_sequence/visiting_cities_semantic/visiting_cities_semantic_1.png"" class=""exp-image""></div>","null","","","","","","","","","","","","",""
"","","","","","html-button-response","183","650691","0.0-183.0","","329","<div class=""stimulus-container""><img src=""images/semantic_sequence/visiting_cities_semantic/visiting_cities_semantic_1.png"" class=""exp-image""><div class=""question-area""><p>Is there a person?</p></div></div>","0","observation","visiting_cities_semantic","semantic_sequence","1","","","","","","","","",""
"","","","","","html-keyboard-response","184","654705","0.0-184.0","","null","<div class=""stimulus-container""><img src=""images/semantic_sequence/visiting_cities_semantic/visiting_cities_semantic_2.png"" class=""exp-image""></div>","null","","","","","","","","","","","","",""
"","","","","","html-button-response","185","656799","0.0-185.0","","2093","<div class=""stimulus-container""><img src=""images/semantic_sequence/visiting_cities_semantic/visiting_cities_semantic_2.png"" class=""exp-image""><div class=""question-area""><p>Is there a person?</p></div></div>","1","observation","visiting_cities_semantic","semantic_sequence","2","","","","","","","","",""
"","","","","","html-keyboard-response","186","660813","0.0-186.0","","null","<div class=""stimulus-container""><img src=""images/semantic_sequence/visiting_cities_semantic/visiting_cities_semantic_3.png"" class=""exp-image""></div>","null","","","","","","","","","","","","",""
"","","","","","html-button-response","187","662263","0.0-187.0","","1449","<div class=""stimulus-container""><img src=""images/semantic_sequence/visiting_cities_semantic/visiting_cities_semantic_3.png"" class=""exp-image""><div class=""question-area""><p>Is there a person?</p></div></div>","1","observation","visiting_cities_semantic","semantic_sequence","3","","","","","","","","",""
"","","","","","html-keyboard-response","188","666271","0.0-188.0","","null","<div class=""stimulus-container""><img src=""images/semantic_sequence/visiting_cities_semantic/visiting_cities_semantic_4.png"" class=""exp-image""></div>","null","","","","","","","","","","","","",""
"","","","","","html-button-response","189","667459","0.0-189.0","","1187","<div class=""stimulus-container""><img src=""images/semantic_sequence/visiting_cities_semantic/visiting_cities_semantic_4.png"" class=""exp-image""><div class=""question-area""><p>Is there a person?</p></div></div>","1","observation","visiting_cities_semantic","semantic_sequence","4","","","","","","","","",""
"","","","","","html-keyboard-response","190","671464","0.0-190.0","","null","<div class=""stimulus-container""><img src=""images/semantic_sequence/visiting_cities_semantic/visiting_cities_semantic_5.png"" class=""exp-image""></div>","null","","","","","","","","","","","","",""
"","","","","","html-button-response","191","672067","0.0-191.0","","602","<div class=""stimulus-container""><img src=""images/semantic_sequence/visiting_cities_semantic/visiting_cities_semantic_5.png"" class=""exp-image""><div class=""question-area""><p>Is there a person?</p></div></div>","1","observation","visiting_cities_semantic","semantic_sequence","5","","","","","","","","",""
"","","","","","html-keyboard-response","192","676069","0.0-192.0","","null","<div class=""stimulus-container""><img src=""images/semantic_sequence/visiting_cities_semantic/visiting_cities_semantic_6.png"" class=""exp-image""></div>","null","","","","","","","","","","","","",""
"","","","","","html-button-response","193","676515","0.0-193.0","","445","<div class=""stimulus-container""><img src=""images/semantic_sequence/visiting_cities_semantic/visiting_cities_semantic_6.png"" class=""exp-image""><div class=""question-area""><p>Is there a person?</p></div></div>","1","observation","visiting_cities_semantic","semantic_sequence","6","","","","","","","","",""
"","","","","","html-keyboard-response","194","680516","0.0-194.0","","null","<div class=""stimulus-container""><img src=""images/semantic_sequence/visiting_cities_semantic/visiting_cities_semantic_7.png"" class=""exp-image""></div>","null","","","","","","","","","","","","",""
"","","","","","html-button-response","195","681219","0.0-195.0","","702","<div class=""stimulus-container""><img src=""images/semantic_sequence/visiting_cities_semantic/visiting_cities_semantic_7.png"" class=""exp-image""><div class=""question-area""><p>Is there a person?</p></div></div>","0","observation","visiting_cities_semantic","semantic_sequence","7","","","","","","","","",""
"","","","","","html-keyboard-response","196","685223","0.0-196.0","","null","<div class=""stimulus-container""><img src=""images/semantic_sequence/visiting_cities_semantic/visiting_cities_semantic_8.png"" class=""exp-image""></div>","null","","","","","","","","","","","","",""
"","","","","","html-button-response","197","687319","0.0-197.0","","2095","<div class=""stimulus-container""><img src=""images/semantic_sequence/visiting_cities_semantic/visiting_cities_semantic_8.png"" class=""exp-image""><div class=""question-area""><p>Is there a person?</p></div></div>","1","observation","visiting_cities_semantic","semantic_sequence","8","","","","","","","","",""
"","","","","","html-keyboard-response","198","691326","0.0-198.0","","null","<div class=""stimulus-container""><img src=""images/semantic_sequence/visiting_cities_semantic/visiting_cities_semantic_9.png"" class=""exp-image""></div>","null","","","","","","","","","","","","",""
"","","","","","html-button-response","199","692399","0.0-199.0","","1072","<div class=""stimulus-container""><img src=""images/semantic_sequence/visiting_cities_semantic/visiting_cities_semantic_9.png"" class=""exp-image""><div class=""question-area""><p>Is there a person?</p></div></div>","1","observation","visiting_cities_semantic","semantic_sequence","9","","","","","","","","",""
"","","","","","html-keyboard-response","200","696409","0.0-200.0","","null","<div class=""stimulus-container""><img src=""images/semantic_sequence/visiting_cities_semantic/visiting_cities_semantic_ten.png"" class=""exp-image""></div>","null","","","","","","","","","","","","",""
"","","","","","html-button-response","201","698251","0.0-201.0","","1841","<div class=""stimulus-container""><img src=""images/semantic_sequence/visiting_cities_semantic/visiting_cities_semantic_ten.png"" class=""exp-image""><div class=""question-area""><p>Is there a person?</p></div></div>","1","observation","visiting_cities_semantic","semantic_sequence","ten","","","","","","","","",""
"","","","","","html-keyboard-response","202","700262","0.0-202.0","","null","<div style=""background-color: white; width: 100vw; height: 100vh;""></div>","null","","","","","","","","","","","","",""
"","","","","","html-keyboard-response","203","704266","0.0-203.0","","null","<div class=""stimulus-container""><img src=""images/semantic_sequence/housework_semantic/housework_semantic_1.png"" class=""exp-image""></div>","null","","","","","","","","","","","","",""
"","","","","","html-button-response","204","705254","0.0-204.0","","987","<div class=""stimulus-container""><img src=""images/semantic_sequence/housework_semantic/housework_semantic_1.png"" class=""exp-image""><div class=""question-area""><p>Is there a person?</p></div></div>","0","observation","housework_semantic","semantic_sequence","1","","","","","","","","",""
"","","","","","html-keyboard-response","205","709262","0.0-205.0","","null","<div class=""stimulus-container""><img src=""images/semantic_sequence/housework_semantic/housework_semantic_2.png"" class=""exp-image""></div>","null","","","","","","","","","","","","",""
"","","","","","html-button-response","206","709670","0.0-206.0","","407","<div class=""stimulus-container""><img src=""images/semantic_sequence/housework_semantic/housework_semantic_2.png"" class=""exp-image""><div class=""question-area""><p>Is there a person?</p></div></div>","0","observation","housework_semantic","semantic_sequence","2","","","","","","","","",""
"","","","","","html-keyboard-response","207","713682","0.0-207.0","","null","<div class=""stimulus-container""><img src=""images/semantic_sequence/housework_semantic/housework_semantic_3.png"" class=""exp-image""></div>","null","","","","","","","","","","","","",""
"","","","","","html-button-response","208","714185","0.0-208.0","","502","<div class=""stimulus-container""><img src=""images/semantic_sequence/housework_semantic/housework_semantic_3.png"" class=""exp-image""><div class=""question-area""><p>Is there a person?</p></div></div>","0","observation","housework_semantic","semantic_sequence","3","","","","","","","","",""
"","","","","","html-keyboard-response","209","718194","0.0-209.0","","null","<div class=""stimulus-container""><img src=""images/semantic_sequence/housework_semantic/housework_semantic_4.png"" class=""exp-image""></div>","null","","","","","","","","","","","","",""
"","","","","","html-button-response","210","718655","0.0-210.0","","460","<div class=""stimulus-container""><img src=""images/semantic_sequence/housework_semantic/housework_semantic_4.png"" class=""exp-image""><div class=""question-area""><p>Is there a person?</p></div></div>","0","observation","housework_semantic","semantic_sequence","4","","","","","","","","",""
"","","","","","html-keyboard-response","211","722664","0.0-211.0","","null","<div class=""stimulus-container""><img src=""images/semantic_sequence/housework_semantic/housework_semantic_5.png"" class=""exp-image""></div>","null","","","","","","","","","","","","",""
"","","","","","html-button-response","212","723979","0.0-212.0","","1315","<div class=""stimulus-container""><img src=""images/semantic_sequence/housework_semantic/housework_semantic_5.png"" class=""exp-image""><div class=""question-area""><p>Is there a person?</p></div></div>","0","observation","housework_semantic","semantic_sequence","5","","","","","","","","",""
"","","","","","html-keyboard-response","213","727994","0.0-213.0","","null","<div class=""stimulus-container""><img src=""images/semantic_sequence/housework_semantic/housework_semantic_6.png"" class=""exp-image""></div>","null","","","","","","","","","","","","",""
"","","","","","html-button-response","214","728635","0.0-214.0","","640","<div class=""stimulus-container""><img src=""images/semantic_sequence/housework_semantic/housework_semantic_6.png"" class=""exp-image""><div class=""question-area""><p>Is there a person?</p></div></div>","0","observation","housework_semantic","semantic_sequence","6","","","","","","","","",""
"","","","","","html-keyboard-response","215","732641","0.0-215.0","","null","<div class=""stimulus-container""><img src=""images/semantic_sequence/housework_semantic/housework_semantic_7.png"" class=""exp-image""></div>","null","","","","","","","","","","","","",""
"","","","","","html-button-response","216","733115","0.0-216.0","","473","<div class=""stimulus-container""><img src=""images/semantic_sequence/housework_semantic/housework_semantic_7.png"" class=""exp-image""><div class=""question-area""><p>Is there a person?</p></div></div>","0","observation","housework_semantic","semantic_sequence","7","","","","","","","","",""
"","","","","","html-keyboard-response","217","737129","0.0-217.0","","null","<div class=""stimulus-container""><img src=""images/semantic_sequence/housework_semantic/housework_semantic_8.png"" class=""exp-image""></div>","null","","","","","","","","","","","","",""
"","","","","","html-button-response","218","738179","0.0-218.0","","1049","<div class=""stimulus-container""><img src=""images/semantic_sequence/housework_semantic/housework_semantic_8.png"" class=""exp-image""><div class=""question-area""><p>Is there a person?</p></div></div>","0","observation","housework_semantic","semantic_sequence","8","","","","","","","","",""
"","","","","","html-keyboard-response","219","742182","0.0-219.0","","null","<div class=""stimulus-container""><img src=""images/semantic_sequence/housework_semantic/housework_semantic_9.png"" class=""exp-image""></div>","null","","","","","","","","","","","","",""
"","","","","","html-button-response","220","742787","0.0-220.0","","604","<div class=""stimulus-container""><img src=""images/semantic_sequence/housework_semantic/housework_semantic_9.png"" class=""exp-image""><div class=""question-area""><p>Is there a person?</p></div></div>","0","observation","housework_semantic","semantic_sequence","9","","","","","","","","",""
"","","","","","html-keyboard-response","221","746796","0.0-221.0","","null","<div class=""stimulus-container""><img src=""images/semantic_sequence/housework_semantic/housework_semantic_ten.png"" class=""exp-image""></div>","null","","","","","","","","","","","","",""
"","","","","","html-button-response","222","747243","0.0-222.0","","445","<div class=""stimulus-container""><img src=""images/semantic_sequence/housework_semantic/housework_semantic_ten.png"" class=""exp-image""><div class=""question-area""><p>Is there a person?</p></div></div>","0","observation","housework_semantic","semantic_sequence","ten","","","","","","","","",""
"","","","","","html-keyboard-response","223","749257","0.0-223.0","","null","<div style=""background-color: white; width: 100vw; height: 100vh;""></div>","null","","","","","","","","","","","","",""
"","","","","","html-keyboard-response","224","753271","0.0-224.0","","null","<div class=""stimulus-container""><img src=""images/causal_sequence/dog_causal/dog_causal_1.png"" class=""exp-image""></div>","null","","","","","","","","","","","","",""
"","","","","","html-button-response","225","754583","0.0-225.0","","1311","<div class=""stimulus-container""><img src=""images/causal_sequence/dog_causal/dog_causal_1.png"" class=""exp-image""><div class=""question-area""><p>Is there a person?</p></div></div>","0","observation","dog_causal","causal_sequence","1","","","","","","","","",""
"","","","","","html-keyboard-response","226","758590","0.0-226.0","","null","<div class=""stimulus-container""><img src=""images/causal_sequence/dog_causal/dog_causal_2.png"" class=""exp-image""></div>","null","","","","","","","","","","","","",""
"","","","","","html-button-response","227","759695","0.0-227.0","","1104","<div class=""stimulus-container""><img src=""images/causal_sequence/dog_causal/dog_causal_2.png"" class=""exp-image""><div class=""question-area""><p>Is there a person?</p></div></div>","0","observation","dog_causal","causal_sequence","2","","","","","","","","",""
"","","","","","html-keyboard-response","228","763701","0.0-228.0","","null","<div class=""stimulus-container""><img src=""images/causal_sequence/dog_causal/dog_causal_3.png"" class=""exp-image""></div>","null","","","","","","","","","","","","",""
"","","","","","html-button-response","229","765387","0.0-229.0","","1684","<div class=""stimulus-container""><img src=""images/causal_sequence/dog_causal/dog_causal_3.png"" class=""exp-image""><div class=""question-area""><p>Is there a person?</p></div></div>","0","observation","dog_causal","causal_sequence","3","","","","","","","","",""
"","","","","","html-keyboard-response","230","769398","0.0-230.0","","null","<div class=""stimulus-container""><img src=""images/causal_sequence/dog_causal/dog_causal_4.png"" class=""exp-image""></div>","null","","","","","","","","","","","","",""
"","","","","","html-button-response","231","770923","0.0-231.0","","1524","<div class=""stimulus-container""><img src=""images/causal_sequence/dog_causal/dog_causal_4.png"" class=""exp-image""><div class=""question-area""><p>Is there a person?</p></div></div>","0","observation","dog_causal","causal_sequence","4","","","","","","","","",""
"","","","","","html-keyboard-response","232","774929","0.0-232.0","","null","<div class=""stimulus-container""><img src=""images/causal_sequence/dog_causal/dog_causal_5.png"" class=""exp-image""></div>","null","","","","","","","","","","","","",""
"","","","","","html-button-response","233","775435","0.0-233.0","","505","<div class=""stimulus-container""><img src=""images/causal_sequence/dog_causal/dog_causal_5.png"" class=""exp-image""><div class=""question-area""><p>Is there a person?</p></div></div>","0","observation","dog_causal","causal_sequence","5","","","","","","","","",""
"","","","","","html-keyboard-response","234","779440","0.0-234.0","","null","<div class=""stimulus-container""><img src=""images/causal_sequence/dog_causal/dog_causal_6.png"" class=""exp-image""></div>","null","","","","","","","","","","","","",""
"","","","","","html-button-response","235","780059","0.0-235.0","","618","<div class=""stimulus-container""><img src=""images/causal_sequence/dog_causal/dog_causal_6.png"" class=""exp-image""><div class=""question-area""><p>Is there a person?</p></div></div>","0","observation","dog_causal","causal_sequence","6","","","","","","","","",""
"","","","","","html-keyboard-response","236","784075","0.0-236.0","","null","<div class=""stimulus-container""><img src=""images/causal_sequence/dog_causal/dog_causal_7.png"" class=""exp-image""></div>","null","","","","","","","","","","","","",""
"","","","","","html-button-response","237","784835","0.0-237.0","","760","<div class=""stimulus-container""><img src=""images/causal_sequence/dog_causal/dog_causal_7.png"" class=""exp-image""><div class=""question-area""><p>Is there a person?</p></div></div>","0","observation","dog_causal","causal_sequence","7","","","","","","","","",""
"","","","","","html-keyboard-response","238","788847","0.0-238.0","","null","<div class=""stimulus-container""><img src=""images/causal_sequence/dog_causal/dog_causal_8.png"" class=""exp-image""></div>","null","","","","","","","","","","","","",""
"","","","","","html-button-response","239","790126","0.0-239.0","","1279","<div class=""stimulus-container""><img src=""images/causal_sequence/dog_causal/dog_causal_8.png"" class=""exp-image""><div class=""question-area""><p>Is there a person?</p></div></div>","0","observation","dog_causal","causal_sequence","8","","","","","","","","",""
"","","","","","html-keyboard-response","240","794136","0.0-240.0","","null","<div class=""stimulus-container""><img src=""images/causal_sequence/dog_causal/dog_causal_9.png"" class=""exp-image""></div>","null","","","","","","","","","","","","",""
"","","","","","html-button-response","241","794807","0.0-241.0","","670","<div class=""stimulus-container""><img src=""images/causal_sequence/dog_causal/dog_causal_9.png"" class=""exp-image""><div class=""question-area""><p>Is there a person?</p></div></div>","0","observation","dog_causal","causal_sequence","9","","","","","","","","",""
"","","","","","html-keyboard-response","242","798816","0.0-242.0","","null","<div class=""stimulus-container""><img src=""images/causal_sequence/dog_causal/dog_causal_ten.png"" class=""exp-image""></div>","null","","","","","","","","","","","","",""
"","","","","","html-button-response","243","799647","0.0-243.0","","830","<div class=""stimulus-container""><img src=""images/causal_sequence/dog_causal/dog_causal_ten.png"" class=""exp-image""><div class=""question-area""><p>Is there a person?</p></div></div>","0","observation","dog_causal","causal_sequence","ten","","","","","","","","",""
"","","","","","html-keyboard-response","244","801664","0.0-244.0","","null","<div style=""background-color: white; width: 100vw; height: 100vh;""></div>","null","","","","","","","","","","","","",""
"","","","","","html-keyboard-response","245","805670","0.0-245.0","","null","<div class=""stimulus-container""><img src=""images/causal_sequence/coin_causal/coin_causal_1.png"" class=""exp-image""></div>","null","","","","","","","","","","","","",""
"","","","","","html-button-response","246","807567","0.0-246.0","","1896","<div class=""stimulus-container""><img src=""images/causal_sequence/coin_causal/coin_causal_1.png"" class=""exp-image""><div class=""question-area""><p>Is there a person?</p></div></div>","0","observation","coin_causal","causal_sequence","1","","","","","","","","",""
"","","","","","html-keyboard-response","247","811568","0.0-247.0","","null","<div class=""stimulus-container""><img src=""images/causal_sequence/coin_causal/coin_causal_2.png"" class=""exp-image""></div>","null","","","","","","","","","","","","",""
"","","","","","html-button-response","248","812411","0.0-248.0","","842","<div class=""stimulus-container""><img src=""images/causal_sequence/coin_causal/coin_causal_2.png"" class=""exp-image""><div class=""question-area""><p>Is there a person?</p></div></div>","0","observation","coin_causal","causal_sequence","2","","","","","","","","",""
"","","","","","html-keyboard-response","249","816414","0.0-249.0","","null","<div class=""stimulus-container""><img src=""images/causal_sequence/coin_causal/coin_causal_3.png"" class=""exp-image""></div>","null","","","","","","","","","","","","",""
"","","","","","html-button-response","250","818787","0.0-250.0","","2372","<div class=""stimulus-container""><img src=""images/causal_sequence/coin_causal/coin_causal_3.png"" class=""exp-image""><div class=""question-area""><p>Is there a person?</p></div></div>","0","observation","coin_causal","causal_sequence","3","","","","","","","","",""
"","","","","","html-keyboard-response","251","822792","0.0-251.0","","null","<div class=""stimulus-container""><img src=""images/causal_sequence/coin_causal/coin_causal_4.png"" class=""exp-image""></div>","null","","","","","","","","","","","","",""
"","","","","","html-button-response","252","824011","0.0-252.0","","1218","<div class=""stimulus-container""><img src=""images/causal_sequence/coin_causal/coin_causal_4.png"" class=""exp-image""><div class=""question-area""><p>Is there a person?</p></div></div>","0","observation","coin_causal","causal_sequence","4","","","","","","","","",""
"","","","","","html-keyboard-response","253","828027","0.0-253.0","","null","<div class=""stimulus-container""><img src=""images/causal_sequence/coin_causal/coin_causal_5.png"" class=""exp-image""></div>","null","","","","","","","","","","","","",""
"","","","","","html-button-response","254","829399","0.0-254.0","","1371","<div class=""stimulus-container""><img src=""images/causal_sequence/coin_causal/coin_causal_5.png"" class=""exp-image""><div class=""question-area""><p>Is there a person?</p></div></div>","0","observation","coin_causal","causal_sequence","5","","","","","","","","",""
"","","","","","html-keyboard-response","255","833412","0.0-255.0","","null","<div class=""stimulus-container""><img src=""images/causal_sequence/coin_causal/coin_causal_6.png"" class=""exp-image""></div>","null","","","","","","","","","","","","",""
"","","","","","html-button-response","256","854743","0.0-256.0","","21329","<div class=""stimulus-container""><img src=""images/causal_sequence/coin_causal/coin_causal_6.png"" class=""exp-image""><div class=""question-area""><p>Is there a person?</p></div></div>","0","observation","coin_causal","causal_sequence","6","","","","","","","","",""
"","","","","","html-keyboard-response","257","858752","0.0-257.0","","null","<div class=""stimulus-container""><img src=""images/causal_sequence/coin_causal/coin_causal_7.png"" class=""exp-image""></div>","null","","","","","","","","","","","","",""
"","","","","","html-button-response","258","860263","0.0-258.0","","1510","<div class=""stimulus-container""><img src=""images/causal_sequence/coin_causal/coin_causal_7.png"" class=""exp-image""><div class=""question-area""><p>Is there a person?</p></div></div>","1","observation","coin_causal","causal_sequence","7","","","","","","","","",""
"","","","","","html-keyboard-response","259","864275","0.0-259.0","","null","<div class=""stimulus-container""><img src=""images/causal_sequence/coin_causal/coin_causal_8.png"" class=""exp-image""></div>","null","","","","","","","","","","","","",""
"","","","","","html-button-response","260","866059","0.0-260.0","","1783","<div class=""stimulus-container""><img src=""images/causal_sequence/coin_causal/coin_causal_8.png"" class=""exp-image""><div class=""question-area""><p>Is there a person?</p></div></div>","0","observation","coin_causal","causal_sequence","8","","","","","","","","",""
"","","","","","html-keyboard-response","261","870063","0.0-261.0","","null","<div class=""stimulus-container""><img src=""images/causal_sequence/coin_causal/coin_causal_9.png"" class=""exp-image""></div>","null","","","","","","","","","","","","",""
"","","","","","html-button-response","262","870988","0.0-262.0","","924","<div class=""stimulus-container""><img src=""images/causal_sequence/coin_causal/coin_causal_9.png"" class=""exp-image""><div class=""question-area""><p>Is there a person?</p></div></div>","0","observation","coin_causal","causal_sequence","9","","","","","","","","",""
"","","","","","html-keyboard-response","263","875002","0.0-263.0","","null","<div class=""stimulus-container""><img src=""images/causal_sequence/coin_causal/coin_causal_ten.png"" class=""exp-image""></div>","null","","","","","","","","","","","","",""
"","","","","","html-button-response","264","876111","0.0-264.0","","1108","<div class=""stimulus-container""><img src=""images/causal_sequence/coin_causal/coin_causal_ten.png"" class=""exp-image""><div class=""question-area""><p>Is there a person?</p></div></div>","0","observation","coin_causal","causal_sequence","ten","","","","","","","","",""
"","","","","","instructions","265","879667","0.0-265.0","[{""page_index"":0,""viewing_time"":3555}]","3555","","","","","","","","","","","","","","",""
"","","","","","html-button-response","266","883779","0.0-266.0","","4112","<div class=""stimulus-container""><img src=""images/causal_sequence/package_causal/package_causal_7.png"" class=""exp-image""><div style=""height:100px;""></div></div>","0","","","","","","","","","","","","",""
"","","","","","html-keyboard-response","267","887781","0.0-267.0","","null","
                <div class=""stimulus-container"" style=""display:flex; align-items:center; justify-content:center; gap:40px;"">
                    <img src=""images/causal_sequence/package_causal/package_causal_7.png"" class=""exp-image"">
                    <div style=""text-align:center;"">
                        <img src=""images/gray.png"" style=""width:150px; border:5px solid grey; border-radius:15px;"">
                        <p style=""color:grey; font-weight:bold; font-size:28px;"">NEUTRAL</p>
                    </div>
                </div>","null","value_learning","package_causal","","","neutral","7","","","","","","",""
"","","","","","html-button-response","268","890195","0.0-268.0","","2413","<div class=""stimulus-container""><img src=""images/causal_sequence/dog_causal/dog_causal_7.png"" class=""exp-image""><div style=""height:100px;""></div></div>","0","","","","","","","","","","","","",""
"","","","","","html-keyboard-response","269","894199","0.0-269.0","","null","
                <div class=""stimulus-container"" style=""display:flex; align-items:center; justify-content:center; gap:40px;"">
                    <img src=""images/causal_sequence/dog_causal/dog_causal_7.png"" class=""exp-image"">
                    <div style=""text-align:center;"">
                        <img src=""images/gray.png"" style=""width:150px; border:5px solid grey; border-radius:15px;"">
                        <p style=""color:grey; font-weight:bold; font-size:28px;"">NEUTRAL</p>
                    </div>
                </div>","null","value_learning","dog_causal","","","neutral","7","","","","","","",""
"","","","","","html-button-response","270","896370","0.0-270.0","","2171","<div class=""stimulus-container""><img src=""images/semantic_sequence/self_care_activities_semantic/self_care_activities_semantic_6.png"" class=""exp-image""><div style=""height:100px;""></div></div>","0","","","","","","","","","","","","",""
"","","","","","html-keyboard-response","271","900380","0.0-271.0","","null","
                <div class=""stimulus-container"" style=""display:flex; align-items:center; justify-content:center; gap:40px;"">
                    <img src=""images/semantic_sequence/self_care_activities_semantic/self_care_activities_semantic_6.png"" class=""exp-image"">
                    <div style=""text-align:center;"">
                        <img src=""images/gray.png"" style=""width:150px; border:5px solid grey; border-radius:15px;"">
                        <p style=""color:grey; font-weight:bold; font-size:28px;"">NEUTRAL</p>
                    </div>
                </div>","null","value_learning","self_care_activities_semantic","","","neutral","6","","","","","","",""
"","","","","","html-button-response","272","902048","0.0-272.0","","1668","<div class=""stimulus-container""><img src=""images/causal_sequence/saving_a_cat_causal/saving_a_cat_causal_5.png"" class=""exp-image""><div style=""height:100px;""></div></div>","0","","","","","","","","","","","","",""
"","","","","","html-keyboard-response","273","906061","0.0-273.0","","null","
                <div class=""stimulus-container"" style=""display:flex; align-items:center; justify-content:center; gap:40px;"">
                    <img src=""images/causal_sequence/saving_a_cat_causal/saving_a_cat_causal_5.png"" class=""exp-image"">
                    <div style=""text-align:center;"">
                        <img src=""images/dollar.png"" style=""width:150px; border:5px solid green; border-radius:15px;"">
                        <p style=""color:green; font-weight:bold; font-size:28px;"">WORTH MONEY</p>
                    </div>
                </div>","null","value_learning","saving_a_cat_causal","","","valuable","5","","","","","","",""
"","","","","","html-button-response","274","909947","0.0-274.0","","3885","<div class=""stimulus-container""><img src=""images/semantic_sequence/housework_semantic/housework_semantic_4.png"" class=""exp-image""><div style=""height:100px;""></div></div>","0","","","","","","","","","","","","",""
"","","","","","html-keyboard-response","275","913950","0.0-275.0","","null","
                <div class=""stimulus-container"" style=""display:flex; align-items:center; justify-content:center; gap:40px;"">
                    <img src=""images/semantic_sequence/housework_semantic/housework_semantic_4.png"" class=""exp-image"">
                    <div style=""text-align:center;"">
                        <img src=""images/gray.png"" style=""width:150px; border:5px solid grey; border-radius:15px;"">
                        <p style=""color:grey; font-weight:bold; font-size:28px;"">NEUTRAL</p>
                    </div>
                </div>","null","value_learning","housework_semantic","","","neutral","4","","","","","","",""
"","","","","","html-button-response","276","915763","0.0-276.0","","1812","<div class=""stimulus-container""><img src=""images/causal_sequence/coin_causal/coin_causal_7.png"" class=""exp-image""><div style=""height:100px;""></div></div>","0","","","","","","","","","","","","",""
"","","","","","html-keyboard-response","277","919774","0.0-277.0","","null","
                <div class=""stimulus-container"" style=""display:flex; align-items:center; justify-content:center; gap:40px;"">
                    <img src=""images/causal_sequence/coin_causal/coin_causal_7.png"" class=""exp-image"">
                    <div style=""text-align:center;"">
                        <img src=""images/gray.png"" style=""width:150px; border:5px solid grey; border-radius:15px;"">
                        <p style=""color:grey; font-weight:bold; font-size:28px;"">NEUTRAL</p>
                    </div>
                </div>","null","value_learning","coin_causal","","","neutral","7","","","","","","",""
"","","","","","html-button-response","278","921131","0.0-278.0","","1356","<div class=""stimulus-container""><img src=""images/semantic_sequence/maintaining_a_car_semantic/maintaining_a_car_semantic_7.png"" class=""exp-image""><div style=""height:100px;""></div></div>","0","","","","","","","","","","","","",""
"","","","","","html-keyboard-response","279","925137","0.0-279.0","","null","
                <div class=""stimulus-container"" style=""display:flex; align-items:center; justify-content:center; gap:40px;"">
                    <img src=""images/semantic_sequence/maintaining_a_car_semantic/maintaining_a_car_semantic_7.png"" class=""exp-image"">
                    <div style=""text-align:center;"">
                        <img src=""images/dollar.png"" style=""width:150px; border:5px solid green; border-radius:15px;"">
                        <p style=""color:green; font-weight:bold; font-size:28px;"">WORTH MONEY</p>
                    </div>
                </div>","null","value_learning","maintaining_a_car_semantic","","","valuable","7","","","","","","",""
"","","","","","html-button-response","280","926267","0.0-280.0","","1129","<div class=""stimulus-container""><img src=""images/semantic_sequence/physical_activity_semantic/physical_activity_semantic_4.png"" class=""exp-image""><div style=""height:100px;""></div></div>","0","","","","","","","","","","","","",""
"","","","","","html-keyboard-response","281","930273","0.0-281.0","","null","
                <div class=""stimulus-container"" style=""display:flex; align-items:center; justify-content:center; gap:40px;"">
                    <img src=""images/semantic_sequence/physical_activity_semantic/physical_activity_semantic_4.png"" class=""exp-image"">
                    <div style=""text-align:center;"">
                        <img src=""images/dollar.png"" style=""width:150px; border:5px solid green; border-radius:15px;"">
                        <p style=""color:green; font-weight:bold; font-size:28px;"">WORTH MONEY</p>
                    </div>
                </div>","null","value_learning","physical_activity_semantic","","","valuable","4","","","","","","",""
"","","","","","html-button-response","282","931431","0.0-282.0","","1158","<div class=""stimulus-container""><img src=""images/semantic_sequence/visiting_cities_semantic/visiting_cities_semantic_5.png"" class=""exp-image""><div style=""height:100px;""></div></div>","0","","","","","","","","","","","","",""
"","","","","","html-keyboard-response","283","935442","0.0-283.0","","null","
                <div class=""stimulus-container"" style=""display:flex; align-items:center; justify-content:center; gap:40px;"">
                    <img src=""images/semantic_sequence/visiting_cities_semantic/visiting_cities_semantic_5.png"" class=""exp-image"">
                    <div style=""text-align:center;"">
                        <img src=""images/dollar.png"" style=""width:150px; border:5px solid green; border-radius:15px;"">
                        <p style=""color:green; font-weight:bold; font-size:28px;"">WORTH MONEY</p>
                    </div>
                </div>","null","value_learning","visiting_cities_semantic","","","valuable","5","","","","","","",""
"","","","","","html-button-response","284","936439","0.0-284.0","","997","<div class=""stimulus-container""><img src=""images/semantic_sequence/kitchen_operations_semantic/kitchen_operations_semantic_5.png"" class=""exp-image""><div style=""height:100px;""></div></div>","0","","","","","","","","","","","","",""
"","","","","","html-keyboard-response","285","940455","0.0-285.0","","null","
                <div class=""stimulus-container"" style=""display:flex; align-items:center; justify-content:center; gap:40px;"">
                    <img src=""images/semantic_sequence/kitchen_operations_semantic/kitchen_operations_semantic_5.png"" class=""exp-image"">
                    <div style=""text-align:center;"">
                        <img src=""images/gray.png"" style=""width:150px; border:5px solid grey; border-radius:15px;"">
                        <p style=""color:grey; font-weight:bold; font-size:28px;"">NEUTRAL</p>
                    </div>
                </div>","null","value_learning","kitchen_operations_semantic","","","neutral","5","","","","","","",""
"","","","","","html-button-response","286","941935","0.0-286.0","","1479","<div class=""stimulus-container""><img src=""images/causal_sequence/museum_causal/museum_causal_5.png"" class=""exp-image""><div style=""height:100px;""></div></div>","0","","","","","","","","","","","","",""
"","","","","","html-keyboard-response","287","945941","0.0-287.0","","null","
                <div class=""stimulus-container"" style=""display:flex; align-items:center; justify-content:center; gap:40px;"">
                    <img src=""images/causal_sequence/museum_causal/museum_causal_5.png"" class=""exp-image"">
                    <div style=""text-align:center;"">
                        <img src=""images/dollar.png"" style=""width:150px; border:5px solid green; border-radius:15px;"">
                        <p style=""color:green; font-weight:bold; font-size:28px;"">WORTH MONEY</p>
                    </div>
                </div>","null","value_learning","museum_causal","","","valuable","5","","","","","","",""
"","","","","","html-button-response","288","946991","0.0-288.0","","1050","<div class=""stimulus-container""><img src=""images/causal_sequence/the_performance_causal/the_performance_causal_4.png"" class=""exp-image""><div style=""height:100px;""></div></div>","0","","","","","","","","","","","","",""
"","","","","","html-keyboard-response","289","950995","0.0-289.0","","null","
                <div class=""stimulus-container"" style=""display:flex; align-items:center; justify-content:center; gap:40px;"">
                    <img src=""images/causal_sequence/the_performance_causal/the_performance_causal_4.png"" class=""exp-image"">
                    <div style=""text-align:center;"">
                        <img src=""images/dollar.png"" style=""width:150px; border:5px solid green; border-radius:15px;"">
                        <p style=""color:green; font-weight:bold; font-size:28px;"">WORTH MONEY</p>
                    </div>
                </div>","null","value_learning","the_performance_causal","","","valuable","4","","","","","","",""
"","","","","","instructions","290","964955","0.0-290.0","[{""page_index"":0,""viewing_time"":13960}]","13960","","","","","","","","","","","","","","",""
"","","","","","html-keyboard-response","291","967962","0.0-291.0-0.0","","null","<div style=""font-family: Arial; margin-bottom: 20px;""><h3>Which image is worth <b>more money</b>?</h3></div>
                                    <div class=""stimulus-container"" style=""display: flex; width: 800px; justify-content: center; gap: 30px;"">
                                        <img src=""images/semantic_sequence/visiting_cities_semantic/visiting_cities_semantic_2.png"" class=""small-image"">
                                        <img src=""images/semantic_sequence/visiting_cities_semantic/visiting_cities_semantic_7.png"" class=""small-image"">
                                    </div>","null","","","","","","","","","","","","",""
"","","","","","html-button-response","292","969123","0.0-291.0-1.0","","1160","<h3>Which image is worth <b>more money</b>?</h3>","0","choice_test","visiting_cities_semantic","","","","","5","-3","2","2","-3","0",""
"","","","","","html-keyboard-response","293","972124","0.0-292.0-0.0","","null","<div style=""font-family: Arial; margin-bottom: 20px;""><h3>Which image is worth <b>more money</b>?</h3></div>
                                    <div class=""stimulus-container"" style=""display: flex; width: 800px; justify-content: center; gap: 30px;"">
                                        <img src=""images/causal_sequence/coin_causal/coin_causal_9.png"" class=""small-image"">
                                        <img src=""images/causal_sequence/coin_causal/coin_causal_6.png"" class=""small-image"">
                                    </div>","null","","","","","","","","","","","","",""
"","","","","","html-button-response","294","972815","0.0-292.0-1.0","","691","<h3>Which image is worth <b>more money</b>?</h3>","1","choice_test","coin_causal","","","","","7","2","-1","6","-1","0",""
"","","","","","html-keyboard-response","295","975828","0.0-293.0-0.0","","null","<div style=""font-family: Arial; margin-bottom: 20px;""><h3>Which image is worth <b>more money</b>?</h3></div>
                                    <div class=""stimulus-container"" style=""display: flex; width: 800px; justify-content: center; gap: 30px;"">
                                        <img src=""images/causal_sequence/package_causal/package_causal_8.png"" class=""small-image"">
                                        <img src=""images/causal_sequence/package_causal/package_causal_5.png"" class=""small-image"">
                                    </div>","null","","","","","","","","","","","","",""
"","","","","","html-button-response","296","976583","0.0-293.0-1.0","","754","<h3>Which image is worth <b>more money</b>?</h3>","1","choice_test","package_causal","","","","","7","1","-2","5","-2","0",""
"","","","","","html-keyboard-response","297","979590","0.0-294.0-0.0","","null","<div style=""font-family: Arial; margin-bottom: 20px;""><h3>Which image is worth <b>more money</b>?</h3></div>
                                    <div class=""stimulus-container"" style=""display: flex; width: 800px; justify-content: center; gap: 30px;"">
                                        <img src=""images/causal_sequence/dog_causal/dog_causal_6.png"" class=""small-image"">
                                        <img src=""images/causal_sequence/dog_causal/dog_causal_9.png"" class=""small-image"">
                                    </div>","null","","","","","","","","","","","","",""
"","","","","","html-button-response","298","980451","0.0-294.0-1.0","","860","<h3>Which image is worth <b>more money</b>?</h3>","1","choice_test","dog_causal","","","","","7","-1","2","9","2","1",""
"","","","","","html-keyboard-response","299","983453","0.0-295.0-0.0","","null","<div style=""font-family: Arial; margin-bottom: 20px;""><h3>Which image is worth <b>more money</b>?</h3></div>
                                    <div class=""stimulus-container"" style=""display: flex; width: 800px; justify-content: center; gap: 30px;"">
                                        <img src=""images/causal_sequence/package_causal/package_causal_9.png"" class=""small-image"">
                                        <img src=""images/causal_sequence/package_causal/package_causal_6.png"" class=""small-image"">
