"success","timeout","failed_images","failed_audio","failed_video","trial_type","trial_index","time_elapsed","internal_node_id","subject_id","study_id","session_id","view_history","rt","stimulus","response","task","image_index","folder","sequence_type","presentation_order","valuable_image_index","reward_type","distance_from_x","target_X","chosen_image_index","is_x_plus_dist","correct_choice"
"true","false","[]","[]","[]","preload","0","102849","0.0-0.0","61FFB453863242FDA4ED125D8E818F3C","019d0658-d4f5-7457-bce4-a5940ff9ad7b","019d0640-0a2d-7740-a972-9c73365b2dcb","","","","","","","","","","","","","","","",""
"","","","","","instructions","1","179389","0.0-1.0","61FFB453863242FDA4ED125D8E818F3C","019d0658-d4f5-7457-bce4-a5940ff9ad7b","019d0640-0a2d-7740-a972-9c73365b2dcb","[{""page_index"":0,""viewing_time"":76540}]","76540","","","","","","","","","","","","","",""
"","","","","","instructions","2","182251","0.0-2.0","61FFB453863242FDA4ED125D8E818F3C","019d0658-d4f5-7457-bce4-a5940ff9ad7b","019d0640-0a2d-7740-a972-9c73365b2dcb","[{""page_index"":0,""viewing_time"":2862}]","2862","","","","","","","","","","","","","",""
"true","","","","","fullscreen","3","184774","0.0-3.0","61FFB453863242FDA4ED125D8E818F3C","019d0658-d4f5-7457-bce4-a5940ff9ad7b","019d0640-0a2d-7740-a972-9c73365b2dcb","","1522","","","","","","","","","","","","","",""
"","","","","","instructions","4","190559","0.0-4.0","61FFB453863242FDA4ED125D8E818F3C","019d0658-d4f5-7457-bce4-a5940ff9ad7b","019d0640-0a2d-7740-a972-9c73365b2dcb","[{""page_index"":0,""viewing_time"":5784}]","5784","","","","","","","","","","","","","",""
"","","","","","instructions","5","198336","0.0-5.0","61FFB453863242FDA4ED125D8E818F3C","019d0658-d4f5-7457-bce4-a5940ff9ad7b","019d0640-0a2d-7740-a972-9c73365b2dcb","[{""page_index"":0,""viewing_time"":7777}]","7777","","","","","","","","","","","","","",""
"","","","","","html-keyboard-response","6","202338","0.0-6.0","61FFB453863242FDA4ED125D8E818F3C","019d0658-d4f5-7457-bce4-a5940ff9ad7b","019d0640-0a2d-7740-a972-9c73365b2dcb","","null","
                <div class=""stimulus-container"">
                    <img src=""images/instructions/movie_1.png"" class=""exp-image"">
                    <div class=""question-area""></div> 
                </div>","null","","","","","","","","","","","",""
"","","","","","html-button-response","7","203731","0.0-7.0","61FFB453863242FDA4ED125D8E818F3C","019d0658-d4f5-7457-bce4-a5940ff9ad7b","019d0640-0a2d-7740-a972-9c73365b2dcb","","1393","
                <div class=""stimulus-container"">
                    <img src=""images/instructions/movie_1.png"" class=""exp-image"">
                    <div class=""question-area"">
                        <p style=""font-size: 20px; font-weight: bold; margin: 0;"">Was there a person in this image?</p>
                    </div>
                </div>","0","example_question","1","","","","","","","","","",""
"","","","","","html-keyboard-response","8","207732","0.0-8.0","61FFB453863242FDA4ED125D8E818F3C","019d0658-d4f5-7457-bce4-a5940ff9ad7b","019d0640-0a2d-7740-a972-9c73365b2dcb","","null","
                <div class=""stimulus-container"">
                    <img src=""images/instructions/movie_2.png"" class=""exp-image"">
                    <div class=""question-area""></div> 
                </div>","null","","","","","","","","","","","",""
"","","","","","html-button-response","9","208986","0.0-9.0","61FFB453863242FDA4ED125D8E818F3C","019d0658-d4f5-7457-bce4-a5940ff9ad7b","019d0640-0a2d-7740-a972-9c73365b2dcb","","1253","
                <div class=""stimulus-container"">
                    <img src=""images/instructions/movie_2.png"" class=""exp-image"">
                    <div class=""question-area"">
                        <p style=""font-size: 20px; font-weight: bold; margin: 0;"">Was there a person in this image?</p>
                    </div>
                </div>","0","example_question","2","","","","","","","","","",""
"","","","","","html-keyboard-response","10","212988","0.0-10.0","61FFB453863242FDA4ED125D8E818F3C","019d0658-d4f5-7457-bce4-a5940ff9ad7b","019d0640-0a2d-7740-a972-9c73365b2dcb","","null","
                <div class=""stimulus-container"">
                    <img src=""images/instructions/movie_3.png"" class=""exp-image"">
                    <div class=""question-area""></div> 
                </div>","null","","","","","","","","","","","",""
"","","","","","html-button-response","11","213511","0.0-11.0","61FFB453863242FDA4ED125D8E818F3C","019d0658-d4f5-7457-bce4-a5940ff9ad7b","019d0640-0a2d-7740-a972-9c73365b2dcb","","522","
                <div class=""stimulus-container"">
                    <img src=""images/instructions/movie_3.png"" class=""exp-image"">
                    <div class=""question-area"">
                        <p style=""font-size: 20px; font-weight: bold; margin: 0;"">Was there a person in this image?</p>
                    </div>
                </div>","0","example_question","3","","","","","","","","","",""
"","","","","","html-keyboard-response","12","217513","0.0-12.0","61FFB453863242FDA4ED125D8E818F3C","019d0658-d4f5-7457-bce4-a5940ff9ad7b","019d0640-0a2d-7740-a972-9c73365b2dcb","","null","
                <div class=""stimulus-container"">
                    <img src=""images/instructions/movie_4.png"" class=""exp-image"">
                    <div class=""question-area""></div> 
                </div>","null","","","","","","","","","","","",""
"","","","","","html-button-response","13","217899","0.0-13.0","61FFB453863242FDA4ED125D8E818F3C","019d0658-d4f5-7457-bce4-a5940ff9ad7b","019d0640-0a2d-7740-a972-9c73365b2dcb","","386","
                <div class=""stimulus-container"">
                    <img src=""images/instructions/movie_4.png"" class=""exp-image"">
                    <div class=""question-area"">
                        <p style=""font-size: 20px; font-weight: bold; margin: 0;"">Was there a person in this image?</p>
                    </div>
                </div>","0","example_question","4","","","","","","","","","",""
"","","","","","instructions","14","219809","0.0-14.0","61FFB453863242FDA4ED125D8E818F3C","019d0658-d4f5-7457-bce4-a5940ff9ad7b","019d0640-0a2d-7740-a972-9c73365b2dcb","[{""page_index"":0,""viewing_time"":1910}]","1910","","","","","","","","","","","","","",""
"","","","","","instructions","15","223260","0.0-15.0","61FFB453863242FDA4ED125D8E818F3C","019d0658-d4f5-7457-bce4-a5940ff9ad7b","019d0640-0a2d-7740-a972-9c73365b2dcb","[{""page_index"":0,""viewing_time"":3450}]","3450","","","","","","","","","","","","","",""
"","","","","","html-keyboard-response","16","228262","0.0-16.0","61FFB453863242FDA4ED125D8E818F3C","019d0658-d4f5-7457-bce4-a5940ff9ad7b","019d0640-0a2d-7740-a972-9c73365b2dcb","","null","<div style=""background-color: white; width: 100vw; height: 100vh;""></div>","null","","","","","","","","","","","",""
"","","","","","html-keyboard-response","17","233265","0.0-17.0","61FFB453863242FDA4ED125D8E818F3C","019d0658-d4f5-7457-bce4-a5940ff9ad7b","019d0640-0a2d-7740-a972-9c73365b2dcb","","null","
                <div class=""stimulus-container"">
                    <img src=""images/semantic_sequence/housework_semantic/housework_semantic_1.png"" class=""exp-image"">
                    <div class=""question-area""></div> 
                </div>","null","","","","","","","","","","","",""
"","","","","","html-button-response","18","234028","0.0-18.0","61FFB453863242FDA4ED125D8E818F3C","019d0658-d4f5-7457-bce4-a5940ff9ad7b","019d0640-0a2d-7740-a972-9c73365b2dcb","","763","
                <div class=""stimulus-container"">
                    <img src=""images/semantic_sequence/housework_semantic/housework_semantic_1.png"" class=""exp-image"">
                    <div class=""question-area"">
                        <p style=""font-size: 20px; font-weight: bold; margin: 0;"">Is there a person in this image?</p>
                    </div>
                </div>","0","main_experiment_trial","1","housework_semantic","semantic_sequence","chronological","","","","","","",""
"","","","","","html-keyboard-response","19","239030","0.0-19.0","61FFB453863242FDA4ED125D8E818F3C","019d0658-d4f5-7457-bce4-a5940ff9ad7b","019d0640-0a2d-7740-a972-9c73365b2dcb","","null","
                <div class=""stimulus-container"">
                    <img src=""images/semantic_sequence/housework_semantic/housework_semantic_2.png"" class=""exp-image"">
                    <div class=""question-area""></div> 
                </div>","null","","","","","","","","","","","",""
"","","","","","html-button-response","20","239721","0.0-20.0","61FFB453863242FDA4ED125D8E818F3C","019d0658-d4f5-7457-bce4-a5940ff9ad7b","019d0640-0a2d-7740-a972-9c73365b2dcb","","691","
                <div class=""stimulus-container"">
                    <img src=""images/semantic_sequence/housework_semantic/housework_semantic_2.png"" class=""exp-image"">
                    <div class=""question-area"">
                        <p style=""font-size: 20px; font-weight: bold; margin: 0;"">Is there a person in this image?</p>
                    </div>
                </div>","0","main_experiment_trial","2","housework_semantic","semantic_sequence","chronological","","","","","","",""
"","","","","","html-keyboard-response","21","244723","0.0-21.0","61FFB453863242FDA4ED125D8E818F3C","019d0658-d4f5-7457-bce4-a5940ff9ad7b","019d0640-0a2d-7740-a972-9c73365b2dcb","","null","
                <div class=""stimulus-container"">
                    <img src=""images/semantic_sequence/housework_semantic/housework_semantic_3.png"" class=""exp-image"">
                    <div class=""question-area""></div> 
                </div>","null","","","","","","","","","","","",""
"","","","","","html-button-response","22","245148","0.0-22.0","61FFB453863242FDA4ED125D8E818F3C","019d0658-d4f5-7457-bce4-a5940ff9ad7b","019d0640-0a2d-7740-a972-9c73365b2dcb","","424","
                <div class=""stimulus-container"">
                    <img src=""images/semantic_sequence/housework_semantic/housework_semantic_3.png"" class=""exp-image"">
                    <div class=""question-area"">
                        <p style=""font-size: 20px; font-weight: bold; margin: 0;"">Is there a person in this image?</p>
                    </div>
                </div>","0","main_experiment_trial","3","housework_semantic","semantic_sequence","chronological","","","","","","",""
"","","","","","html-keyboard-response","23","250151","0.0-23.0","61FFB453863242FDA4ED125D8E818F3C","019d0658-d4f5-7457-bce4-a5940ff9ad7b","019d0640-0a2d-7740-a972-9c73365b2dcb","","null","
                <div class=""stimulus-container"">
                    <img src=""images/semantic_sequence/housework_semantic/housework_semantic_4.png"" class=""exp-image"">
                    <div class=""question-area""></div> 
                </div>","null","","","","","","","","","","","",""
"","","","","","html-button-response","24","250571","0.0-24.0","61FFB453863242FDA4ED125D8E818F3C","019d0658-d4f5-7457-bce4-a5940ff9ad7b","019d0640-0a2d-7740-a972-9c73365b2dcb","","419","
                <div class=""stimulus-container"">
                    <img src=""images/semantic_sequence/housework_semantic/housework_semantic_4.png"" class=""exp-image"">
                    <div class=""question-area"">
                        <p style=""font-size: 20px; font-weight: bold; margin: 0;"">Is there a person in this image?</p>
                    </div>
                </div>","0","main_experiment_trial","4","housework_semantic","semantic_sequence","chronological","","","","","","",""
"","","","","","html-keyboard-response","25","255571","0.0-25.0","61FFB453863242FDA4ED125D8E818F3C","019d0658-d4f5-7457-bce4-a5940ff9ad7b","019d0640-0a2d-7740-a972-9c73365b2dcb","","null","
                <div class=""stimulus-container"">
                    <img src=""images/semantic_sequence/housework_semantic/housework_semantic_5.png"" class=""exp-image"">
                    <div class=""question-area""></div> 
                </div>","null","","","","","","","","","","","",""
"","","","","","html-button-response","26","256003","0.0-26.0","61FFB453863242FDA4ED125D8E818F3C","019d0658-d4f5-7457-bce4-a5940ff9ad7b","019d0640-0a2d-7740-a972-9c73365b2dcb","","432","
                <div class=""stimulus-container"">
                    <img src=""images/semantic_sequence/housework_semantic/housework_semantic_5.png"" class=""exp-image"">
                    <div class=""question-area"">
                        <p style=""font-size: 20px; font-weight: bold; margin: 0;"">Is there a person in this image?</p>
                    </div>
                </div>","0","main_experiment_trial","5","housework_semantic","semantic_sequence","chronological","","","","","","",""
"","","","","","html-keyboard-response","27","261005","0.0-27.0","61FFB453863242FDA4ED125D8E818F3C","019d0658-d4f5-7457-bce4-a5940ff9ad7b","019d0640-0a2d-7740-a972-9c73365b2dcb","","null","
                <div class=""stimulus-container"">
                    <img src=""images/semantic_sequence/housework_semantic/housework_semantic_6.png"" class=""exp-image"">
                    <div class=""question-area""></div> 
                </div>","null","","","","","","","","","","","",""
"","","","","","html-button-response","28","261424","0.0-28.0","61FFB453863242FDA4ED125D8E818F3C","019d0658-d4f5-7457-bce4-a5940ff9ad7b","019d0640-0a2d-7740-a972-9c73365b2dcb","","419","
                <div class=""stimulus-container"">
                    <img src=""images/semantic_sequence/housework_semantic/housework_semantic_6.png"" class=""exp-image"">
                    <div class=""question-area"">
                        <p style=""font-size: 20px; font-weight: bold; margin: 0;"">Is there a person in this image?</p>
                    </div>
                </div>","0","main_experiment_trial","6","housework_semantic","semantic_sequence","chronological","","","","","","",""
"","","","","","html-keyboard-response","29","266426","0.0-29.0","61FFB453863242FDA4ED125D8E818F3C","019d0658-d4f5-7457-bce4-a5940ff9ad7b","019d0640-0a2d-7740-a972-9c73365b2dcb","","null","
                <div class=""stimulus-container"">
                    <img src=""images/semantic_sequence/housework_semantic/housework_semantic_7.png"" class=""exp-image"">
                    <div class=""question-area""></div> 
                </div>","null","","","","","","","","","","","",""
"","","","","","html-button-response","30","266817","0.0-30.0","61FFB453863242FDA4ED125D8E818F3C","019d0658-d4f5-7457-bce4-a5940ff9ad7b","019d0640-0a2d-7740-a972-9c73365b2dcb","","391","
                <div class=""stimulus-container"">
                    <img src=""images/semantic_sequence/housework_semantic/housework_semantic_7.png"" class=""exp-image"">
                    <div class=""question-area"">
                        <p style=""font-size: 20px; font-weight: bold; margin: 0;"">Is there a person in this image?</p>
                    </div>
                </div>","0","main_experiment_trial","7","housework_semantic","semantic_sequence","chronological","","","","","","",""
"","","","","","html-keyboard-response","31","271818","0.0-31.0","61FFB453863242FDA4ED125D8E818F3C","019d0658-d4f5-7457-bce4-a5940ff9ad7b","019d0640-0a2d-7740-a972-9c73365b2dcb","","null","
                <div class=""stimulus-container"">
                    <img src=""images/semantic_sequence/housework_semantic/housework_semantic_8.png"" class=""exp-image"">
                    <div class=""question-area""></div> 
                </div>","null","","","","","","","","","","","",""
"","","","","","html-button-response","32","272392","0.0-32.0","61FFB453863242FDA4ED125D8E818F3C","019d0658-d4f5-7457-bce4-a5940ff9ad7b","019d0640-0a2d-7740-a972-9c73365b2dcb","","573","
                <div class=""stimulus-container"">
                    <img src=""images/semantic_sequence/housework_semantic/housework_semantic_8.png"" class=""exp-image"">
                    <div class=""question-area"">
                        <p style=""font-size: 20px; font-weight: bold; margin: 0;"">Is there a person in this image?</p>
                    </div>
                </div>","0","main_experiment_trial","8","housework_semantic","semantic_sequence","chronological","","","","","","",""
"","","","","","html-keyboard-response","33","277394","0.0-33.0","61FFB453863242FDA4ED125D8E818F3C","019d0658-d4f5-7457-bce4-a5940ff9ad7b","019d0640-0a2d-7740-a972-9c73365b2dcb","","null","
                <div class=""stimulus-container"">
                    <img src=""images/semantic_sequence/housework_semantic/housework_semantic_9.png"" class=""exp-image"">
                    <div class=""question-area""></div> 
                </div>","null","","","","","","","","","","","",""
"","","","","","html-button-response","34","277885","0.0-34.0","61FFB453863242FDA4ED125D8E818F3C","019d0658-d4f5-7457-bce4-a5940ff9ad7b","019d0640-0a2d-7740-a972-9c73365b2dcb","","490","
                <div class=""stimulus-container"">
                    <img src=""images/semantic_sequence/housework_semantic/housework_semantic_9.png"" class=""exp-image"">
                    <div class=""question-area"">
                        <p style=""font-size: 20px; font-weight: bold; margin: 0;"">Is there a person in this image?</p>
                    </div>
                </div>","0","main_experiment_trial","9","housework_semantic","semantic_sequence","chronological","","","","","","",""
"","","","","","html-keyboard-response","35","282886","0.0-35.0","61FFB453863242FDA4ED125D8E818F3C","019d0658-d4f5-7457-bce4-a5940ff9ad7b","019d0640-0a2d-7740-a972-9c73365b2dcb","","null","
                <div class=""stimulus-container"">
                    <img src=""images/semantic_sequence/housework_semantic/housework_semantic_ten.png"" class=""exp-image"">
                    <div class=""question-area""></div> 
                </div>","null","","","","","","","","","","","",""
"","","","","","html-button-response","36","283356","0.0-36.0","61FFB453863242FDA4ED125D8E818F3C","019d0658-d4f5-7457-bce4-a5940ff9ad7b","019d0640-0a2d-7740-a972-9c73365b2dcb","","469","
                <div class=""stimulus-container"">
                    <img src=""images/semantic_sequence/housework_semantic/housework_semantic_ten.png"" class=""exp-image"">
                    <div class=""question-area"">
                        <p style=""font-size: 20px; font-weight: bold; margin: 0;"">Is there a person in this image?</p>
                    </div>
                </div>","0","main_experiment_trial","ten","housework_semantic","semantic_sequence","chronological","","","","","","",""
"","","","","","html-keyboard-response","37","288358","0.0-37.0","61FFB453863242FDA4ED125D8E818F3C","019d0658-d4f5-7457-bce4-a5940ff9ad7b","019d0640-0a2d-7740-a972-9c73365b2dcb","","null","<div style=""background-color: white; width: 100vw; height: 100vh;""></div>","null","","","","","","","","","","","",""
"","","","","","html-keyboard-response","38","293360","0.0-38.0","61FFB453863242FDA4ED125D8E818F3C","019d0658-d4f5-7457-bce4-a5940ff9ad7b","019d0640-0a2d-7740-a972-9c73365b2dcb","","null","
                <div class=""stimulus-container"">
                    <img src=""images/schematic_sequence/dinner_party_scheme/dinner_party_scheme_1.png"" class=""exp-image"">
                    <div class=""question-area""></div> 
                </div>","null","","","","","","","","","","","",""
"","","","","","html-button-response","39","294218","0.0-39.0","61FFB453863242FDA4ED125D8E818F3C","019d0658-d4f5-7457-bce4-a5940ff9ad7b","019d0640-0a2d-7740-a972-9c73365b2dcb","","857","
                <div class=""stimulus-container"">
                    <img src=""images/schematic_sequence/dinner_party_scheme/dinner_party_scheme_1.png"" class=""exp-image"">
                    <div class=""question-area"">
                        <p style=""font-size: 20px; font-weight: bold; margin: 0;"">Is there a person in this image?</p>
                    </div>
                </div>","0","main_experiment_trial","1","dinner_party_scheme","schematic_sequence","chronological","","","","","","",""
"","","","","","html-keyboard-response","40","299219","0.0-40.0","61FFB453863242FDA4ED125D8E818F3C","019d0658-d4f5-7457-bce4-a5940ff9ad7b","019d0640-0a2d-7740-a972-9c73365b2dcb","","null","
                <div class=""stimulus-container"">
                    <img src=""images/schematic_sequence/dinner_party_scheme/dinner_party_scheme_2.png"" class=""exp-image"">
                    <div class=""question-area""></div> 
                </div>","null","","","","","","","","","","","",""
"","","","","","html-button-response","41","299881","0.0-41.0","61FFB453863242FDA4ED125D8E818F3C","019d0658-d4f5-7457-bce4-a5940ff9ad7b","019d0640-0a2d-7740-a972-9c73365b2dcb","","661","
                <div class=""stimulus-container"">
                    <img src=""images/schematic_sequence/dinner_party_scheme/dinner_party_scheme_2.png"" class=""exp-image"">
                    <div class=""question-area"">
                        <p style=""font-size: 20px; font-weight: bold; margin: 0;"">Is there a person in this image?</p>
                    </div>
                </div>","0","main_experiment_trial","2","dinner_party_scheme","schematic_sequence","chronological","","","","","","",""
"","","","","","html-keyboard-response","42","304883","0.0-42.0","61FFB453863242FDA4ED125D8E818F3C","019d0658-d4f5-7457-bce4-a5940ff9ad7b","019d0640-0a2d-7740-a972-9c73365b2dcb","","null","
                <div class=""stimulus-container"">
                    <img src=""images/schematic_sequence/dinner_party_scheme/dinner_party_scheme_3.png"" class=""exp-image"">
                    <div class=""question-area""></div> 
                </div>","null","","","","","","","","","","","",""
"","","","","","html-button-response","43","305339","0.0-43.0","61FFB453863242FDA4ED125D8E818F3C","019d0658-d4f5-7457-bce4-a5940ff9ad7b","019d0640-0a2d-7740-a972-9c73365b2dcb","","456","
                <div class=""stimulus-container"">
                    <img src=""images/schematic_sequence/dinner_party_scheme/dinner_party_scheme_3.png"" class=""exp-image"">
                    <div class=""question-area"">
                        <p style=""font-size: 20px; font-weight: bold; margin: 0;"">Is there a person in this image?</p>
                    </div>
                </div>","0","main_experiment_trial","3","dinner_party_scheme","schematic_sequence","chronological","","","","","","",""
"","","","","","html-keyboard-response","44","310342","0.0-44.0","61FFB453863242FDA4ED125D8E818F3C","019d0658-d4f5-7457-bce4-a5940ff9ad7b","019d0640-0a2d-7740-a972-9c73365b2dcb","","null","
                <div class=""stimulus-container"">
                    <img src=""images/schematic_sequence/dinner_party_scheme/dinner_party_scheme_4.png"" class=""exp-image"">
                    <div class=""question-area""></div> 
                </div>","null","","","","","","","","","","","",""
"","","","","","html-button-response","45","310928","0.0-45.0","61FFB453863242FDA4ED125D8E818F3C","019d0658-d4f5-7457-bce4-a5940ff9ad7b","019d0640-0a2d-7740-a972-9c73365b2dcb","","586","
                <div class=""stimulus-container"">
                    <img src=""images/schematic_sequence/dinner_party_scheme/dinner_party_scheme_4.png"" class=""exp-image"">
                    <div class=""question-area"">
                        <p style=""font-size: 20px; font-weight: bold; margin: 0;"">Is there a person in this image?</p>
                    </div>
                </div>","0","main_experiment_trial","4","dinner_party_scheme","schematic_sequence","chronological","","","","","","",""
"","","","","","html-keyboard-response","46","315930","0.0-46.0","61FFB453863242FDA4ED125D8E818F3C","019d0658-d4f5-7457-bce4-a5940ff9ad7b","019d0640-0a2d-7740-a972-9c73365b2dcb","","null","
                <div class=""stimulus-container"">
                    <img src=""images/schematic_sequence/dinner_party_scheme/dinner_party_scheme_5.png"" class=""exp-image"">
                    <div class=""question-area""></div> 
                </div>","null","","","","","","","","","","","",""
"","","","","","html-button-response","47","316443","0.0-47.0","61FFB453863242FDA4ED125D8E818F3C","019d0658-d4f5-7457-bce4-a5940ff9ad7b","019d0640-0a2d-7740-a972-9c73365b2dcb","","513","
                <div class=""stimulus-container"">
                    <img src=""images/schematic_sequence/dinner_party_scheme/dinner_party_scheme_5.png"" class=""exp-image"">
                    <div class=""question-area"">
                        <p style=""font-size: 20px; font-weight: bold; margin: 0;"">Is there a person in this image?</p>
                    </div>
                </div>","0","main_experiment_trial","5","dinner_party_scheme","schematic_sequence","chronological","","","","","","",""
"","","","","","html-keyboard-response","48","321445","0.0-48.0","61FFB453863242FDA4ED125D8E818F3C","019d0658-d4f5-7457-bce4-a5940ff9ad7b","019d0640-0a2d-7740-a972-9c73365b2dcb","","null","
                <div class=""stimulus-container"">
                    <img src=""images/schematic_sequence/dinner_party_scheme/dinner_party_scheme_6.png"" class=""exp-image"">
                    <div class=""question-area""></div> 
                </div>","null","","","","","","","","","","","",""
"","","","","","html-button-response","49","322536","0.0-49.0","61FFB453863242FDA4ED125D8E818F3C","019d0658-d4f5-7457-bce4-a5940ff9ad7b","019d0640-0a2d-7740-a972-9c73365b2dcb","","1091","
                <div class=""stimulus-container"">
                    <img src=""images/schematic_sequence/dinner_party_scheme/dinner_party_scheme_6.png"" class=""exp-image"">
                    <div class=""question-area"">
                        <p style=""font-size: 20px; font-weight: bold; margin: 0;"">Is there a person in this image?</p>
                    </div>
                </div>","0","main_experiment_trial","6","dinner_party_scheme","schematic_sequence","chronological","","","","","","",""
"","","","","","html-keyboard-response","50","327538","0.0-50.0","61FFB453863242FDA4ED125D8E818F3C","019d0658-d4f5-7457-bce4-a5940ff9ad7b","019d0640-0a2d-7740-a972-9c73365b2dcb","","null","
                <div class=""stimulus-container"">
                    <img src=""images/schematic_sequence/dinner_party_scheme/dinner_party_scheme_7.png"" class=""exp-image"">
                    <div class=""question-area""></div> 
                </div>","null","","","","","","","","","","","",""
"","","","","","html-button-response","51","328113","0.0-51.0","61FFB453863242FDA4ED125D8E818F3C","019d0658-d4f5-7457-bce4-a5940ff9ad7b","019d0640-0a2d-7740-a972-9c73365b2dcb","","575","
                <div class=""stimulus-container"">
                    <img src=""images/schematic_sequence/dinner_party_scheme/dinner_party_scheme_7.png"" class=""exp-image"">
                    <div class=""question-area"">
                        <p style=""font-size: 20px; font-weight: bold; margin: 0;"">Is there a person in this image?</p>
                    </div>
                </div>","0","main_experiment_trial","7","dinner_party_scheme","schematic_sequence","chronological","","","","","","",""
"","","","","","html-keyboard-response","52","333114","0.0-52.0","61FFB453863242FDA4ED125D8E818F3C","019d0658-d4f5-7457-bce4-a5940ff9ad7b","019d0640-0a2d-7740-a972-9c73365b2dcb","","null","
                <div class=""stimulus-container"">
                    <img src=""images/schematic_sequence/dinner_party_scheme/dinner_party_scheme_8.png"" class=""exp-image"">
                    <div class=""question-area""></div> 
                </div>","null","","","","","","","","","","","",""
"","","","","","html-button-response","53","333666","0.0-53.0","61FFB453863242FDA4ED125D8E818F3C","019d0658-d4f5-7457-bce4-a5940ff9ad7b","019d0640-0a2d-7740-a972-9c73365b2dcb","","551","
                <div class=""stimulus-container"">
                    <img src=""images/schematic_sequence/dinner_party_scheme/dinner_party_scheme_8.png"" class=""exp-image"">
                    <div class=""question-area"">
                        <p style=""font-size: 20px; font-weight: bold; margin: 0;"">Is there a person in this image?</p>
                    </div>
                </div>","0","main_experiment_trial","8","dinner_party_scheme","schematic_sequence","chronological","","","","","","",""
"","","","","","html-keyboard-response","54","338667","0.0-54.0","61FFB453863242FDA4ED125D8E818F3C","019d0658-d4f5-7457-bce4-a5940ff9ad7b","019d0640-0a2d-7740-a972-9c73365b2dcb","","null","
                <div class=""stimulus-container"">
                    <img src=""images/schematic_sequence/dinner_party_scheme/dinner_party_scheme_9.png"" class=""exp-image"">
                    <div class=""question-area""></div> 
                </div>","null","","","","","","","","","","","",""
"","","","","","html-button-response","55","339395","0.0-55.0","61FFB453863242FDA4ED125D8E818F3C","019d0658-d4f5-7457-bce4-a5940ff9ad7b","019d0640-0a2d-7740-a972-9c73365b2dcb","","728","
                <div class=""stimulus-container"">
                    <img src=""images/schematic_sequence/dinner_party_scheme/dinner_party_scheme_9.png"" class=""exp-image"">
                    <div class=""question-area"">
                        <p style=""font-size: 20px; font-weight: bold; margin: 0;"">Is there a person in this image?</p>
                    </div>
                </div>","0","main_experiment_trial","9","dinner_party_scheme","schematic_sequence","chronological","","","","","","",""
"","","","","","html-keyboard-response","56","344397","0.0-56.0","61FFB453863242FDA4ED125D8E818F3C","019d0658-d4f5-7457-bce4-a5940ff9ad7b","019d0640-0a2d-7740-a972-9c73365b2dcb","","null","
                <div class=""stimulus-container"">
                    <img src=""images/schematic_sequence/dinner_party_scheme/dinner_party_scheme_ten.png"" class=""exp-image"">
                    <div class=""question-area""></div> 
                </div>","null","","","","","","","","","","","",""
"","","","","","html-button-response","57","344920","0.0-57.0","61FFB453863242FDA4ED125D8E818F3C","019d0658-d4f5-7457-bce4-a5940ff9ad7b","019d0640-0a2d-7740-a972-9c73365b2dcb","","522","
                <div class=""stimulus-container"">
                    <img src=""images/schematic_sequence/dinner_party_scheme/dinner_party_scheme_ten.png"" class=""exp-image"">
                    <div class=""question-area"">
                        <p style=""font-size: 20px; font-weight: bold; margin: 0;"">Is there a person in this image?</p>
                    </div>
                </div>","0","main_experiment_trial","ten","dinner_party_scheme","schematic_sequence","chronological","","","","","","",""
"","","","","","html-keyboard-response","58","349921","0.0-58.0","61FFB453863242FDA4ED125D8E818F3C","019d0658-d4f5-7457-bce4-a5940ff9ad7b","019d0640-0a2d-7740-a972-9c73365b2dcb","","null","<div style=""background-color: white; width: 100vw; height: 100vh;""></div>","null","","","","","","","","","","","",""
"","","","","","html-keyboard-response","59","354923","0.0-59.0","61FFB453863242FDA4ED125D8E818F3C","019d0658-d4f5-7457-bce4-a5940ff9ad7b","019d0640-0a2d-7740-a972-9c73365b2dcb","","null","
                <div class=""stimulus-container"">
                    <img src=""images/schematic_sequence/interview_scheme/interview_scheme_1.png"" class=""exp-image"">
                    <div class=""question-area""></div> 
                </div>","null","","","","","","","","","","","",""
"","","","","","html-button-response","60","355748","0.0-60.0","61FFB453863242FDA4ED125D8E818F3C","019d0658-d4f5-7457-bce4-a5940ff9ad7b","019d0640-0a2d-7740-a972-9c73365b2dcb","","824","
                <div class=""stimulus-container"">
                    <img src=""images/schematic_sequence/interview_scheme/interview_scheme_1.png"" class=""exp-image"">
                    <div class=""question-area"">
                        <p style=""font-size: 20px; font-weight: bold; margin: 0;"">Is there a person in this image?</p>
                    </div>
                </div>","1","main_experiment_trial","1","interview_scheme","schematic_sequence","chronological","","","","","","",""
"","","","","","html-keyboard-response","61","360749","0.0-61.0","61FFB453863242FDA4ED125D8E818F3C","019d0658-d4f5-7457-bce4-a5940ff9ad7b","019d0640-0a2d-7740-a972-9c73365b2dcb","","null","
                <div class=""stimulus-container"">
                    <img src=""images/schematic_sequence/interview_scheme/interview_scheme_2.png"" class=""exp-image"">
                    <div class=""question-area""></div> 
                </div>","null","","","","","","","","","","","",""
"","","","","","html-button-response","62","361292","0.0-62.0","61FFB453863242FDA4ED125D8E818F3C","019d0658-d4f5-7457-bce4-a5940ff9ad7b","019d0640-0a2d-7740-a972-9c73365b2dcb","","543","
                <div class=""stimulus-container"">
                    <img src=""images/schematic_sequence/interview_scheme/interview_scheme_2.png"" class=""exp-image"">
                    <div class=""question-area"">
                        <p style=""font-size: 20px; font-weight: bold; margin: 0;"">Is there a person in this image?</p>
                    </div>
                </div>","0","main_experiment_trial","2","interview_scheme","schematic_sequence","chronological","","","","","","",""
"","","","","","html-keyboard-response","63","366295","0.0-63.0","61FFB453863242FDA4ED125D8E818F3C","019d0658-d4f5-7457-bce4-a5940ff9ad7b","019d0640-0a2d-7740-a972-9c73365b2dcb","","null","
                <div class=""stimulus-container"">
                    <img src=""images/schematic_sequence/interview_scheme/interview_scheme_3.png"" class=""exp-image"">
                    <div class=""question-area""></div> 
                </div>","null","","","","","","","","","","","",""
"","","","","","html-button-response","64","366965","0.0-64.0","61FFB453863242FDA4ED125D8E818F3C","019d0658-d4f5-7457-bce4-a5940ff9ad7b","019d0640-0a2d-7740-a972-9c73365b2dcb","","670","
                <div class=""stimulus-container"">
                    <img src=""images/schematic_sequence/interview_scheme/interview_scheme_3.png"" class=""exp-image"">
                    <div class=""question-area"">
                        <p style=""font-size: 20px; font-weight: bold; margin: 0;"">Is there a person in this image?</p>
                    </div>
                </div>","1","main_experiment_trial","3","interview_scheme","schematic_sequence","chronological","","","","","","",""
"","","","","","html-keyboard-response","65","371967","0.0-65.0","61FFB453863242FDA4ED125D8E818F3C","019d0658-d4f5-7457-bce4-a5940ff9ad7b","019d0640-0a2d-7740-a972-9c73365b2dcb","","null","
                <div class=""stimulus-container"">
                    <img src=""images/schematic_sequence/interview_scheme/interview_scheme_4.png"" class=""exp-image"">
                    <div class=""question-area""></div> 
                </div>","null","","","","","","","","","","","",""
"","","","","","html-button-response","66","372790","0.0-66.0","61FFB453863242FDA4ED125D8E818F3C","019d0658-d4f5-7457-bce4-a5940ff9ad7b","019d0640-0a2d-7740-a972-9c73365b2dcb","","823","
                <div class=""stimulus-container"">
                    <img src=""images/schematic_sequence/interview_scheme/interview_scheme_4.png"" class=""exp-image"">
                    <div class=""question-area"">
                        <p style=""font-size: 20px; font-weight: bold; margin: 0;"">Is there a person in this image?</p>
                    </div>
                </div>","1","main_experiment_trial","4","interview_scheme","schematic_sequence","chronological","","","","","","",""
"","","","","","html-keyboard-response","67","377792","0.0-67.0","61FFB453863242FDA4ED125D8E818F3C","019d0658-d4f5-7457-bce4-a5940ff9ad7b","019d0640-0a2d-7740-a972-9c73365b2dcb","","null","
                <div class=""stimulus-container"">
                    <img src=""images/schematic_sequence/interview_scheme/interview_scheme_5.png"" class=""exp-image"">
                    <div class=""question-area""></div> 
                </div>","null","","","","","","","","","","","",""
"","","","","","html-button-response","68","378533","0.0-68.0","61FFB453863242FDA4ED125D8E818F3C","019d0658-d4f5-7457-bce4-a5940ff9ad7b","019d0640-0a2d-7740-a972-9c73365b2dcb","","741","
                <div class=""stimulus-container"">
                    <img src=""images/schematic_sequence/interview_scheme/interview_scheme_5.png"" class=""exp-image"">
                    <div class=""question-area"">
                        <p style=""font-size: 20px; font-weight: bold; margin: 0;"">Is there a person in this image?</p>
                    </div>
                </div>","0","main_experiment_trial","5","interview_scheme","schematic_sequence","chronological","","","","","","",""
"","","","","","html-keyboard-response","69","383535","0.0-69.0","61FFB453863242FDA4ED125D8E818F3C","019d0658-d4f5-7457-bce4-a5940ff9ad7b","019d0640-0a2d-7740-a972-9c73365b2dcb","","null","
                <div class=""stimulus-container"">
                    <img src=""images/schematic_sequence/interview_scheme/interview_scheme_6.png"" class=""exp-image"">
                    <div class=""question-area""></div> 
                </div>","null","","","","","","","","","","","",""
"","","","","","html-button-response","70","384060","0.0-70.0","61FFB453863242FDA4ED125D8E818F3C","019d0658-d4f5-7457-bce4-a5940ff9ad7b","019d0640-0a2d-7740-a972-9c73365b2dcb","","525","
                <div class=""stimulus-container"">
                    <img src=""images/schematic_sequence/interview_scheme/interview_scheme_6.png"" class=""exp-image"">
                    <div class=""question-area"">
                        <p style=""font-size: 20px; font-weight: bold; margin: 0;"">Is there a person in this image?</p>
                    </div>
                </div>","0","main_experiment_trial","6","interview_scheme","schematic_sequence","chronological","","","","","","",""
"","","","","","html-keyboard-response","71","389062","0.0-71.0","61FFB453863242FDA4ED125D8E818F3C","019d0658-d4f5-7457-bce4-a5940ff9ad7b","019d0640-0a2d-7740-a972-9c73365b2dcb","","null","
                <div class=""stimulus-container"">
                    <img src=""images/schematic_sequence/interview_scheme/interview_scheme_7.png"" class=""exp-image"">
                    <div class=""question-area""></div> 
                </div>","null","","","","","","","","","","","",""
"","","","","","html-button-response","72","389859","0.0-72.0","61FFB453863242FDA4ED125D8E818F3C","019d0658-d4f5-7457-bce4-a5940ff9ad7b","019d0640-0a2d-7740-a972-9c73365b2dcb","","797","
                <div class=""stimulus-container"">
                    <img src=""images/schematic_sequence/interview_scheme/interview_scheme_7.png"" class=""exp-image"">
                    <div class=""question-area"">
                        <p style=""font-size: 20px; font-weight: bold; margin: 0;"">Is there a person in this image?</p>
                    </div>
                </div>","0","main_experiment_trial","7","interview_scheme","schematic_sequence","chronological","","","","","","",""
"","","","","","html-keyboard-response","73","394861","0.0-73.0","61FFB453863242FDA4ED125D8E818F3C","019d0658-d4f5-7457-bce4-a5940ff9ad7b","019d0640-0a2d-7740-a972-9c73365b2dcb","","null","
                <div class=""stimulus-container"">
                    <img src=""images/schematic_sequence/interview_scheme/interview_scheme_8.png"" class=""exp-image"">
                    <div class=""question-area""></div> 
                </div>","null","","","","","","","","","","","",""
"","","","","","html-button-response","74","395616","0.0-74.0","61FFB453863242FDA4ED125D8E818F3C","019d0658-d4f5-7457-bce4-a5940ff9ad7b","019d0640-0a2d-7740-a972-9c73365b2dcb","","754","
                <div class=""stimulus-container"">
                    <img src=""images/schematic_sequence/interview_scheme/interview_scheme_8.png"" class=""exp-image"">
                    <div class=""question-area"">
                        <p style=""font-size: 20px; font-weight: bold; margin: 0;"">Is there a person in this image?</p>
                    </div>
                </div>","0","main_experiment_trial","8","interview_scheme","schematic_sequence","chronological","","","","","","",""
"","","","","","html-keyboard-response","75","400617","0.0-75.0","61FFB453863242FDA4ED125D8E818F3C","019d0658-d4f5-7457-bce4-a5940ff9ad7b","019d0640-0a2d-7740-a972-9c73365b2dcb","","null","
                <div class=""stimulus-container"">
                    <img src=""images/schematic_sequence/interview_scheme/interview_scheme_9.png"" class=""exp-image"">
                    <div class=""question-area""></div> 
                </div>","null","","","","","","","","","","","",""
"","","","","","html-button-response","76","401247","0.0-76.0","61FFB453863242FDA4ED125D8E818F3C","019d0658-d4f5-7457-bce4-a5940ff9ad7b","019d0640-0a2d-7740-a972-9c73365b2dcb","","630","
                <div class=""stimulus-container"">
                    <img src=""images/schematic_sequence/interview_scheme/interview_scheme_9.png"" class=""exp-image"">
                    <div class=""question-area"">
                        <p style=""font-size: 20px; font-weight: bold; margin: 0;"">Is there a person in this image?</p>
                    </div>
                </div>","0","main_experiment_trial","9","interview_scheme","schematic_sequence","chronological","","","","","","",""
"","","","","","html-keyboard-response","77","406249","0.0-77.0","61FFB453863242FDA4ED125D8E818F3C","019d0658-d4f5-7457-bce4-a5940ff9ad7b","019d0640-0a2d-7740-a972-9c73365b2dcb","","null","
                <div class=""stimulus-container"">
                    <img src=""images/schematic_sequence/interview_scheme/interview_scheme_ten.png"" class=""exp-image"">
                    <div class=""question-area""></div> 
                </div>","null","","","","","","","","","","","",""
"","","","","","html-button-response","78","406566","0.0-78.0","61FFB453863242FDA4ED125D8E818F3C","019d0658-d4f5-7457-bce4-a5940ff9ad7b","019d0640-0a2d-7740-a972-9c73365b2dcb","","316","
                <div class=""stimulus-container"">
                    <img src=""images/schematic_sequence/interview_scheme/interview_scheme_ten.png"" class=""exp-image"">
                    <div class=""question-area"">
                        <p style=""font-size: 20px; font-weight: bold; margin: 0;"">Is there a person in this image?</p>
                    </div>
                </div>","0","main_experiment_trial","ten","interview_scheme","schematic_sequence","chronological","","","","","","",""
"","","","","","html-keyboard-response","79","411569","0.0-79.0","61FFB453863242FDA4ED125D8E818F3C","019d0658-d4f5-7457-bce4-a5940ff9ad7b","019d0640-0a2d-7740-a972-9c73365b2dcb","","null","<div style=""background-color: white; width: 100vw; height: 100vh;""></div>","null","","","","","","","","","","","",""
"","","","","","html-keyboard-response","80","416570","0.0-80.0","61FFB453863242FDA4ED125D8E818F3C","019d0658-d4f5-7457-bce4-a5940ff9ad7b","019d0640-0a2d-7740-a972-9c73365b2dcb","","null","
                <div class=""stimulus-container"">
                    <img src=""images/causal_sequence/museum_causal/museum_causal_1.png"" class=""exp-image"">
                    <div class=""question-area""></div> 
                </div>","null","","","","","","","","","","","",""
"","","","","","html-button-response","81","417040","0.0-81.0","61FFB453863242FDA4ED125D8E818F3C","019d0658-d4f5-7457-bce4-a5940ff9ad7b","019d0640-0a2d-7740-a972-9c73365b2dcb","","469","
                <div class=""stimulus-container"">
                    <img src=""images/causal_sequence/museum_causal/museum_causal_1.png"" class=""exp-image"">
                    <div class=""question-area"">
                        <p style=""font-size: 20px; font-weight: bold; margin: 0;"">Is there a person in this image?</p>
                    </div>
                </div>","0","main_experiment_trial","1","museum_causal","causal_sequence","chronological","","","","","","",""
"","","","","","html-keyboard-response","82","422041","0.0-82.0","61FFB453863242FDA4ED125D8E818F3C","019d0658-d4f5-7457-bce4-a5940ff9ad7b","019d0640-0a2d-7740-a972-9c73365b2dcb","","null","
                <div class=""stimulus-container"">
                    <img src=""images/causal_sequence/museum_causal/museum_causal_2.png"" class=""exp-image"">
                    <div class=""question-area""></div> 
                </div>","null","","","","","","","","","","","",""
"","","","","","html-button-response","83","422424","0.0-83.0","61FFB453863242FDA4ED125D8E818F3C","019d0658-d4f5-7457-bce4-a5940ff9ad7b","019d0640-0a2d-7740-a972-9c73365b2dcb","","383","
                <div class=""stimulus-container"">
                    <img src=""images/causal_sequence/museum_causal/museum_causal_2.png"" class=""exp-image"">
                    <div class=""question-area"">
                        <p style=""font-size: 20px; font-weight: bold; margin: 0;"">Is there a person in this image?</p>
                    </div>
                </div>","0","main_experiment_trial","2","museum_causal","causal_sequence","chronological","","","","","","",""
"","","","","","html-keyboard-response","84","427427","0.0-84.0","61FFB453863242FDA4ED125D8E818F3C","019d0658-d4f5-7457-bce4-a5940ff9ad7b","019d0640-0a2d-7740-a972-9c73365b2dcb","","null","
                <div class=""stimulus-container"">
                    <img src=""images/causal_sequence/museum_causal/museum_causal_3.png"" class=""exp-image"">
                    <div class=""question-area""></div> 
                </div>","null","","","","","","","","","","","",""
"","","","","","html-button-response","85","427913","0.0-85.0","61FFB453863242FDA4ED125D8E818F3C","019d0658-d4f5-7457-bce4-a5940ff9ad7b","019d0640-0a2d-7740-a972-9c73365b2dcb","","486","
                <div class=""stimulus-container"">
                    <img src=""images/causal_sequence/museum_causal/museum_causal_3.png"" class=""exp-image"">
                    <div class=""question-area"">
                        <p style=""font-size: 20px; font-weight: bold; margin: 0;"">Is there a person in this image?</p>
                    </div>
                </div>","0","main_experiment_trial","3","museum_causal","causal_sequence","chronological","","","","","","",""
"","","","","","html-keyboard-response","86","432916","0.0-86.0","61FFB453863242FDA4ED125D8E818F3C","019d0658-d4f5-7457-bce4-a5940ff9ad7b","019d0640-0a2d-7740-a972-9c73365b2dcb","","null","
                <div class=""stimulus-container"">
                    <img src=""images/causal_sequence/museum_causal/museum_causal_4.png"" class=""exp-image"">
                    <div class=""question-area""></div> 
                </div>","null","","","","","","","","","","","",""
"","","","","","html-button-response","87","433428","0.0-87.0","61FFB453863242FDA4ED125D8E818F3C","019d0658-d4f5-7457-bce4-a5940ff9ad7b","019d0640-0a2d-7740-a972-9c73365b2dcb","","512","
                <div class=""stimulus-container"">
                    <img src=""images/causal_sequence/museum_causal/museum_causal_4.png"" class=""exp-image"">
                    <div class=""question-area"">
                        <p style=""font-size: 20px; font-weight: bold; margin: 0;"">Is there a person in this image?</p>
                    </div>
                </div>","1","main_experiment_trial","4","museum_causal","causal_sequence","chronological","","","","","","",""
"","","","","","html-keyboard-response","88","438431","0.0-88.0","61FFB453863242FDA4ED125D8E818F3C","019d0658-d4f5-7457-bce4-a5940ff9ad7b","019d0640-0a2d-7740-a972-9c73365b2dcb","","null","
                <div class=""stimulus-container"">
                    <img src=""images/causal_sequence/museum_causal/museum_causal_5.png"" class=""exp-image"">
                    <div class=""question-area""></div> 
                </div>","null","","","","","","","","","","","",""
"","","","","","html-button-response","89","438875","0.0-89.0","61FFB453863242FDA4ED125D8E818F3C","019d0658-d4f5-7457-bce4-a5940ff9ad7b","019d0640-0a2d-7740-a972-9c73365b2dcb","","444","
                <div class=""stimulus-container"">
                    <img src=""images/causal_sequence/museum_causal/museum_causal_5.png"" class=""exp-image"">
                    <div class=""question-area"">
                        <p style=""font-size: 20px; font-weight: bold; margin: 0;"">Is there a person in this image?</p>
                    </div>
                </div>","0","main_experiment_trial","5","museum_causal","causal_sequence","chronological","","","","","","",""
"","","","","","html-keyboard-response","90","443876","0.0-90.0","61FFB453863242FDA4ED125D8E818F3C","019d0658-d4f5-7457-bce4-a5940ff9ad7b","019d0640-0a2d-7740-a972-9c73365b2dcb","","null","
                <div class=""stimulus-container"">
                    <img src=""images/causal_sequence/museum_causal/museum_causal_6.png"" class=""exp-image"">
                    <div class=""question-area""></div> 
                </div>","null","","","","","","","","","","","",""
"","","","","","html-button-response","91","444784","0.0-91.0","61FFB453863242FDA4ED125D8E818F3C","019d0658-d4f5-7457-bce4-a5940ff9ad7b","019d0640-0a2d-7740-a972-9c73365b2dcb","","907","
                <div class=""stimulus-container"">
                    <img src=""images/causal_sequence/museum_causal/museum_causal_6.png"" class=""exp-image"">
                    <div class=""question-area"">
                        <p style=""font-size: 20px; font-weight: bold; margin: 0;"">Is there a person in this image?</p>
                    </div>
                </div>","0","main_experiment_trial","6","museum_causal","causal_sequence","chronological","","","","","","",""
"","","","","","html-keyboard-response","92","449786","0.0-92.0","61FFB453863242FDA4ED125D8E818F3C","019d0658-d4f5-7457-bce4-a5940ff9ad7b","019d0640-0a2d-7740-a972-9c73365b2dcb","","null","
                <div class=""stimulus-container"">
                    <img src=""images/causal_sequence/museum_causal/museum_causal_7.png"" class=""exp-image"">
                    <div class=""question-area""></div> 
                </div>","null","","","","","","","","","","","",""
"","","","","","html-button-response","93","450063","0.0-93.0","61FFB453863242FDA4ED125D8E818F3C","019d0658-d4f5-7457-bce4-a5940ff9ad7b","019d0640-0a2d-7740-a972-9c73365b2dcb","","277","
                <div class=""stimulus-container"">
                    <img src=""images/causal_sequence/museum_causal/museum_causal_7.png"" class=""exp-image"">
                    <div class=""question-area"">
                        <p style=""font-size: 20px; font-weight: bold; margin: 0;"">Is there a person in this image?</p>
                    </div>
                </div>","1","main_experiment_trial","7","museum_causal","causal_sequence","chronological","","","","","","",""
"","","","","","html-keyboard-response","94","455063","0.0-94.0","61FFB453863242FDA4ED125D8E818F3C","019d0658-d4f5-7457-bce4-a5940ff9ad7b","019d0640-0a2d-7740-a972-9c73365b2dcb","","null","
                <div class=""stimulus-container"">
                    <img src=""images/causal_sequence/museum_causal/museum_causal_8.png"" class=""exp-image"">
                    <div class=""question-area""></div> 
                </div>","null","","","","","","","","","","","",""
"","","","","","html-button-response","95","455826","0.0-95.0","61FFB453863242FDA4ED125D8E818F3C","019d0658-d4f5-7457-bce4-a5940ff9ad7b","019d0640-0a2d-7740-a972-9c73365b2dcb","","762","
                <div class=""stimulus-container"">
                    <img src=""images/causal_sequence/museum_causal/museum_causal_8.png"" class=""exp-image"">
                    <div class=""question-area"">
                        <p style=""font-size: 20px; font-weight: bold; margin: 0;"">Is there a person in this image?</p>
                    </div>
                </div>","0","main_experiment_trial","8","museum_causal","causal_sequence","chronological","","","","","","",""
"","","","","","html-keyboard-response","96","460827","0.0-96.0","61FFB453863242FDA4ED125D8E818F3C","019d0658-d4f5-7457-bce4-a5940ff9ad7b","019d0640-0a2d-7740-a972-9c73365b2dcb","","null","
                <div class=""stimulus-container"">
                    <img src=""images/causal_sequence/museum_causal/museum_causal_9.png"" class=""exp-image"">
                    <div class=""question-area""></div> 
                </div>","null","","","","","","","","","","","",""
"","","","","","html-button-response","97","462167","0.0-97.0","61FFB453863242FDA4ED125D8E818F3C","019d0658-d4f5-7457-bce4-a5940ff9ad7b","019d0640-0a2d-7740-a972-9c73365b2dcb","","1339","
                <div class=""stimulus-container"">
                    <img src=""images/causal_sequence/museum_causal/museum_causal_9.png"" class=""exp-image"">
                    <div class=""question-area"">
                        <p style=""font-size: 20px; font-weight: bold; margin: 0;"">Is there a person in this image?</p>
                    </div>
                </div>","1","main_experiment_trial","9","museum_causal","causal_sequence","chronological","","","","","","",""
"","","","","","html-keyboard-response","98","467169","0.0-98.0","61FFB453863242FDA4ED125D8E818F3C","019d0658-d4f5-7457-bce4-a5940ff9ad7b","019d0640-0a2d-7740-a972-9c73365b2dcb","","null","
                <div class=""stimulus-container"">
                    <img src=""images/causal_sequence/museum_causal/museum_causal_ten.png"" class=""exp-image"">
                    <div class=""question-area""></div> 
                </div>","null","","","","","","","","","","","",""
"","","","","","html-button-response","99","467932","0.0-99.0","61FFB453863242FDA4ED125D8E818F3C","019d0658-d4f5-7457-bce4-a5940ff9ad7b","019d0640-0a2d-7740-a972-9c73365b2dcb","","762","
                <div class=""stimulus-container"">
                    <img src=""images/causal_sequence/museum_causal/museum_causal_ten.png"" class=""exp-image"">
                    <div class=""question-area"">
                        <p style=""font-size: 20px; font-weight: bold; margin: 0;"">Is there a person in this image?</p>
                    </div>
                </div>","0","main_experiment_trial","ten","museum_causal","causal_sequence","chronological","","","","","","",""
"","","","","","html-keyboard-response","100","472933","0.0-100.0","61FFB453863242FDA4ED125D8E818F3C","019d0658-d4f5-7457-bce4-a5940ff9ad7b","019d0640-0a2d-7740-a972-9c73365b2dcb","","null","<div style=""background-color: white; width: 100vw; height: 100vh;""></div>","null","","","","","","","","","","","",""
"","","","","","html-keyboard-response","101","477936","0.0-101.0","61FFB453863242FDA4ED125D8E818F3C","019d0658-d4f5-7457-bce4-a5940ff9ad7b","019d0640-0a2d-7740-a972-9c73365b2dcb","","null","
                <div class=""stimulus-container"">
                    <img src=""images/causal_sequence/the_performance_causal/the_performance_causal_1.png"" class=""exp-image"">
                    <div class=""question-area""></div> 
                </div>","null","","","","","","","","","","","",""
"","","","","","html-button-response","102","478730","0.0-102.0","61FFB453863242FDA4ED125D8E818F3C","019d0658-d4f5-7457-bce4-a5940ff9ad7b","019d0640-0a2d-7740-a972-9c73365b2dcb","","793","
                <div class=""stimulus-container"">
                    <img src=""images/causal_sequence/the_performance_causal/the_performance_causal_1.png"" class=""exp-image"">
                    <div class=""question-area"">
                        <p style=""font-size: 20px; font-weight: bold; margin: 0;"">Is there a person in this image?</p>
                    </div>
                </div>","0","main_experiment_trial","1","the_performance_causal","causal_sequence","chronological","","","","","","",""
"","","","","","html-keyboard-response","103","483731","0.0-103.0","61FFB453863242FDA4ED125D8E818F3C","019d0658-d4f5-7457-bce4-a5940ff9ad7b","019d0640-0a2d-7740-a972-9c73365b2dcb","","null","
                <div class=""stimulus-container"">
                    <img src=""images/causal_sequence/the_performance_causal/the_performance_causal_2.png"" class=""exp-image"">
                    <div class=""question-area""></div> 
                </div>","null","","","","","","","","","","","",""
"","","","","","html-button-response","104","484242","0.0-104.0","61FFB453863242FDA4ED125D8E818F3C","019d0658-d4f5-7457-bce4-a5940ff9ad7b","019d0640-0a2d-7740-a972-9c73365b2dcb","","511","
                <div class=""stimulus-container"">
                    <img src=""images/causal_sequence/the_performance_causal/the_performance_causal_2.png"" class=""exp-image"">
                    <div class=""question-area"">
                        <p style=""font-size: 20px; font-weight: bold; margin: 0;"">Is there a person in this image?</p>
                    </div>
                </div>","0","main_experiment_trial","2","the_performance_causal","causal_sequence","chronological","","","","","","",""
"","","","","","html-keyboard-response","105","489245","0.0-105.0","61FFB453863242FDA4ED125D8E818F3C","019d0658-d4f5-7457-bce4-a5940ff9ad7b","019d0640-0a2d-7740-a972-9c73365b2dcb","","null","
                <div class=""stimulus-container"">
                    <img src=""images/causal_sequence/the_performance_causal/the_performance_causal_3.png"" class=""exp-image"">
                    <div class=""question-area""></div> 
                </div>","null","","","","","","","","","","","",""
"","","","","","html-button-response","106","489679","0.0-106.0","61FFB453863242FDA4ED125D8E818F3C","019d0658-d4f5-7457-bce4-a5940ff9ad7b","019d0640-0a2d-7740-a972-9c73365b2dcb","","433","
                <div class=""stimulus-container"">
                    <img src=""images/causal_sequence/the_performance_causal/the_performance_causal_3.png"" class=""exp-image"">
                    <div class=""question-area"">
                        <p style=""font-size: 20px; font-weight: bold; margin: 0;"">Is there a person in this image?</p>
                    </div>
                </div>","0","main_experiment_trial","3","the_performance_causal","causal_sequence","chronological","","","","","","",""
"","","","","","html-keyboard-response","107","494682","0.0-107.0","61FFB453863242FDA4ED125D8E818F3C","019d0658-d4f5-7457-bce4-a5940ff9ad7b","019d0640-0a2d-7740-a972-9c73365b2dcb","","null","
                <div class=""stimulus-container"">
                    <img src=""images/causal_sequence/the_performance_causal/the_performance_causal_4.png"" class=""exp-image"">
                    <div class=""question-area""></div> 
                </div>","null","","","","","","","","","","","",""
"","","","","","html-button-response","108","495330","0.0-108.0","61FFB453863242FDA4ED125D8E818F3C","019d0658-d4f5-7457-bce4-a5940ff9ad7b","019d0640-0a2d-7740-a972-9c73365b2dcb","","648","
                <div class=""stimulus-container"">
                    <img src=""images/causal_sequence/the_performance_causal/the_performance_causal_4.png"" class=""exp-image"">
                    <div class=""question-area"">
                        <p style=""font-size: 20px; font-weight: bold; margin: 0;"">Is there a person in this image?</p>
                    </div>
                </div>","0","main_experiment_trial","4","the_performance_causal","causal_sequence","chronological","","","","","","",""
"","","","","","html-keyboard-response","109","500333","0.0-109.0","61FFB453863242FDA4ED125D8E818F3C","019d0658-d4f5-7457-bce4-a5940ff9ad7b","019d0640-0a2d-7740-a972-9c73365b2dcb","","null","
                <div class=""stimulus-container"">
                    <img src=""images/causal_sequence/the_performance_causal/the_performance_causal_5.png"" class=""exp-image"">
                    <div class=""question-area""></div> 
                </div>","null","","","","","","","","","","","",""
"","","","","","html-button-response","110","501025","0.0-110.0","61FFB453863242FDA4ED125D8E818F3C","019d0658-d4f5-7457-bce4-a5940ff9ad7b","019d0640-0a2d-7740-a972-9c73365b2dcb","","692","
                <div class=""stimulus-container"">
                    <img src=""images/causal_sequence/the_performance_causal/the_performance_causal_5.png"" class=""exp-image"">
                    <div class=""question-area"">
                        <p style=""font-size: 20px; font-weight: bold; margin: 0;"">Is there a person in this image?</p>
                    </div>
                </div>","0","main_experiment_trial","5","the_performance_causal","causal_sequence","chronological","","","","","","",""
"","","","","","html-keyboard-response","111","506027","0.0-111.0","61FFB453863242FDA4ED125D8E818F3C","019d0658-d4f5-7457-bce4-a5940ff9ad7b","019d0640-0a2d-7740-a972-9c73365b2dcb","","null","
                <div class=""stimulus-container"">
                    <img src=""images/causal_sequence/the_performance_causal/the_performance_causal_6.png"" class=""exp-image"">
                    <div class=""question-area""></div> 
                </div>","null","","","","","","","","","","","",""
"","","","","","html-button-response","112","506446","0.0-112.0","61FFB453863242FDA4ED125D8E818F3C","019d0658-d4f5-7457-bce4-a5940ff9ad7b","019d0640-0a2d-7740-a972-9c73365b2dcb","","418","
                <div class=""stimulus-container"">
                    <img src=""images/causal_sequence/the_performance_causal/the_performance_causal_6.png"" class=""exp-image"">
                    <div class=""question-area"">
                        <p style=""font-size: 20px; font-weight: bold; margin: 0;"">Is there a person in this image?</p>
                    </div>
                </div>","0","main_experiment_trial","6","the_performance_causal","causal_sequence","chronological","","","","","","",""
"","","","","","html-keyboard-response","113","511448","0.0-113.0","61FFB453863242FDA4ED125D8E818F3C","019d0658-d4f5-7457-bce4-a5940ff9ad7b","019d0640-0a2d-7740-a972-9c73365b2dcb","","null","
                <div class=""stimulus-container"">
                    <img src=""images/causal_sequence/the_performance_causal/the_performance_causal_7.png"" class=""exp-image"">
                    <div class=""question-area""></div> 
                </div>","null","","","","","","","","","","","",""
"","","","","","html-button-response","114","511945","0.0-114.0","61FFB453863242FDA4ED125D8E818F3C","019d0658-d4f5-7457-bce4-a5940ff9ad7b","019d0640-0a2d-7740-a972-9c73365b2dcb","","496","
                <div class=""stimulus-container"">
                    <img src=""images/causal_sequence/the_performance_causal/the_performance_causal_7.png"" class=""exp-image"">
                    <div class=""question-area"">
                        <p style=""font-size: 20px; font-weight: bold; margin: 0;"">Is there a person in this image?</p>
                    </div>
                </div>","0","main_experiment_trial","7","the_performance_causal","causal_sequence","chronological","","","","","","",""
"","","","","","html-keyboard-response","115","516947","0.0-115.0","61FFB453863242FDA4ED125D8E818F3C","019d0658-d4f5-7457-bce4-a5940ff9ad7b","019d0640-0a2d-7740-a972-9c73365b2dcb","","null","
                <div class=""stimulus-container"">
                    <img src=""images/causal_sequence/the_performance_causal/the_performance_causal_8.png"" class=""exp-image"">
                    <div class=""question-area""></div> 
                </div>","null","","","","","","","","","","","",""
"","","","","","html-button-response","116","517574","0.0-116.0","61FFB453863242FDA4ED125D8E818F3C","019d0658-d4f5-7457-bce4-a5940ff9ad7b","019d0640-0a2d-7740-a972-9c73365b2dcb","","626","
                <div class=""stimulus-container"">
                    <img src=""images/causal_sequence/the_performance_causal/the_performance_causal_8.png"" class=""exp-image"">
                    <div class=""question-area"">
                        <p style=""font-size: 20px; font-weight: bold; margin: 0;"">Is there a person in this image?</p>
                    </div>
                </div>","0","main_experiment_trial","8","the_performance_causal","causal_sequence","chronological","","","","","","",""
"","","","","","html-keyboard-response","117","522575","0.0-117.0","61FFB453863242FDA4ED125D8E818F3C","019d0658-d4f5-7457-bce4-a5940ff9ad7b","019d0640-0a2d-7740-a972-9c73365b2dcb","","null","
                <div class=""stimulus-container"">
                    <img src=""images/causal_sequence/the_performance_causal/the_performance_causal_9.png"" class=""exp-image"">
                    <div class=""question-area""></div> 
                </div>","null","","","","","","","","","","","",""
"","","","","","html-button-response","118","523429","0.0-118.0","61FFB453863242FDA4ED125D8E818F3C","019d0658-d4f5-7457-bce4-a5940ff9ad7b","019d0640-0a2d-7740-a972-9c73365b2dcb","","853","
                <div class=""stimulus-container"">
                    <img src=""images/causal_sequence/the_performance_causal/the_performance_causal_9.png"" class=""exp-image"">
                    <div class=""question-area"">
                        <p style=""font-size: 20px; font-weight: bold; margin: 0;"">Is there a person in this image?</p>
                    </div>
                </div>","0","main_experiment_trial","9","the_performance_causal","causal_sequence","chronological","","","","","","",""
"","","","","","html-keyboard-response","119","528432","0.0-119.0","61FFB453863242FDA4ED125D8E818F3C","019d0658-d4f5-7457-bce4-a5940ff9ad7b","019d0640-0a2d-7740-a972-9c73365b2dcb","","null","
                <div class=""stimulus-container"">
                    <img src=""images/causal_sequence/the_performance_causal/the_performance_causal_ten.png"" class=""exp-image"">
                    <div class=""question-area""></div> 
                </div>","null","","","","","","","","","","","",""
"","","","","","html-button-response","120","529246","0.0-120.0","61FFB453863242FDA4ED125D8E818F3C","019d0658-d4f5-7457-bce4-a5940ff9ad7b","019d0640-0a2d-7740-a972-9c73365b2dcb","","813","
                <div class=""stimulus-container"">
                    <img src=""images/causal_sequence/the_performance_causal/the_performance_causal_ten.png"" class=""exp-image"">
                    <div class=""question-area"">
                        <p style=""font-size: 20px; font-weight: bold; margin: 0;"">Is there a person in this image?</p>
                    </div>
                </div>","0","main_experiment_trial","ten","the_performance_causal","causal_sequence","chronological","","","","","","",""
"","","","","","html-keyboard-response","121","534247","0.0-121.0","61FFB453863242FDA4ED125D8E818F3C","019d0658-d4f5-7457-bce4-a5940ff9ad7b","019d0640-0a2d-7740-a972-9c73365b2dcb","","null","<div style=""background-color: white; width: 100vw; height: 100vh;""></div>","null","","","","","","","","","","","",""
"","","","","","html-keyboard-response","122","539249","0.0-122.0","61FFB453863242FDA4ED125D8E818F3C","019d0658-d4f5-7457-bce4-a5940ff9ad7b","019d0640-0a2d-7740-a972-9c73365b2dcb","","null","
                <div class=""stimulus-container"">
                    <img src=""images/causal_sequence/saving_a_cat_causal/saving_a_cat_causal_1.png"" class=""exp-image"">
                    <div class=""question-area""></div> 
                </div>","null","","","","","","","","","","","",""
"","","","","","html-button-response","123","539676","0.0-123.0","61FFB453863242FDA4ED125D8E818F3C","019d0658-d4f5-7457-bce4-a5940ff9ad7b","019d0640-0a2d-7740-a972-9c73365b2dcb","","426","
                <div class=""stimulus-container"">
                    <img src=""images/causal_sequence/saving_a_cat_causal/saving_a_cat_causal_1.png"" class=""exp-image"">
                    <div class=""question-area"">
                        <p style=""font-size: 20px; font-weight: bold; margin: 0;"">Is there a person in this image?</p>
                    </div>
                </div>","0","main_experiment_trial","1","saving_a_cat_causal","causal_sequence","chronological","","","","","","",""
"","","","","","html-keyboard-response","124","544677","0.0-124.0","61FFB453863242FDA4ED125D8E818F3C","019d0658-d4f5-7457-bce4-a5940ff9ad7b","019d0640-0a2d-7740-a972-9c73365b2dcb","","null","
                <div class=""stimulus-container"">
                    <img src=""images/causal_sequence/saving_a_cat_causal/saving_a_cat_causal_2.png"" class=""exp-image"">
                    <div class=""question-area""></div> 
                </div>","null","","","","","","","","","","","",""
"","","","","","html-button-response","125","545607","0.0-125.0","61FFB453863242FDA4ED125D8E818F3C","019d0658-d4f5-7457-bce4-a5940ff9ad7b","019d0640-0a2d-7740-a972-9c73365b2dcb","","929","
                <div class=""stimulus-container"">
                    <img src=""images/causal_sequence/saving_a_cat_causal/saving_a_cat_causal_2.png"" class=""exp-image"">
                    <div class=""question-area"">
                        <p style=""font-size: 20px; font-weight: bold; margin: 0;"">Is there a person in this image?</p>
                    </div>
                </div>","1","main_experiment_trial","2","saving_a_cat_causal","causal_sequence","chronological","","","","","","",""
"","","","","","html-keyboard-response","126","550608","0.0-126.0","61FFB453863242FDA4ED125D8E818F3C","019d0658-d4f5-7457-bce4-a5940ff9ad7b","019d0640-0a2d-7740-a972-9c73365b2dcb","","null","
                <div class=""stimulus-container"">
                    <img src=""images/causal_sequence/saving_a_cat_causal/saving_a_cat_causal_3.png"" class=""exp-image"">
                    <div class=""question-area""></div> 
                </div>","null","","","","","","","","","","","",""
"","","","","","html-button-response","127","551063","0.0-127.0","61FFB453863242FDA4ED125D8E818F3C","019d0658-d4f5-7457-bce4-a5940ff9ad7b","019d0640-0a2d-7740-a972-9c73365b2dcb","","455","
                <div class=""stimulus-container"">
                    <img src=""images/causal_sequence/saving_a_cat_causal/saving_a_cat_causal_3.png"" class=""exp-image"">
                    <div class=""question-area"">
                        <p style=""font-size: 20px; font-weight: bold; margin: 0;"">Is there a person in this image?</p>
                    </div>
                </div>","1","main_experiment_trial","3","saving_a_cat_causal","causal_sequence","chronological","","","","","","",""
"","","","","","html-keyboard-response","128","556065","0.0-128.0","61FFB453863242FDA4ED125D8E818F3C","019d0658-d4f5-7457-bce4-a5940ff9ad7b","019d0640-0a2d-7740-a972-9c73365b2dcb","","null","
                <div class=""stimulus-container"">
                    <img src=""images/causal_sequence/saving_a_cat_causal/saving_a_cat_causal_4.png"" class=""exp-image"">
                    <div class=""question-area""></div> 
                </div>","null","","","","","","","","","","","",""
"","","","","","html-button-response","129","556512","0.0-129.0","61FFB453863242FDA4ED125D8E818F3C","019d0658-d4f5-7457-bce4-a5940ff9ad7b","019d0640-0a2d-7740-a972-9c73365b2dcb","","447","
                <div class=""stimulus-container"">
                    <img src=""images/causal_sequence/saving_a_cat_causal/saving_a_cat_causal_4.png"" class=""exp-image"">
                    <div class=""question-area"">
                        <p style=""font-size: 20px; font-weight: bold; margin: 0;"">Is there a person in this image?</p>
                    </div>
                </div>","0","main_experiment_trial","4","saving_a_cat_causal","causal_sequence","chronological","","","","","","",""
"","","","","","html-keyboard-response","130","561514","0.0-130.0","61FFB453863242FDA4ED125D8E818F3C","019d0658-d4f5-7457-bce4-a5940ff9ad7b","019d0640-0a2d-7740-a972-9c73365b2dcb","","null","
                <div class=""stimulus-container"">
                    <img src=""images/causal_sequence/saving_a_cat_causal/saving_a_cat_causal_5.png"" class=""exp-image"">
                    <div class=""question-area""></div> 
                </div>","null","","","","","","","","","","","",""
"","","","","","html-button-response","131","562047","0.0-131.0","61FFB453863242FDA4ED125D8E818F3C","019d0658-d4f5-7457-bce4-a5940ff9ad7b","019d0640-0a2d-7740-a972-9c73365b2dcb","","533","
                <div class=""stimulus-container"">
                    <img src=""images/causal_sequence/saving_a_cat_causal/saving_a_cat_causal_5.png"" class=""exp-image"">
                    <div class=""question-area"">
                        <p style=""font-size: 20px; font-weight: bold; margin: 0;"">Is there a person in this image?</p>
                    </div>
                </div>","0","main_experiment_trial","5","saving_a_cat_causal","causal_sequence","chronological","","","","","","",""
"","","","","","html-keyboard-response","132","567050","0.0-132.0","61FFB453863242FDA4ED125D8E818F3C","019d0658-d4f5-7457-bce4-a5940ff9ad7b","019d0640-0a2d-7740-a972-9c73365b2dcb","","null","
                <div class=""stimulus-container"">
                    <img src=""images/causal_sequence/saving_a_cat_causal/saving_a_cat_causal_6.png"" class=""exp-image"">
                    <div class=""question-area""></div> 
                </div>","null","","","","","","","","","","","",""
"","","","","","html-button-response","133","567542","0.0-133.0","61FFB453863242FDA4ED125D8E818F3C","019d0658-d4f5-7457-bce4-a5940ff9ad7b","019d0640-0a2d-7740-a972-9c73365b2dcb","","492","
                <div class=""stimulus-container"">
                    <img src=""images/causal_sequence/saving_a_cat_causal/saving_a_cat_causal_6.png"" class=""exp-image"">
                    <div class=""question-area"">
                        <p style=""font-size: 20px; font-weight: bold; margin: 0;"">Is there a person in this image?</p>
                    </div>
                </div>","0","main_experiment_trial","6","saving_a_cat_causal","causal_sequence","chronological","","","","","","",""
"","","","","","html-keyboard-response","134","572545","0.0-134.0","61FFB453863242FDA4ED125D8E818F3C","019d0658-d4f5-7457-bce4-a5940ff9ad7b","019d0640-0a2d-7740-a972-9c73365b2dcb","","null","
                <div class=""stimulus-container"">
                    <img src=""images/causal_sequence/saving_a_cat_causal/saving_a_cat_causal_7.png"" class=""exp-image"">
                    <div class=""question-area""></div> 
                </div>","null","","","","","","","","","","","",""
"","","","","","html-button-response","135","572949","0.0-135.0","61FFB453863242FDA4ED125D8E818F3C","019d0658-d4f5-7457-bce4-a5940ff9ad7b","019d0640-0a2d-7740-a972-9c73365b2dcb","","403","
                <div class=""stimulus-container"">
                    <img src=""images/causal_sequence/saving_a_cat_causal/saving_a_cat_causal_7.png"" class=""exp-image"">
                    <div class=""question-area"">
                        <p style=""font-size: 20px; font-weight: bold; margin: 0;"">Is there a person in this image?</p>
                    </div>
                </div>","0","main_experiment_trial","7","saving_a_cat_causal","causal_sequence","chronological","","","","","","",""
"","","","","","html-keyboard-response","136","577951","0.0-136.0","61FFB453863242FDA4ED125D8E818F3C","019d0658-d4f5-7457-bce4-a5940ff9ad7b","019d0640-0a2d-7740-a972-9c73365b2dcb","","null","
                <div class=""stimulus-container"">
                    <img src=""images/causal_sequence/saving_a_cat_causal/saving_a_cat_causal_8.png"" class=""exp-image"">
                    <div class=""question-area""></div> 
                </div>","null","","","","","","","","","","","",""
"","","","","","html-button-response","137","578360","0.0-137.0","61FFB453863242FDA4ED125D8E818F3C","019d0658-d4f5-7457-bce4-a5940ff9ad7b","019d0640-0a2d-7740-a972-9c73365b2dcb","","408","
                <div class=""stimulus-container"">
                    <img src=""images/causal_sequence/saving_a_cat_causal/saving_a_cat_causal_8.png"" class=""exp-image"">
                    <div class=""question-area"">
                        <p style=""font-size: 20px; font-weight: bold; margin: 0;"">Is there a person in this image?</p>
                    </div>
                </div>","0","main_experiment_trial","8","saving_a_cat_causal","causal_sequence","chronological","","","","","","",""
"","","","","","html-keyboard-response","138","583362","0.0-138.0","61FFB453863242FDA4ED125D8E818F3C","019d0658-d4f5-7457-bce4-a5940ff9ad7b","019d0640-0a2d-7740-a972-9c73365b2dcb","","null","
                <div class=""stimulus-container"">
                    <img src=""images/causal_sequence/saving_a_cat_causal/saving_a_cat_causal_9.png"" class=""exp-image"">
                    <div class=""question-area""></div> 
                </div>","null","","","","","","","","","","","",""
"","","","","","html-button-response","139","583841","0.0-139.0","61FFB453863242FDA4ED125D8E818F3C","019d0658-d4f5-7457-bce4-a5940ff9ad7b","019d0640-0a2d-7740-a972-9c73365b2dcb","","478","
                <div class=""stimulus-container"">
                    <img src=""images/causal_sequence/saving_a_cat_causal/saving_a_cat_causal_9.png"" class=""exp-image"">
                    <div class=""question-area"">
                        <p style=""font-size: 20px; font-weight: bold; margin: 0;"">Is there a person in this image?</p>
                    </div>
                </div>","0","main_experiment_trial","9","saving_a_cat_causal","causal_sequence","chronological","","","","","","",""
"","","","","","html-keyboard-response","140","588842","0.0-140.0","61FFB453863242FDA4ED125D8E818F3C","019d0658-d4f5-7457-bce4-a5940ff9ad7b","019d0640-0a2d-7740-a972-9c73365b2dcb","","null","
                <div class=""stimulus-container"">
                    <img src=""images/causal_sequence/saving_a_cat_causal/saving_a_cat_causal_ten.png"" class=""exp-image"">
                    <div class=""question-area""></div> 
                </div>","null","","","","","","","","","","","",""
"","","","","","html-button-response","141","589331","0.0-141.0","61FFB453863242FDA4ED125D8E818F3C","019d0658-d4f5-7457-bce4-a5940ff9ad7b","019d0640-0a2d-7740-a972-9c73365b2dcb","","489","
                <div class=""stimulus-container"">
                    <img src=""images/causal_sequence/saving_a_cat_causal/saving_a_cat_causal_ten.png"" class=""exp-image"">
                    <div class=""question-area"">
                        <p style=""font-size: 20px; font-weight: bold; margin: 0;"">Is there a person in this image?</p>
                    </div>
                </div>","0","main_experiment_trial","ten","saving_a_cat_causal","causal_sequence","chronological","","","","","","",""
"","","","","","html-keyboard-response","142","594333","0.0-142.0","61FFB453863242FDA4ED125D8E818F3C","019d0658-d4f5-7457-bce4-a5940ff9ad7b","019d0640-0a2d-7740-a972-9c73365b2dcb","","null","<div style=""background-color: white; width: 100vw; height: 100vh;""></div>","null","","","","","","","","","","","",""
"","","","","","html-keyboard-response","143","599335","0.0-143.0","61FFB453863242FDA4ED125D8E818F3C","019d0658-d4f5-7457-bce4-a5940ff9ad7b","019d0640-0a2d-7740-a972-9c73365b2dcb","","null","
                <div class=""stimulus-container"">
                    <img src=""images/causal_sequence/coin_causal/coin_causal_1.png"" class=""exp-image"">
                    <div class=""question-area""></div> 
                </div>","null","","","","","","","","","","","",""
"","","","","","html-button-response","144","599809","0.0-144.0","61FFB453863242FDA4ED125D8E818F3C","019d0658-d4f5-7457-bce4-a5940ff9ad7b","019d0640-0a2d-7740-a972-9c73365b2dcb","","474","
                <div class=""stimulus-container"">
                    <img src=""images/causal_sequence/coin_causal/coin_causal_1.png"" class=""exp-image"">
                    <div class=""question-area"">
                        <p style=""font-size: 20px; font-weight: bold; margin: 0;"">Is there a person in this image?</p>
                    </div>
                </div>","0","main_experiment_trial","1","coin_causal","causal_sequence","chronological","","","","","","",""
"","","","","","html-keyboard-response","145","604811","0.0-145.0","61FFB453863242FDA4ED125D8E818F3C","019d0658-d4f5-7457-bce4-a5940ff9ad7b","019d0640-0a2d-7740-a972-9c73365b2dcb","","null","
                <div class=""stimulus-container"">
                    <img src=""images/causal_sequence/coin_causal/coin_causal_2.png"" class=""exp-image"">
                    <div class=""question-area""></div> 
                </div>","null","","","","","","","","","","","",""
"","","","","","html-button-response","146","605250","0.0-146.0","61FFB453863242FDA4ED125D8E818F3C","019d0658-d4f5-7457-bce4-a5940ff9ad7b","019d0640-0a2d-7740-a972-9c73365b2dcb","","439","
                <div class=""stimulus-container"">
                    <img src=""images/causal_sequence/coin_causal/coin_causal_2.png"" class=""exp-image"">
                    <div class=""question-area"">
                        <p style=""font-size: 20px; font-weight: bold; margin: 0;"">Is there a person in this image?</p>
                    </div>
                </div>","0","main_experiment_trial","2","coin_causal","causal_sequence","chronological","","","","","","",""
"","","","","","html-keyboard-response","147","610251","0.0-147.0","61FFB453863242FDA4ED125D8E818F3C","019d0658-d4f5-7457-bce4-a5940ff9ad7b","019d0640-0a2d-7740-a972-9c73365b2dcb","","null","
                <div class=""stimulus-container"">
                    <img src=""images/causal_sequence/coin_causal/coin_causal_3.png"" class=""exp-image"">
                    <div class=""question-area""></div> 
                </div>","null","","","","","","","","","","","",""
"","","","","","html-button-response","148","610639","0.0-148.0","61FFB453863242FDA4ED125D8E818F3C","019d0658-d4f5-7457-bce4-a5940ff9ad7b","019d0640-0a2d-7740-a972-9c73365b2dcb","","387","
                <div class=""stimulus-container"">
                    <img src=""images/causal_sequence/coin_causal/coin_causal_3.png"" class=""exp-image"">
                    <div class=""question-area"">
                        <p style=""font-size: 20px; font-weight: bold; margin: 0;"">Is there a person in this image?</p>
                    </div>
                </div>","0","main_experiment_trial","3","coin_causal","causal_sequence","chronological","","","","","","",""
"","","","","","html-keyboard-response","149","615641","0.0-149.0","61FFB453863242FDA4ED125D8E818F3C","019d0658-d4f5-7457-bce4-a5940ff9ad7b","019d0640-0a2d-7740-a972-9c73365b2dcb","","null","
                <div class=""stimulus-container"">
                    <img src=""images/causal_sequence/coin_causal/coin_causal_4.png"" class=""exp-image"">
                    <div class=""question-area""></div> 
                </div>","null","","","","","","","","","","","",""
"","","","","","html-button-response","150","616004","0.0-150.0","61FFB453863242FDA4ED125D8E818F3C","019d0658-d4f5-7457-bce4-a5940ff9ad7b","019d0640-0a2d-7740-a972-9c73365b2dcb","","363","
                <div class=""stimulus-container"">
                    <img src=""images/causal_sequence/coin_causal/coin_causal_4.png"" class=""exp-image"">
                    <div class=""question-area"">
                        <p style=""font-size: 20px; font-weight: bold; margin: 0;"">Is there a person in this image?</p>
                    </div>
                </div>","0","main_experiment_trial","4","coin_causal","causal_sequence","chronological","","","","","","",""
"","","","","","html-keyboard-response","151","621005","0.0-151.0","61FFB453863242FDA4ED125D8E818F3C","019d0658-d4f5-7457-bce4-a5940ff9ad7b","019d0640-0a2d-7740-a972-9c73365b2dcb","","null","
                <div class=""stimulus-container"">
                    <img src=""images/causal_sequence/coin_causal/coin_causal_5.png"" class=""exp-image"">
                    <div class=""question-area""></div> 
                </div>","null","","","","","","","","","","","",""
"","","","","","html-button-response","152","621575","0.0-152.0","61FFB453863242FDA4ED125D8E818F3C","019d0658-d4f5-7457-bce4-a5940ff9ad7b","019d0640-0a2d-7740-a972-9c73365b2dcb","","569","
                <div class=""stimulus-container"">
                    <img src=""images/causal_sequence/coin_causal/coin_causal_5.png"" class=""exp-image"">
                    <div class=""question-area"">
                        <p style=""font-size: 20px; font-weight: bold; margin: 0;"">Is there a person in this image?</p>
                    </div>
                </div>","0","main_experiment_trial","5","coin_causal","causal_sequence","chronological","","","","","","",""
"","","","","","html-keyboard-response","153","626576","0.0-153.0","61FFB453863242FDA4ED125D8E818F3C","019d0658-d4f5-7457-bce4-a5940ff9ad7b","019d0640-0a2d-7740-a972-9c73365b2dcb","","null","
                <div class=""stimulus-container"">
                    <img src=""images/causal_sequence/coin_causal/coin_causal_6.png"" class=""exp-image"">
                    <div class=""question-area""></div> 
                </div>","null","","","","","","","","","","","",""
"","","","","","html-button-response","154","627026","0.0-154.0","61FFB453863242FDA4ED125D8E818F3C","019d0658-d4f5-7457-bce4-a5940ff9ad7b","019d0640-0a2d-7740-a972-9c73365b2dcb","","449","
                <div class=""stimulus-container"">
                    <img src=""images/causal_sequence/coin_causal/coin_causal_6.png"" class=""exp-image"">
                    <div class=""question-area"">
                        <p style=""font-size: 20px; font-weight: bold; margin: 0;"">Is there a person in this image?</p>
                    </div>
                </div>","0","main_experiment_trial","6","coin_causal","causal_sequence","chronological","","","","","","",""
"","","","","","html-keyboard-response","155","632027","0.0-155.0","61FFB453863242FDA4ED125D8E818F3C","019d0658-d4f5-7457-bce4-a5940ff9ad7b","019d0640-0a2d-7740-a972-9c73365b2dcb","","null","
                <div class=""stimulus-container"">
                    <img src=""images/causal_sequence/coin_causal/coin_causal_7.png"" class=""exp-image"">
                    <div class=""question-area""></div> 
                </div>","null","","","","","","","","","","","",""
"","","","","","html-button-response","156","632815","0.0-156.0","61FFB453863242FDA4ED125D8E818F3C","019d0658-d4f5-7457-bce4-a5940ff9ad7b","019d0640-0a2d-7740-a972-9c73365b2dcb","","787","
                <div class=""stimulus-container"">
                    <img src=""images/causal_sequence/coin_causal/coin_causal_7.png"" class=""exp-image"">
                    <div class=""question-area"">
                        <p style=""font-size: 20px; font-weight: bold; margin: 0;"">Is there a person in this image?</p>
                    </div>
                </div>","1","main_experiment_trial","7","coin_causal","causal_sequence","chronological","","","","","","",""
"","","","","","html-keyboard-response","157","637817","0.0-157.0","61FFB453863242FDA4ED125D8E818F3C","019d0658-d4f5-7457-bce4-a5940ff9ad7b","019d0640-0a2d-7740-a972-9c73365b2dcb","","null","
                <div class=""stimulus-container"">
                    <img src=""images/causal_sequence/coin_causal/coin_causal_8.png"" class=""exp-image"">
                    <div class=""question-area""></div> 
                </div>","null","","","","","","","","","","","",""
"","","","","","html-button-response","158","638224","0.0-158.0","61FFB453863242FDA4ED125D8E818F3C","019d0658-d4f5-7457-bce4-a5940ff9ad7b","019d0640-0a2d-7740-a972-9c73365b2dcb","","406","
                <div class=""stimulus-container"">
                    <img src=""images/causal_sequence/coin_causal/coin_causal_8.png"" class=""exp-image"">
                    <div class=""question-area"">
                        <p style=""font-size: 20px; font-weight: bold; margin: 0;"">Is there a person in this image?</p>
                    </div>
                </div>","0","main_experiment_trial","8","coin_causal","causal_sequence","chronological","","","","","","",""
"","","","","","html-keyboard-response","159","643226","0.0-159.0","61FFB453863242FDA4ED125D8E818F3C","019d0658-d4f5-7457-bce4-a5940ff9ad7b","019d0640-0a2d-7740-a972-9c73365b2dcb","","null","
                <div class=""stimulus-container"">
                    <img src=""images/causal_sequence/coin_causal/coin_causal_9.png"" class=""exp-image"">
                    <div class=""question-area""></div> 
                </div>","null","","","","","","","","","","","",""
"","","","","","html-button-response","160","643912","0.0-160.0","61FFB453863242FDA4ED125D8E818F3C","019d0658-d4f5-7457-bce4-a5940ff9ad7b","019d0640-0a2d-7740-a972-9c73365b2dcb","","686","
                <div class=""stimulus-container"">
                    <img src=""images/causal_sequence/coin_causal/coin_causal_9.png"" class=""exp-image"">
                    <div class=""question-area"">
                        <p style=""font-size: 20px; font-weight: bold; margin: 0;"">Is there a person in this image?</p>
                    </div>
                </div>","0","main_experiment_trial","9","coin_causal","causal_sequence","chronological","","","","","","",""
"","","","","","html-keyboard-response","161","648916","0.0-161.0","61FFB453863242FDA4ED125D8E818F3C","019d0658-d4f5-7457-bce4-a5940ff9ad7b","019d0640-0a2d-7740-a972-9c73365b2dcb","","null","
                <div class=""stimulus-container"">
                    <img src=""images/causal_sequence/coin_causal/coin_causal_ten.png"" class=""exp-image"">
                    <div class=""question-area""></div> 
                </div>","null","","","","","","","","","","","",""
"","","","","","html-button-response","162","649315","0.0-162.0","61FFB453863242FDA4ED125D8E818F3C","019d0658-d4f5-7457-bce4-a5940ff9ad7b","019d0640-0a2d-7740-a972-9c73365b2dcb","","399","
                <div class=""stimulus-container"">
                    <img src=""images/causal_sequence/coin_causal/coin_causal_ten.png"" class=""exp-image"">
                    <div class=""question-area"">
                        <p style=""font-size: 20px; font-weight: bold; margin: 0;"">Is there a person in this image?</p>
                    </div>
                </div>","0","main_experiment_trial","ten","coin_causal","causal_sequence","chronological","","","","","","",""
"","","","","","html-keyboard-response","163","654317","0.0-163.0","61FFB453863242FDA4ED125D8E818F3C","019d0658-d4f5-7457-bce4-a5940ff9ad7b","019d0640-0a2d-7740-a972-9c73365b2dcb","","null","<div style=""background-color: white; width: 100vw; height: 100vh;""></div>","null","","","","","","","","","","","",""
"","","","","","html-keyboard-response","164","659319","0.0-164.0","61FFB453863242FDA4ED125D8E818F3C","019d0658-d4f5-7457-bce4-a5940ff9ad7b","019d0640-0a2d-7740-a972-9c73365b2dcb","","null","
                <div class=""stimulus-container"">
                    <img src=""images/schematic_sequence/hotel_scheme/hotel_scheme_1.png"" class=""exp-image"">
                    <div class=""question-area""></div> 
                </div>","null","","","","","","","","","","","",""
"","","","","","html-button-response","165","660143","0.0-165.0","61FFB453863242FDA4ED125D8E818F3C","019d0658-d4f5-7457-bce4-a5940ff9ad7b","019d0640-0a2d-7740-a972-9c73365b2dcb","","823","
                <div class=""stimulus-container"">
                    <img src=""images/schematic_sequence/hotel_scheme/hotel_scheme_1.png"" class=""exp-image"">
                    <div class=""question-area"">
                        <p style=""font-size: 20px; font-weight: bold; margin: 0;"">Is there a person in this image?</p>
                    </div>
                </div>","1","main_experiment_trial","1","hotel_scheme","schematic_sequence","chronological","","","","","","",""
"","","","","","html-keyboard-response","166","665144","0.0-166.0","61FFB453863242FDA4ED125D8E818F3C","019d0658-d4f5-7457-bce4-a5940ff9ad7b","019d0640-0a2d-7740-a972-9c73365b2dcb","","null","
                <div class=""stimulus-container"">
                    <img src=""images/schematic_sequence/hotel_scheme/hotel_scheme_2.png"" class=""exp-image"">
                    <div class=""question-area""></div> 
                </div>","null","","","","","","","","","","","",""
"","","","","","html-button-response","167","665638","0.0-167.0","61FFB453863242FDA4ED125D8E818F3C","019d0658-d4f5-7457-bce4-a5940ff9ad7b","019d0640-0a2d-7740-a972-9c73365b2dcb","","494","
                <div class=""stimulus-container"">
                    <img src=""images/schematic_sequence/hotel_scheme/hotel_scheme_2.png"" class=""exp-image"">
                    <div class=""question-area"">
                        <p style=""font-size: 20px; font-weight: bold; margin: 0;"">Is there a person in this image?</p>
                    </div>
                </div>","0","main_experiment_trial","2","hotel_scheme","schematic_sequence","chronological","","","","","","",""
"","","","","","html-keyboard-response","168","670640","0.0-168.0","61FFB453863242FDA4ED125D8E818F3C","019d0658-d4f5-7457-bce4-a5940ff9ad7b","019d0640-0a2d-7740-a972-9c73365b2dcb","","null","
                <div class=""stimulus-container"">
                    <img src=""images/schematic_sequence/hotel_scheme/hotel_scheme_3.png"" class=""exp-image"">
                    <div class=""question-area""></div> 
                </div>","null","","","","","","","","","","","",""
"","","","","","html-button-response","169","671185","0.0-169.0","61FFB453863242FDA4ED125D8E818F3C","019d0658-d4f5-7457-bce4-a5940ff9ad7b","019d0640-0a2d-7740-a972-9c73365b2dcb","","544","
                <div class=""stimulus-container"">
                    <img src=""images/schematic_sequence/hotel_scheme/hotel_scheme_3.png"" class=""exp-image"">
                    <div class=""question-area"">
                        <p style=""font-size: 20px; font-weight: bold; margin: 0;"">Is there a person in this image?</p>
                    </div>
                </div>","0","main_experiment_trial","3","hotel_scheme","schematic_sequence","chronological","","","","","","",""
"","","","","","html-keyboard-response","170","676186","0.0-170.0","61FFB453863242FDA4ED125D8E818F3C","019d0658-d4f5-7457-bce4-a5940ff9ad7b","019d0640-0a2d-7740-a972-9c73365b2dcb","","null","
                <div class=""stimulus-container"">
                    <img src=""images/schematic_sequence/hotel_scheme/hotel_scheme_4.png"" class=""exp-image"">
                    <div class=""question-area""></div> 
                </div>","null","","","","","","","","","","","",""
"","","","","","html-button-response","171","676808","0.0-171.0","61FFB453863242FDA4ED125D8E818F3C","019d0658-d4f5-7457-bce4-a5940ff9ad7b","019d0640-0a2d-7740-a972-9c73365b2dcb","","621","
                <div class=""stimulus-container"">
                    <img src=""images/schematic_sequence/hotel_scheme/hotel_scheme_4.png"" class=""exp-image"">
                    <div class=""question-area"">
                        <p style=""font-size: 20px; font-weight: bold; margin: 0;"">Is there a person in this image?</p>
                    </div>
                </div>","1","main_experiment_trial","4","hotel_scheme","schematic_sequence","chronological","","","","","","",""
"","","","","","html-keyboard-response","172","681809","0.0-172.0","61FFB453863242FDA4ED125D8E818F3C","019d0658-d4f5-7457-bce4-a5940ff9ad7b","019d0640-0a2d-7740-a972-9c73365b2dcb","","null","
                <div class=""stimulus-container"">
                    <img src=""images/schematic_sequence/hotel_scheme/hotel_scheme_5.png"" class=""exp-image"">
                    <div class=""question-area""></div> 
                </div>","null","","","","","","","","","","","",""
"","","","","","html-button-response","173","682377","0.0-173.0","61FFB453863242FDA4ED125D8E818F3C","019d0658-d4f5-7457-bce4-a5940ff9ad7b","019d0640-0a2d-7740-a972-9c73365b2dcb","","567","
                <div class=""stimulus-container"">
                    <img src=""images/schematic_sequence/hotel_scheme/hotel_scheme_5.png"" class=""exp-image"">
                    <div class=""question-area"">
                        <p style=""font-size: 20px; font-weight: bold; margin: 0;"">Is there a person in this image?</p>
                    </div>
                </div>","0","main_experiment_trial","5","hotel_scheme","schematic_sequence","chronological","","","","","","",""
"","","","","","html-keyboard-response","174","687379","0.0-174.0","61FFB453863242FDA4ED125D8E818F3C","019d0658-d4f5-7457-bce4-a5940ff9ad7b","019d0640-0a2d-7740-a972-9c73365b2dcb","","null","
                <div class=""stimulus-container"">
                    <img src=""images/schematic_sequence/hotel_scheme/hotel_scheme_6.png"" class=""exp-image"">
                    <div class=""question-area""></div> 
                </div>","null","","","","","","","","","","","",""
"","","","","","html-button-response","175","687890","0.0-175.0","61FFB453863242FDA4ED125D8E818F3C","019d0658-d4f5-7457-bce4-a5940ff9ad7b","019d0640-0a2d-7740-a972-9c73365b2dcb","","510","
                <div class=""stimulus-container"">
                    <img src=""images/schematic_sequence/hotel_scheme/hotel_scheme_6.png"" class=""exp-image"">
                    <div class=""question-area"">
                        <p style=""font-size: 20px; font-weight: bold; margin: 0;"">Is there a person in this image?</p>
                    </div>
                </div>","0","main_experiment_trial","6","hotel_scheme","schematic_sequence","chronological","","","","","","",""
"","","","","","html-keyboard-response","176","692892","0.0-176.0","61FFB453863242FDA4ED125D8E818F3C","019d0658-d4f5-7457-bce4-a5940ff9ad7b","019d0640-0a2d-7740-a972-9c73365b2dcb","","null","
                <div class=""stimulus-container"">
                    <img src=""images/schematic_sequence/hotel_scheme/hotel_scheme_7.png"" class=""exp-image"">
                    <div class=""question-area""></div> 
                </div>","null","","","","","","","","","","","",""
"","","","","","html-button-response","177","693426","0.0-177.0","61FFB453863242FDA4ED125D8E818F3C","019d0658-d4f5-7457-bce4-a5940ff9ad7b","019d0640-0a2d-7740-a972-9c73365b2dcb","","534","
                <div class=""stimulus-container"">
                    <img src=""images/schematic_sequence/hotel_scheme/hotel_scheme_7.png"" class=""exp-image"">
                    <div class=""question-area"">
                        <p style=""font-size: 20px; font-weight: bold; margin: 0;"">Is there a person in this image?</p>
                    </div>
                </div>","0","main_experiment_trial","7","hotel_scheme","schematic_sequence","chronological","","","","","","",""
"","","","","","html-keyboard-response","178","698428","0.0-178.0","61FFB453863242FDA4ED125D8E818F3C","019d0658-d4f5-7457-bce4-a5940ff9ad7b","019d0640-0a2d-7740-a972-9c73365b2dcb","","null","
                <div class=""stimulus-container"">
                    <img src=""images/schematic_sequence/hotel_scheme/hotel_scheme_8.png"" class=""exp-image"">
