"success","timeout","failed_images","failed_audio","failed_video","trial_type","trial_index","time_elapsed","internal_node_id","subject_id","study_id","session_id","view_history","rt","stimulus","response","task","image_index","folder","sequence_type","presentation_order","valuable_image_index","reward_type","distance_from_x","target_X","chosen_image_index","is_x_plus_dist","correct_choice"
"true","false","[]","[]","[]","preload","0","3711","0.0-0.0","20EB18E26D1546B89F918972DE60D9A9","019d0656-09b7-7ae5-b7cd-b3e218ab5f6f","019d0640-0a2d-7740-a972-9c73365b2dcb","","","","","","","","","","","","","","","",""
"","","","","","instructions","1","7249","0.0-1.0","20EB18E26D1546B89F918972DE60D9A9","019d0656-09b7-7ae5-b7cd-b3e218ab5f6f","019d0640-0a2d-7740-a972-9c73365b2dcb","[{""page_index"":0,""viewing_time"":3536}]","3537","","","","","","","","","","","","","",""
"","","","","","instructions","2","15226","0.0-2.0","20EB18E26D1546B89F918972DE60D9A9","019d0656-09b7-7ae5-b7cd-b3e218ab5f6f","019d0640-0a2d-7740-a972-9c73365b2dcb","[{""page_index"":0,""viewing_time"":7976}]","7976","","","","","","","","","","","","","",""
"true","","","","","fullscreen","3","22762","0.0-3.0","20EB18E26D1546B89F918972DE60D9A9","019d0656-09b7-7ae5-b7cd-b3e218ab5f6f","019d0640-0a2d-7740-a972-9c73365b2dcb","","6529","","","","","","","","","","","","","",""
"","","","","","instructions","4","32521","0.0-4.0","20EB18E26D1546B89F918972DE60D9A9","019d0656-09b7-7ae5-b7cd-b3e218ab5f6f","019d0640-0a2d-7740-a972-9c73365b2dcb","[{""page_index"":0,""viewing_time"":9758}]","9759","","","","","","","","","","","","","",""
"","","","","","instructions","5","40192","0.0-5.0","20EB18E26D1546B89F918972DE60D9A9","019d0656-09b7-7ae5-b7cd-b3e218ab5f6f","019d0640-0a2d-7740-a972-9c73365b2dcb","[{""page_index"":0,""viewing_time"":7671}]","7671","","","","","","","","","","","","","",""
"","","","","","html-keyboard-response","6","44195","0.0-6.0","20EB18E26D1546B89F918972DE60D9A9","019d0656-09b7-7ae5-b7cd-b3e218ab5f6f","019d0640-0a2d-7740-a972-9c73365b2dcb","","null","
                <div class=""stimulus-container"">
                    <img src=""images/instructions/movie_1.png"" class=""exp-image"">
                    <div class=""question-area""></div> 
                </div>","null","","","","","","","","","","","",""
"","","","","","html-button-response","7","46091","0.0-7.0","20EB18E26D1546B89F918972DE60D9A9","019d0656-09b7-7ae5-b7cd-b3e218ab5f6f","019d0640-0a2d-7740-a972-9c73365b2dcb","","1895","
                <div class=""stimulus-container"">
                    <img src=""images/instructions/movie_1.png"" class=""exp-image"">
                    <div class=""question-area"">
                        <p style=""font-size: 20px; font-weight: bold; margin: 0;"">Was there a person in this image?</p>
                    </div>
                </div>","0","example_question","1","","","","","","","","","",""
"","","","","","html-keyboard-response","8","50094","0.0-8.0","20EB18E26D1546B89F918972DE60D9A9","019d0656-09b7-7ae5-b7cd-b3e218ab5f6f","019d0640-0a2d-7740-a972-9c73365b2dcb","","null","
                <div class=""stimulus-container"">
                    <img src=""images/instructions/movie_2.png"" class=""exp-image"">
                    <div class=""question-area""></div> 
                </div>","null","","","","","","","","","","","",""
"","","","","","html-button-response","9","51666","0.0-9.0","20EB18E26D1546B89F918972DE60D9A9","019d0656-09b7-7ae5-b7cd-b3e218ab5f6f","019d0640-0a2d-7740-a972-9c73365b2dcb","","1570","
                <div class=""stimulus-container"">
                    <img src=""images/instructions/movie_2.png"" class=""exp-image"">
                    <div class=""question-area"">
                        <p style=""font-size: 20px; font-weight: bold; margin: 0;"">Was there a person in this image?</p>
                    </div>
                </div>","0","example_question","2","","","","","","","","","",""
"","","","","","html-keyboard-response","10","55668","0.0-10.0","20EB18E26D1546B89F918972DE60D9A9","019d0656-09b7-7ae5-b7cd-b3e218ab5f6f","019d0640-0a2d-7740-a972-9c73365b2dcb","","null","
                <div class=""stimulus-container"">
                    <img src=""images/instructions/movie_3.png"" class=""exp-image"">
                    <div class=""question-area""></div> 
                </div>","null","","","","","","","","","","","",""
"","","","","","html-button-response","11","56891","0.0-11.0","20EB18E26D1546B89F918972DE60D9A9","019d0656-09b7-7ae5-b7cd-b3e218ab5f6f","019d0640-0a2d-7740-a972-9c73365b2dcb","","1222","
                <div class=""stimulus-container"">
                    <img src=""images/instructions/movie_3.png"" class=""exp-image"">
                    <div class=""question-area"">
                        <p style=""font-size: 20px; font-weight: bold; margin: 0;"">Was there a person in this image?</p>
                    </div>
                </div>","0","example_question","3","","","","","","","","","",""
"","","","","","html-keyboard-response","12","60894","0.0-12.0","20EB18E26D1546B89F918972DE60D9A9","019d0656-09b7-7ae5-b7cd-b3e218ab5f6f","019d0640-0a2d-7740-a972-9c73365b2dcb","","null","
                <div class=""stimulus-container"">
                    <img src=""images/instructions/movie_4.png"" class=""exp-image"">
                    <div class=""question-area""></div> 
                </div>","null","","","","","","","","","","","",""
"","","","","","html-button-response","13","62744","0.0-13.0","20EB18E26D1546B89F918972DE60D9A9","019d0656-09b7-7ae5-b7cd-b3e218ab5f6f","019d0640-0a2d-7740-a972-9c73365b2dcb","","1850","
                <div class=""stimulus-container"">
                    <img src=""images/instructions/movie_4.png"" class=""exp-image"">
                    <div class=""question-area"">
                        <p style=""font-size: 20px; font-weight: bold; margin: 0;"">Was there a person in this image?</p>
                    </div>
                </div>","0","example_question","4","","","","","","","","","",""
"","","","","","instructions","14","64924","0.0-14.0","20EB18E26D1546B89F918972DE60D9A9","019d0656-09b7-7ae5-b7cd-b3e218ab5f6f","019d0640-0a2d-7740-a972-9c73365b2dcb","[{""page_index"":0,""viewing_time"":2179}]","2180","","","","","","","","","","","","","",""
"","","","","","instructions","15","71126","0.0-15.0","20EB18E26D1546B89F918972DE60D9A9","019d0656-09b7-7ae5-b7cd-b3e218ab5f6f","019d0640-0a2d-7740-a972-9c73365b2dcb","[{""page_index"":0,""viewing_time"":6202}]","6202","","","","","","","","","","","","","",""
"","","","","","html-keyboard-response","16","76129","0.0-16.0","20EB18E26D1546B89F918972DE60D9A9","019d0656-09b7-7ae5-b7cd-b3e218ab5f6f","019d0640-0a2d-7740-a972-9c73365b2dcb","","null","<div style=""background-color: white; width: 100vw; height: 100vh;""></div>","null","","","","","","","","","","","",""
"","","","","","html-keyboard-response","17","81132","0.0-17.0","20EB18E26D1546B89F918972DE60D9A9","019d0656-09b7-7ae5-b7cd-b3e218ab5f6f","019d0640-0a2d-7740-a972-9c73365b2dcb","","null","
                <div class=""stimulus-container"">
                    <img src=""images/schematic_sequence/supermarket_scheme/supermarket_scheme_1.png"" class=""exp-image"">
                    <div class=""question-area""></div> 
                </div>","null","","","","","","","","","","","",""
"","","","","","html-button-response","18","82988","0.0-18.0","20EB18E26D1546B89F918972DE60D9A9","019d0656-09b7-7ae5-b7cd-b3e218ab5f6f","019d0640-0a2d-7740-a972-9c73365b2dcb","","1855","
                <div class=""stimulus-container"">
                    <img src=""images/schematic_sequence/supermarket_scheme/supermarket_scheme_1.png"" class=""exp-image"">
                    <div class=""question-area"">
                        <p style=""font-size: 20px; font-weight: bold; margin: 0;"">Is there a person in this image?</p>
                    </div>
                </div>","1","main_experiment_trial","1","supermarket_scheme","schematic_sequence","chronological","","","","","","",""
"","","","","","html-keyboard-response","19","87990","0.0-19.0","20EB18E26D1546B89F918972DE60D9A9","019d0656-09b7-7ae5-b7cd-b3e218ab5f6f","019d0640-0a2d-7740-a972-9c73365b2dcb","","null","
                <div class=""stimulus-container"">
                    <img src=""images/schematic_sequence/supermarket_scheme/supermarket_scheme_2.png"" class=""exp-image"">
                    <div class=""question-area""></div> 
                </div>","null","","","","","","","","","","","",""
"","","","","","html-button-response","20","89601","0.0-20.0","20EB18E26D1546B89F918972DE60D9A9","019d0656-09b7-7ae5-b7cd-b3e218ab5f6f","019d0640-0a2d-7740-a972-9c73365b2dcb","","1610","
                <div class=""stimulus-container"">
                    <img src=""images/schematic_sequence/supermarket_scheme/supermarket_scheme_2.png"" class=""exp-image"">
                    <div class=""question-area"">
                        <p style=""font-size: 20px; font-weight: bold; margin: 0;"">Is there a person in this image?</p>
                    </div>
                </div>","1","main_experiment_trial","2","supermarket_scheme","schematic_sequence","chronological","","","","","","",""
"","","","","","html-keyboard-response","21","94604","0.0-21.0","20EB18E26D1546B89F918972DE60D9A9","019d0656-09b7-7ae5-b7cd-b3e218ab5f6f","019d0640-0a2d-7740-a972-9c73365b2dcb","","null","
                <div class=""stimulus-container"">
                    <img src=""images/schematic_sequence/supermarket_scheme/supermarket_scheme_3.png"" class=""exp-image"">
                    <div class=""question-area""></div> 
                </div>","null","","","","","","","","","","","",""
"","","","","","html-button-response","22","97606","0.0-22.0","20EB18E26D1546B89F918972DE60D9A9","019d0656-09b7-7ae5-b7cd-b3e218ab5f6f","019d0640-0a2d-7740-a972-9c73365b2dcb","","null","
                <div class=""stimulus-container"">
                    <img src=""images/schematic_sequence/supermarket_scheme/supermarket_scheme_3.png"" class=""exp-image"">
                    <div class=""question-area"">
                        <p style=""font-size: 20px; font-weight: bold; margin: 0;"">Is there a person in this image?</p>
                    </div>
                </div>","null","main_experiment_trial","3","supermarket_scheme","schematic_sequence","chronological","","","","","","",""
"","","","","","html-keyboard-response","23","102609","0.0-23.0","20EB18E26D1546B89F918972DE60D9A9","019d0656-09b7-7ae5-b7cd-b3e218ab5f6f","019d0640-0a2d-7740-a972-9c73365b2dcb","","null","
                <div class=""stimulus-container"">
                    <img src=""images/schematic_sequence/supermarket_scheme/supermarket_scheme_4.png"" class=""exp-image"">
                    <div class=""question-area""></div> 
                </div>","null","","","","","","","","","","","",""
"","","","","","html-button-response","24","103921","0.0-24.0","20EB18E26D1546B89F918972DE60D9A9","019d0656-09b7-7ae5-b7cd-b3e218ab5f6f","019d0640-0a2d-7740-a972-9c73365b2dcb","","1311","
                <div class=""stimulus-container"">
                    <img src=""images/schematic_sequence/supermarket_scheme/supermarket_scheme_4.png"" class=""exp-image"">
                    <div class=""question-area"">
                        <p style=""font-size: 20px; font-weight: bold; margin: 0;"">Is there a person in this image?</p>
                    </div>
                </div>","0","main_experiment_trial","4","supermarket_scheme","schematic_sequence","chronological","","","","","","",""
"","","","","","html-keyboard-response","25","108924","0.0-25.0","20EB18E26D1546B89F918972DE60D9A9","019d0656-09b7-7ae5-b7cd-b3e218ab5f6f","019d0640-0a2d-7740-a972-9c73365b2dcb","","null","
                <div class=""stimulus-container"">
                    <img src=""images/schematic_sequence/supermarket_scheme/supermarket_scheme_5.png"" class=""exp-image"">
                    <div class=""question-area""></div> 
                </div>","null","","","","","","","","","","","",""
"","","","","","html-button-response","26","109771","0.0-26.0","20EB18E26D1546B89F918972DE60D9A9","019d0656-09b7-7ae5-b7cd-b3e218ab5f6f","019d0640-0a2d-7740-a972-9c73365b2dcb","","846","
                <div class=""stimulus-container"">
                    <img src=""images/schematic_sequence/supermarket_scheme/supermarket_scheme_5.png"" class=""exp-image"">
                    <div class=""question-area"">
                        <p style=""font-size: 20px; font-weight: bold; margin: 0;"">Is there a person in this image?</p>
                    </div>
                </div>","1","main_experiment_trial","5","supermarket_scheme","schematic_sequence","chronological","","","","","","",""
"","","","","","html-keyboard-response","27","114773","0.0-27.0","20EB18E26D1546B89F918972DE60D9A9","019d0656-09b7-7ae5-b7cd-b3e218ab5f6f","019d0640-0a2d-7740-a972-9c73365b2dcb","","null","
                <div class=""stimulus-container"">
                    <img src=""images/schematic_sequence/supermarket_scheme/supermarket_scheme_6.png"" class=""exp-image"">
                    <div class=""question-area""></div> 
                </div>","null","","","","","","","","","","","",""
"","","","","","html-button-response","28","116166","0.0-28.0","20EB18E26D1546B89F918972DE60D9A9","019d0656-09b7-7ae5-b7cd-b3e218ab5f6f","019d0640-0a2d-7740-a972-9c73365b2dcb","","1392","
                <div class=""stimulus-container"">
                    <img src=""images/schematic_sequence/supermarket_scheme/supermarket_scheme_6.png"" class=""exp-image"">
                    <div class=""question-area"">
                        <p style=""font-size: 20px; font-weight: bold; margin: 0;"">Is there a person in this image?</p>
                    </div>
                </div>","0","main_experiment_trial","6","supermarket_scheme","schematic_sequence","chronological","","","","","","",""
"","","","","","html-keyboard-response","29","121168","0.0-29.0","20EB18E26D1546B89F918972DE60D9A9","019d0656-09b7-7ae5-b7cd-b3e218ab5f6f","019d0640-0a2d-7740-a972-9c73365b2dcb","","null","
                <div class=""stimulus-container"">
                    <img src=""images/schematic_sequence/supermarket_scheme/supermarket_scheme_7.png"" class=""exp-image"">
                    <div class=""question-area""></div> 
                </div>","null","","","","","","","","","","","",""
"","","","","","html-button-response","30","122189","0.0-30.0","20EB18E26D1546B89F918972DE60D9A9","019d0656-09b7-7ae5-b7cd-b3e218ab5f6f","019d0640-0a2d-7740-a972-9c73365b2dcb","","1020","
                <div class=""stimulus-container"">
                    <img src=""images/schematic_sequence/supermarket_scheme/supermarket_scheme_7.png"" class=""exp-image"">
                    <div class=""question-area"">
                        <p style=""font-size: 20px; font-weight: bold; margin: 0;"">Is there a person in this image?</p>
                    </div>
                </div>","0","main_experiment_trial","7","supermarket_scheme","schematic_sequence","chronological","","","","","","",""
"","","","","","html-keyboard-response","31","127191","0.0-31.0","20EB18E26D1546B89F918972DE60D9A9","019d0656-09b7-7ae5-b7cd-b3e218ab5f6f","019d0640-0a2d-7740-a972-9c73365b2dcb","","null","
                <div class=""stimulus-container"">
                    <img src=""images/schematic_sequence/supermarket_scheme/supermarket_scheme_8.png"" class=""exp-image"">
                    <div class=""question-area""></div> 
                </div>","null","","","","","","","","","","","",""
"","","","","","html-button-response","32","128141","0.0-32.0","20EB18E26D1546B89F918972DE60D9A9","019d0656-09b7-7ae5-b7cd-b3e218ab5f6f","019d0640-0a2d-7740-a972-9c73365b2dcb","","949","
                <div class=""stimulus-container"">
                    <img src=""images/schematic_sequence/supermarket_scheme/supermarket_scheme_8.png"" class=""exp-image"">
                    <div class=""question-area"">
                        <p style=""font-size: 20px; font-weight: bold; margin: 0;"">Is there a person in this image?</p>
                    </div>
                </div>","0","main_experiment_trial","8","supermarket_scheme","schematic_sequence","chronological","","","","","","",""
"","","","","","html-keyboard-response","33","133142","0.0-33.0","20EB18E26D1546B89F918972DE60D9A9","019d0656-09b7-7ae5-b7cd-b3e218ab5f6f","019d0640-0a2d-7740-a972-9c73365b2dcb","","null","
                <div class=""stimulus-container"">
                    <img src=""images/schematic_sequence/supermarket_scheme/supermarket_scheme_9.png"" class=""exp-image"">
                    <div class=""question-area""></div> 
                </div>","null","","","","","","","","","","","",""
"","","","","","html-button-response","34","134312","0.0-34.0","20EB18E26D1546B89F918972DE60D9A9","019d0656-09b7-7ae5-b7cd-b3e218ab5f6f","019d0640-0a2d-7740-a972-9c73365b2dcb","","1169","
                <div class=""stimulus-container"">
                    <img src=""images/schematic_sequence/supermarket_scheme/supermarket_scheme_9.png"" class=""exp-image"">
                    <div class=""question-area"">
                        <p style=""font-size: 20px; font-weight: bold; margin: 0;"">Is there a person in this image?</p>
                    </div>
                </div>","0","main_experiment_trial","9","supermarket_scheme","schematic_sequence","chronological","","","","","","",""
"","","","","","html-keyboard-response","35","139314","0.0-35.0","20EB18E26D1546B89F918972DE60D9A9","019d0656-09b7-7ae5-b7cd-b3e218ab5f6f","019d0640-0a2d-7740-a972-9c73365b2dcb","","null","
                <div class=""stimulus-container"">
                    <img src=""images/schematic_sequence/supermarket_scheme/supermarket_scheme_ten.png"" class=""exp-image"">
                    <div class=""question-area""></div> 
                </div>","null","","","","","","","","","","","",""
"","","","","","html-button-response","36","141047","0.0-36.0","20EB18E26D1546B89F918972DE60D9A9","019d0656-09b7-7ae5-b7cd-b3e218ab5f6f","019d0640-0a2d-7740-a972-9c73365b2dcb","","1733","
                <div class=""stimulus-container"">
                    <img src=""images/schematic_sequence/supermarket_scheme/supermarket_scheme_ten.png"" class=""exp-image"">
                    <div class=""question-area"">
                        <p style=""font-size: 20px; font-weight: bold; margin: 0;"">Is there a person in this image?</p>
                    </div>
                </div>","1","main_experiment_trial","ten","supermarket_scheme","schematic_sequence","chronological","","","","","","",""
"","","","","","html-keyboard-response","37","146050","0.0-37.0","20EB18E26D1546B89F918972DE60D9A9","019d0656-09b7-7ae5-b7cd-b3e218ab5f6f","019d0640-0a2d-7740-a972-9c73365b2dcb","","null","<div style=""background-color: white; width: 100vw; height: 100vh;""></div>","null","","","","","","","","","","","",""
"","","","","","html-keyboard-response","38","151052","0.0-38.0","20EB18E26D1546B89F918972DE60D9A9","019d0656-09b7-7ae5-b7cd-b3e218ab5f6f","019d0640-0a2d-7740-a972-9c73365b2dcb","","null","
                <div class=""stimulus-container"">
                    <img src=""images/causal_sequence/saving_a_cat_causal/saving_a_cat_causal_1.png"" class=""exp-image"">
                    <div class=""question-area""></div> 
                </div>","null","","","","","","","","","","","",""
"","","","","","html-button-response","39","151965","0.0-39.0","20EB18E26D1546B89F918972DE60D9A9","019d0656-09b7-7ae5-b7cd-b3e218ab5f6f","019d0640-0a2d-7740-a972-9c73365b2dcb","","913","
                <div class=""stimulus-container"">
                    <img src=""images/causal_sequence/saving_a_cat_causal/saving_a_cat_causal_1.png"" class=""exp-image"">
                    <div class=""question-area"">
                        <p style=""font-size: 20px; font-weight: bold; margin: 0;"">Is there a person in this image?</p>
                    </div>
                </div>","0","main_experiment_trial","1","saving_a_cat_causal","causal_sequence","chronological","","","","","","",""
"","","","","","html-keyboard-response","40","156968","0.0-40.0","20EB18E26D1546B89F918972DE60D9A9","019d0656-09b7-7ae5-b7cd-b3e218ab5f6f","019d0640-0a2d-7740-a972-9c73365b2dcb","","null","
                <div class=""stimulus-container"">
                    <img src=""images/causal_sequence/saving_a_cat_causal/saving_a_cat_causal_2.png"" class=""exp-image"">
                    <div class=""question-area""></div> 
                </div>","null","","","","","","","","","","","",""
"","","","","","html-button-response","41","158012","0.0-41.0","20EB18E26D1546B89F918972DE60D9A9","019d0656-09b7-7ae5-b7cd-b3e218ab5f6f","019d0640-0a2d-7740-a972-9c73365b2dcb","","1043","
                <div class=""stimulus-container"">
                    <img src=""images/causal_sequence/saving_a_cat_causal/saving_a_cat_causal_2.png"" class=""exp-image"">
                    <div class=""question-area"">
                        <p style=""font-size: 20px; font-weight: bold; margin: 0;"">Is there a person in this image?</p>
                    </div>
                </div>","1","main_experiment_trial","2","saving_a_cat_causal","causal_sequence","chronological","","","","","","",""
"","","","","","html-keyboard-response","42","163014","0.0-42.0","20EB18E26D1546B89F918972DE60D9A9","019d0656-09b7-7ae5-b7cd-b3e218ab5f6f","019d0640-0a2d-7740-a972-9c73365b2dcb","","null","
                <div class=""stimulus-container"">
                    <img src=""images/causal_sequence/saving_a_cat_causal/saving_a_cat_causal_3.png"" class=""exp-image"">
                    <div class=""question-area""></div> 
                </div>","null","","","","","","","","","","","",""
"","","","","","html-button-response","43","164037","0.0-43.0","20EB18E26D1546B89F918972DE60D9A9","019d0656-09b7-7ae5-b7cd-b3e218ab5f6f","019d0640-0a2d-7740-a972-9c73365b2dcb","","1022","
                <div class=""stimulus-container"">
                    <img src=""images/causal_sequence/saving_a_cat_causal/saving_a_cat_causal_3.png"" class=""exp-image"">
                    <div class=""question-area"">
                        <p style=""font-size: 20px; font-weight: bold; margin: 0;"">Is there a person in this image?</p>
                    </div>
                </div>","1","main_experiment_trial","3","saving_a_cat_causal","causal_sequence","chronological","","","","","","",""
"","","","","","html-keyboard-response","44","169039","0.0-44.0","20EB18E26D1546B89F918972DE60D9A9","019d0656-09b7-7ae5-b7cd-b3e218ab5f6f","019d0640-0a2d-7740-a972-9c73365b2dcb","","null","
                <div class=""stimulus-container"">
                    <img src=""images/causal_sequence/saving_a_cat_causal/saving_a_cat_causal_4.png"" class=""exp-image"">
                    <div class=""question-area""></div> 
                </div>","null","","","","","","","","","","","",""
"","","","","","html-button-response","45","169938","0.0-45.0","20EB18E26D1546B89F918972DE60D9A9","019d0656-09b7-7ae5-b7cd-b3e218ab5f6f","019d0640-0a2d-7740-a972-9c73365b2dcb","","898","
                <div class=""stimulus-container"">
                    <img src=""images/causal_sequence/saving_a_cat_causal/saving_a_cat_causal_4.png"" class=""exp-image"">
                    <div class=""question-area"">
                        <p style=""font-size: 20px; font-weight: bold; margin: 0;"">Is there a person in this image?</p>
                    </div>
                </div>","0","main_experiment_trial","4","saving_a_cat_causal","causal_sequence","chronological","","","","","","",""
"","","","","","html-keyboard-response","46","174941","0.0-46.0","20EB18E26D1546B89F918972DE60D9A9","019d0656-09b7-7ae5-b7cd-b3e218ab5f6f","019d0640-0a2d-7740-a972-9c73365b2dcb","","null","
                <div class=""stimulus-container"">
                    <img src=""images/causal_sequence/saving_a_cat_causal/saving_a_cat_causal_5.png"" class=""exp-image"">
                    <div class=""question-area""></div> 
                </div>","null","","","","","","","","","","","",""
"","","","","","html-button-response","47","175917","0.0-47.0","20EB18E26D1546B89F918972DE60D9A9","019d0656-09b7-7ae5-b7cd-b3e218ab5f6f","019d0640-0a2d-7740-a972-9c73365b2dcb","","975","
                <div class=""stimulus-container"">
                    <img src=""images/causal_sequence/saving_a_cat_causal/saving_a_cat_causal_5.png"" class=""exp-image"">
                    <div class=""question-area"">
                        <p style=""font-size: 20px; font-weight: bold; margin: 0;"">Is there a person in this image?</p>
                    </div>
                </div>","0","main_experiment_trial","5","saving_a_cat_causal","causal_sequence","chronological","","","","","","",""
"","","","","","html-keyboard-response","48","180919","0.0-48.0","20EB18E26D1546B89F918972DE60D9A9","019d0656-09b7-7ae5-b7cd-b3e218ab5f6f","019d0640-0a2d-7740-a972-9c73365b2dcb","","null","
                <div class=""stimulus-container"">
                    <img src=""images/causal_sequence/saving_a_cat_causal/saving_a_cat_causal_6.png"" class=""exp-image"">
                    <div class=""question-area""></div> 
                </div>","null","","","","","","","","","","","",""
"","","","","","html-button-response","49","181892","0.0-49.0","20EB18E26D1546B89F918972DE60D9A9","019d0656-09b7-7ae5-b7cd-b3e218ab5f6f","019d0640-0a2d-7740-a972-9c73365b2dcb","","972","
                <div class=""stimulus-container"">
                    <img src=""images/causal_sequence/saving_a_cat_causal/saving_a_cat_causal_6.png"" class=""exp-image"">
                    <div class=""question-area"">
                        <p style=""font-size: 20px; font-weight: bold; margin: 0;"">Is there a person in this image?</p>
                    </div>
                </div>","0","main_experiment_trial","6","saving_a_cat_causal","causal_sequence","chronological","","","","","","",""
"","","","","","html-keyboard-response","50","186894","0.0-50.0","20EB18E26D1546B89F918972DE60D9A9","019d0656-09b7-7ae5-b7cd-b3e218ab5f6f","019d0640-0a2d-7740-a972-9c73365b2dcb","","null","
                <div class=""stimulus-container"">
                    <img src=""images/causal_sequence/saving_a_cat_causal/saving_a_cat_causal_7.png"" class=""exp-image"">
                    <div class=""question-area""></div> 
                </div>","null","","","","","","","","","","","",""
"","","","","","html-button-response","51","187970","0.0-51.0","20EB18E26D1546B89F918972DE60D9A9","019d0656-09b7-7ae5-b7cd-b3e218ab5f6f","019d0640-0a2d-7740-a972-9c73365b2dcb","","1074","
                <div class=""stimulus-container"">
                    <img src=""images/causal_sequence/saving_a_cat_causal/saving_a_cat_causal_7.png"" class=""exp-image"">
                    <div class=""question-area"">
                        <p style=""font-size: 20px; font-weight: bold; margin: 0;"">Is there a person in this image?</p>
                    </div>
                </div>","0","main_experiment_trial","7","saving_a_cat_causal","causal_sequence","chronological","","","","","","",""
"","","","","","html-keyboard-response","52","192971","0.0-52.0","20EB18E26D1546B89F918972DE60D9A9","019d0656-09b7-7ae5-b7cd-b3e218ab5f6f","019d0640-0a2d-7740-a972-9c73365b2dcb","","null","
                <div class=""stimulus-container"">
                    <img src=""images/causal_sequence/saving_a_cat_causal/saving_a_cat_causal_8.png"" class=""exp-image"">
                    <div class=""question-area""></div> 
                </div>","null","","","","","","","","","","","",""
"","","","","","html-button-response","53","193793","0.0-53.0","20EB18E26D1546B89F918972DE60D9A9","019d0656-09b7-7ae5-b7cd-b3e218ab5f6f","019d0640-0a2d-7740-a972-9c73365b2dcb","","821","
                <div class=""stimulus-container"">
                    <img src=""images/causal_sequence/saving_a_cat_causal/saving_a_cat_causal_8.png"" class=""exp-image"">
                    <div class=""question-area"">
                        <p style=""font-size: 20px; font-weight: bold; margin: 0;"">Is there a person in this image?</p>
                    </div>
                </div>","0","main_experiment_trial","8","saving_a_cat_causal","causal_sequence","chronological","","","","","","",""
"","","","","","html-keyboard-response","54","198794","0.0-54.0","20EB18E26D1546B89F918972DE60D9A9","019d0656-09b7-7ae5-b7cd-b3e218ab5f6f","019d0640-0a2d-7740-a972-9c73365b2dcb","","null","
                <div class=""stimulus-container"">
                    <img src=""images/causal_sequence/saving_a_cat_causal/saving_a_cat_causal_9.png"" class=""exp-image"">
                    <div class=""question-area""></div> 
                </div>","null","","","","","","","","","","","",""
"","","","","","html-button-response","55","200078","0.0-55.0","20EB18E26D1546B89F918972DE60D9A9","019d0656-09b7-7ae5-b7cd-b3e218ab5f6f","019d0640-0a2d-7740-a972-9c73365b2dcb","","1283","
                <div class=""stimulus-container"">
                    <img src=""images/causal_sequence/saving_a_cat_causal/saving_a_cat_causal_9.png"" class=""exp-image"">
                    <div class=""question-area"">
                        <p style=""font-size: 20px; font-weight: bold; margin: 0;"">Is there a person in this image?</p>
                    </div>
                </div>","0","main_experiment_trial","9","saving_a_cat_causal","causal_sequence","chronological","","","","","","",""
"","","","","","html-keyboard-response","56","205081","0.0-56.0","20EB18E26D1546B89F918972DE60D9A9","019d0656-09b7-7ae5-b7cd-b3e218ab5f6f","019d0640-0a2d-7740-a972-9c73365b2dcb","","null","
                <div class=""stimulus-container"">
                    <img src=""images/causal_sequence/saving_a_cat_causal/saving_a_cat_causal_ten.png"" class=""exp-image"">
                    <div class=""question-area""></div> 
                </div>","null","","","","","","","","","","","",""
"","","","","","html-button-response","57","206115","0.0-57.0","20EB18E26D1546B89F918972DE60D9A9","019d0656-09b7-7ae5-b7cd-b3e218ab5f6f","019d0640-0a2d-7740-a972-9c73365b2dcb","","1033","
                <div class=""stimulus-container"">
                    <img src=""images/causal_sequence/saving_a_cat_causal/saving_a_cat_causal_ten.png"" class=""exp-image"">
                    <div class=""question-area"">
                        <p style=""font-size: 20px; font-weight: bold; margin: 0;"">Is there a person in this image?</p>
                    </div>
                </div>","0","main_experiment_trial","ten","saving_a_cat_causal","causal_sequence","chronological","","","","","","",""
"","","","","","html-keyboard-response","58","211118","0.0-58.0","20EB18E26D1546B89F918972DE60D9A9","019d0656-09b7-7ae5-b7cd-b3e218ab5f6f","019d0640-0a2d-7740-a972-9c73365b2dcb","","null","<div style=""background-color: white; width: 100vw; height: 100vh;""></div>","null","","","","","","","","","","","",""
"","","","","","html-keyboard-response","59","216119","0.0-59.0","20EB18E26D1546B89F918972DE60D9A9","019d0656-09b7-7ae5-b7cd-b3e218ab5f6f","019d0640-0a2d-7740-a972-9c73365b2dcb","","null","
                <div class=""stimulus-container"">
                    <img src=""images/schematic_sequence/hotel_scheme/hotel_scheme_1.png"" class=""exp-image"">
                    <div class=""question-area""></div> 
                </div>","null","","","","","","","","","","","",""
"","","","","","html-button-response","60","217375","0.0-60.0","20EB18E26D1546B89F918972DE60D9A9","019d0656-09b7-7ae5-b7cd-b3e218ab5f6f","019d0640-0a2d-7740-a972-9c73365b2dcb","","1255","
                <div class=""stimulus-container"">
                    <img src=""images/schematic_sequence/hotel_scheme/hotel_scheme_1.png"" class=""exp-image"">
                    <div class=""question-area"">
                        <p style=""font-size: 20px; font-weight: bold; margin: 0;"">Is there a person in this image?</p>
                    </div>
                </div>","1","main_experiment_trial","1","hotel_scheme","schematic_sequence","chronological","","","","","","",""
"","","","","","html-keyboard-response","61","222377","0.0-61.0","20EB18E26D1546B89F918972DE60D9A9","019d0656-09b7-7ae5-b7cd-b3e218ab5f6f","019d0640-0a2d-7740-a972-9c73365b2dcb","","null","
                <div class=""stimulus-container"">
                    <img src=""images/schematic_sequence/hotel_scheme/hotel_scheme_2.png"" class=""exp-image"">
                    <div class=""question-area""></div> 
                </div>","null","","","","","","","","","","","",""
"","","","","","html-button-response","62","223410","0.0-62.0","20EB18E26D1546B89F918972DE60D9A9","019d0656-09b7-7ae5-b7cd-b3e218ab5f6f","019d0640-0a2d-7740-a972-9c73365b2dcb","","1032","
                <div class=""stimulus-container"">
                    <img src=""images/schematic_sequence/hotel_scheme/hotel_scheme_2.png"" class=""exp-image"">
                    <div class=""question-area"">
                        <p style=""font-size: 20px; font-weight: bold; margin: 0;"">Is there a person in this image?</p>
                    </div>
                </div>","0","main_experiment_trial","2","hotel_scheme","schematic_sequence","chronological","","","","","","",""
"","","","","","html-keyboard-response","63","228412","0.0-63.0","20EB18E26D1546B89F918972DE60D9A9","019d0656-09b7-7ae5-b7cd-b3e218ab5f6f","019d0640-0a2d-7740-a972-9c73365b2dcb","","null","
                <div class=""stimulus-container"">
                    <img src=""images/schematic_sequence/hotel_scheme/hotel_scheme_3.png"" class=""exp-image"">
                    <div class=""question-area""></div> 
                </div>","null","","","","","","","","","","","",""
"","","","","","html-button-response","64","229400","0.0-64.0","20EB18E26D1546B89F918972DE60D9A9","019d0656-09b7-7ae5-b7cd-b3e218ab5f6f","019d0640-0a2d-7740-a972-9c73365b2dcb","","987","
                <div class=""stimulus-container"">
                    <img src=""images/schematic_sequence/hotel_scheme/hotel_scheme_3.png"" class=""exp-image"">
                    <div class=""question-area"">
                        <p style=""font-size: 20px; font-weight: bold; margin: 0;"">Is there a person in this image?</p>
                    </div>
                </div>","0","main_experiment_trial","3","hotel_scheme","schematic_sequence","chronological","","","","","","",""
"","","","","","html-keyboard-response","65","234403","0.0-65.0","20EB18E26D1546B89F918972DE60D9A9","019d0656-09b7-7ae5-b7cd-b3e218ab5f6f","019d0640-0a2d-7740-a972-9c73365b2dcb","","null","
                <div class=""stimulus-container"">
                    <img src=""images/schematic_sequence/hotel_scheme/hotel_scheme_4.png"" class=""exp-image"">
                    <div class=""question-area""></div> 
                </div>","null","","","","","","","","","","","",""
"","","","","","html-button-response","66","237007","0.0-66.0","20EB18E26D1546B89F918972DE60D9A9","019d0656-09b7-7ae5-b7cd-b3e218ab5f6f","019d0640-0a2d-7740-a972-9c73365b2dcb","","2603","
                <div class=""stimulus-container"">
                    <img src=""images/schematic_sequence/hotel_scheme/hotel_scheme_4.png"" class=""exp-image"">
                    <div class=""question-area"">
                        <p style=""font-size: 20px; font-weight: bold; margin: 0;"">Is there a person in this image?</p>
                    </div>
                </div>","1","main_experiment_trial","4","hotel_scheme","schematic_sequence","chronological","","","","","","",""
"","","","","","html-keyboard-response","67","242009","0.0-67.0","20EB18E26D1546B89F918972DE60D9A9","019d0656-09b7-7ae5-b7cd-b3e218ab5f6f","019d0640-0a2d-7740-a972-9c73365b2dcb","","null","
                <div class=""stimulus-container"">
                    <img src=""images/schematic_sequence/hotel_scheme/hotel_scheme_5.png"" class=""exp-image"">
                    <div class=""question-area""></div> 
                </div>","null","","","","","","","","","","","",""
"","","","","","html-button-response","68","244009","0.0-68.0","20EB18E26D1546B89F918972DE60D9A9","019d0656-09b7-7ae5-b7cd-b3e218ab5f6f","019d0640-0a2d-7740-a972-9c73365b2dcb","","1999","
                <div class=""stimulus-container"">
                    <img src=""images/schematic_sequence/hotel_scheme/hotel_scheme_5.png"" class=""exp-image"">
                    <div class=""question-area"">
                        <p style=""font-size: 20px; font-weight: bold; margin: 0;"">Is there a person in this image?</p>
                    </div>
                </div>","0","main_experiment_trial","5","hotel_scheme","schematic_sequence","chronological","","","","","","",""
"","","","","","html-keyboard-response","69","249011","0.0-69.0","20EB18E26D1546B89F918972DE60D9A9","019d0656-09b7-7ae5-b7cd-b3e218ab5f6f","019d0640-0a2d-7740-a972-9c73365b2dcb","","null","
                <div class=""stimulus-container"">
                    <img src=""images/schematic_sequence/hotel_scheme/hotel_scheme_6.png"" class=""exp-image"">
                    <div class=""question-area""></div> 
                </div>","null","","","","","","","","","","","",""
"","","","","","html-button-response","70","250282","0.0-70.0","20EB18E26D1546B89F918972DE60D9A9","019d0656-09b7-7ae5-b7cd-b3e218ab5f6f","019d0640-0a2d-7740-a972-9c73365b2dcb","","1270","
                <div class=""stimulus-container"">
                    <img src=""images/schematic_sequence/hotel_scheme/hotel_scheme_6.png"" class=""exp-image"">
                    <div class=""question-area"">
                        <p style=""font-size: 20px; font-weight: bold; margin: 0;"">Is there a person in this image?</p>
                    </div>
                </div>","0","main_experiment_trial","6","hotel_scheme","schematic_sequence","chronological","","","","","","",""
"","","","","","html-keyboard-response","71","255284","0.0-71.0","20EB18E26D1546B89F918972DE60D9A9","019d0656-09b7-7ae5-b7cd-b3e218ab5f6f","019d0640-0a2d-7740-a972-9c73365b2dcb","","null","
                <div class=""stimulus-container"">
                    <img src=""images/schematic_sequence/hotel_scheme/hotel_scheme_7.png"" class=""exp-image"">
                    <div class=""question-area""></div> 
                </div>","null","","","","","","","","","","","",""
"","","","","","html-button-response","72","257187","0.0-72.0","20EB18E26D1546B89F918972DE60D9A9","019d0656-09b7-7ae5-b7cd-b3e218ab5f6f","019d0640-0a2d-7740-a972-9c73365b2dcb","","1902","
                <div class=""stimulus-container"">
                    <img src=""images/schematic_sequence/hotel_scheme/hotel_scheme_7.png"" class=""exp-image"">
                    <div class=""question-area"">
                        <p style=""font-size: 20px; font-weight: bold; margin: 0;"">Is there a person in this image?</p>
                    </div>
                </div>","0","main_experiment_trial","7","hotel_scheme","schematic_sequence","chronological","","","","","","",""
"","","","","","html-keyboard-response","73","262190","0.0-73.0","20EB18E26D1546B89F918972DE60D9A9","019d0656-09b7-7ae5-b7cd-b3e218ab5f6f","019d0640-0a2d-7740-a972-9c73365b2dcb","","null","
                <div class=""stimulus-container"">
                    <img src=""images/schematic_sequence/hotel_scheme/hotel_scheme_8.png"" class=""exp-image"">
                    <div class=""question-area""></div> 
                </div>","null","","","","","","","","","","","",""
"","","","","","html-button-response","74","264270","0.0-74.0","20EB18E26D1546B89F918972DE60D9A9","019d0656-09b7-7ae5-b7cd-b3e218ab5f6f","019d0640-0a2d-7740-a972-9c73365b2dcb","","2079","
                <div class=""stimulus-container"">
                    <img src=""images/schematic_sequence/hotel_scheme/hotel_scheme_8.png"" class=""exp-image"">
                    <div class=""question-area"">
                        <p style=""font-size: 20px; font-weight: bold; margin: 0;"">Is there a person in this image?</p>
                    </div>
                </div>","0","main_experiment_trial","8","hotel_scheme","schematic_sequence","chronological","","","","","","",""
"","","","","","html-keyboard-response","75","269273","0.0-75.0","20EB18E26D1546B89F918972DE60D9A9","019d0656-09b7-7ae5-b7cd-b3e218ab5f6f","019d0640-0a2d-7740-a972-9c73365b2dcb","","null","
                <div class=""stimulus-container"">
                    <img src=""images/schematic_sequence/hotel_scheme/hotel_scheme_9.png"" class=""exp-image"">
                    <div class=""question-area""></div> 
                </div>","null","","","","","","","","","","","",""
"","","","","","html-button-response","76","270911","0.0-76.0","20EB18E26D1546B89F918972DE60D9A9","019d0656-09b7-7ae5-b7cd-b3e218ab5f6f","019d0640-0a2d-7740-a972-9c73365b2dcb","","1637","
                <div class=""stimulus-container"">
                    <img src=""images/schematic_sequence/hotel_scheme/hotel_scheme_9.png"" class=""exp-image"">
                    <div class=""question-area"">
                        <p style=""font-size: 20px; font-weight: bold; margin: 0;"">Is there a person in this image?</p>
                    </div>
                </div>","0","main_experiment_trial","9","hotel_scheme","schematic_sequence","chronological","","","","","","",""
"","","","","","html-keyboard-response","77","275913","0.0-77.0","20EB18E26D1546B89F918972DE60D9A9","019d0656-09b7-7ae5-b7cd-b3e218ab5f6f","019d0640-0a2d-7740-a972-9c73365b2dcb","","null","
                <div class=""stimulus-container"">
                    <img src=""images/schematic_sequence/hotel_scheme/hotel_scheme_ten.png"" class=""exp-image"">
                    <div class=""question-area""></div> 
                </div>","null","","","","","","","","","","","",""
"","","","","","html-button-response","78","277276","0.0-78.0","20EB18E26D1546B89F918972DE60D9A9","019d0656-09b7-7ae5-b7cd-b3e218ab5f6f","019d0640-0a2d-7740-a972-9c73365b2dcb","","1363","
                <div class=""stimulus-container"">
                    <img src=""images/schematic_sequence/hotel_scheme/hotel_scheme_ten.png"" class=""exp-image"">
                    <div class=""question-area"">
                        <p style=""font-size: 20px; font-weight: bold; margin: 0;"">Is there a person in this image?</p>
                    </div>
                </div>","0","main_experiment_trial","ten","hotel_scheme","schematic_sequence","chronological","","","","","","",""
"","","","","","html-keyboard-response","79","282278","0.0-79.0","20EB18E26D1546B89F918972DE60D9A9","019d0656-09b7-7ae5-b7cd-b3e218ab5f6f","019d0640-0a2d-7740-a972-9c73365b2dcb","","null","<div style=""background-color: white; width: 100vw; height: 100vh;""></div>","null","","","","","","","","","","","",""
"","","","","","html-keyboard-response","80","287281","0.0-80.0","20EB18E26D1546B89F918972DE60D9A9","019d0656-09b7-7ae5-b7cd-b3e218ab5f6f","019d0640-0a2d-7740-a972-9c73365b2dcb","","null","
                <div class=""stimulus-container"">
                    <img src=""images/schematic_sequence/interview_scheme/interview_scheme_1.png"" class=""exp-image"">
                    <div class=""question-area""></div> 
                </div>","null","","","","","","","","","","","",""
"","","","","","html-button-response","81","288509","0.0-81.0","20EB18E26D1546B89F918972DE60D9A9","019d0656-09b7-7ae5-b7cd-b3e218ab5f6f","019d0640-0a2d-7740-a972-9c73365b2dcb","","1228","
                <div class=""stimulus-container"">
                    <img src=""images/schematic_sequence/interview_scheme/interview_scheme_1.png"" class=""exp-image"">
                    <div class=""question-area"">
                        <p style=""font-size: 20px; font-weight: bold; margin: 0;"">Is there a person in this image?</p>
                    </div>
                </div>","1","main_experiment_trial","1","interview_scheme","schematic_sequence","chronological","","","","","","",""
"","","","","","html-keyboard-response","82","293511","0.0-82.0","20EB18E26D1546B89F918972DE60D9A9","019d0656-09b7-7ae5-b7cd-b3e218ab5f6f","019d0640-0a2d-7740-a972-9c73365b2dcb","","null","
                <div class=""stimulus-container"">
                    <img src=""images/schematic_sequence/interview_scheme/interview_scheme_2.png"" class=""exp-image"">
                    <div class=""question-area""></div> 
                </div>","null","","","","","","","","","","","",""
"","","","","","html-button-response","83","296513","0.0-83.0","20EB18E26D1546B89F918972DE60D9A9","019d0656-09b7-7ae5-b7cd-b3e218ab5f6f","019d0640-0a2d-7740-a972-9c73365b2dcb","","null","
                <div class=""stimulus-container"">
                    <img src=""images/schematic_sequence/interview_scheme/interview_scheme_2.png"" class=""exp-image"">
                    <div class=""question-area"">
                        <p style=""font-size: 20px; font-weight: bold; margin: 0;"">Is there a person in this image?</p>
                    </div>
                </div>","null","main_experiment_trial","2","interview_scheme","schematic_sequence","chronological","","","","","","",""
"","","","","","html-keyboard-response","84","301515","0.0-84.0","20EB18E26D1546B89F918972DE60D9A9","019d0656-09b7-7ae5-b7cd-b3e218ab5f6f","019d0640-0a2d-7740-a972-9c73365b2dcb","","null","
                <div class=""stimulus-container"">
                    <img src=""images/schematic_sequence/interview_scheme/interview_scheme_3.png"" class=""exp-image"">
                    <div class=""question-area""></div> 
                </div>","null","","","","","","","","","","","",""
"","","","","","html-button-response","85","302399","0.0-85.0","20EB18E26D1546B89F918972DE60D9A9","019d0656-09b7-7ae5-b7cd-b3e218ab5f6f","019d0640-0a2d-7740-a972-9c73365b2dcb","","883","
                <div class=""stimulus-container"">
                    <img src=""images/schematic_sequence/interview_scheme/interview_scheme_3.png"" class=""exp-image"">
                    <div class=""question-area"">
                        <p style=""font-size: 20px; font-weight: bold; margin: 0;"">Is there a person in this image?</p>
                    </div>
                </div>","1","main_experiment_trial","3","interview_scheme","schematic_sequence","chronological","","","","","","",""
"","","","","","html-keyboard-response","86","307400","0.0-86.0","20EB18E26D1546B89F918972DE60D9A9","019d0656-09b7-7ae5-b7cd-b3e218ab5f6f","019d0640-0a2d-7740-a972-9c73365b2dcb","","null","
                <div class=""stimulus-container"">
                    <img src=""images/schematic_sequence/interview_scheme/interview_scheme_4.png"" class=""exp-image"">
                    <div class=""question-area""></div> 
                </div>","null","","","","","","","","","","","",""
"","","","","","html-button-response","87","308148","0.0-87.0","20EB18E26D1546B89F918972DE60D9A9","019d0656-09b7-7ae5-b7cd-b3e218ab5f6f","019d0640-0a2d-7740-a972-9c73365b2dcb","","747","
                <div class=""stimulus-container"">
                    <img src=""images/schematic_sequence/interview_scheme/interview_scheme_4.png"" class=""exp-image"">
                    <div class=""question-area"">
                        <p style=""font-size: 20px; font-weight: bold; margin: 0;"">Is there a person in this image?</p>
                    </div>
                </div>","1","main_experiment_trial","4","interview_scheme","schematic_sequence","chronological","","","","","","",""
"","","","","","html-keyboard-response","88","313150","0.0-88.0","20EB18E26D1546B89F918972DE60D9A9","019d0656-09b7-7ae5-b7cd-b3e218ab5f6f","019d0640-0a2d-7740-a972-9c73365b2dcb","","null","
                <div class=""stimulus-container"">
                    <img src=""images/schematic_sequence/interview_scheme/interview_scheme_5.png"" class=""exp-image"">
                    <div class=""question-area""></div> 
                </div>","null","","","","","","","","","","","",""
"","","","","","html-button-response","89","313856","0.0-89.0","20EB18E26D1546B89F918972DE60D9A9","019d0656-09b7-7ae5-b7cd-b3e218ab5f6f","019d0640-0a2d-7740-a972-9c73365b2dcb","","706","
                <div class=""stimulus-container"">
                    <img src=""images/schematic_sequence/interview_scheme/interview_scheme_5.png"" class=""exp-image"">
                    <div class=""question-area"">
                        <p style=""font-size: 20px; font-weight: bold; margin: 0;"">Is there a person in this image?</p>
                    </div>
                </div>","0","main_experiment_trial","5","interview_scheme","schematic_sequence","chronological","","","","","","",""
"","","","","","html-keyboard-response","90","318858","0.0-90.0","20EB18E26D1546B89F918972DE60D9A9","019d0656-09b7-7ae5-b7cd-b3e218ab5f6f","019d0640-0a2d-7740-a972-9c73365b2dcb","","null","
                <div class=""stimulus-container"">
                    <img src=""images/schematic_sequence/interview_scheme/interview_scheme_6.png"" class=""exp-image"">
                    <div class=""question-area""></div> 
                </div>","null","","","","","","","","","","","",""
"","","","","","html-button-response","91","319394","0.0-91.0","20EB18E26D1546B89F918972DE60D9A9","019d0656-09b7-7ae5-b7cd-b3e218ab5f6f","019d0640-0a2d-7740-a972-9c73365b2dcb","","535","
                <div class=""stimulus-container"">
                    <img src=""images/schematic_sequence/interview_scheme/interview_scheme_6.png"" class=""exp-image"">
                    <div class=""question-area"">
                        <p style=""font-size: 20px; font-weight: bold; margin: 0;"">Is there a person in this image?</p>
                    </div>
                </div>","0","main_experiment_trial","6","interview_scheme","schematic_sequence","chronological","","","","","","",""
"","","","","","html-keyboard-response","92","324396","0.0-92.0","20EB18E26D1546B89F918972DE60D9A9","019d0656-09b7-7ae5-b7cd-b3e218ab5f6f","019d0640-0a2d-7740-a972-9c73365b2dcb","","null","
                <div class=""stimulus-container"">
                    <img src=""images/schematic_sequence/interview_scheme/interview_scheme_7.png"" class=""exp-image"">
                    <div class=""question-area""></div> 
                </div>","null","","","","","","","","","","","",""
"","","","","","html-button-response","93","325265","0.0-93.0","20EB18E26D1546B89F918972DE60D9A9","019d0656-09b7-7ae5-b7cd-b3e218ab5f6f","019d0640-0a2d-7740-a972-9c73365b2dcb","","869","
                <div class=""stimulus-container"">
                    <img src=""images/schematic_sequence/interview_scheme/interview_scheme_7.png"" class=""exp-image"">
                    <div class=""question-area"">
                        <p style=""font-size: 20px; font-weight: bold; margin: 0;"">Is there a person in this image?</p>
                    </div>
                </div>","0","main_experiment_trial","7","interview_scheme","schematic_sequence","chronological","","","","","","",""
"","","","","","html-keyboard-response","94","330268","0.0-94.0","20EB18E26D1546B89F918972DE60D9A9","019d0656-09b7-7ae5-b7cd-b3e218ab5f6f","019d0640-0a2d-7740-a972-9c73365b2dcb","","null","
                <div class=""stimulus-container"">
                    <img src=""images/schematic_sequence/interview_scheme/interview_scheme_8.png"" class=""exp-image"">
                    <div class=""question-area""></div> 
                </div>","null","","","","","","","","","","","",""
"","","","","","html-button-response","95","331101","0.0-95.0","20EB18E26D1546B89F918972DE60D9A9","019d0656-09b7-7ae5-b7cd-b3e218ab5f6f","019d0640-0a2d-7740-a972-9c73365b2dcb","","833","
                <div class=""stimulus-container"">
                    <img src=""images/schematic_sequence/interview_scheme/interview_scheme_8.png"" class=""exp-image"">
                    <div class=""question-area"">
                        <p style=""font-size: 20px; font-weight: bold; margin: 0;"">Is there a person in this image?</p>
                    </div>
                </div>","0","main_experiment_trial","8","interview_scheme","schematic_sequence","chronological","","","","","","",""
"","","","","","html-keyboard-response","96","336104","0.0-96.0","20EB18E26D1546B89F918972DE60D9A9","019d0656-09b7-7ae5-b7cd-b3e218ab5f6f","019d0640-0a2d-7740-a972-9c73365b2dcb","","null","
                <div class=""stimulus-container"">
                    <img src=""images/schematic_sequence/interview_scheme/interview_scheme_9.png"" class=""exp-image"">
                    <div class=""question-area""></div> 
                </div>","null","","","","","","","","","","","",""
"","","","","","html-button-response","97","337290","0.0-97.0","20EB18E26D1546B89F918972DE60D9A9","019d0656-09b7-7ae5-b7cd-b3e218ab5f6f","019d0640-0a2d-7740-a972-9c73365b2dcb","","1185","
                <div class=""stimulus-container"">
                    <img src=""images/schematic_sequence/interview_scheme/interview_scheme_9.png"" class=""exp-image"">
                    <div class=""question-area"">
                        <p style=""font-size: 20px; font-weight: bold; margin: 0;"">Is there a person in this image?</p>
                    </div>
                </div>","0","main_experiment_trial","9","interview_scheme","schematic_sequence","chronological","","","","","","",""
"","","","","","html-keyboard-response","98","342292","0.0-98.0","20EB18E26D1546B89F918972DE60D9A9","019d0656-09b7-7ae5-b7cd-b3e218ab5f6f","019d0640-0a2d-7740-a972-9c73365b2dcb","","null","
                <div class=""stimulus-container"">
                    <img src=""images/schematic_sequence/interview_scheme/interview_scheme_ten.png"" class=""exp-image"">
                    <div class=""question-area""></div> 
                </div>","null","","","","","","","","","","","",""
"","","","","","html-button-response","99","343996","0.0-99.0","20EB18E26D1546B89F918972DE60D9A9","019d0656-09b7-7ae5-b7cd-b3e218ab5f6f","019d0640-0a2d-7740-a972-9c73365b2dcb","","1702","
                <div class=""stimulus-container"">
                    <img src=""images/schematic_sequence/interview_scheme/interview_scheme_ten.png"" class=""exp-image"">
                    <div class=""question-area"">
                        <p style=""font-size: 20px; font-weight: bold; margin: 0;"">Is there a person in this image?</p>
                    </div>
                </div>","0","main_experiment_trial","ten","interview_scheme","schematic_sequence","chronological","","","","","","",""
"","","","","","html-keyboard-response","100","348997","0.0-100.0","20EB18E26D1546B89F918972DE60D9A9","019d0656-09b7-7ae5-b7cd-b3e218ab5f6f","019d0640-0a2d-7740-a972-9c73365b2dcb","","null","<div style=""background-color: white; width: 100vw; height: 100vh;""></div>","null","","","","","","","","","","","",""
"","","","","","html-keyboard-response","101","353999","0.0-101.0","20EB18E26D1546B89F918972DE60D9A9","019d0656-09b7-7ae5-b7cd-b3e218ab5f6f","019d0640-0a2d-7740-a972-9c73365b2dcb","","null","
                <div class=""stimulus-container"">
                    <img src=""images/schematic_sequence/flight_scheme/flight_scheme_1.png"" class=""exp-image"">
                    <div class=""question-area""></div> 
                </div>","null","","","","","","","","","","","",""
"","","","","","html-button-response","102","354681","0.0-102.0","20EB18E26D1546B89F918972DE60D9A9","019d0656-09b7-7ae5-b7cd-b3e218ab5f6f","019d0640-0a2d-7740-a972-9c73365b2dcb","","682","
                <div class=""stimulus-container"">
                    <img src=""images/schematic_sequence/flight_scheme/flight_scheme_1.png"" class=""exp-image"">
                    <div class=""question-area"">
                        <p style=""font-size: 20px; font-weight: bold; margin: 0;"">Is there a person in this image?</p>
                    </div>
                </div>","0","main_experiment_trial","1","flight_scheme","schematic_sequence","chronological","","","","","","",""
"","","","","","html-keyboard-response","103","359684","0.0-103.0","20EB18E26D1546B89F918972DE60D9A9","019d0656-09b7-7ae5-b7cd-b3e218ab5f6f","019d0640-0a2d-7740-a972-9c73365b2dcb","","null","
                <div class=""stimulus-container"">
                    <img src=""images/schematic_sequence/flight_scheme/flight_scheme_2.png"" class=""exp-image"">
                    <div class=""question-area""></div> 
                </div>","null","","","","","","","","","","","",""
"","","","","","html-button-response","104","360466","0.0-104.0","20EB18E26D1546B89F918972DE60D9A9","019d0656-09b7-7ae5-b7cd-b3e218ab5f6f","019d0640-0a2d-7740-a972-9c73365b2dcb","","781","
                <div class=""stimulus-container"">
                    <img src=""images/schematic_sequence/flight_scheme/flight_scheme_2.png"" class=""exp-image"">
                    <div class=""question-area"">
                        <p style=""font-size: 20px; font-weight: bold; margin: 0;"">Is there a person in this image?</p>
                    </div>
                </div>","1","main_experiment_trial","2","flight_scheme","schematic_sequence","chronological","","","","","","",""
"","","","","","html-keyboard-response","105","365468","0.0-105.0","20EB18E26D1546B89F918972DE60D9A9","019d0656-09b7-7ae5-b7cd-b3e218ab5f6f","019d0640-0a2d-7740-a972-9c73365b2dcb","","null","
                <div class=""stimulus-container"">
                    <img src=""images/schematic_sequence/flight_scheme/flight_scheme_3.png"" class=""exp-image"">
                    <div class=""question-area""></div> 
                </div>","null","","","","","","","","","","","",""
"","","","","","html-button-response","106","366177","0.0-106.0","20EB18E26D1546B89F918972DE60D9A9","019d0656-09b7-7ae5-b7cd-b3e218ab5f6f","019d0640-0a2d-7740-a972-9c73365b2dcb","","708","
                <div class=""stimulus-container"">
                    <img src=""images/schematic_sequence/flight_scheme/flight_scheme_3.png"" class=""exp-image"">
                    <div class=""question-area"">
                        <p style=""font-size: 20px; font-weight: bold; margin: 0;"">Is there a person in this image?</p>
                    </div>
                </div>","0","main_experiment_trial","3","flight_scheme","schematic_sequence","chronological","","","","","","",""
"","","","","","html-keyboard-response","107","371179","0.0-107.0","20EB18E26D1546B89F918972DE60D9A9","019d0656-09b7-7ae5-b7cd-b3e218ab5f6f","019d0640-0a2d-7740-a972-9c73365b2dcb","","null","
                <div class=""stimulus-container"">
                    <img src=""images/schematic_sequence/flight_scheme/flight_scheme_4.png"" class=""exp-image"">
                    <div class=""question-area""></div> 
                </div>","null","","","","","","","","","","","",""
"","","","","","html-button-response","108","372010","0.0-108.0","20EB18E26D1546B89F918972DE60D9A9","019d0656-09b7-7ae5-b7cd-b3e218ab5f6f","019d0640-0a2d-7740-a972-9c73365b2dcb","","830","
                <div class=""stimulus-container"">
                    <img src=""images/schematic_sequence/flight_scheme/flight_scheme_4.png"" class=""exp-image"">
                    <div class=""question-area"">
                        <p style=""font-size: 20px; font-weight: bold; margin: 0;"">Is there a person in this image?</p>
                    </div>
                </div>","0","main_experiment_trial","4","flight_scheme","schematic_sequence","chronological","","","","","","",""
"","","","","","html-keyboard-response","109","377012","0.0-109.0","20EB18E26D1546B89F918972DE60D9A9","019d0656-09b7-7ae5-b7cd-b3e218ab5f6f","019d0640-0a2d-7740-a972-9c73365b2dcb","","null","
                <div class=""stimulus-container"">
                    <img src=""images/schematic_sequence/flight_scheme/flight_scheme_5.png"" class=""exp-image"">
                    <div class=""question-area""></div> 
                </div>","null","","","","","","","","","","","",""
"","","","","","html-button-response","110","377813","0.0-110.0","20EB18E26D1546B89F918972DE60D9A9","019d0656-09b7-7ae5-b7cd-b3e218ab5f6f","019d0640-0a2d-7740-a972-9c73365b2dcb","","800","
                <div class=""stimulus-container"">
                    <img src=""images/schematic_sequence/flight_scheme/flight_scheme_5.png"" class=""exp-image"">
                    <div class=""question-area"">
                        <p style=""font-size: 20px; font-weight: bold; margin: 0;"">Is there a person in this image?</p>
                    </div>
                </div>","0","main_experiment_trial","5","flight_scheme","schematic_sequence","chronological","","","","","","",""
"","","","","","html-keyboard-response","111","382814","0.0-111.0","20EB18E26D1546B89F918972DE60D9A9","019d0656-09b7-7ae5-b7cd-b3e218ab5f6f","019d0640-0a2d-7740-a972-9c73365b2dcb","","null","
                <div class=""stimulus-container"">
                    <img src=""images/schematic_sequence/flight_scheme/flight_scheme_6.png"" class=""exp-image"">
                    <div class=""question-area""></div> 
                </div>","null","","","","","","","","","","","",""
"","","","","","html-button-response","112","383612","0.0-112.0","20EB18E26D1546B89F918972DE60D9A9","019d0656-09b7-7ae5-b7cd-b3e218ab5f6f","019d0640-0a2d-7740-a972-9c73365b2dcb","","797","
                <div class=""stimulus-container"">
                    <img src=""images/schematic_sequence/flight_scheme/flight_scheme_6.png"" class=""exp-image"">
                    <div class=""question-area"">
                        <p style=""font-size: 20px; font-weight: bold; margin: 0;"">Is there a person in this image?</p>
                    </div>
                </div>","1","main_experiment_trial","6","flight_scheme","schematic_sequence","chronological","","","","","","",""
"","","","","","html-keyboard-response","113","388614","0.0-113.0","20EB18E26D1546B89F918972DE60D9A9","019d0656-09b7-7ae5-b7cd-b3e218ab5f6f","019d0640-0a2d-7740-a972-9c73365b2dcb","","null","
                <div class=""stimulus-container"">
                    <img src=""images/schematic_sequence/flight_scheme/flight_scheme_7.png"" class=""exp-image"">
                    <div class=""question-area""></div> 
                </div>","null","","","","","","","","","","","",""
"","","","","","html-button-response","114","389572","0.0-114.0","20EB18E26D1546B89F918972DE60D9A9","019d0656-09b7-7ae5-b7cd-b3e218ab5f6f","019d0640-0a2d-7740-a972-9c73365b2dcb","","957","
                <div class=""stimulus-container"">
                    <img src=""images/schematic_sequence/flight_scheme/flight_scheme_7.png"" class=""exp-image"">
                    <div class=""question-area"">
                        <p style=""font-size: 20px; font-weight: bold; margin: 0;"">Is there a person in this image?</p>
                    </div>
                </div>","1","main_experiment_trial","7","flight_scheme","schematic_sequence","chronological","","","","","","",""
"","","","","","html-keyboard-response","115","394574","0.0-115.0","20EB18E26D1546B89F918972DE60D9A9","019d0656-09b7-7ae5-b7cd-b3e218ab5f6f","019d0640-0a2d-7740-a972-9c73365b2dcb","","null","
                <div class=""stimulus-container"">
                    <img src=""images/schematic_sequence/flight_scheme/flight_scheme_8.png"" class=""exp-image"">
                    <div class=""question-area""></div> 
                </div>","null","","","","","","","","","","","",""
"","","","","","html-button-response","116","395317","0.0-116.0","20EB18E26D1546B89F918972DE60D9A9","019d0656-09b7-7ae5-b7cd-b3e218ab5f6f","019d0640-0a2d-7740-a972-9c73365b2dcb","","742","
                <div class=""stimulus-container"">
                    <img src=""images/schematic_sequence/flight_scheme/flight_scheme_8.png"" class=""exp-image"">
                    <div class=""question-area"">
                        <p style=""font-size: 20px; font-weight: bold; margin: 0;"">Is there a person in this image?</p>
                    </div>
                </div>","1","main_experiment_trial","8","flight_scheme","schematic_sequence","chronological","","","","","","",""
"","","","","","html-keyboard-response","117","400320","0.0-117.0","20EB18E26D1546B89F918972DE60D9A9","019d0656-09b7-7ae5-b7cd-b3e218ab5f6f","019d0640-0a2d-7740-a972-9c73365b2dcb","","null","
                <div class=""stimulus-container"">
                    <img src=""images/schematic_sequence/flight_scheme/flight_scheme_9.png"" class=""exp-image"">
                    <div class=""question-area""></div> 
                </div>","null","","","","","","","","","","","",""
"","","","","","html-button-response","118","401175","0.0-118.0","20EB18E26D1546B89F918972DE60D9A9","019d0656-09b7-7ae5-b7cd-b3e218ab5f6f","019d0640-0a2d-7740-a972-9c73365b2dcb","","854","
                <div class=""stimulus-container"">
                    <img src=""images/schematic_sequence/flight_scheme/flight_scheme_9.png"" class=""exp-image"">
                    <div class=""question-area"">
                        <p style=""font-size: 20px; font-weight: bold; margin: 0;"">Is there a person in this image?</p>
                    </div>
                </div>","0","main_experiment_trial","9","flight_scheme","schematic_sequence","chronological","","","","","","",""
"","","","","","html-keyboard-response","119","406177","0.0-119.0","20EB18E26D1546B89F918972DE60D9A9","019d0656-09b7-7ae5-b7cd-b3e218ab5f6f","019d0640-0a2d-7740-a972-9c73365b2dcb","","null","
                <div class=""stimulus-container"">
                    <img src=""images/schematic_sequence/flight_scheme/flight_scheme_ten.png"" class=""exp-image"">
                    <div class=""question-area""></div> 
                </div>","null","","","","","","","","","","","",""
"","","","","","html-button-response","120","407117","0.0-120.0","20EB18E26D1546B89F918972DE60D9A9","019d0656-09b7-7ae5-b7cd-b3e218ab5f6f","019d0640-0a2d-7740-a972-9c73365b2dcb","","939","
                <div class=""stimulus-container"">
                    <img src=""images/schematic_sequence/flight_scheme/flight_scheme_ten.png"" class=""exp-image"">
                    <div class=""question-area"">
                        <p style=""font-size: 20px; font-weight: bold; margin: 0;"">Is there a person in this image?</p>
                    </div>
                </div>","0","main_experiment_trial","ten","flight_scheme","schematic_sequence","chronological","","","","","","",""
"","","","","","html-keyboard-response","121","412119","0.0-121.0","20EB18E26D1546B89F918972DE60D9A9","019d0656-09b7-7ae5-b7cd-b3e218ab5f6f","019d0640-0a2d-7740-a972-9c73365b2dcb","","null","<div style=""background-color: white; width: 100vw; height: 100vh;""></div>","null","","","","","","","","","","","",""
"","","","","","html-keyboard-response","122","417122","0.0-122.0","20EB18E26D1546B89F918972DE60D9A9","019d0656-09b7-7ae5-b7cd-b3e218ab5f6f","019d0640-0a2d-7740-a972-9c73365b2dcb","","null","
                <div class=""stimulus-container"">
                    <img src=""images/causal_sequence/coin_causal/coin_causal_1.png"" class=""exp-image"">
                    <div class=""question-area""></div> 
                </div>","null","","","","","","","","","","","",""
"","","","","","html-button-response","123","417868","0.0-123.0","20EB18E26D1546B89F918972DE60D9A9","019d0656-09b7-7ae5-b7cd-b3e218ab5f6f","019d0640-0a2d-7740-a972-9c73365b2dcb","","745","
                <div class=""stimulus-container"">
                    <img src=""images/causal_sequence/coin_causal/coin_causal_1.png"" class=""exp-image"">
                    <div class=""question-area"">
                        <p style=""font-size: 20px; font-weight: bold; margin: 0;"">Is there a person in this image?</p>
                    </div>
                </div>","0","main_experiment_trial","1","coin_causal","causal_sequence","chronological","","","","","","",""
"","","","","","html-keyboard-response","124","422870","0.0-124.0","20EB18E26D1546B89F918972DE60D9A9","019d0656-09b7-7ae5-b7cd-b3e218ab5f6f","019d0640-0a2d-7740-a972-9c73365b2dcb","","null","
                <div class=""stimulus-container"">
                    <img src=""images/causal_sequence/coin_causal/coin_causal_2.png"" class=""exp-image"">
                    <div class=""question-area""></div> 
                </div>","null","","","","","","","","","","","",""
"","","","","","html-button-response","125","423624","0.0-125.0","20EB18E26D1546B89F918972DE60D9A9","019d0656-09b7-7ae5-b7cd-b3e218ab5f6f","019d0640-0a2d-7740-a972-9c73365b2dcb","","752","
                <div class=""stimulus-container"">
                    <img src=""images/causal_sequence/coin_causal/coin_causal_2.png"" class=""exp-image"">
                    <div class=""question-area"">
                        <p style=""font-size: 20px; font-weight: bold; margin: 0;"">Is there a person in this image?</p>
                    </div>
                </div>","0","main_experiment_trial","2","coin_causal","causal_sequence","chronological","","","","","","",""
"","","","","","html-keyboard-response","126","428626","0.0-126.0","20EB18E26D1546B89F918972DE60D9A9","019d0656-09b7-7ae5-b7cd-b3e218ab5f6f","019d0640-0a2d-7740-a972-9c73365b2dcb","","null","
                <div class=""stimulus-container"">
                    <img src=""images/causal_sequence/coin_causal/coin_causal_3.png"" class=""exp-image"">
                    <div class=""question-area""></div> 
                </div>","null","","","","","","","","","","","",""
"","","","","","html-button-response","127","429479","0.0-127.0","20EB18E26D1546B89F918972DE60D9A9","019d0656-09b7-7ae5-b7cd-b3e218ab5f6f","019d0640-0a2d-7740-a972-9c73365b2dcb","","852","
                <div class=""stimulus-container"">
                    <img src=""images/causal_sequence/coin_causal/coin_causal_3.png"" class=""exp-image"">
                    <div class=""question-area"">
                        <p style=""font-size: 20px; font-weight: bold; margin: 0;"">Is there a person in this image?</p>
                    </div>
                </div>","0","main_experiment_trial","3","coin_causal","causal_sequence","chronological","","","","","","",""
"","","","","","html-keyboard-response","128","434480","0.0-128.0","20EB18E26D1546B89F918972DE60D9A9","019d0656-09b7-7ae5-b7cd-b3e218ab5f6f","019d0640-0a2d-7740-a972-9c73365b2dcb","","null","
                <div class=""stimulus-container"">
                    <img src=""images/causal_sequence/coin_causal/coin_causal_4.png"" class=""exp-image"">
                    <div class=""question-area""></div> 
                </div>","null","","","","","","","","","","","",""
"","","","","","html-button-response","129","435165","0.0-129.0","20EB18E26D1546B89F918972DE60D9A9","019d0656-09b7-7ae5-b7cd-b3e218ab5f6f","019d0640-0a2d-7740-a972-9c73365b2dcb","","684","
                <div class=""stimulus-container"">
                    <img src=""images/causal_sequence/coin_causal/coin_causal_4.png"" class=""exp-image"">
                    <div class=""question-area"">
                        <p style=""font-size: 20px; font-weight: bold; margin: 0;"">Is there a person in this image?</p>
                    </div>
                </div>","0","main_experiment_trial","4","coin_causal","causal_sequence","chronological","","","","","","",""
"","","","","","html-keyboard-response","130","440167","0.0-130.0","20EB18E26D1546B89F918972DE60D9A9","019d0656-09b7-7ae5-b7cd-b3e218ab5f6f","019d0640-0a2d-7740-a972-9c73365b2dcb","","null","
                <div class=""stimulus-container"">
                    <img src=""images/causal_sequence/coin_causal/coin_causal_5.png"" class=""exp-image"">
                    <div class=""question-area""></div> 
                </div>","null","","","","","","","","","","","",""
"","","","","","html-button-response","131","441070","0.0-131.0","20EB18E26D1546B89F918972DE60D9A9","019d0656-09b7-7ae5-b7cd-b3e218ab5f6f","019d0640-0a2d-7740-a972-9c73365b2dcb","","903","
                <div class=""stimulus-container"">
                    <img src=""images/causal_sequence/coin_causal/coin_causal_5.png"" class=""exp-image"">
                    <div class=""question-area"">
                        <p style=""font-size: 20px; font-weight: bold; margin: 0;"">Is there a person in this image?</p>
                    </div>
                </div>","0","main_experiment_trial","5","coin_causal","causal_sequence","chronological","","","","","","",""
"","","","","","html-keyboard-response","132","446072","0.0-132.0","20EB18E26D1546B89F918972DE60D9A9","019d0656-09b7-7ae5-b7cd-b3e218ab5f6f","019d0640-0a2d-7740-a972-9c73365b2dcb","","null","
                <div class=""stimulus-container"">
                    <img src=""images/causal_sequence/coin_causal/coin_causal_6.png"" class=""exp-image"">
                    <div class=""question-area""></div> 
                </div>","null","","","","","","","","","","","",""
"","","","","","html-button-response","133","447455","0.0-133.0","20EB18E26D1546B89F918972DE60D9A9","019d0656-09b7-7ae5-b7cd-b3e218ab5f6f","019d0640-0a2d-7740-a972-9c73365b2dcb","","1382","
                <div class=""stimulus-container"">
                    <img src=""images/causal_sequence/coin_causal/coin_causal_6.png"" class=""exp-image"">
                    <div class=""question-area"">
                        <p style=""font-size: 20px; font-weight: bold; margin: 0;"">Is there a person in this image?</p>
                    </div>
                </div>","0","main_experiment_trial","6","coin_causal","causal_sequence","chronological","","","","","","",""
"","","","","","html-keyboard-response","134","452457","0.0-134.0","20EB18E26D1546B89F918972DE60D9A9","019d0656-09b7-7ae5-b7cd-b3e218ab5f6f","019d0640-0a2d-7740-a972-9c73365b2dcb","","null","
                <div class=""stimulus-container"">
                    <img src=""images/causal_sequence/coin_causal/coin_causal_7.png"" class=""exp-image"">
                    <div class=""question-area""></div> 
                </div>","null","","","","","","","","","","","",""
"","","","","","html-button-response","135","452960","0.0-135.0","20EB18E26D1546B89F918972DE60D9A9","019d0656-09b7-7ae5-b7cd-b3e218ab5f6f","019d0640-0a2d-7740-a972-9c73365b2dcb","","502","
                <div class=""stimulus-container"">
                    <img src=""images/causal_sequence/coin_causal/coin_causal_7.png"" class=""exp-image"">
                    <div class=""question-area"">
                        <p style=""font-size: 20px; font-weight: bold; margin: 0;"">Is there a person in this image?</p>
                    </div>
                </div>","1","main_experiment_trial","7","coin_causal","causal_sequence","chronological","","","","","","",""
"","","","","","html-keyboard-response","136","457962","0.0-136.0","20EB18E26D1546B89F918972DE60D9A9","019d0656-09b7-7ae5-b7cd-b3e218ab5f6f","019d0640-0a2d-7740-a972-9c73365b2dcb","","null","
                <div class=""stimulus-container"">
                    <img src=""images/causal_sequence/coin_causal/coin_causal_8.png"" class=""exp-image"">
                    <div class=""question-area""></div> 
                </div>","null","","","","","","","","","","","",""
"","","","","","html-button-response","137","459091","0.0-137.0","20EB18E26D1546B89F918972DE60D9A9","019d0656-09b7-7ae5-b7cd-b3e218ab5f6f","019d0640-0a2d-7740-a972-9c73365b2dcb","","1128","
                <div class=""stimulus-container"">
                    <img src=""images/causal_sequence/coin_causal/coin_causal_8.png"" class=""exp-image"">
                    <div class=""question-area"">
                        <p style=""font-size: 20px; font-weight: bold; margin: 0;"">Is there a person in this image?</p>
                    </div>
                </div>","0","main_experiment_trial","8","coin_causal","causal_sequence","chronological","","","","","","",""
"","","","","","html-keyboard-response","138","464093","0.0-138.0","20EB18E26D1546B89F918972DE60D9A9","019d0656-09b7-7ae5-b7cd-b3e218ab5f6f","019d0640-0a2d-7740-a972-9c73365b2dcb","","null","
                <div class=""stimulus-container"">
                    <img src=""images/causal_sequence/coin_causal/coin_causal_9.png"" class=""exp-image"">
                    <div class=""question-area""></div> 
                </div>","null","","","","","","","","","","","",""
"","","","","","html-button-response","139","465302","0.0-139.0","20EB18E26D1546B89F918972DE60D9A9","019d0656-09b7-7ae5-b7cd-b3e218ab5f6f","019d0640-0a2d-7740-a972-9c73365b2dcb","","1208","
                <div class=""stimulus-container"">
                    <img src=""images/causal_sequence/coin_causal/coin_causal_9.png"" class=""exp-image"">
                    <div class=""question-area"">
                        <p style=""font-size: 20px; font-weight: bold; margin: 0;"">Is there a person in this image?</p>
                    </div>
                </div>","0","main_experiment_trial","9","coin_causal","causal_sequence","chronological","","","","","","",""
"","","","","","html-keyboard-response","140","470304","0.0-140.0","20EB18E26D1546B89F918972DE60D9A9","019d0656-09b7-7ae5-b7cd-b3e218ab5f6f","019d0640-0a2d-7740-a972-9c73365b2dcb","","null","
                <div class=""stimulus-container"">
                    <img src=""images/causal_sequence/coin_causal/coin_causal_ten.png"" class=""exp-image"">
                    <div class=""question-area""></div> 
                </div>","null","","","","","","","","","","","",""
"","","","","","html-button-response","141","471154","0.0-141.0","20EB18E26D1546B89F918972DE60D9A9","019d0656-09b7-7ae5-b7cd-b3e218ab5f6f","019d0640-0a2d-7740-a972-9c73365b2dcb","","850","
                <div class=""stimulus-container"">
                    <img src=""images/causal_sequence/coin_causal/coin_causal_ten.png"" class=""exp-image"">
                    <div class=""question-area"">
                        <p style=""font-size: 20px; font-weight: bold; margin: 0;"">Is there a person in this image?</p>
                    </div>
                </div>","0","main_experiment_trial","ten","coin_causal","causal_sequence","chronological","","","","","","",""
"","","","","","html-keyboard-response","142","476155","0.0-142.0","20EB18E26D1546B89F918972DE60D9A9","019d0656-09b7-7ae5-b7cd-b3e218ab5f6f","019d0640-0a2d-7740-a972-9c73365b2dcb","","null","<div style=""background-color: white; width: 100vw; height: 100vh;""></div>","null","","","","","","","","","","","",""
"","","","","","html-keyboard-response","143","481157","0.0-143.0","20EB18E26D1546B89F918972DE60D9A9","019d0656-09b7-7ae5-b7cd-b3e218ab5f6f","019d0640-0a2d-7740-a972-9c73365b2dcb","","null","
                <div class=""stimulus-container"">
                    <img src=""images/schematic_sequence/dinner_party_scheme/dinner_party_scheme_1.png"" class=""exp-image"">
                    <div class=""question-area""></div> 
                </div>","null","","","","","","","","","","","",""
"","","","","","html-button-response","144","482085","0.0-144.0","20EB18E26D1546B89F918972DE60D9A9","019d0656-09b7-7ae5-b7cd-b3e218ab5f6f","019d0640-0a2d-7740-a972-9c73365b2dcb","","927","
                <div class=""stimulus-container"">
                    <img src=""images/schematic_sequence/dinner_party_scheme/dinner_party_scheme_1.png"" class=""exp-image"">
                    <div class=""question-area"">
                        <p style=""font-size: 20px; font-weight: bold; margin: 0;"">Is there a person in this image?</p>
                    </div>
                </div>","0","main_experiment_trial","1","dinner_party_scheme","schematic_sequence","chronological","","","","","","",""
"","","","","","html-keyboard-response","145","487087","0.0-145.0","20EB18E26D1546B89F918972DE60D9A9","019d0656-09b7-7ae5-b7cd-b3e218ab5f6f","019d0640-0a2d-7740-a972-9c73365b2dcb","","null","
                <div class=""stimulus-container"">
                    <img src=""images/schematic_sequence/dinner_party_scheme/dinner_party_scheme_2.png"" class=""exp-image"">
                    <div class=""question-area""></div> 
                </div>","null","","","","","","","","","","","",""
"","","","","","html-button-response","146","488036","0.0-146.0","20EB18E26D1546B89F918972DE60D9A9","019d0656-09b7-7ae5-b7cd-b3e218ab5f6f","019d0640-0a2d-7740-a972-9c73365b2dcb","","949","
                <div class=""stimulus-container"">
                    <img src=""images/schematic_sequence/dinner_party_scheme/dinner_party_scheme_2.png"" class=""exp-image"">
                    <div class=""question-area"">
                        <p style=""font-size: 20px; font-weight: bold; margin: 0;"">Is there a person in this image?</p>
                    </div>
                </div>","0","main_experiment_trial","2","dinner_party_scheme","schematic_sequence","chronological","","","","","","",""
"","","","","","html-keyboard-response","147","493039","0.0-147.0","20EB18E26D1546B89F918972DE60D9A9","019d0656-09b7-7ae5-b7cd-b3e218ab5f6f","019d0640-0a2d-7740-a972-9c73365b2dcb","","null","
                <div class=""stimulus-container"">
                    <img src=""images/schematic_sequence/dinner_party_scheme/dinner_party_scheme_3.png"" class=""exp-image"">
                    <div class=""question-area""></div> 
                </div>","null","","","","","","","","","","","",""
"","","","","","html-button-response","148","493837","0.0-148.0","20EB18E26D1546B89F918972DE60D9A9","019d0656-09b7-7ae5-b7cd-b3e218ab5f6f","019d0640-0a2d-7740-a972-9c73365b2dcb","","797","
                <div class=""stimulus-container"">
                    <img src=""images/schematic_sequence/dinner_party_scheme/dinner_party_scheme_3.png"" class=""exp-image"">
                    <div class=""question-area"">
                        <p style=""font-size: 20px; font-weight: bold; margin: 0;"">Is there a person in this image?</p>
                    </div>
                </div>","0","main_experiment_trial","3","dinner_party_scheme","schematic_sequence","chronological","","","","","","",""
"","","","","","html-keyboard-response","149","498839","0.0-149.0","20EB18E26D1546B89F918972DE60D9A9","019d0656-09b7-7ae5-b7cd-b3e218ab5f6f","019d0640-0a2d-7740-a972-9c73365b2dcb","","null","
                <div class=""stimulus-container"">
                    <img src=""images/schematic_sequence/dinner_party_scheme/dinner_party_scheme_4.png"" class=""exp-image"">
                    <div class=""question-area""></div> 
                </div>","null","","","","","","","","","","","",""
"","","","","","html-button-response","150","499654","0.0-150.0","20EB18E26D1546B89F918972DE60D9A9","019d0656-09b7-7ae5-b7cd-b3e218ab5f6f","019d0640-0a2d-7740-a972-9c73365b2dcb","","814","
                <div class=""stimulus-container"">
                    <img src=""images/schematic_sequence/dinner_party_scheme/dinner_party_scheme_4.png"" class=""exp-image"">
                    <div class=""question-area"">
                        <p style=""font-size: 20px; font-weight: bold; margin: 0;"">Is there a person in this image?</p>
                    </div>
                </div>","0","main_experiment_trial","4","dinner_party_scheme","schematic_sequence","chronological","","","","","","",""
"","","","","","html-keyboard-response","151","504656","0.0-151.0","20EB18E26D1546B89F918972DE60D9A9","019d0656-09b7-7ae5-b7cd-b3e218ab5f6f","019d0640-0a2d-7740-a972-9c73365b2dcb","","null","
                <div class=""stimulus-container"">
                    <img src=""images/schematic_sequence/dinner_party_scheme/dinner_party_scheme_5.png"" class=""exp-image"">
                    <div class=""question-area""></div> 
                </div>","null","","","","","","","","","","","",""
"","","","","","html-button-response","152","505227","0.0-152.0","20EB18E26D1546B89F918972DE60D9A9","019d0656-09b7-7ae5-b7cd-b3e218ab5f6f","019d0640-0a2d-7740-a972-9c73365b2dcb","","570","
                <div class=""stimulus-container"">
                    <img src=""images/schematic_sequence/dinner_party_scheme/dinner_party_scheme_5.png"" class=""exp-image"">
                    <div class=""question-area"">
                        <p style=""font-size: 20px; font-weight: bold; margin: 0;"">Is there a person in this image?</p>
                    </div>
                </div>","0","main_experiment_trial","5","dinner_party_scheme","schematic_sequence","chronological","","","","","","",""
"","","","","","html-keyboard-response","153","510229","0.0-153.0","20EB18E26D1546B89F918972DE60D9A9","019d0656-09b7-7ae5-b7cd-b3e218ab5f6f","019d0640-0a2d-7740-a972-9c73365b2dcb","","null","
                <div class=""stimulus-container"">
                    <img src=""images/schematic_sequence/dinner_party_scheme/dinner_party_scheme_6.png"" class=""exp-image"">
                    <div class=""question-area""></div> 
                </div>","null","","","","","","","","","","","",""
"","","","","","html-button-response","154","511281","0.0-154.0","20EB18E26D1546B89F918972DE60D9A9","019d0656-09b7-7ae5-b7cd-b3e218ab5f6f","019d0640-0a2d-7740-a972-9c73365b2dcb","","1050","
                <div class=""stimulus-container"">
                    <img src=""images/schematic_sequence/dinner_party_scheme/dinner_party_scheme_6.png"" class=""exp-image"">
                    <div class=""question-area"">
                        <p style=""font-size: 20px; font-weight: bold; margin: 0;"">Is there a person in this image?</p>
                    </div>
                </div>","0","main_experiment_trial","6","dinner_party_scheme","schematic_sequence","chronological","","","","","","",""
"","","","","","html-keyboard-response","155","516283","0.0-155.0","20EB18E26D1546B89F918972DE60D9A9","019d0656-09b7-7ae5-b7cd-b3e218ab5f6f","019d0640-0a2d-7740-a972-9c73365b2dcb","","null","
                <div class=""stimulus-container"">
                    <img src=""images/schematic_sequence/dinner_party_scheme/dinner_party_scheme_7.png"" class=""exp-image"">
                    <div class=""question-area""></div> 
                </div>","null","","","","","","","","","","","",""
"","","","","","html-button-response","156","517112","0.0-156.0","20EB18E26D1546B89F918972DE60D9A9","019d0656-09b7-7ae5-b7cd-b3e218ab5f6f","019d0640-0a2d-7740-a972-9c73365b2dcb","","828","
                <div class=""stimulus-container"">
                    <img src=""images/schematic_sequence/dinner_party_scheme/dinner_party_scheme_7.png"" class=""exp-image"">
                    <div class=""question-area"">
                        <p style=""font-size: 20px; font-weight: bold; margin: 0;"">Is there a person in this image?</p>
                    </div>
                </div>","0","main_experiment_trial","7","dinner_party_scheme","schematic_sequence","chronological","","","","","","",""
"","","","","","html-keyboard-response","157","522114","0.0-157.0","20EB18E26D1546B89F918972DE60D9A9","019d0656-09b7-7ae5-b7cd-b3e218ab5f6f","019d0640-0a2d-7740-a972-9c73365b2dcb","","null","
                <div class=""stimulus-container"">
                    <img src=""images/schematic_sequence/dinner_party_scheme/dinner_party_scheme_8.png"" class=""exp-image"">
                    <div class=""question-area""></div> 
                </div>","null","","","","","","","","","","","",""
"","","","","","html-button-response","158","523128","0.0-158.0","20EB18E26D1546B89F918972DE60D9A9","019d0656-09b7-7ae5-b7cd-b3e218ab5f6f","019d0640-0a2d-7740-a972-9c73365b2dcb","","1013","
                <div class=""stimulus-container"">
                    <img src=""images/schematic_sequence/dinner_party_scheme/dinner_party_scheme_8.png"" class=""exp-image"">
                    <div class=""question-area"">
                        <p style=""font-size: 20px; font-weight: bold; margin: 0;"">Is there a person in this image?</p>
                    </div>
                </div>","0","main_experiment_trial","8","dinner_party_scheme","schematic_sequence","chronological","","","","","","",""
"","","","","","html-keyboard-response","159","528131","0.0-159.0","20EB18E26D1546B89F918972DE60D9A9","019d0656-09b7-7ae5-b7cd-b3e218ab5f6f","019d0640-0a2d-7740-a972-9c73365b2dcb","","null","
                <div class=""stimulus-container"">
                    <img src=""images/schematic_sequence/dinner_party_scheme/dinner_party_scheme_9.png"" class=""exp-image"">
                    <div class=""question-area""></div> 
                </div>","null","","","","","","","","","","","",""
"","","","","","html-button-response","160","529240","0.0-160.0","20EB18E26D1546B89F918972DE60D9A9","019d0656-09b7-7ae5-b7cd-b3e218ab5f6f","019d0640-0a2d-7740-a972-9c73365b2dcb","","1108","
                <div class=""stimulus-container"">
                    <img src=""images/schematic_sequence/dinner_party_scheme/dinner_party_scheme_9.png"" class=""exp-image"">
                    <div class=""question-area"">
                        <p style=""font-size: 20px; font-weight: bold; margin: 0;"">Is there a person in this image?</p>
                    </div>
                </div>","0","main_experiment_trial","9","dinner_party_scheme","schematic_sequence","chronological","","","","","","",""
"","","","","","html-keyboard-response","161","534243","0.0-161.0","20EB18E26D1546B89F918972DE60D9A9","019d0656-09b7-7ae5-b7cd-b3e218ab5f6f","019d0640-0a2d-7740-a972-9c73365b2dcb","","null","
                <div class=""stimulus-container"">
                    <img src=""images/schematic_sequence/dinner_party_scheme/dinner_party_scheme_ten.png"" class=""exp-image"">
                    <div class=""question-area""></div> 
                </div>","null","","","","","","","","","","","",""
"","","","","","html-button-response","162","535173","0.0-162.0","20EB18E26D1546B89F918972DE60D9A9","019d0656-09b7-7ae5-b7cd-b3e218ab5f6f","019d0640-0a2d-7740-a972-9c73365b2dcb","","928","
                <div class=""stimulus-container"">
                    <img src=""images/schematic_sequence/dinner_party_scheme/dinner_party_scheme_ten.png"" class=""exp-image"">
                    <div class=""question-area"">
                        <p style=""font-size: 20px; font-weight: bold; margin: 0;"">Is there a person in this image?</p>
                    </div>
                </div>","0","main_experiment_trial","ten","dinner_party_scheme","schematic_sequence","chronological","","","","","","",""
"","","","","","html-keyboard-response","163","540174","0.0-163.0","20EB18E26D1546B89F918972DE60D9A9","019d0656-09b7-7ae5-b7cd-b3e218ab5f6f","019d0640-0a2d-7740-a972-9c73365b2dcb","","null","<div style=""background-color: white; width: 100vw; height: 100vh;""></div>","null","","","","","","","","","","","",""
"","","","","","html-keyboard-response","164","545176","0.0-164.0","20EB18E26D1546B89F918972DE60D9A9","019d0656-09b7-7ae5-b7cd-b3e218ab5f6f","019d0640-0a2d-7740-a972-9c73365b2dcb","","null","
                <div class=""stimulus-container"">
                    <img src=""images/schematic_sequence/restaurant_scheme/restaurant_scheme_1.png"" class=""exp-image"">
                    <div class=""question-area""></div> 
                </div>","null","","","","","","","","","","","",""
"","","","","","html-button-response","165","545880","0.0-165.0","20EB18E26D1546B89F918972DE60D9A9","019d0656-09b7-7ae5-b7cd-b3e218ab5f6f","019d0640-0a2d-7740-a972-9c73365b2dcb","","703","
                <div class=""stimulus-container"">
                    <img src=""images/schematic_sequence/restaurant_scheme/restaurant_scheme_1.png"" class=""exp-image"">
                    <div class=""question-area"">
                        <p style=""font-size: 20px; font-weight: bold; margin: 0;"">Is there a person in this image?</p>
                    </div>
                </div>","0","main_experiment_trial","1","restaurant_scheme","schematic_sequence","chronological","","","","","","",""
"","","","","","html-keyboard-response","166","550882","0.0-166.0","20EB18E26D1546B89F918972DE60D9A9","019d0656-09b7-7ae5-b7cd-b3e218ab5f6f","019d0640-0a2d-7740-a972-9c73365b2dcb","","null","
                <div class=""stimulus-container"">
                    <img src=""images/schematic_sequence/restaurant_scheme/restaurant_scheme_2.png"" class=""exp-image"">
                    <div class=""question-area""></div> 
                </div>","null","","","","","","","","","","","",""
"","","","","","html-button-response","167","551793","0.0-167.0","20EB18E26D1546B89F918972DE60D9A9","019d0656-09b7-7ae5-b7cd-b3e218ab5f6f","019d0640-0a2d-7740-a972-9c73365b2dcb","","911","
                <div class=""stimulus-container"">
                    <img src=""images/schematic_sequence/restaurant_scheme/restaurant_scheme_2.png"" class=""exp-image"">
                    <div class=""question-area"">
                        <p style=""font-size: 20px; font-weight: bold; margin: 0;"">Is there a person in this image?</p>
                    </div>
                </div>","1","main_experiment_trial","2","restaurant_scheme","schematic_sequence","chronological","","","","","","",""
"","","","","","html-keyboard-response","168","556795","0.0-168.0","20EB18E26D1546B89F918972DE60D9A9","019d0656-09b7-7ae5-b7cd-b3e218ab5f6f","019d0640-0a2d-7740-a972-9c73365b2dcb","","null","
                <div class=""stimulus-container"">
                    <img src=""images/schematic_sequence/restaurant_scheme/restaurant_scheme_3.png"" class=""exp-image"">
                    <div class=""question-area""></div> 
                </div>","null","","","","","","","","","","","",""
"","","","","","html-button-response","169","558194","0.0-169.0","20EB18E26D1546B89F918972DE60D9A9","019d0656-09b7-7ae5-b7cd-b3e218ab5f6f","019d0640-0a2d-7740-a972-9c73365b2dcb","","1398","
                <div class=""stimulus-container"">
                    <img src=""images/schematic_sequence/restaurant_scheme/restaurant_scheme_3.png"" class=""exp-image"">
                    <div class=""question-area"">
                        <p style=""font-size: 20px; font-weight: bold; margin: 0;"">Is there a person in this image?</p>
                    </div>
                </div>","1","main_experiment_trial","3","restaurant_scheme","schematic_sequence","chronological","","","","","","",""
"","","","","","html-keyboard-response","170","563195","0.0-170.0","20EB18E26D1546B89F918972DE60D9A9","019d0656-09b7-7ae5-b7cd-b3e218ab5f6f","019d0640-0a2d-7740-a972-9c73365b2dcb","","null","
                <div class=""stimulus-container"">
                    <img src=""images/schematic_sequence/restaurant_scheme/restaurant_scheme_4.png"" class=""exp-image"">
                    <div class=""question-area""></div> 
                </div>","null","","","","","","","","","","","",""
"","","","","","html-button-response","171","564066","0.0-171.0","20EB18E26D1546B89F918972DE60D9A9","019d0656-09b7-7ae5-b7cd-b3e218ab5f6f","019d0640-0a2d-7740-a972-9c73365b2dcb","","870","
                <div class=""stimulus-container"">
                    <img src=""images/schematic_sequence/restaurant_scheme/restaurant_scheme_4.png"" class=""exp-image"">
                    <div class=""question-area"">
                        <p style=""font-size: 20px; font-weight: bold; margin: 0;"">Is there a person in this image?</p>
                    </div>
                </div>","0","main_experiment_trial","4","restaurant_scheme","schematic_sequence","chronological","","","","","","",""
"","","","","","html-keyboard-response","172","569069","0.0-172.0","20EB18E26D1546B89F918972DE60D9A9","019d0656-09b7-7ae5-b7cd-b3e218ab5f6f","019d0640-0a2d-7740-a972-9c73365b2dcb","","null","
                <div class=""stimulus-container"">
                    <img src=""images/schematic_sequence/restaurant_scheme/restaurant_scheme_5.png"" class=""exp-image"">
                    <div class=""question-area""></div> 
                </div>","null","","","","","","","","","","","",""
"","","","","","html-button-response","173","570414","0.0-173.0","20EB18E26D1546B89F918972DE60D9A9","019d0656-09b7-7ae5-b7cd-b3e218ab5f6f","019d0640-0a2d-7740-a972-9c73365b2dcb","","1345","
                <div class=""stimulus-container"">
                    <img src=""images/schematic_sequence/restaurant_scheme/restaurant_scheme_5.png"" class=""exp-image"">
                    <div class=""question-area"">
                        <p style=""font-size: 20px; font-weight: bold; margin: 0;"">Is there a person in this image?</p>
                    </div>
                </div>","0","main_experiment_trial","5","restaurant_scheme","schematic_sequence","chronological","","","","","","",""
"","","","","","html-keyboard-response","174","575416","0.0-174.0","20EB18E26D1546B89F918972DE60D9A9","019d0656-09b7-7ae5-b7cd-b3e218ab5f6f","019d0640-0a2d-7740-a972-9c73365b2dcb","","null","
                <div class=""stimulus-container"">
                    <img src=""images/schematic_sequence/restaurant_scheme/restaurant_scheme_6.png"" class=""exp-image"">
                    <div class=""question-area""></div> 
                </div>","null","","","","","","","","","","","",""
"","","","","","html-button-response","175","576049","0.0-175.0","20EB18E26D1546B89F918972DE60D9A9","019d0656-09b7-7ae5-b7cd-b3e218ab5f6f","019d0640-0a2d-7740-a972-9c73365b2dcb","","632","
                <div class=""stimulus-container"">
                    <img src=""images/schematic_sequence/restaurant_scheme/restaurant_scheme_6.png"" class=""exp-image"">
                    <div class=""question-area"">
                        <p style=""font-size: 20px; font-weight: bold; margin: 0;"">Is there a person in this image?</p>
                    </div>
                </div>","1","main_experiment_trial","6","restaurant_scheme","schematic_sequence","chronological","","","","","","",""
"","","","","","html-keyboard-response","176","581051","0.0-176.0","20EB18E26D1546B89F918972DE60D9A9","019d0656-09b7-7ae5-b7cd-b3e218ab5f6f","019d0640-0a2d-7740-a972-9c73365b2dcb","","null","
                <div class=""stimulus-container"">
                    <img src=""images/schematic_sequence/restaurant_scheme/restaurant_scheme_7.png"" class=""exp-image"">
                    <div class=""question-area""></div> 
                </div>","null","","","","","","","","","","","",""
"","","","","","html-button-response","177","581619","0.0-177.0","20EB18E26D1546B89F918972DE60D9A9","019d0656-09b7-7ae5-b7cd-b3e218ab5f6f","019d0640-0a2d-7740-a972-9c73365b2dcb","","568","
                <div class=""stimulus-container"">
                    <img src=""images/schematic_sequence/restaurant_scheme/restaurant_scheme_7.png"" class=""exp-image"">
                    <div class=""question-area"">
                        <p style=""font-size: 20px; font-weight: bold; margin: 0;"">Is there a person in this image?</p>
                    </div>
                </div>","1","main_experiment_trial","7","restaurant_scheme","schematic_sequence","chronological","","","","","","",""
"","","","","","html-keyboard-response","178","586621","0.0-178.0","20EB18E26D1546B89F918972DE60D9A9","019d0656-09b7-7ae5-b7cd-b3e218ab5f6f","019d0640-0a2d-7740-a972-9c73365b2dcb","","null","
                <div class=""stimulus-container"">
                    <img src=""images/schematic_sequence/restaurant_scheme/restaurant_scheme_8.png"" class=""exp-image"">
                    <div class=""question-area""></div> 
