"success","timeout","failed_images","failed_audio","failed_video","trial_type","trial_index","time_elapsed","internal_node_id","subject_id","study_id","session_id","view_history","rt","stimulus","response","task","image_index","folder","sequence_type","presentation_order","valuable_image_index","reward_type","distance_from_x","target_X","chosen_image_index","is_x_plus_dist","correct_choice"
"true","false","[]","[]","[]","preload","0","11676","0.0-0.0","ED9A8849B97549E7B49FF01230BC550F","019d0663-c07e-7054-a988-8708f7c9424a","019d0640-0a2d-7740-a972-9c73365b2dcb","","","","","","","","","","","","","","","",""
"","","","","","instructions","1","13426","0.0-1.0","ED9A8849B97549E7B49FF01230BC550F","019d0663-c07e-7054-a988-8708f7c9424a","019d0640-0a2d-7740-a972-9c73365b2dcb","[{""page_index"":0,""viewing_time"":1750}]","1750","","","","","","","","","","","","","",""
"","","","","","instructions","2","15456","0.0-2.0","ED9A8849B97549E7B49FF01230BC550F","019d0663-c07e-7054-a988-8708f7c9424a","019d0640-0a2d-7740-a972-9c73365b2dcb","[{""page_index"":0,""viewing_time"":2029}]","2029","","","","","","","","","","","","","",""
"true","","","","","fullscreen","3","17673","0.0-3.0","ED9A8849B97549E7B49FF01230BC550F","019d0663-c07e-7054-a988-8708f7c9424a","019d0640-0a2d-7740-a972-9c73365b2dcb","","1199","","","","","","","","","","","","","",""
"","","","","","instructions","4","23180","0.0-4.0","ED9A8849B97549E7B49FF01230BC550F","019d0663-c07e-7054-a988-8708f7c9424a","019d0640-0a2d-7740-a972-9c73365b2dcb","[{""page_index"":0,""viewing_time"":5506}]","5506","","","","","","","","","","","","","",""
"","","","","","instructions","5","25177","0.0-5.0","ED9A8849B97549E7B49FF01230BC550F","019d0663-c07e-7054-a988-8708f7c9424a","019d0640-0a2d-7740-a972-9c73365b2dcb","[{""page_index"":0,""viewing_time"":1997}]","1997","","","","","","","","","","","","","",""
"","","","","","html-keyboard-response","6","29182","0.0-6.0","ED9A8849B97549E7B49FF01230BC550F","019d0663-c07e-7054-a988-8708f7c9424a","019d0640-0a2d-7740-a972-9c73365b2dcb","","null","
                <div class=""stimulus-container"">
                    <img src=""images/instructions/movie_1.png"" class=""exp-image"">
                    <div class=""question-area""></div> 
                </div>","null","","","","","","","","","","","",""
"","","","","","html-button-response","7","31593","0.0-7.0","ED9A8849B97549E7B49FF01230BC550F","019d0663-c07e-7054-a988-8708f7c9424a","019d0640-0a2d-7740-a972-9c73365b2dcb","","2410","
                <div class=""stimulus-container"">
                    <img src=""images/instructions/movie_1.png"" class=""exp-image"">
                    <div class=""question-area"">
                        <p style=""font-size: 20px; font-weight: bold; margin: 0;"">Was there a person in this image?</p>
                    </div>
                </div>","0","example_question","1","","","","","","","","","",""
"","","","","","html-keyboard-response","8","35601","0.0-8.0","ED9A8849B97549E7B49FF01230BC550F","019d0663-c07e-7054-a988-8708f7c9424a","019d0640-0a2d-7740-a972-9c73365b2dcb","","null","
                <div class=""stimulus-container"">
                    <img src=""images/instructions/movie_2.png"" class=""exp-image"">
                    <div class=""question-area""></div> 
                </div>","null","","","","","","","","","","","",""
"","","","","","html-button-response","9","38603","0.0-9.0","ED9A8849B97549E7B49FF01230BC550F","019d0663-c07e-7054-a988-8708f7c9424a","019d0640-0a2d-7740-a972-9c73365b2dcb","","null","
                <div class=""stimulus-container"">
                    <img src=""images/instructions/movie_2.png"" class=""exp-image"">
                    <div class=""question-area"">
                        <p style=""font-size: 20px; font-weight: bold; margin: 0;"">Was there a person in this image?</p>
                    </div>
                </div>","null","example_question","2","","","","","","","","","",""
"","","","","","html-keyboard-response","10","42611","0.0-10.0","ED9A8849B97549E7B49FF01230BC550F","019d0663-c07e-7054-a988-8708f7c9424a","019d0640-0a2d-7740-a972-9c73365b2dcb","","null","
                <div class=""stimulus-container"">
                    <img src=""images/instructions/movie_3.png"" class=""exp-image"">
                    <div class=""question-area""></div> 
                </div>","null","","","","","","","","","","","",""
"","","","","","html-button-response","11","43400","0.0-11.0","ED9A8849B97549E7B49FF01230BC550F","019d0663-c07e-7054-a988-8708f7c9424a","019d0640-0a2d-7740-a972-9c73365b2dcb","","788","
                <div class=""stimulus-container"">
                    <img src=""images/instructions/movie_3.png"" class=""exp-image"">
                    <div class=""question-area"">
                        <p style=""font-size: 20px; font-weight: bold; margin: 0;"">Was there a person in this image?</p>
                    </div>
                </div>","0","example_question","3","","","","","","","","","",""
"","","","","","html-keyboard-response","12","47415","0.0-12.0","ED9A8849B97549E7B49FF01230BC550F","019d0663-c07e-7054-a988-8708f7c9424a","019d0640-0a2d-7740-a972-9c73365b2dcb","","null","
                <div class=""stimulus-container"">
                    <img src=""images/instructions/movie_4.png"" class=""exp-image"">
                    <div class=""question-area""></div> 
                </div>","null","","","","","","","","","","","",""
"","","","","","html-button-response","13","48190","0.0-13.0","ED9A8849B97549E7B49FF01230BC550F","019d0663-c07e-7054-a988-8708f7c9424a","019d0640-0a2d-7740-a972-9c73365b2dcb","","774","
                <div class=""stimulus-container"">
                    <img src=""images/instructions/movie_4.png"" class=""exp-image"">
                    <div class=""question-area"">
                        <p style=""font-size: 20px; font-weight: bold; margin: 0;"">Was there a person in this image?</p>
                    </div>
                </div>","0","example_question","4","","","","","","","","","",""
"","","","","","instructions","14","49815","0.0-14.0","ED9A8849B97549E7B49FF01230BC550F","019d0663-c07e-7054-a988-8708f7c9424a","019d0640-0a2d-7740-a972-9c73365b2dcb","[{""page_index"":0,""viewing_time"":1624}]","1624","","","","","","","","","","","","","",""
"","","","","","instructions","15","52408","0.0-15.0","ED9A8849B97549E7B49FF01230BC550F","019d0663-c07e-7054-a988-8708f7c9424a","019d0640-0a2d-7740-a972-9c73365b2dcb","[{""page_index"":0,""viewing_time"":2593}]","2593","","","","","","","","","","","","","",""
"","","","","","html-keyboard-response","16","57423","0.0-16.0","ED9A8849B97549E7B49FF01230BC550F","019d0663-c07e-7054-a988-8708f7c9424a","019d0640-0a2d-7740-a972-9c73365b2dcb","","null","<div style=""background-color: white; width: 100vw; height: 100vh;""></div>","null","","","","","","","","","","","",""
"","","","","","html-keyboard-response","17","62425","0.0-17.0","ED9A8849B97549E7B49FF01230BC550F","019d0663-c07e-7054-a988-8708f7c9424a","019d0640-0a2d-7740-a972-9c73365b2dcb","","null","
                <div class=""stimulus-container"">
                    <img src=""images/schematic_sequence/supermarket_scheme/supermarket_scheme_1.png"" class=""exp-image"">
                    <div class=""question-area""></div> 
                </div>","null","","","","","","","","","","","",""
"","","","","","html-button-response","18","64217","0.0-18.0","ED9A8849B97549E7B49FF01230BC550F","019d0663-c07e-7054-a988-8708f7c9424a","019d0640-0a2d-7740-a972-9c73365b2dcb","","1791","
                <div class=""stimulus-container"">
                    <img src=""images/schematic_sequence/supermarket_scheme/supermarket_scheme_1.png"" class=""exp-image"">
                    <div class=""question-area"">
                        <p style=""font-size: 20px; font-weight: bold; margin: 0;"">Is there a person in this image?</p>
                    </div>
                </div>","1","main_experiment_trial","1","supermarket_scheme","schematic_sequence","chronological","","","","","","",""
"","","","","","html-keyboard-response","19","69231","0.0-19.0","ED9A8849B97549E7B49FF01230BC550F","019d0663-c07e-7054-a988-8708f7c9424a","019d0640-0a2d-7740-a972-9c73365b2dcb","","null","
                <div class=""stimulus-container"">
                    <img src=""images/schematic_sequence/supermarket_scheme/supermarket_scheme_2.png"" class=""exp-image"">
                    <div class=""question-area""></div> 
                </div>","null","","","","","","","","","","","",""
"","","","","","html-button-response","20","70607","0.0-20.0","ED9A8849B97549E7B49FF01230BC550F","019d0663-c07e-7054-a988-8708f7c9424a","019d0640-0a2d-7740-a972-9c73365b2dcb","","1375","
                <div class=""stimulus-container"">
                    <img src=""images/schematic_sequence/supermarket_scheme/supermarket_scheme_2.png"" class=""exp-image"">
                    <div class=""question-area"">
                        <p style=""font-size: 20px; font-weight: bold; margin: 0;"">Is there a person in this image?</p>
                    </div>
                </div>","1","main_experiment_trial","2","supermarket_scheme","schematic_sequence","chronological","","","","","","",""
"","","","","","html-keyboard-response","21","75620","0.0-21.0","ED9A8849B97549E7B49FF01230BC550F","019d0663-c07e-7054-a988-8708f7c9424a","019d0640-0a2d-7740-a972-9c73365b2dcb","","null","
                <div class=""stimulus-container"">
                    <img src=""images/schematic_sequence/supermarket_scheme/supermarket_scheme_3.png"" class=""exp-image"">
                    <div class=""question-area""></div> 
                </div>","null","","","","","","","","","","","",""
"","","","","","html-button-response","22","78175","0.0-22.0","ED9A8849B97549E7B49FF01230BC550F","019d0663-c07e-7054-a988-8708f7c9424a","019d0640-0a2d-7740-a972-9c73365b2dcb","","2555","
                <div class=""stimulus-container"">
                    <img src=""images/schematic_sequence/supermarket_scheme/supermarket_scheme_3.png"" class=""exp-image"">
                    <div class=""question-area"">
                        <p style=""font-size: 20px; font-weight: bold; margin: 0;"">Is there a person in this image?</p>
                    </div>
                </div>","1","main_experiment_trial","3","supermarket_scheme","schematic_sequence","chronological","","","","","","",""
"","","","","","html-keyboard-response","23","83181","0.0-23.0","ED9A8849B97549E7B49FF01230BC550F","019d0663-c07e-7054-a988-8708f7c9424a","019d0640-0a2d-7740-a972-9c73365b2dcb","","null","
                <div class=""stimulus-container"">
                    <img src=""images/schematic_sequence/supermarket_scheme/supermarket_scheme_4.png"" class=""exp-image"">
                    <div class=""question-area""></div> 
                </div>","null","","","","","","","","","","","",""
"","","","","","html-button-response","24","83567","0.0-24.0","ED9A8849B97549E7B49FF01230BC550F","019d0663-c07e-7054-a988-8708f7c9424a","019d0640-0a2d-7740-a972-9c73365b2dcb","","385","
                <div class=""stimulus-container"">
                    <img src=""images/schematic_sequence/supermarket_scheme/supermarket_scheme_4.png"" class=""exp-image"">
                    <div class=""question-area"">
                        <p style=""font-size: 20px; font-weight: bold; margin: 0;"">Is there a person in this image?</p>
                    </div>
                </div>","0","main_experiment_trial","4","supermarket_scheme","schematic_sequence","chronological","","","","","","",""
"","","","","","html-keyboard-response","25","88576","0.0-25.0","ED9A8849B97549E7B49FF01230BC550F","019d0663-c07e-7054-a988-8708f7c9424a","019d0640-0a2d-7740-a972-9c73365b2dcb","","null","
                <div class=""stimulus-container"">
                    <img src=""images/schematic_sequence/supermarket_scheme/supermarket_scheme_5.png"" class=""exp-image"">
                    <div class=""question-area""></div> 
                </div>","null","","","","","","","","","","","",""
"","","","","","html-button-response","26","89760","0.0-26.0","ED9A8849B97549E7B49FF01230BC550F","019d0663-c07e-7054-a988-8708f7c9424a","019d0640-0a2d-7740-a972-9c73365b2dcb","","1184","
                <div class=""stimulus-container"">
                    <img src=""images/schematic_sequence/supermarket_scheme/supermarket_scheme_5.png"" class=""exp-image"">
                    <div class=""question-area"">
                        <p style=""font-size: 20px; font-weight: bold; margin: 0;"">Is there a person in this image?</p>
                    </div>
                </div>","1","main_experiment_trial","5","supermarket_scheme","schematic_sequence","chronological","","","","","","",""
"","","","","","html-keyboard-response","27","94772","0.0-27.0","ED9A8849B97549E7B49FF01230BC550F","019d0663-c07e-7054-a988-8708f7c9424a","019d0640-0a2d-7740-a972-9c73365b2dcb","","null","
                <div class=""stimulus-container"">
                    <img src=""images/schematic_sequence/supermarket_scheme/supermarket_scheme_6.png"" class=""exp-image"">
                    <div class=""question-area""></div> 
                </div>","null","","","","","","","","","","","",""
"","","","","","html-button-response","28","95773","0.0-28.0","ED9A8849B97549E7B49FF01230BC550F","019d0663-c07e-7054-a988-8708f7c9424a","019d0640-0a2d-7740-a972-9c73365b2dcb","","1000","
                <div class=""stimulus-container"">
                    <img src=""images/schematic_sequence/supermarket_scheme/supermarket_scheme_6.png"" class=""exp-image"">
                    <div class=""question-area"">
                        <p style=""font-size: 20px; font-weight: bold; margin: 0;"">Is there a person in this image?</p>
                    </div>
                </div>","0","main_experiment_trial","6","supermarket_scheme","schematic_sequence","chronological","","","","","","",""
"","","","","","html-keyboard-response","29","100777","0.0-29.0","ED9A8849B97549E7B49FF01230BC550F","019d0663-c07e-7054-a988-8708f7c9424a","019d0640-0a2d-7740-a972-9c73365b2dcb","","null","
                <div class=""stimulus-container"">
                    <img src=""images/schematic_sequence/supermarket_scheme/supermarket_scheme_7.png"" class=""exp-image"">
                    <div class=""question-area""></div> 
                </div>","null","","","","","","","","","","","",""
"","","","","","html-button-response","30","101080","0.0-30.0","ED9A8849B97549E7B49FF01230BC550F","019d0663-c07e-7054-a988-8708f7c9424a","019d0640-0a2d-7740-a972-9c73365b2dcb","","302","
                <div class=""stimulus-container"">
                    <img src=""images/schematic_sequence/supermarket_scheme/supermarket_scheme_7.png"" class=""exp-image"">
                    <div class=""question-area"">
                        <p style=""font-size: 20px; font-weight: bold; margin: 0;"">Is there a person in this image?</p>
                    </div>
                </div>","0","main_experiment_trial","7","supermarket_scheme","schematic_sequence","chronological","","","","","","",""
"","","","","","html-keyboard-response","31","106089","0.0-31.0","ED9A8849B97549E7B49FF01230BC550F","019d0663-c07e-7054-a988-8708f7c9424a","019d0640-0a2d-7740-a972-9c73365b2dcb","","null","
                <div class=""stimulus-container"">
                    <img src=""images/schematic_sequence/supermarket_scheme/supermarket_scheme_8.png"" class=""exp-image"">
                    <div class=""question-area""></div> 
                </div>","null","","","","","","","","","","","",""
"","","","","","html-button-response","32","106429","0.0-32.0","ED9A8849B97549E7B49FF01230BC550F","019d0663-c07e-7054-a988-8708f7c9424a","019d0640-0a2d-7740-a972-9c73365b2dcb","","339","
                <div class=""stimulus-container"">
                    <img src=""images/schematic_sequence/supermarket_scheme/supermarket_scheme_8.png"" class=""exp-image"">
                    <div class=""question-area"">
                        <p style=""font-size: 20px; font-weight: bold; margin: 0;"">Is there a person in this image?</p>
                    </div>
                </div>","0","main_experiment_trial","8","supermarket_scheme","schematic_sequence","chronological","","","","","","",""
"","","","","","html-keyboard-response","33","111433","0.0-33.0","ED9A8849B97549E7B49FF01230BC550F","019d0663-c07e-7054-a988-8708f7c9424a","019d0640-0a2d-7740-a972-9c73365b2dcb","","null","
                <div class=""stimulus-container"">
                    <img src=""images/schematic_sequence/supermarket_scheme/supermarket_scheme_9.png"" class=""exp-image"">
                    <div class=""question-area""></div> 
                </div>","null","","","","","","","","","","","",""
"","","","","","html-button-response","34","111729","0.0-34.0","ED9A8849B97549E7B49FF01230BC550F","019d0663-c07e-7054-a988-8708f7c9424a","019d0640-0a2d-7740-a972-9c73365b2dcb","","295","
                <div class=""stimulus-container"">
                    <img src=""images/schematic_sequence/supermarket_scheme/supermarket_scheme_9.png"" class=""exp-image"">
                    <div class=""question-area"">
                        <p style=""font-size: 20px; font-weight: bold; margin: 0;"">Is there a person in this image?</p>
                    </div>
                </div>","0","main_experiment_trial","9","supermarket_scheme","schematic_sequence","chronological","","","","","","",""
"","","","","","html-keyboard-response","35","116738","0.0-35.0","ED9A8849B97549E7B49FF01230BC550F","019d0663-c07e-7054-a988-8708f7c9424a","019d0640-0a2d-7740-a972-9c73365b2dcb","","null","
                <div class=""stimulus-container"">
                    <img src=""images/schematic_sequence/supermarket_scheme/supermarket_scheme_ten.png"" class=""exp-image"">
                    <div class=""question-area""></div> 
                </div>","null","","","","","","","","","","","",""
"","","","","","html-button-response","36","117139","0.0-36.0","ED9A8849B97549E7B49FF01230BC550F","019d0663-c07e-7054-a988-8708f7c9424a","019d0640-0a2d-7740-a972-9c73365b2dcb","","400","
                <div class=""stimulus-container"">
                    <img src=""images/schematic_sequence/supermarket_scheme/supermarket_scheme_ten.png"" class=""exp-image"">
                    <div class=""question-area"">
                        <p style=""font-size: 20px; font-weight: bold; margin: 0;"">Is there a person in this image?</p>
                    </div>
                </div>","1","main_experiment_trial","ten","supermarket_scheme","schematic_sequence","chronological","","","","","","",""
"","","","","","html-keyboard-response","37","122140","0.0-37.0","ED9A8849B97549E7B49FF01230BC550F","019d0663-c07e-7054-a988-8708f7c9424a","019d0640-0a2d-7740-a972-9c73365b2dcb","","null","<div style=""background-color: white; width: 100vw; height: 100vh;""></div>","null","","","","","","","","","","","",""
"","","","","","html-keyboard-response","38","127148","0.0-38.0","ED9A8849B97549E7B49FF01230BC550F","019d0663-c07e-7054-a988-8708f7c9424a","019d0640-0a2d-7740-a972-9c73365b2dcb","","null","
                <div class=""stimulus-container"">
                    <img src=""images/semantic_sequence/housework_semantic/housework_semantic_1.png"" class=""exp-image"">
                    <div class=""question-area""></div> 
                </div>","null","","","","","","","","","","","",""
"","","","","","html-button-response","39","127536","0.0-39.0","ED9A8849B97549E7B49FF01230BC550F","019d0663-c07e-7054-a988-8708f7c9424a","019d0640-0a2d-7740-a972-9c73365b2dcb","","387","
                <div class=""stimulus-container"">
                    <img src=""images/semantic_sequence/housework_semantic/housework_semantic_1.png"" class=""exp-image"">
                    <div class=""question-area"">
                        <p style=""font-size: 20px; font-weight: bold; margin: 0;"">Is there a person in this image?</p>
                    </div>
                </div>","0","main_experiment_trial","1","housework_semantic","semantic_sequence","chronological","","","","","","",""
"","","","","","html-keyboard-response","40","132551","0.0-40.0","ED9A8849B97549E7B49FF01230BC550F","019d0663-c07e-7054-a988-8708f7c9424a","019d0640-0a2d-7740-a972-9c73365b2dcb","","null","
                <div class=""stimulus-container"">
                    <img src=""images/semantic_sequence/housework_semantic/housework_semantic_2.png"" class=""exp-image"">
                    <div class=""question-area""></div> 
                </div>","null","","","","","","","","","","","",""
"","","","","","html-button-response","41","132947","0.0-41.0","ED9A8849B97549E7B49FF01230BC550F","019d0663-c07e-7054-a988-8708f7c9424a","019d0640-0a2d-7740-a972-9c73365b2dcb","","395","
                <div class=""stimulus-container"">
                    <img src=""images/semantic_sequence/housework_semantic/housework_semantic_2.png"" class=""exp-image"">
                    <div class=""question-area"">
                        <p style=""font-size: 20px; font-weight: bold; margin: 0;"">Is there a person in this image?</p>
                    </div>
                </div>","0","main_experiment_trial","2","housework_semantic","semantic_sequence","chronological","","","","","","",""
"","","","","","html-keyboard-response","42","137963","0.0-42.0","ED9A8849B97549E7B49FF01230BC550F","019d0663-c07e-7054-a988-8708f7c9424a","019d0640-0a2d-7740-a972-9c73365b2dcb","","null","
                <div class=""stimulus-container"">
                    <img src=""images/semantic_sequence/housework_semantic/housework_semantic_3.png"" class=""exp-image"">
                    <div class=""question-area""></div> 
                </div>","null","","","","","","","","","","","",""
"","","","","","html-button-response","43","139541","0.0-43.0","ED9A8849B97549E7B49FF01230BC550F","019d0663-c07e-7054-a988-8708f7c9424a","019d0640-0a2d-7740-a972-9c73365b2dcb","","1577","
                <div class=""stimulus-container"">
                    <img src=""images/semantic_sequence/housework_semantic/housework_semantic_3.png"" class=""exp-image"">
                    <div class=""question-area"">
                        <p style=""font-size: 20px; font-weight: bold; margin: 0;"">Is there a person in this image?</p>
                    </div>
                </div>","0","main_experiment_trial","3","housework_semantic","semantic_sequence","chronological","","","","","","",""
"","","","","","html-keyboard-response","44","144544","0.0-44.0","ED9A8849B97549E7B49FF01230BC550F","019d0663-c07e-7054-a988-8708f7c9424a","019d0640-0a2d-7740-a972-9c73365b2dcb","","null","
                <div class=""stimulus-container"">
                    <img src=""images/semantic_sequence/housework_semantic/housework_semantic_4.png"" class=""exp-image"">
                    <div class=""question-area""></div> 
                </div>","null","","","","","","","","","","","",""
"","","","","","html-button-response","45","146033","0.0-45.0","ED9A8849B97549E7B49FF01230BC550F","019d0663-c07e-7054-a988-8708f7c9424a","019d0640-0a2d-7740-a972-9c73365b2dcb","","1488","
                <div class=""stimulus-container"">
                    <img src=""images/semantic_sequence/housework_semantic/housework_semantic_4.png"" class=""exp-image"">
                    <div class=""question-area"">
                        <p style=""font-size: 20px; font-weight: bold; margin: 0;"">Is there a person in this image?</p>
                    </div>
                </div>","0","main_experiment_trial","4","housework_semantic","semantic_sequence","chronological","","","","","","",""
"","","","","","html-keyboard-response","46","151037","0.0-46.0","ED9A8849B97549E7B49FF01230BC550F","019d0663-c07e-7054-a988-8708f7c9424a","019d0640-0a2d-7740-a972-9c73365b2dcb","","null","
                <div class=""stimulus-container"">
                    <img src=""images/semantic_sequence/housework_semantic/housework_semantic_5.png"" class=""exp-image"">
                    <div class=""question-area""></div> 
                </div>","null","","","","","","","","","","","",""
"","","","","","html-button-response","47","151669","0.0-47.0","ED9A8849B97549E7B49FF01230BC550F","019d0663-c07e-7054-a988-8708f7c9424a","019d0640-0a2d-7740-a972-9c73365b2dcb","","631","
                <div class=""stimulus-container"">
                    <img src=""images/semantic_sequence/housework_semantic/housework_semantic_5.png"" class=""exp-image"">
                    <div class=""question-area"">
                        <p style=""font-size: 20px; font-weight: bold; margin: 0;"">Is there a person in this image?</p>
                    </div>
                </div>","0","main_experiment_trial","5","housework_semantic","semantic_sequence","chronological","","","","","","",""
"","","","","","html-keyboard-response","48","156680","0.0-48.0","ED9A8849B97549E7B49FF01230BC550F","019d0663-c07e-7054-a988-8708f7c9424a","019d0640-0a2d-7740-a972-9c73365b2dcb","","null","
                <div class=""stimulus-container"">
                    <img src=""images/semantic_sequence/housework_semantic/housework_semantic_6.png"" class=""exp-image"">
                    <div class=""question-area""></div> 
                </div>","null","","","","","","","","","","","",""
"","","","","","html-button-response","49","157063","0.0-49.0","ED9A8849B97549E7B49FF01230BC550F","019d0663-c07e-7054-a988-8708f7c9424a","019d0640-0a2d-7740-a972-9c73365b2dcb","","382","
                <div class=""stimulus-container"">
                    <img src=""images/semantic_sequence/housework_semantic/housework_semantic_6.png"" class=""exp-image"">
                    <div class=""question-area"">
                        <p style=""font-size: 20px; font-weight: bold; margin: 0;"">Is there a person in this image?</p>
                    </div>
                </div>","0","main_experiment_trial","6","housework_semantic","semantic_sequence","chronological","","","","","","",""
"","","","","","html-keyboard-response","50","162072","0.0-50.0","ED9A8849B97549E7B49FF01230BC550F","019d0663-c07e-7054-a988-8708f7c9424a","019d0640-0a2d-7740-a972-9c73365b2dcb","","null","
                <div class=""stimulus-container"">
                    <img src=""images/semantic_sequence/housework_semantic/housework_semantic_7.png"" class=""exp-image"">
                    <div class=""question-area""></div> 
                </div>","null","","","","","","","","","","","",""
"","","","","","html-button-response","51","162426","0.0-51.0","ED9A8849B97549E7B49FF01230BC550F","019d0663-c07e-7054-a988-8708f7c9424a","019d0640-0a2d-7740-a972-9c73365b2dcb","","353","
                <div class=""stimulus-container"">
                    <img src=""images/semantic_sequence/housework_semantic/housework_semantic_7.png"" class=""exp-image"">
                    <div class=""question-area"">
                        <p style=""font-size: 20px; font-weight: bold; margin: 0;"">Is there a person in this image?</p>
                    </div>
                </div>","0","main_experiment_trial","7","housework_semantic","semantic_sequence","chronological","","","","","","",""
"","","","","","html-keyboard-response","52","167432","0.0-52.0","ED9A8849B97549E7B49FF01230BC550F","019d0663-c07e-7054-a988-8708f7c9424a","019d0640-0a2d-7740-a972-9c73365b2dcb","","null","
                <div class=""stimulus-container"">
                    <img src=""images/semantic_sequence/housework_semantic/housework_semantic_8.png"" class=""exp-image"">
                    <div class=""question-area""></div> 
                </div>","null","","","","","","","","","","","",""
"","","","","","html-button-response","53","167883","0.0-53.0","ED9A8849B97549E7B49FF01230BC550F","019d0663-c07e-7054-a988-8708f7c9424a","019d0640-0a2d-7740-a972-9c73365b2dcb","","450","
                <div class=""stimulus-container"">
                    <img src=""images/semantic_sequence/housework_semantic/housework_semantic_8.png"" class=""exp-image"">
                    <div class=""question-area"">
                        <p style=""font-size: 20px; font-weight: bold; margin: 0;"">Is there a person in this image?</p>
                    </div>
                </div>","0","main_experiment_trial","8","housework_semantic","semantic_sequence","chronological","","","","","","",""
"","","","","","html-keyboard-response","54","172896","0.0-54.0","ED9A8849B97549E7B49FF01230BC550F","019d0663-c07e-7054-a988-8708f7c9424a","019d0640-0a2d-7740-a972-9c73365b2dcb","","null","
                <div class=""stimulus-container"">
                    <img src=""images/semantic_sequence/housework_semantic/housework_semantic_9.png"" class=""exp-image"">
                    <div class=""question-area""></div> 
                </div>","null","","","","","","","","","","","",""
"","","","","","html-button-response","55","173207","0.0-55.0","ED9A8849B97549E7B49FF01230BC550F","019d0663-c07e-7054-a988-8708f7c9424a","019d0640-0a2d-7740-a972-9c73365b2dcb","","311","
                <div class=""stimulus-container"">
                    <img src=""images/semantic_sequence/housework_semantic/housework_semantic_9.png"" class=""exp-image"">
                    <div class=""question-area"">
                        <p style=""font-size: 20px; font-weight: bold; margin: 0;"">Is there a person in this image?</p>
                    </div>
                </div>","0","main_experiment_trial","9","housework_semantic","semantic_sequence","chronological","","","","","","",""
"","","","","","html-keyboard-response","56","178217","0.0-56.0","ED9A8849B97549E7B49FF01230BC550F","019d0663-c07e-7054-a988-8708f7c9424a","019d0640-0a2d-7740-a972-9c73365b2dcb","","null","
                <div class=""stimulus-container"">
                    <img src=""images/semantic_sequence/housework_semantic/housework_semantic_ten.png"" class=""exp-image"">
                    <div class=""question-area""></div> 
                </div>","null","","","","","","","","","","","",""
"","","","","","html-button-response","57","181230","0.0-57.0","ED9A8849B97549E7B49FF01230BC550F","019d0663-c07e-7054-a988-8708f7c9424a","019d0640-0a2d-7740-a972-9c73365b2dcb","","null","
                <div class=""stimulus-container"">
                    <img src=""images/semantic_sequence/housework_semantic/housework_semantic_ten.png"" class=""exp-image"">
                    <div class=""question-area"">
                        <p style=""font-size: 20px; font-weight: bold; margin: 0;"">Is there a person in this image?</p>
                    </div>
                </div>","null","main_experiment_trial","ten","housework_semantic","semantic_sequence","chronological","","","","","","",""
"","","","","","html-keyboard-response","58","186244","0.0-58.0","ED9A8849B97549E7B49FF01230BC550F","019d0663-c07e-7054-a988-8708f7c9424a","019d0640-0a2d-7740-a972-9c73365b2dcb","","null","<div style=""background-color: white; width: 100vw; height: 100vh;""></div>","null","","","","","","","","","","","",""
"","","","","","html-keyboard-response","59","191249","0.0-59.0","ED9A8849B97549E7B49FF01230BC550F","019d0663-c07e-7054-a988-8708f7c9424a","019d0640-0a2d-7740-a972-9c73365b2dcb","","null","
                <div class=""stimulus-container"">
                    <img src=""images/causal_sequence/museum_causal/museum_causal_1.png"" class=""exp-image"">
                    <div class=""question-area""></div> 
                </div>","null","","","","","","","","","","","",""
"","","","","","html-button-response","60","191631","0.0-60.0","ED9A8849B97549E7B49FF01230BC550F","019d0663-c07e-7054-a988-8708f7c9424a","019d0640-0a2d-7740-a972-9c73365b2dcb","","381","
                <div class=""stimulus-container"">
                    <img src=""images/causal_sequence/museum_causal/museum_causal_1.png"" class=""exp-image"">
                    <div class=""question-area"">
                        <p style=""font-size: 20px; font-weight: bold; margin: 0;"">Is there a person in this image?</p>
                    </div>
                </div>","0","main_experiment_trial","1","museum_causal","causal_sequence","chronological","","","","","","",""
"","","","","","html-keyboard-response","61","196636","0.0-61.0","ED9A8849B97549E7B49FF01230BC550F","019d0663-c07e-7054-a988-8708f7c9424a","019d0640-0a2d-7740-a972-9c73365b2dcb","","null","
                <div class=""stimulus-container"">
                    <img src=""images/causal_sequence/museum_causal/museum_causal_2.png"" class=""exp-image"">
                    <div class=""question-area""></div> 
                </div>","null","","","","","","","","","","","",""
"","","","","","html-button-response","62","197212","0.0-62.0","ED9A8849B97549E7B49FF01230BC550F","019d0663-c07e-7054-a988-8708f7c9424a","019d0640-0a2d-7740-a972-9c73365b2dcb","","576","
                <div class=""stimulus-container"">
                    <img src=""images/causal_sequence/museum_causal/museum_causal_2.png"" class=""exp-image"">
                    <div class=""question-area"">
                        <p style=""font-size: 20px; font-weight: bold; margin: 0;"">Is there a person in this image?</p>
                    </div>
                </div>","0","main_experiment_trial","2","museum_causal","causal_sequence","chronological","","","","","","",""
"","","","","","html-keyboard-response","63","202223","0.0-63.0","ED9A8849B97549E7B49FF01230BC550F","019d0663-c07e-7054-a988-8708f7c9424a","019d0640-0a2d-7740-a972-9c73365b2dcb","","null","
                <div class=""stimulus-container"">
                    <img src=""images/causal_sequence/museum_causal/museum_causal_3.png"" class=""exp-image"">
                    <div class=""question-area""></div> 
                </div>","null","","","","","","","","","","","",""
"","","","","","html-button-response","64","202529","0.0-64.0","ED9A8849B97549E7B49FF01230BC550F","019d0663-c07e-7054-a988-8708f7c9424a","019d0640-0a2d-7740-a972-9c73365b2dcb","","305","
                <div class=""stimulus-container"">
                    <img src=""images/causal_sequence/museum_causal/museum_causal_3.png"" class=""exp-image"">
                    <div class=""question-area"">
                        <p style=""font-size: 20px; font-weight: bold; margin: 0;"">Is there a person in this image?</p>
                    </div>
                </div>","0","main_experiment_trial","3","museum_causal","causal_sequence","chronological","","","","","","",""
"","","","","","html-keyboard-response","65","207534","0.0-65.0","ED9A8849B97549E7B49FF01230BC550F","019d0663-c07e-7054-a988-8708f7c9424a","019d0640-0a2d-7740-a972-9c73365b2dcb","","null","
                <div class=""stimulus-container"">
                    <img src=""images/causal_sequence/museum_causal/museum_causal_4.png"" class=""exp-image"">
                    <div class=""question-area""></div> 
                </div>","null","","","","","","","","","","","",""
"","","","","","html-button-response","66","208448","0.0-66.0","ED9A8849B97549E7B49FF01230BC550F","019d0663-c07e-7054-a988-8708f7c9424a","019d0640-0a2d-7740-a972-9c73365b2dcb","","913","
                <div class=""stimulus-container"">
                    <img src=""images/causal_sequence/museum_causal/museum_causal_4.png"" class=""exp-image"">
                    <div class=""question-area"">
                        <p style=""font-size: 20px; font-weight: bold; margin: 0;"">Is there a person in this image?</p>
                    </div>
                </div>","1","main_experiment_trial","4","museum_causal","causal_sequence","chronological","","","","","","",""
"","","","","","html-keyboard-response","67","213457","0.0-67.0","ED9A8849B97549E7B49FF01230BC550F","019d0663-c07e-7054-a988-8708f7c9424a","019d0640-0a2d-7740-a972-9c73365b2dcb","","null","
                <div class=""stimulus-container"">
                    <img src=""images/causal_sequence/museum_causal/museum_causal_5.png"" class=""exp-image"">
                    <div class=""question-area""></div> 
                </div>","null","","","","","","","","","","","",""
"","","","","","html-button-response","68","216274","0.0-68.0","ED9A8849B97549E7B49FF01230BC550F","019d0663-c07e-7054-a988-8708f7c9424a","019d0640-0a2d-7740-a972-9c73365b2dcb","","2816","
                <div class=""stimulus-container"">
                    <img src=""images/causal_sequence/museum_causal/museum_causal_5.png"" class=""exp-image"">
                    <div class=""question-area"">
                        <p style=""font-size: 20px; font-weight: bold; margin: 0;"">Is there a person in this image?</p>
                    </div>
                </div>","0","main_experiment_trial","5","museum_causal","causal_sequence","chronological","","","","","","",""
"","","","","","html-keyboard-response","69","221277","0.0-69.0","ED9A8849B97549E7B49FF01230BC550F","019d0663-c07e-7054-a988-8708f7c9424a","019d0640-0a2d-7740-a972-9c73365b2dcb","","null","
                <div class=""stimulus-container"">
                    <img src=""images/causal_sequence/museum_causal/museum_causal_6.png"" class=""exp-image"">
                    <div class=""question-area""></div> 
                </div>","null","","","","","","","","","","","",""
"","","","","","html-button-response","70","224249","0.0-70.0","ED9A8849B97549E7B49FF01230BC550F","019d0663-c07e-7054-a988-8708f7c9424a","019d0640-0a2d-7740-a972-9c73365b2dcb","","2971","
                <div class=""stimulus-container"">
                    <img src=""images/causal_sequence/museum_causal/museum_causal_6.png"" class=""exp-image"">
                    <div class=""question-area"">
                        <p style=""font-size: 20px; font-weight: bold; margin: 0;"">Is there a person in this image?</p>
                    </div>
                </div>","0","main_experiment_trial","6","museum_causal","causal_sequence","chronological","","","","","","",""
"","","","","","html-keyboard-response","71","229251","0.0-71.0","ED9A8849B97549E7B49FF01230BC550F","019d0663-c07e-7054-a988-8708f7c9424a","019d0640-0a2d-7740-a972-9c73365b2dcb","","null","
                <div class=""stimulus-container"">
                    <img src=""images/causal_sequence/museum_causal/museum_causal_7.png"" class=""exp-image"">
                    <div class=""question-area""></div> 
                </div>","null","","","","","","","","","","","",""
"","","","","","html-button-response","72","229728","0.0-72.0","ED9A8849B97549E7B49FF01230BC550F","019d0663-c07e-7054-a988-8708f7c9424a","019d0640-0a2d-7740-a972-9c73365b2dcb","","476","
                <div class=""stimulus-container"">
                    <img src=""images/causal_sequence/museum_causal/museum_causal_7.png"" class=""exp-image"">
                    <div class=""question-area"">
                        <p style=""font-size: 20px; font-weight: bold; margin: 0;"">Is there a person in this image?</p>
                    </div>
                </div>","1","main_experiment_trial","7","museum_causal","causal_sequence","chronological","","","","","","",""
"","","","","","html-keyboard-response","73","234740","0.0-73.0","ED9A8849B97549E7B49FF01230BC550F","019d0663-c07e-7054-a988-8708f7c9424a","019d0640-0a2d-7740-a972-9c73365b2dcb","","null","
                <div class=""stimulus-container"">
                    <img src=""images/causal_sequence/museum_causal/museum_causal_8.png"" class=""exp-image"">
                    <div class=""question-area""></div> 
                </div>","null","","","","","","","","","","","",""
"","","","","","html-button-response","74","235657","0.0-74.0","ED9A8849B97549E7B49FF01230BC550F","019d0663-c07e-7054-a988-8708f7c9424a","019d0640-0a2d-7740-a972-9c73365b2dcb","","916","
                <div class=""stimulus-container"">
                    <img src=""images/causal_sequence/museum_causal/museum_causal_8.png"" class=""exp-image"">
                    <div class=""question-area"">
                        <p style=""font-size: 20px; font-weight: bold; margin: 0;"">Is there a person in this image?</p>
                    </div>
                </div>","0","main_experiment_trial","8","museum_causal","causal_sequence","chronological","","","","","","",""
"","","","","","html-keyboard-response","75","240662","0.0-75.0","ED9A8849B97549E7B49FF01230BC550F","019d0663-c07e-7054-a988-8708f7c9424a","019d0640-0a2d-7740-a972-9c73365b2dcb","","null","
                <div class=""stimulus-container"">
                    <img src=""images/causal_sequence/museum_causal/museum_causal_9.png"" class=""exp-image"">
                    <div class=""question-area""></div> 
                </div>","null","","","","","","","","","","","",""
"","","","","","html-button-response","76","241177","0.0-76.0","ED9A8849B97549E7B49FF01230BC550F","019d0663-c07e-7054-a988-8708f7c9424a","019d0640-0a2d-7740-a972-9c73365b2dcb","","515","
                <div class=""stimulus-container"">
                    <img src=""images/causal_sequence/museum_causal/museum_causal_9.png"" class=""exp-image"">
                    <div class=""question-area"">
                        <p style=""font-size: 20px; font-weight: bold; margin: 0;"">Is there a person in this image?</p>
                    </div>
                </div>","1","main_experiment_trial","9","museum_causal","causal_sequence","chronological","","","","","","",""
"","","","","","html-keyboard-response","77","246185","0.0-77.0","ED9A8849B97549E7B49FF01230BC550F","019d0663-c07e-7054-a988-8708f7c9424a","019d0640-0a2d-7740-a972-9c73365b2dcb","","null","
                <div class=""stimulus-container"">
                    <img src=""images/causal_sequence/museum_causal/museum_causal_ten.png"" class=""exp-image"">
                    <div class=""question-area""></div> 
                </div>","null","","","","","","","","","","","",""
"","","","","","html-button-response","78","246885","0.0-78.0","ED9A8849B97549E7B49FF01230BC550F","019d0663-c07e-7054-a988-8708f7c9424a","019d0640-0a2d-7740-a972-9c73365b2dcb","","699","
                <div class=""stimulus-container"">
                    <img src=""images/causal_sequence/museum_causal/museum_causal_ten.png"" class=""exp-image"">
                    <div class=""question-area"">
                        <p style=""font-size: 20px; font-weight: bold; margin: 0;"">Is there a person in this image?</p>
                    </div>
                </div>","0","main_experiment_trial","ten","museum_causal","causal_sequence","chronological","","","","","","",""
"","","","","","html-keyboard-response","79","251887","0.0-79.0","ED9A8849B97549E7B49FF01230BC550F","019d0663-c07e-7054-a988-8708f7c9424a","019d0640-0a2d-7740-a972-9c73365b2dcb","","null","<div style=""background-color: white; width: 100vw; height: 100vh;""></div>","null","","","","","","","","","","","",""
"","","","","","html-keyboard-response","80","256896","0.0-80.0","ED9A8849B97549E7B49FF01230BC550F","019d0663-c07e-7054-a988-8708f7c9424a","019d0640-0a2d-7740-a972-9c73365b2dcb","","null","
                <div class=""stimulus-container"">
                    <img src=""images/semantic_sequence/maintaining_a_car_semantic/maintaining_a_car_semantic_1.png"" class=""exp-image"">
                    <div class=""question-area""></div> 
                </div>","null","","","","","","","","","","","",""
"","","","","","html-button-response","81","257522","0.0-81.0","ED9A8849B97549E7B49FF01230BC550F","019d0663-c07e-7054-a988-8708f7c9424a","019d0640-0a2d-7740-a972-9c73365b2dcb","","625","
                <div class=""stimulus-container"">
                    <img src=""images/semantic_sequence/maintaining_a_car_semantic/maintaining_a_car_semantic_1.png"" class=""exp-image"">
                    <div class=""question-area"">
                        <p style=""font-size: 20px; font-weight: bold; margin: 0;"">Is there a person in this image?</p>
                    </div>
                </div>","0","main_experiment_trial","1","maintaining_a_car_semantic","semantic_sequence","chronological","","","","","","",""
"","","","","","html-keyboard-response","82","262538","0.0-82.0","ED9A8849B97549E7B49FF01230BC550F","019d0663-c07e-7054-a988-8708f7c9424a","019d0640-0a2d-7740-a972-9c73365b2dcb","","null","
                <div class=""stimulus-container"">
                    <img src=""images/semantic_sequence/maintaining_a_car_semantic/maintaining_a_car_semantic_2.png"" class=""exp-image"">
                    <div class=""question-area""></div> 
                </div>","null","","","","","","","","","","","",""
"","","","","","html-button-response","83","262861","0.0-83.0","ED9A8849B97549E7B49FF01230BC550F","019d0663-c07e-7054-a988-8708f7c9424a","019d0640-0a2d-7740-a972-9c73365b2dcb","","322","
                <div class=""stimulus-container"">
                    <img src=""images/semantic_sequence/maintaining_a_car_semantic/maintaining_a_car_semantic_2.png"" class=""exp-image"">
                    <div class=""question-area"">
                        <p style=""font-size: 20px; font-weight: bold; margin: 0;"">Is there a person in this image?</p>
                    </div>
                </div>","0","main_experiment_trial","2","maintaining_a_car_semantic","semantic_sequence","chronological","","","","","","",""
"","","","","","html-keyboard-response","84","267864","0.0-84.0","ED9A8849B97549E7B49FF01230BC550F","019d0663-c07e-7054-a988-8708f7c9424a","019d0640-0a2d-7740-a972-9c73365b2dcb","","null","
                <div class=""stimulus-container"">
                    <img src=""images/semantic_sequence/maintaining_a_car_semantic/maintaining_a_car_semantic_3.png"" class=""exp-image"">
                    <div class=""question-area""></div> 
                </div>","null","","","","","","","","","","","",""
"","","","","","html-button-response","85","270710","0.0-85.0","ED9A8849B97549E7B49FF01230BC550F","019d0663-c07e-7054-a988-8708f7c9424a","019d0640-0a2d-7740-a972-9c73365b2dcb","","2845","
                <div class=""stimulus-container"">
                    <img src=""images/semantic_sequence/maintaining_a_car_semantic/maintaining_a_car_semantic_3.png"" class=""exp-image"">
                    <div class=""question-area"">
                        <p style=""font-size: 20px; font-weight: bold; margin: 0;"">Is there a person in this image?</p>
                    </div>
                </div>","0","main_experiment_trial","3","maintaining_a_car_semantic","semantic_sequence","chronological","","","","","","",""
"","","","","","html-keyboard-response","86","275726","0.0-86.0","ED9A8849B97549E7B49FF01230BC550F","019d0663-c07e-7054-a988-8708f7c9424a","019d0640-0a2d-7740-a972-9c73365b2dcb","","null","
                <div class=""stimulus-container"">
                    <img src=""images/semantic_sequence/maintaining_a_car_semantic/maintaining_a_car_semantic_4.png"" class=""exp-image"">
                    <div class=""question-area""></div> 
                </div>","null","","","","","","","","","","","",""
"","","","","","html-button-response","87","277798","0.0-87.0","ED9A8849B97549E7B49FF01230BC550F","019d0663-c07e-7054-a988-8708f7c9424a","019d0640-0a2d-7740-a972-9c73365b2dcb","","2071","
                <div class=""stimulus-container"">
                    <img src=""images/semantic_sequence/maintaining_a_car_semantic/maintaining_a_car_semantic_4.png"" class=""exp-image"">
                    <div class=""question-area"">
                        <p style=""font-size: 20px; font-weight: bold; margin: 0;"">Is there a person in this image?</p>
                    </div>
                </div>","0","main_experiment_trial","4","maintaining_a_car_semantic","semantic_sequence","chronological","","","","","","",""
"","","","","","html-keyboard-response","88","282811","0.0-88.0","ED9A8849B97549E7B49FF01230BC550F","019d0663-c07e-7054-a988-8708f7c9424a","019d0640-0a2d-7740-a972-9c73365b2dcb","","null","
                <div class=""stimulus-container"">
                    <img src=""images/semantic_sequence/maintaining_a_car_semantic/maintaining_a_car_semantic_5.png"" class=""exp-image"">
                    <div class=""question-area""></div> 
                </div>","null","","","","","","","","","","","",""
"","","","","","html-button-response","89","284710","0.0-89.0","ED9A8849B97549E7B49FF01230BC550F","019d0663-c07e-7054-a988-8708f7c9424a","019d0640-0a2d-7740-a972-9c73365b2dcb","","1898","
                <div class=""stimulus-container"">
                    <img src=""images/semantic_sequence/maintaining_a_car_semantic/maintaining_a_car_semantic_5.png"" class=""exp-image"">
                    <div class=""question-area"">
                        <p style=""font-size: 20px; font-weight: bold; margin: 0;"">Is there a person in this image?</p>
                    </div>
                </div>","0","main_experiment_trial","5","maintaining_a_car_semantic","semantic_sequence","chronological","","","","","","",""
"","","","","","html-keyboard-response","90","289725","0.0-90.0","ED9A8849B97549E7B49FF01230BC550F","019d0663-c07e-7054-a988-8708f7c9424a","019d0640-0a2d-7740-a972-9c73365b2dcb","","null","
                <div class=""stimulus-container"">
                    <img src=""images/semantic_sequence/maintaining_a_car_semantic/maintaining_a_car_semantic_6.png"" class=""exp-image"">
                    <div class=""question-area""></div> 
                </div>","null","","","","","","","","","","","",""
"","","","","","html-button-response","91","292551","0.0-91.0","ED9A8849B97549E7B49FF01230BC550F","019d0663-c07e-7054-a988-8708f7c9424a","019d0640-0a2d-7740-a972-9c73365b2dcb","","2824","
                <div class=""stimulus-container"">
                    <img src=""images/semantic_sequence/maintaining_a_car_semantic/maintaining_a_car_semantic_6.png"" class=""exp-image"">
                    <div class=""question-area"">
                        <p style=""font-size: 20px; font-weight: bold; margin: 0;"">Is there a person in this image?</p>
                    </div>
                </div>","0","main_experiment_trial","6","maintaining_a_car_semantic","semantic_sequence","chronological","","","","","","",""
"","","","","","html-keyboard-response","92","297564","0.0-92.0","ED9A8849B97549E7B49FF01230BC550F","019d0663-c07e-7054-a988-8708f7c9424a","019d0640-0a2d-7740-a972-9c73365b2dcb","","null","
                <div class=""stimulus-container"">
                    <img src=""images/semantic_sequence/maintaining_a_car_semantic/maintaining_a_car_semantic_7.png"" class=""exp-image"">
                    <div class=""question-area""></div> 
                </div>","null","","","","","","","","","","","",""
"","","","","","html-button-response","93","300574","0.0-93.0","ED9A8849B97549E7B49FF01230BC550F","019d0663-c07e-7054-a988-8708f7c9424a","019d0640-0a2d-7740-a972-9c73365b2dcb","","null","
                <div class=""stimulus-container"">
                    <img src=""images/semantic_sequence/maintaining_a_car_semantic/maintaining_a_car_semantic_7.png"" class=""exp-image"">
                    <div class=""question-area"">
                        <p style=""font-size: 20px; font-weight: bold; margin: 0;"">Is there a person in this image?</p>
                    </div>
                </div>","null","main_experiment_trial","7","maintaining_a_car_semantic","semantic_sequence","chronological","","","","","","",""
"","","","","","html-keyboard-response","94","305587","0.0-94.0","ED9A8849B97549E7B49FF01230BC550F","019d0663-c07e-7054-a988-8708f7c9424a","019d0640-0a2d-7740-a972-9c73365b2dcb","","null","
                <div class=""stimulus-container"">
                    <img src=""images/semantic_sequence/maintaining_a_car_semantic/maintaining_a_car_semantic_8.png"" class=""exp-image"">
                    <div class=""question-area""></div> 
                </div>","null","","","","","","","","","","","",""
"","","","","","html-button-response","95","306801","0.0-95.0","ED9A8849B97549E7B49FF01230BC550F","019d0663-c07e-7054-a988-8708f7c9424a","019d0640-0a2d-7740-a972-9c73365b2dcb","","1213","
                <div class=""stimulus-container"">
                    <img src=""images/semantic_sequence/maintaining_a_car_semantic/maintaining_a_car_semantic_8.png"" class=""exp-image"">
                    <div class=""question-area"">
                        <p style=""font-size: 20px; font-weight: bold; margin: 0;"">Is there a person in this image?</p>
                    </div>
                </div>","0","main_experiment_trial","8","maintaining_a_car_semantic","semantic_sequence","chronological","","","","","","",""
"","","","","","html-keyboard-response","96","311804","0.0-96.0","ED9A8849B97549E7B49FF01230BC550F","019d0663-c07e-7054-a988-8708f7c9424a","019d0640-0a2d-7740-a972-9c73365b2dcb","","null","
                <div class=""stimulus-container"">
                    <img src=""images/semantic_sequence/maintaining_a_car_semantic/maintaining_a_car_semantic_9.png"" class=""exp-image"">
                    <div class=""question-area""></div> 
                </div>","null","","","","","","","","","","","",""
"","","","","","html-button-response","97","312321","0.0-97.0","ED9A8849B97549E7B49FF01230BC550F","019d0663-c07e-7054-a988-8708f7c9424a","019d0640-0a2d-7740-a972-9c73365b2dcb","","516","
                <div class=""stimulus-container"">
                    <img src=""images/semantic_sequence/maintaining_a_car_semantic/maintaining_a_car_semantic_9.png"" class=""exp-image"">
                    <div class=""question-area"">
                        <p style=""font-size: 20px; font-weight: bold; margin: 0;"">Is there a person in this image?</p>
                    </div>
                </div>","0","main_experiment_trial","9","maintaining_a_car_semantic","semantic_sequence","chronological","","","","","","",""
"","","","","","html-keyboard-response","98","317329","0.0-98.0","ED9A8849B97549E7B49FF01230BC550F","019d0663-c07e-7054-a988-8708f7c9424a","019d0640-0a2d-7740-a972-9c73365b2dcb","","null","
                <div class=""stimulus-container"">
                    <img src=""images/semantic_sequence/maintaining_a_car_semantic/maintaining_a_car_semantic_ten.png"" class=""exp-image"">
                    <div class=""question-area""></div> 
                </div>","null","","","","","","","","","","","",""
"","","","","","html-button-response","99","317887","0.0-99.0","ED9A8849B97549E7B49FF01230BC550F","019d0663-c07e-7054-a988-8708f7c9424a","019d0640-0a2d-7740-a972-9c73365b2dcb","","557","
                <div class=""stimulus-container"">
                    <img src=""images/semantic_sequence/maintaining_a_car_semantic/maintaining_a_car_semantic_ten.png"" class=""exp-image"">
                    <div class=""question-area"">
                        <p style=""font-size: 20px; font-weight: bold; margin: 0;"">Is there a person in this image?</p>
                    </div>
                </div>","0","main_experiment_trial","ten","maintaining_a_car_semantic","semantic_sequence","chronological","","","","","","",""
"","","","","","html-keyboard-response","100","322889","0.0-100.0","ED9A8849B97549E7B49FF01230BC550F","019d0663-c07e-7054-a988-8708f7c9424a","019d0640-0a2d-7740-a972-9c73365b2dcb","","null","<div style=""background-color: white; width: 100vw; height: 100vh;""></div>","null","","","","","","","","","","","",""
"","","","","","html-keyboard-response","101","327898","0.0-101.0","ED9A8849B97549E7B49FF01230BC550F","019d0663-c07e-7054-a988-8708f7c9424a","019d0640-0a2d-7740-a972-9c73365b2dcb","","null","
                <div class=""stimulus-container"">
                    <img src=""images/schematic_sequence/dinner_party_scheme/dinner_party_scheme_1.png"" class=""exp-image"">
                    <div class=""question-area""></div> 
                </div>","null","","","","","","","","","","","",""
"","","","","","html-button-response","102","328967","0.0-102.0","ED9A8849B97549E7B49FF01230BC550F","019d0663-c07e-7054-a988-8708f7c9424a","019d0640-0a2d-7740-a972-9c73365b2dcb","","1068","
                <div class=""stimulus-container"">
                    <img src=""images/schematic_sequence/dinner_party_scheme/dinner_party_scheme_1.png"" class=""exp-image"">
                    <div class=""question-area"">
                        <p style=""font-size: 20px; font-weight: bold; margin: 0;"">Is there a person in this image?</p>
                    </div>
                </div>","0","main_experiment_trial","1","dinner_party_scheme","schematic_sequence","chronological","","","","","","",""
"","","","","","html-keyboard-response","103","333981","0.0-103.0","ED9A8849B97549E7B49FF01230BC550F","019d0663-c07e-7054-a988-8708f7c9424a","019d0640-0a2d-7740-a972-9c73365b2dcb","","null","
                <div class=""stimulus-container"">
                    <img src=""images/schematic_sequence/dinner_party_scheme/dinner_party_scheme_2.png"" class=""exp-image"">
                    <div class=""question-area""></div> 
                </div>","null","","","","","","","","","","","",""
"","","","","","html-button-response","104","335811","0.0-104.0","ED9A8849B97549E7B49FF01230BC550F","019d0663-c07e-7054-a988-8708f7c9424a","019d0640-0a2d-7740-a972-9c73365b2dcb","","1829","
                <div class=""stimulus-container"">
                    <img src=""images/schematic_sequence/dinner_party_scheme/dinner_party_scheme_2.png"" class=""exp-image"">
                    <div class=""question-area"">
                        <p style=""font-size: 20px; font-weight: bold; margin: 0;"">Is there a person in this image?</p>
                    </div>
                </div>","0","main_experiment_trial","2","dinner_party_scheme","schematic_sequence","chronological","","","","","","",""
"","","","","","html-keyboard-response","105","340825","0.0-105.0","ED9A8849B97549E7B49FF01230BC550F","019d0663-c07e-7054-a988-8708f7c9424a","019d0640-0a2d-7740-a972-9c73365b2dcb","","null","
                <div class=""stimulus-container"">
                    <img src=""images/schematic_sequence/dinner_party_scheme/dinner_party_scheme_3.png"" class=""exp-image"">
                    <div class=""question-area""></div> 
                </div>","null","","","","","","","","","","","",""
"","","","","","html-button-response","106","343828","0.0-106.0","ED9A8849B97549E7B49FF01230BC550F","019d0663-c07e-7054-a988-8708f7c9424a","019d0640-0a2d-7740-a972-9c73365b2dcb","","null","
                <div class=""stimulus-container"">
                    <img src=""images/schematic_sequence/dinner_party_scheme/dinner_party_scheme_3.png"" class=""exp-image"">
                    <div class=""question-area"">
                        <p style=""font-size: 20px; font-weight: bold; margin: 0;"">Is there a person in this image?</p>
                    </div>
                </div>","null","main_experiment_trial","3","dinner_party_scheme","schematic_sequence","chronological","","","","","","",""
"","","","","","html-keyboard-response","107","348834","0.0-107.0","ED9A8849B97549E7B49FF01230BC550F","019d0663-c07e-7054-a988-8708f7c9424a","019d0640-0a2d-7740-a972-9c73365b2dcb","","null","
                <div class=""stimulus-container"">
                    <img src=""images/schematic_sequence/dinner_party_scheme/dinner_party_scheme_4.png"" class=""exp-image"">
                    <div class=""question-area""></div> 
                </div>","null","","","","","","","","","","","",""
"","","","","","html-button-response","108","350217","0.0-108.0","ED9A8849B97549E7B49FF01230BC550F","019d0663-c07e-7054-a988-8708f7c9424a","019d0640-0a2d-7740-a972-9c73365b2dcb","","1382","
                <div class=""stimulus-container"">
                    <img src=""images/schematic_sequence/dinner_party_scheme/dinner_party_scheme_4.png"" class=""exp-image"">
                    <div class=""question-area"">
                        <p style=""font-size: 20px; font-weight: bold; margin: 0;"">Is there a person in this image?</p>
                    </div>
                </div>","0","main_experiment_trial","4","dinner_party_scheme","schematic_sequence","chronological","","","","","","",""
"","","","","","html-keyboard-response","109","355222","0.0-109.0","ED9A8849B97549E7B49FF01230BC550F","019d0663-c07e-7054-a988-8708f7c9424a","019d0640-0a2d-7740-a972-9c73365b2dcb","","null","
                <div class=""stimulus-container"">
                    <img src=""images/schematic_sequence/dinner_party_scheme/dinner_party_scheme_5.png"" class=""exp-image"">
                    <div class=""question-area""></div> 
                </div>","null","","","","","","","","","","","",""
"","","","","","html-button-response","110","358236","0.0-110.0","ED9A8849B97549E7B49FF01230BC550F","019d0663-c07e-7054-a988-8708f7c9424a","019d0640-0a2d-7740-a972-9c73365b2dcb","","null","
                <div class=""stimulus-container"">
                    <img src=""images/schematic_sequence/dinner_party_scheme/dinner_party_scheme_5.png"" class=""exp-image"">
                    <div class=""question-area"">
                        <p style=""font-size: 20px; font-weight: bold; margin: 0;"">Is there a person in this image?</p>
                    </div>
                </div>","null","main_experiment_trial","5","dinner_party_scheme","schematic_sequence","chronological","","","","","","",""
"","","","","","html-keyboard-response","111","363252","0.0-111.0","ED9A8849B97549E7B49FF01230BC550F","019d0663-c07e-7054-a988-8708f7c9424a","019d0640-0a2d-7740-a972-9c73365b2dcb","","null","
                <div class=""stimulus-container"">
                    <img src=""images/schematic_sequence/dinner_party_scheme/dinner_party_scheme_6.png"" class=""exp-image"">
                    <div class=""question-area""></div> 
                </div>","null","","","","","","","","","","","",""
"","","","","","html-button-response","112","363594","0.0-112.0","ED9A8849B97549E7B49FF01230BC550F","019d0663-c07e-7054-a988-8708f7c9424a","019d0640-0a2d-7740-a972-9c73365b2dcb","","341","
                <div class=""stimulus-container"">
                    <img src=""images/schematic_sequence/dinner_party_scheme/dinner_party_scheme_6.png"" class=""exp-image"">
                    <div class=""question-area"">
                        <p style=""font-size: 20px; font-weight: bold; margin: 0;"">Is there a person in this image?</p>
                    </div>
                </div>","0","main_experiment_trial","6","dinner_party_scheme","schematic_sequence","chronological","","","","","","",""
"","","","","","html-keyboard-response","113","368599","0.0-113.0","ED9A8849B97549E7B49FF01230BC550F","019d0663-c07e-7054-a988-8708f7c9424a","019d0640-0a2d-7740-a972-9c73365b2dcb","","null","
                <div class=""stimulus-container"">
                    <img src=""images/schematic_sequence/dinner_party_scheme/dinner_party_scheme_7.png"" class=""exp-image"">
                    <div class=""question-area""></div> 
                </div>","null","","","","","","","","","","","",""
"","","","","","html-button-response","114","371610","0.0-114.0","ED9A8849B97549E7B49FF01230BC550F","019d0663-c07e-7054-a988-8708f7c9424a","019d0640-0a2d-7740-a972-9c73365b2dcb","","null","
                <div class=""stimulus-container"">
                    <img src=""images/schematic_sequence/dinner_party_scheme/dinner_party_scheme_7.png"" class=""exp-image"">
                    <div class=""question-area"">
                        <p style=""font-size: 20px; font-weight: bold; margin: 0;"">Is there a person in this image?</p>
                    </div>
                </div>","null","main_experiment_trial","7","dinner_party_scheme","schematic_sequence","chronological","","","","","","",""
"","","","","","html-keyboard-response","115","376622","0.0-115.0","ED9A8849B97549E7B49FF01230BC550F","019d0663-c07e-7054-a988-8708f7c9424a","019d0640-0a2d-7740-a972-9c73365b2dcb","","null","
                <div class=""stimulus-container"">
                    <img src=""images/schematic_sequence/dinner_party_scheme/dinner_party_scheme_8.png"" class=""exp-image"">
                    <div class=""question-area""></div> 
                </div>","null","","","","","","","","","","","",""
"","","","","","html-button-response","116","377027","0.0-116.0","ED9A8849B97549E7B49FF01230BC550F","019d0663-c07e-7054-a988-8708f7c9424a","019d0640-0a2d-7740-a972-9c73365b2dcb","","404","
                <div class=""stimulus-container"">
                    <img src=""images/schematic_sequence/dinner_party_scheme/dinner_party_scheme_8.png"" class=""exp-image"">
                    <div class=""question-area"">
                        <p style=""font-size: 20px; font-weight: bold; margin: 0;"">Is there a person in this image?</p>
                    </div>
                </div>","0","main_experiment_trial","8","dinner_party_scheme","schematic_sequence","chronological","","","","","","",""
"","","","","","html-keyboard-response","117","382028","0.0-117.0","ED9A8849B97549E7B49FF01230BC550F","019d0663-c07e-7054-a988-8708f7c9424a","019d0640-0a2d-7740-a972-9c73365b2dcb","","null","
                <div class=""stimulus-container"">
                    <img src=""images/schematic_sequence/dinner_party_scheme/dinner_party_scheme_9.png"" class=""exp-image"">
                    <div class=""question-area""></div> 
                </div>","null","","","","","","","","","","","",""
"","","","","","html-button-response","118","383973","0.0-118.0","ED9A8849B97549E7B49FF01230BC550F","019d0663-c07e-7054-a988-8708f7c9424a","019d0640-0a2d-7740-a972-9c73365b2dcb","","1944","
                <div class=""stimulus-container"">
                    <img src=""images/schematic_sequence/dinner_party_scheme/dinner_party_scheme_9.png"" class=""exp-image"">
                    <div class=""question-area"">
                        <p style=""font-size: 20px; font-weight: bold; margin: 0;"">Is there a person in this image?</p>
                    </div>
                </div>","0","main_experiment_trial","9","dinner_party_scheme","schematic_sequence","chronological","","","","","","",""
"","","","","","html-keyboard-response","119","388986","0.0-119.0","ED9A8849B97549E7B49FF01230BC550F","019d0663-c07e-7054-a988-8708f7c9424a","019d0640-0a2d-7740-a972-9c73365b2dcb","","null","
                <div class=""stimulus-container"">
                    <img src=""images/schematic_sequence/dinner_party_scheme/dinner_party_scheme_ten.png"" class=""exp-image"">
                    <div class=""question-area""></div> 
                </div>","null","","","","","","","","","","","",""
"","","","","","html-button-response","120","391427","0.0-120.0","ED9A8849B97549E7B49FF01230BC550F","019d0663-c07e-7054-a988-8708f7c9424a","019d0640-0a2d-7740-a972-9c73365b2dcb","","2441","
                <div class=""stimulus-container"">
                    <img src=""images/schematic_sequence/dinner_party_scheme/dinner_party_scheme_ten.png"" class=""exp-image"">
                    <div class=""question-area"">
                        <p style=""font-size: 20px; font-weight: bold; margin: 0;"">Is there a person in this image?</p>
                    </div>
                </div>","0","main_experiment_trial","ten","dinner_party_scheme","schematic_sequence","chronological","","","","","","",""
"","","","","","html-keyboard-response","121","396433","0.0-121.0","ED9A8849B97549E7B49FF01230BC550F","019d0663-c07e-7054-a988-8708f7c9424a","019d0640-0a2d-7740-a972-9c73365b2dcb","","null","<div style=""background-color: white; width: 100vw; height: 100vh;""></div>","null","","","","","","","","","","","",""
"","","","","","html-keyboard-response","122","401445","0.0-122.0","ED9A8849B97549E7B49FF01230BC550F","019d0663-c07e-7054-a988-8708f7c9424a","019d0640-0a2d-7740-a972-9c73365b2dcb","","null","
                <div class=""stimulus-container"">
                    <img src=""images/semantic_sequence/self_care_activities_semantic/self_care_activities_semantic_1.png"" class=""exp-image"">
                    <div class=""question-area""></div> 
                </div>","null","","","","","","","","","","","",""
"","","","","","html-button-response","123","401870","0.0-123.0","ED9A8849B97549E7B49FF01230BC550F","019d0663-c07e-7054-a988-8708f7c9424a","019d0640-0a2d-7740-a972-9c73365b2dcb","","424","
                <div class=""stimulus-container"">
                    <img src=""images/semantic_sequence/self_care_activities_semantic/self_care_activities_semantic_1.png"" class=""exp-image"">
                    <div class=""question-area"">
                        <p style=""font-size: 20px; font-weight: bold; margin: 0;"">Is there a person in this image?</p>
                    </div>
                </div>","0","main_experiment_trial","1","self_care_activities_semantic","semantic_sequence","chronological","","","","","","",""
"","","","","","html-keyboard-response","124","406875","0.0-124.0","ED9A8849B97549E7B49FF01230BC550F","019d0663-c07e-7054-a988-8708f7c9424a","019d0640-0a2d-7740-a972-9c73365b2dcb","","null","
                <div class=""stimulus-container"">
                    <img src=""images/semantic_sequence/self_care_activities_semantic/self_care_activities_semantic_2.png"" class=""exp-image"">
                    <div class=""question-area""></div> 
                </div>","null","","","","","","","","","","","",""
"","","","","","html-button-response","125","407993","0.0-125.0","ED9A8849B97549E7B49FF01230BC550F","019d0663-c07e-7054-a988-8708f7c9424a","019d0640-0a2d-7740-a972-9c73365b2dcb","","1117","
                <div class=""stimulus-container"">
                    <img src=""images/semantic_sequence/self_care_activities_semantic/self_care_activities_semantic_2.png"" class=""exp-image"">
                    <div class=""question-area"">
                        <p style=""font-size: 20px; font-weight: bold; margin: 0;"">Is there a person in this image?</p>
                    </div>
                </div>","0","main_experiment_trial","2","self_care_activities_semantic","semantic_sequence","chronological","","","","","","",""
"","","","","","html-keyboard-response","126","412996","0.0-126.0","ED9A8849B97549E7B49FF01230BC550F","019d0663-c07e-7054-a988-8708f7c9424a","019d0640-0a2d-7740-a972-9c73365b2dcb","","null","
                <div class=""stimulus-container"">
                    <img src=""images/semantic_sequence/self_care_activities_semantic/self_care_activities_semantic_3.png"" class=""exp-image"">
                    <div class=""question-area""></div> 
                </div>","null","","","","","","","","","","","",""
"","","","","","html-button-response","127","413471","0.0-127.0","ED9A8849B97549E7B49FF01230BC550F","019d0663-c07e-7054-a988-8708f7c9424a","019d0640-0a2d-7740-a972-9c73365b2dcb","","475","
                <div class=""stimulus-container"">
                    <img src=""images/semantic_sequence/self_care_activities_semantic/self_care_activities_semantic_3.png"" class=""exp-image"">
                    <div class=""question-area"">
                        <p style=""font-size: 20px; font-weight: bold; margin: 0;"">Is there a person in this image?</p>
                    </div>
                </div>","0","main_experiment_trial","3","self_care_activities_semantic","semantic_sequence","chronological","","","","","","",""
"","","","","","html-keyboard-response","128","418475","0.0-128.0","ED9A8849B97549E7B49FF01230BC550F","019d0663-c07e-7054-a988-8708f7c9424a","019d0640-0a2d-7740-a972-9c73365b2dcb","","null","
                <div class=""stimulus-container"">
                    <img src=""images/semantic_sequence/self_care_activities_semantic/self_care_activities_semantic_4.png"" class=""exp-image"">
                    <div class=""question-area""></div> 
                </div>","null","","","","","","","","","","","",""
"","","","","","html-button-response","129","418765","0.0-129.0","ED9A8849B97549E7B49FF01230BC550F","019d0663-c07e-7054-a988-8708f7c9424a","019d0640-0a2d-7740-a972-9c73365b2dcb","","289","
                <div class=""stimulus-container"">
                    <img src=""images/semantic_sequence/self_care_activities_semantic/self_care_activities_semantic_4.png"" class=""exp-image"">
                    <div class=""question-area"">
                        <p style=""font-size: 20px; font-weight: bold; margin: 0;"">Is there a person in this image?</p>
                    </div>
                </div>","0","main_experiment_trial","4","self_care_activities_semantic","semantic_sequence","chronological","","","","","","",""
"","","","","","html-keyboard-response","130","423775","0.0-130.0","ED9A8849B97549E7B49FF01230BC550F","019d0663-c07e-7054-a988-8708f7c9424a","019d0640-0a2d-7740-a972-9c73365b2dcb","","null","
                <div class=""stimulus-container"">
                    <img src=""images/semantic_sequence/self_care_activities_semantic/self_care_activities_semantic_5.png"" class=""exp-image"">
                    <div class=""question-area""></div> 
                </div>","null","","","","","","","","","","","",""
"","","","","","html-button-response","131","424154","0.0-131.0","ED9A8849B97549E7B49FF01230BC550F","019d0663-c07e-7054-a988-8708f7c9424a","019d0640-0a2d-7740-a972-9c73365b2dcb","","378","
                <div class=""stimulus-container"">
                    <img src=""images/semantic_sequence/self_care_activities_semantic/self_care_activities_semantic_5.png"" class=""exp-image"">
                    <div class=""question-area"">
                        <p style=""font-size: 20px; font-weight: bold; margin: 0;"">Is there a person in this image?</p>
                    </div>
                </div>","0","main_experiment_trial","5","self_care_activities_semantic","semantic_sequence","chronological","","","","","","",""
"","","","","","html-keyboard-response","132","429161","0.0-132.0","ED9A8849B97549E7B49FF01230BC550F","019d0663-c07e-7054-a988-8708f7c9424a","019d0640-0a2d-7740-a972-9c73365b2dcb","","null","
                <div class=""stimulus-container"">
                    <img src=""images/semantic_sequence/self_care_activities_semantic/self_care_activities_semantic_6.png"" class=""exp-image"">
                    <div class=""question-area""></div> 
                </div>","null","","","","","","","","","","","",""
"","","","","","html-button-response","133","429564","0.0-133.0","ED9A8849B97549E7B49FF01230BC550F","019d0663-c07e-7054-a988-8708f7c9424a","019d0640-0a2d-7740-a972-9c73365b2dcb","","402","
                <div class=""stimulus-container"">
                    <img src=""images/semantic_sequence/self_care_activities_semantic/self_care_activities_semantic_6.png"" class=""exp-image"">
                    <div class=""question-area"">
                        <p style=""font-size: 20px; font-weight: bold; margin: 0;"">Is there a person in this image?</p>
                    </div>
                </div>","1","main_experiment_trial","6","self_care_activities_semantic","semantic_sequence","chronological","","","","","","",""
"","","","","","html-keyboard-response","134","434568","0.0-134.0","ED9A8849B97549E7B49FF01230BC550F","019d0663-c07e-7054-a988-8708f7c9424a","019d0640-0a2d-7740-a972-9c73365b2dcb","","null","
                <div class=""stimulus-container"">
                    <img src=""images/semantic_sequence/self_care_activities_semantic/self_care_activities_semantic_7.png"" class=""exp-image"">
                    <div class=""question-area""></div> 
                </div>","null","","","","","","","","","","","",""
"","","","","","html-button-response","135","437512","0.0-135.0","ED9A8849B97549E7B49FF01230BC550F","019d0663-c07e-7054-a988-8708f7c9424a","019d0640-0a2d-7740-a972-9c73365b2dcb","","2943","
                <div class=""stimulus-container"">
                    <img src=""images/semantic_sequence/self_care_activities_semantic/self_care_activities_semantic_7.png"" class=""exp-image"">
                    <div class=""question-area"">
                        <p style=""font-size: 20px; font-weight: bold; margin: 0;"">Is there a person in this image?</p>
                    </div>
                </div>","0","main_experiment_trial","7","self_care_activities_semantic","semantic_sequence","chronological","","","","","","",""
"","","","","","html-keyboard-response","136","442525","0.0-136.0","ED9A8849B97549E7B49FF01230BC550F","019d0663-c07e-7054-a988-8708f7c9424a","019d0640-0a2d-7740-a972-9c73365b2dcb","","null","
                <div class=""stimulus-container"">
                    <img src=""images/semantic_sequence/self_care_activities_semantic/self_care_activities_semantic_8.png"" class=""exp-image"">
                    <div class=""question-area""></div> 
                </div>","null","","","","","","","","","","","",""
"","","","","","html-button-response","137","444333","0.0-137.0","ED9A8849B97549E7B49FF01230BC550F","019d0663-c07e-7054-a988-8708f7c9424a","019d0640-0a2d-7740-a972-9c73365b2dcb","","1807","
                <div class=""stimulus-container"">
                    <img src=""images/semantic_sequence/self_care_activities_semantic/self_care_activities_semantic_8.png"" class=""exp-image"">
                    <div class=""question-area"">
                        <p style=""font-size: 20px; font-weight: bold; margin: 0;"">Is there a person in this image?</p>
                    </div>
                </div>","0","main_experiment_trial","8","self_care_activities_semantic","semantic_sequence","chronological","","","","","","",""
"","","","","","html-keyboard-response","138","449345","0.0-138.0","ED9A8849B97549E7B49FF01230BC550F","019d0663-c07e-7054-a988-8708f7c9424a","019d0640-0a2d-7740-a972-9c73365b2dcb","","null","
                <div class=""stimulus-container"">
                    <img src=""images/semantic_sequence/self_care_activities_semantic/self_care_activities_semantic_9.png"" class=""exp-image"">
                    <div class=""question-area""></div> 
                </div>","null","","","","","","","","","","","",""
"","","","","","html-button-response","139","451130","0.0-139.0","ED9A8849B97549E7B49FF01230BC550F","019d0663-c07e-7054-a988-8708f7c9424a","019d0640-0a2d-7740-a972-9c73365b2dcb","","1784","
                <div class=""stimulus-container"">
                    <img src=""images/semantic_sequence/self_care_activities_semantic/self_care_activities_semantic_9.png"" class=""exp-image"">
                    <div class=""question-area"">
                        <p style=""font-size: 20px; font-weight: bold; margin: 0;"">Is there a person in this image?</p>
                    </div>
                </div>","0","main_experiment_trial","9","self_care_activities_semantic","semantic_sequence","chronological","","","","","","",""
"","","","","","html-keyboard-response","140","456143","0.0-140.0","ED9A8849B97549E7B49FF01230BC550F","019d0663-c07e-7054-a988-8708f7c9424a","019d0640-0a2d-7740-a972-9c73365b2dcb","","null","
                <div class=""stimulus-container"">
                    <img src=""images/semantic_sequence/self_care_activities_semantic/self_care_activities_semantic_ten.png"" class=""exp-image"">
                    <div class=""question-area""></div> 
                </div>","null","","","","","","","","","","","",""
"","","","","","html-button-response","141","457159","0.0-141.0","ED9A8849B97549E7B49FF01230BC550F","019d0663-c07e-7054-a988-8708f7c9424a","019d0640-0a2d-7740-a972-9c73365b2dcb","","1014","
                <div class=""stimulus-container"">
                    <img src=""images/semantic_sequence/self_care_activities_semantic/self_care_activities_semantic_ten.png"" class=""exp-image"">
                    <div class=""question-area"">
                        <p style=""font-size: 20px; font-weight: bold; margin: 0;"">Is there a person in this image?</p>
                    </div>
                </div>","0","main_experiment_trial","ten","self_care_activities_semantic","semantic_sequence","chronological","","","","","","",""
"","","","","","html-keyboard-response","142","462162","0.0-142.0","ED9A8849B97549E7B49FF01230BC550F","019d0663-c07e-7054-a988-8708f7c9424a","019d0640-0a2d-7740-a972-9c73365b2dcb","","null","<div style=""background-color: white; width: 100vw; height: 100vh;""></div>","null","","","","","","","","","","","",""
"","","","","","html-keyboard-response","143","467163","0.0-143.0","ED9A8849B97549E7B49FF01230BC550F","019d0663-c07e-7054-a988-8708f7c9424a","019d0640-0a2d-7740-a972-9c73365b2dcb","","null","
                <div class=""stimulus-container"">
                    <img src=""images/schematic_sequence/hotel_scheme/hotel_scheme_1.png"" class=""exp-image"">
                    <div class=""question-area""></div> 
                </div>","null","","","","","","","","","","","",""
"","","","","","html-button-response","144","467941","0.0-144.0","ED9A8849B97549E7B49FF01230BC550F","019d0663-c07e-7054-a988-8708f7c9424a","019d0640-0a2d-7740-a972-9c73365b2dcb","","777","
                <div class=""stimulus-container"">
                    <img src=""images/schematic_sequence/hotel_scheme/hotel_scheme_1.png"" class=""exp-image"">
                    <div class=""question-area"">
                        <p style=""font-size: 20px; font-weight: bold; margin: 0;"">Is there a person in this image?</p>
                    </div>
                </div>","1","main_experiment_trial","1","hotel_scheme","schematic_sequence","chronological","","","","","","",""
"","","","","","html-keyboard-response","145","472944","0.0-145.0","ED9A8849B97549E7B49FF01230BC550F","019d0663-c07e-7054-a988-8708f7c9424a","019d0640-0a2d-7740-a972-9c73365b2dcb","","null","
                <div class=""stimulus-container"">
                    <img src=""images/schematic_sequence/hotel_scheme/hotel_scheme_2.png"" class=""exp-image"">
                    <div class=""question-area""></div> 
                </div>","null","","","","","","","","","","","",""
"","","","","","html-button-response","146","474666","0.0-146.0","ED9A8849B97549E7B49FF01230BC550F","019d0663-c07e-7054-a988-8708f7c9424a","019d0640-0a2d-7740-a972-9c73365b2dcb","","1721","
                <div class=""stimulus-container"">
                    <img src=""images/schematic_sequence/hotel_scheme/hotel_scheme_2.png"" class=""exp-image"">
                    <div class=""question-area"">
                        <p style=""font-size: 20px; font-weight: bold; margin: 0;"">Is there a person in this image?</p>
                    </div>
                </div>","0","main_experiment_trial","2","hotel_scheme","schematic_sequence","chronological","","","","","","",""
"","","","","","html-keyboard-response","147","479680","0.0-147.0","ED9A8849B97549E7B49FF01230BC550F","019d0663-c07e-7054-a988-8708f7c9424a","019d0640-0a2d-7740-a972-9c73365b2dcb","","null","
                <div class=""stimulus-container"">
                    <img src=""images/schematic_sequence/hotel_scheme/hotel_scheme_3.png"" class=""exp-image"">
                    <div class=""question-area""></div> 
                </div>","null","","","","","","","","","","","",""
"","","","","","html-button-response","148","480663","0.0-148.0","ED9A8849B97549E7B49FF01230BC550F","019d0663-c07e-7054-a988-8708f7c9424a","019d0640-0a2d-7740-a972-9c73365b2dcb","","982","
                <div class=""stimulus-container"">
                    <img src=""images/schematic_sequence/hotel_scheme/hotel_scheme_3.png"" class=""exp-image"">
                    <div class=""question-area"">
                        <p style=""font-size: 20px; font-weight: bold; margin: 0;"">Is there a person in this image?</p>
                    </div>
                </div>","0","main_experiment_trial","3","hotel_scheme","schematic_sequence","chronological","","","","","","",""
"","","","","","html-keyboard-response","149","485668","0.0-149.0","ED9A8849B97549E7B49FF01230BC550F","019d0663-c07e-7054-a988-8708f7c9424a","019d0640-0a2d-7740-a972-9c73365b2dcb","","null","
                <div class=""stimulus-container"">
                    <img src=""images/schematic_sequence/hotel_scheme/hotel_scheme_4.png"" class=""exp-image"">
                    <div class=""question-area""></div> 
                </div>","null","","","","","","","","","","","",""
"","","","","","html-button-response","150","486046","0.0-150.0","ED9A8849B97549E7B49FF01230BC550F","019d0663-c07e-7054-a988-8708f7c9424a","019d0640-0a2d-7740-a972-9c73365b2dcb","","378","
                <div class=""stimulus-container"">
                    <img src=""images/schematic_sequence/hotel_scheme/hotel_scheme_4.png"" class=""exp-image"">
                    <div class=""question-area"">
                        <p style=""font-size: 20px; font-weight: bold; margin: 0;"">Is there a person in this image?</p>
                    </div>
                </div>","1","main_experiment_trial","4","hotel_scheme","schematic_sequence","chronological","","","","","","",""
"","","","","","html-keyboard-response","151","491058","0.0-151.0","ED9A8849B97549E7B49FF01230BC550F","019d0663-c07e-7054-a988-8708f7c9424a","019d0640-0a2d-7740-a972-9c73365b2dcb","","null","
                <div class=""stimulus-container"">
                    <img src=""images/schematic_sequence/hotel_scheme/hotel_scheme_5.png"" class=""exp-image"">
                    <div class=""question-area""></div> 
                </div>","null","","","","","","","","","","","",""
"","","","","","html-button-response","152","492500","0.0-152.0","ED9A8849B97549E7B49FF01230BC550F","019d0663-c07e-7054-a988-8708f7c9424a","019d0640-0a2d-7740-a972-9c73365b2dcb","","1440","
                <div class=""stimulus-container"">
                    <img src=""images/schematic_sequence/hotel_scheme/hotel_scheme_5.png"" class=""exp-image"">
                    <div class=""question-area"">
                        <p style=""font-size: 20px; font-weight: bold; margin: 0;"">Is there a person in this image?</p>
                    </div>
                </div>","0","main_experiment_trial","5","hotel_scheme","schematic_sequence","chronological","","","","","","",""
"","","","","","html-keyboard-response","153","497508","0.0-153.0","ED9A8849B97549E7B49FF01230BC550F","019d0663-c07e-7054-a988-8708f7c9424a","019d0640-0a2d-7740-a972-9c73365b2dcb","","null","
                <div class=""stimulus-container"">
                    <img src=""images/schematic_sequence/hotel_scheme/hotel_scheme_6.png"" class=""exp-image"">
                    <div class=""question-area""></div> 
                </div>","null","","","","","","","","","","","",""
"","","","","","html-button-response","154","498663","0.0-154.0","ED9A8849B97549E7B49FF01230BC550F","019d0663-c07e-7054-a988-8708f7c9424a","019d0640-0a2d-7740-a972-9c73365b2dcb","","1154","
                <div class=""stimulus-container"">
                    <img src=""images/schematic_sequence/hotel_scheme/hotel_scheme_6.png"" class=""exp-image"">
                    <div class=""question-area"">
                        <p style=""font-size: 20px; font-weight: bold; margin: 0;"">Is there a person in this image?</p>
                    </div>
                </div>","0","main_experiment_trial","6","hotel_scheme","schematic_sequence","chronological","","","","","","",""
"","","","","","html-keyboard-response","155","503674","0.0-155.0","ED9A8849B97549E7B49FF01230BC550F","019d0663-c07e-7054-a988-8708f7c9424a","019d0640-0a2d-7740-a972-9c73365b2dcb","","null","
                <div class=""stimulus-container"">
                    <img src=""images/schematic_sequence/hotel_scheme/hotel_scheme_7.png"" class=""exp-image"">
                    <div class=""question-area""></div> 
                </div>","null","","","","","","","","","","","",""
"","","","","","html-button-response","156","504229","0.0-156.0","ED9A8849B97549E7B49FF01230BC550F","019d0663-c07e-7054-a988-8708f7c9424a","019d0640-0a2d-7740-a972-9c73365b2dcb","","554","
                <div class=""stimulus-container"">
                    <img src=""images/schematic_sequence/hotel_scheme/hotel_scheme_7.png"" class=""exp-image"">
                    <div class=""question-area"">
                        <p style=""font-size: 20px; font-weight: bold; margin: 0;"">Is there a person in this image?</p>
                    </div>
                </div>","0","main_experiment_trial","7","hotel_scheme","schematic_sequence","chronological","","","","","","",""
"","","","","","html-keyboard-response","157","509245","0.0-157.0","ED9A8849B97549E7B49FF01230BC550F","019d0663-c07e-7054-a988-8708f7c9424a","019d0640-0a2d-7740-a972-9c73365b2dcb","","null","
                <div class=""stimulus-container"">
                    <img src=""images/schematic_sequence/hotel_scheme/hotel_scheme_8.png"" class=""exp-image"">
                    <div class=""question-area""></div> 
                </div>","null","","","","","","","","","","","",""
"","","","","","html-button-response","158","509818","0.0-158.0","ED9A8849B97549E7B49FF01230BC550F","019d0663-c07e-7054-a988-8708f7c9424a","019d0640-0a2d-7740-a972-9c73365b2dcb","","573","
                <div class=""stimulus-container"">
                    <img src=""images/schematic_sequence/hotel_scheme/hotel_scheme_8.png"" class=""exp-image"">
                    <div class=""question-area"">
                        <p style=""font-size: 20px; font-weight: bold; margin: 0;"">Is there a person in this image?</p>
                    </div>
                </div>","0","main_experiment_trial","8","hotel_scheme","schematic_sequence","chronological","","","","","","",""
"","","","","","html-keyboard-response","159","514831","0.0-159.0","ED9A8849B97549E7B49FF01230BC550F","019d0663-c07e-7054-a988-8708f7c9424a","019d0640-0a2d-7740-a972-9c73365b2dcb","","null","
                <div class=""stimulus-container"">
                    <img src=""images/schematic_sequence/hotel_scheme/hotel_scheme_9.png"" class=""exp-image"">
                    <div class=""question-area""></div> 
                </div>","null","","","","","","","","","","","",""
"","","","","","html-button-response","160","515999","0.0-160.0","ED9A8849B97549E7B49FF01230BC550F","019d0663-c07e-7054-a988-8708f7c9424a","019d0640-0a2d-7740-a972-9c73365b2dcb","","1166","
                <div class=""stimulus-container"">
                    <img src=""images/schematic_sequence/hotel_scheme/hotel_scheme_9.png"" class=""exp-image"">
                    <div class=""question-area"">
                        <p style=""font-size: 20px; font-weight: bold; margin: 0;"">Is there a person in this image?</p>
                    </div>
                </div>","0","main_experiment_trial","9","hotel_scheme","schematic_sequence","chronological","","","","","","",""
"","","","","","html-keyboard-response","161","521008","0.0-161.0","ED9A8849B97549E7B49FF01230BC550F","019d0663-c07e-7054-a988-8708f7c9424a","019d0640-0a2d-7740-a972-9c73365b2dcb","","null","
                <div class=""stimulus-container"">
                    <img src=""images/schematic_sequence/hotel_scheme/hotel_scheme_ten.png"" class=""exp-image"">
                    <div class=""question-area""></div> 
                </div>","null","","","","","","","","","","","",""
"","","","","","html-button-response","162","521299","0.0-162.0","ED9A8849B97549E7B49FF01230BC550F","019d0663-c07e-7054-a988-8708f7c9424a","019d0640-0a2d-7740-a972-9c73365b2dcb","","290","
                <div class=""stimulus-container"">
                    <img src=""images/schematic_sequence/hotel_scheme/hotel_scheme_ten.png"" class=""exp-image"">
                    <div class=""question-area"">
                        <p style=""font-size: 20px; font-weight: bold; margin: 0;"">Is there a person in this image?</p>
                    </div>
                </div>","0","main_experiment_trial","ten","hotel_scheme","schematic_sequence","chronological","","","","","","",""
"","","","","","html-keyboard-response","163","526312","0.0-163.0","ED9A8849B97549E7B49FF01230BC550F","019d0663-c07e-7054-a988-8708f7c9424a","019d0640-0a2d-7740-a972-9c73365b2dcb","","null","<div style=""background-color: white; width: 100vw; height: 100vh;""></div>","null","","","","","","","","","","","",""
"","","","","","html-keyboard-response","164","531319","0.0-164.0","ED9A8849B97549E7B49FF01230BC550F","019d0663-c07e-7054-a988-8708f7c9424a","019d0640-0a2d-7740-a972-9c73365b2dcb","","null","
                <div class=""stimulus-container"">
                    <img src=""images/schematic_sequence/flight_scheme/flight_scheme_1.png"" class=""exp-image"">
                    <div class=""question-area""></div> 
                </div>","null","","","","","","","","","","","",""
"","","","","","html-button-response","165","531616","0.0-165.0","ED9A8849B97549E7B49FF01230BC550F","019d0663-c07e-7054-a988-8708f7c9424a","019d0640-0a2d-7740-a972-9c73365b2dcb","","296","
                <div class=""stimulus-container"">
                    <img src=""images/schematic_sequence/flight_scheme/flight_scheme_1.png"" class=""exp-image"">
                    <div class=""question-area"">
                        <p style=""font-size: 20px; font-weight: bold; margin: 0;"">Is there a person in this image?</p>
                    </div>
                </div>","0","main_experiment_trial","1","flight_scheme","schematic_sequence","chronological","","","","","","",""
"","","","","","html-keyboard-response","166","536621","0.0-166.0","ED9A8849B97549E7B49FF01230BC550F","019d0663-c07e-7054-a988-8708f7c9424a","019d0640-0a2d-7740-a972-9c73365b2dcb","","null","
                <div class=""stimulus-container"">
                    <img src=""images/schematic_sequence/flight_scheme/flight_scheme_2.png"" class=""exp-image"">
                    <div class=""question-area""></div> 
                </div>","null","","","","","","","","","","","",""
"","","","","","html-button-response","167","539624","0.0-167.0","ED9A8849B97549E7B49FF01230BC550F","019d0663-c07e-7054-a988-8708f7c9424a","019d0640-0a2d-7740-a972-9c73365b2dcb","","null","
                <div class=""stimulus-container"">
                    <img src=""images/schematic_sequence/flight_scheme/flight_scheme_2.png"" class=""exp-image"">
                    <div class=""question-area"">
                        <p style=""font-size: 20px; font-weight: bold; margin: 0;"">Is there a person in this image?</p>
                    </div>
                </div>","null","main_experiment_trial","2","flight_scheme","schematic_sequence","chronological","","","","","","",""
"","","","","","html-keyboard-response","168","544635","0.0-168.0","ED9A8849B97549E7B49FF01230BC550F","019d0663-c07e-7054-a988-8708f7c9424a","019d0640-0a2d-7740-a972-9c73365b2dcb","","null","
                <div class=""stimulus-container"">
                    <img src=""images/schematic_sequence/flight_scheme/flight_scheme_3.png"" class=""exp-image"">
                    <div class=""question-area""></div> 
                </div>","null","","","","","","","","","","","",""
"","","","","","html-button-response","169","545859","0.0-169.0","ED9A8849B97549E7B49FF01230BC550F","019d0663-c07e-7054-a988-8708f7c9424a","019d0640-0a2d-7740-a972-9c73365b2dcb","","1223","
                <div class=""stimulus-container"">
                    <img src=""images/schematic_sequence/flight_scheme/flight_scheme_3.png"" class=""exp-image"">
                    <div class=""question-area"">
                        <p style=""font-size: 20px; font-weight: bold; margin: 0;"">Is there a person in this image?</p>
                    </div>
                </div>","0","main_experiment_trial","3","flight_scheme","schematic_sequence","chronological","","","","","","",""
"","","","","","html-keyboard-response","170","550870","0.0-170.0","ED9A8849B97549E7B49FF01230BC550F","019d0663-c07e-7054-a988-8708f7c9424a","019d0640-0a2d-7740-a972-9c73365b2dcb","","null","
                <div class=""stimulus-container"">
                    <img src=""images/schematic_sequence/flight_scheme/flight_scheme_4.png"" class=""exp-image"">
                    <div class=""question-area""></div> 
                </div>","null","","","","","","","","","","","",""
"","","","","","html-button-response","171","552578","0.0-171.0","ED9A8849B97549E7B49FF01230BC550F","019d0663-c07e-7054-a988-8708f7c9424a","019d0640-0a2d-7740-a972-9c73365b2dcb","","1707","
                <div class=""stimulus-container"">
                    <img src=""images/schematic_sequence/flight_scheme/flight_scheme_4.png"" class=""exp-image"">
                    <div class=""question-area"">
                        <p style=""font-size: 20px; font-weight: bold; margin: 0;"">Is there a person in this image?</p>
                    </div>
                </div>","0","main_experiment_trial","4","flight_scheme","schematic_sequence","chronological","","","","","","",""
"","","","","","html-keyboard-response","172","557594","0.0-172.0","ED9A8849B97549E7B49FF01230BC550F","019d0663-c07e-7054-a988-8708f7c9424a","019d0640-0a2d-7740-a972-9c73365b2dcb","","null","
                <div class=""stimulus-container"">
                    <img src=""images/schematic_sequence/flight_scheme/flight_scheme_5.png"" class=""exp-image"">
                    <div class=""question-area""></div> 
                </div>","null","","","","","","","","","","","",""
"","","","","","html-button-response","173","558349","0.0-173.0","ED9A8849B97549E7B49FF01230BC550F","019d0663-c07e-7054-a988-8708f7c9424a","019d0640-0a2d-7740-a972-9c73365b2dcb","","754","
                <div class=""stimulus-container"">
                    <img src=""images/schematic_sequence/flight_scheme/flight_scheme_5.png"" class=""exp-image"">
                    <div class=""question-area"">
                        <p style=""font-size: 20px; font-weight: bold; margin: 0;"">Is there a person in this image?</p>
                    </div>
                </div>","0","main_experiment_trial","5","flight_scheme","schematic_sequence","chronological","","","","","","",""
"","","","","","html-keyboard-response","174","563358","0.0-174.0","ED9A8849B97549E7B49FF01230BC550F","019d0663-c07e-7054-a988-8708f7c9424a","019d0640-0a2d-7740-a972-9c73365b2dcb","","null","
                <div class=""stimulus-container"">
                    <img src=""images/schematic_sequence/flight_scheme/flight_scheme_6.png"" class=""exp-image"">
                    <div class=""question-area""></div> 
                </div>","null","","","","","","","","","","","",""
"","","","","","html-button-response","175","564717","0.0-175.0","ED9A8849B97549E7B49FF01230BC550F","019d0663-c07e-7054-a988-8708f7c9424a","019d0640-0a2d-7740-a972-9c73365b2dcb","","1358","
                <div class=""stimulus-container"">
                    <img src=""images/schematic_sequence/flight_scheme/flight_scheme_6.png"" class=""exp-image"">
                    <div class=""question-area"">
                        <p style=""font-size: 20px; font-weight: bold; margin: 0;"">Is there a person in this image?</p>
                    </div>
                </div>","1","main_experiment_trial","6","flight_scheme","schematic_sequence","chronological","","","","","","",""
"","","","","","html-keyboard-response","176","569729","0.0-176.0","ED9A8849B97549E7B49FF01230BC550F","019d0663-c07e-7054-a988-8708f7c9424a","019d0640-0a2d-7740-a972-9c73365b2dcb","","null","
                <div class=""stimulus-container"">
                    <img src=""images/schematic_sequence/flight_scheme/flight_scheme_7.png"" class=""exp-image"">
