"success","timeout","failed_images","failed_audio","failed_video","trial_type","trial_index","time_elapsed","internal_node_id","subject_id","study_id","session_id","view_history","rt","stimulus","response","task","image_index","folder","sequence_type","presentation_order","valuable_image_index","reward_type","correct_choice","chosen_image_index","target_X"
"true","false","[]","[]","[]","preload","0","6290","0.0-0.0","630075AEB43D4003BF728CB010A60DA6","019cf9cc-5185-7f81-8aa4-c0158fc81e09","019cf9ba-391a-7c7b-96b9-3757895c469c","","","","","","","","","","","","","",""
"","","","","","instructions","1","12537","0.0-1.0","630075AEB43D4003BF728CB010A60DA6","019cf9cc-5185-7f81-8aa4-c0158fc81e09","019cf9ba-391a-7c7b-96b9-3757895c469c","[{""page_index"":0,""viewing_time"":6245}]","6245","","","","","","","","","","","",""
"","","","","","instructions","2","25941","0.0-2.0","630075AEB43D4003BF728CB010A60DA6","019cf9cc-5185-7f81-8aa4-c0158fc81e09","019cf9ba-391a-7c7b-96b9-3757895c469c","[{""page_index"":0,""viewing_time"":13403}]","13403","","","","","","","","","","","",""
"true","","","","","fullscreen","3","30529","0.0-3.0","630075AEB43D4003BF728CB010A60DA6","019cf9cc-5185-7f81-8aa4-c0158fc81e09","019cf9ba-391a-7c7b-96b9-3757895c469c","","3578","","","","","","","","","","","",""
"","","","","","instructions","4","45511","0.0-4.0","630075AEB43D4003BF728CB010A60DA6","019cf9cc-5185-7f81-8aa4-c0158fc81e09","019cf9ba-391a-7c7b-96b9-3757895c469c","[{""page_index"":0,""viewing_time"":14981}]","14981","","","","","","","","","","","",""
"","","","","","instructions","5","62705","0.0-5.0","630075AEB43D4003BF728CB010A60DA6","019cf9cc-5185-7f81-8aa4-c0158fc81e09","019cf9ba-391a-7c7b-96b9-3757895c469c","[{""page_index"":0,""viewing_time"":17194}]","17195","","","","","","","","","","","",""
"","","","","","html-keyboard-response","6","66722","0.0-6.0","630075AEB43D4003BF728CB010A60DA6","019cf9cc-5185-7f81-8aa4-c0158fc81e09","019cf9ba-391a-7c7b-96b9-3757895c469c","","null","
                <div class=""stimulus-container"">
                    <img src=""images/instructions/movie_1.png"" class=""exp-image"">
                    <div class=""question-area""></div> 
                </div>","null","","","","","","","","","",""
"","","","","","html-button-response","7","69732","0.0-7.0","630075AEB43D4003BF728CB010A60DA6","019cf9cc-5185-7f81-8aa4-c0158fc81e09","019cf9ba-391a-7c7b-96b9-3757895c469c","","null","
                <div class=""stimulus-container"">
                    <img src=""images/instructions/movie_1.png"" class=""exp-image"">
                    <div class=""question-area"">
                        <p style=""font-size: 20px; font-weight: bold; margin: 0;"">Was there a person in this image?</p>
                    </div>
                </div>","null","example_question","1","","","","","","","",""
"","","","","","html-keyboard-response","8","73735","0.0-8.0","630075AEB43D4003BF728CB010A60DA6","019cf9cc-5185-7f81-8aa4-c0158fc81e09","019cf9ba-391a-7c7b-96b9-3757895c469c","","null","
                <div class=""stimulus-container"">
                    <img src=""images/instructions/movie_2.png"" class=""exp-image"">
                    <div class=""question-area""></div> 
                </div>","null","","","","","","","","","",""
"","","","","","html-button-response","9","74277","0.0-9.0","630075AEB43D4003BF728CB010A60DA6","019cf9cc-5185-7f81-8aa4-c0158fc81e09","019cf9ba-391a-7c7b-96b9-3757895c469c","","539","
                <div class=""stimulus-container"">
                    <img src=""images/instructions/movie_2.png"" class=""exp-image"">
                    <div class=""question-area"">
                        <p style=""font-size: 20px; font-weight: bold; margin: 0;"">Was there a person in this image?</p>
                    </div>
                </div>","0","example_question","2","","","","","","","",""
"","","","","","html-keyboard-response","10","78284","0.0-10.0","630075AEB43D4003BF728CB010A60DA6","019cf9cc-5185-7f81-8aa4-c0158fc81e09","019cf9ba-391a-7c7b-96b9-3757895c469c","","null","
                <div class=""stimulus-container"">
                    <img src=""images/instructions/movie_3.png"" class=""exp-image"">
                    <div class=""question-area""></div> 
                </div>","null","","","","","","","","","",""
"","","","","","html-button-response","11","78915","0.0-11.0","630075AEB43D4003BF728CB010A60DA6","019cf9cc-5185-7f81-8aa4-c0158fc81e09","019cf9ba-391a-7c7b-96b9-3757895c469c","","629","
                <div class=""stimulus-container"">
                    <img src=""images/instructions/movie_3.png"" class=""exp-image"">
                    <div class=""question-area"">
                        <p style=""font-size: 20px; font-weight: bold; margin: 0;"">Was there a person in this image?</p>
                    </div>
                </div>","0","example_question","3","","","","","","","",""
"","","","","","html-keyboard-response","12","82929","0.0-12.0","630075AEB43D4003BF728CB010A60DA6","019cf9cc-5185-7f81-8aa4-c0158fc81e09","019cf9ba-391a-7c7b-96b9-3757895c469c","","null","
                <div class=""stimulus-container"">
                    <img src=""images/instructions/movie_4.png"" class=""exp-image"">
                    <div class=""question-area""></div> 
                </div>","null","","","","","","","","","",""
"","","","","","html-button-response","13","83396","0.0-13.0","630075AEB43D4003BF728CB010A60DA6","019cf9cc-5185-7f81-8aa4-c0158fc81e09","019cf9ba-391a-7c7b-96b9-3757895c469c","","466","
                <div class=""stimulus-container"">
                    <img src=""images/instructions/movie_4.png"" class=""exp-image"">
                    <div class=""question-area"">
                        <p style=""font-size: 20px; font-weight: bold; margin: 0;"">Was there a person in this image?</p>
                    </div>
                </div>","0","example_question","4","","","","","","","",""
"","","","","","instructions","14","86463","0.0-14.0","630075AEB43D4003BF728CB010A60DA6","019cf9cc-5185-7f81-8aa4-c0158fc81e09","019cf9ba-391a-7c7b-96b9-3757895c469c","[{""page_index"":0,""viewing_time"":3066}]","3067","","","","","","","","","","","",""
"","","","","","instructions","15","99974","0.0-15.0","630075AEB43D4003BF728CB010A60DA6","019cf9cc-5185-7f81-8aa4-c0158fc81e09","019cf9ba-391a-7c7b-96b9-3757895c469c","[{""page_index"":0,""viewing_time"":13510}]","13510","","","","","","","","","","","",""
"","","","","","html-keyboard-response","16","104976","0.0-16.0","630075AEB43D4003BF728CB010A60DA6","019cf9cc-5185-7f81-8aa4-c0158fc81e09","019cf9ba-391a-7c7b-96b9-3757895c469c","","null","<div style=""background-color: white; width: 100vw; height: 100vh;""></div>","null","","","","","","","","","",""
"","","","","","html-keyboard-response","17","105978","0.0-17.0","630075AEB43D4003BF728CB010A60DA6","019cf9cc-5185-7f81-8aa4-c0158fc81e09","019cf9ba-391a-7c7b-96b9-3757895c469c","","null","
                <div class=""stimulus-container"">
                    <img src=""images/semantic_sequence/using_technology_semantic/using_technology_semantic_4.png"" class=""exp-image"">
                    <div class=""question-area""></div> 
                </div>","null","","","","","","","","","",""
"","","","","","html-button-response","18","107154","0.0-18.0","630075AEB43D4003BF728CB010A60DA6","019cf9cc-5185-7f81-8aa4-c0158fc81e09","019cf9ba-391a-7c7b-96b9-3757895c469c","","1175","
                <div class=""stimulus-container"">
                    <img src=""images/semantic_sequence/using_technology_semantic/using_technology_semantic_4.png"" class=""exp-image"">
                    <div class=""question-area"">
                        <p style=""font-size: 20px; font-weight: bold; margin: 0;"">Is there a person in this image?</p>
                    </div>
                </div>","0","main_experiment_trial","4","using_technology_semantic","semantic_sequence","randomized","","","","",""
"","","","","","html-keyboard-response","19","108158","0.0-19.0","630075AEB43D4003BF728CB010A60DA6","019cf9cc-5185-7f81-8aa4-c0158fc81e09","019cf9ba-391a-7c7b-96b9-3757895c469c","","null","
                <div class=""stimulus-container"">
                    <img src=""images/semantic_sequence/using_technology_semantic/using_technology_semantic_3.png"" class=""exp-image"">
                    <div class=""question-area""></div> 
                </div>","null","","","","","","","","","",""
"","","","","","html-button-response","20","108658","0.0-20.0","630075AEB43D4003BF728CB010A60DA6","019cf9cc-5185-7f81-8aa4-c0158fc81e09","019cf9ba-391a-7c7b-96b9-3757895c469c","","499","
                <div class=""stimulus-container"">
                    <img src=""images/semantic_sequence/using_technology_semantic/using_technology_semantic_3.png"" class=""exp-image"">
                    <div class=""question-area"">
                        <p style=""font-size: 20px; font-weight: bold; margin: 0;"">Is there a person in this image?</p>
                    </div>
                </div>","0","main_experiment_trial","3","using_technology_semantic","semantic_sequence","randomized","","","","",""
"","","","","","html-keyboard-response","21","109665","0.0-21.0","630075AEB43D4003BF728CB010A60DA6","019cf9cc-5185-7f81-8aa4-c0158fc81e09","019cf9ba-391a-7c7b-96b9-3757895c469c","","null","
                <div class=""stimulus-container"">
                    <img src=""images/semantic_sequence/using_technology_semantic/using_technology_semantic_ten.png"" class=""exp-image"">
                    <div class=""question-area""></div> 
                </div>","null","","","","","","","","","",""
"","","","","","html-button-response","22","110049","0.0-22.0","630075AEB43D4003BF728CB010A60DA6","019cf9cc-5185-7f81-8aa4-c0158fc81e09","019cf9ba-391a-7c7b-96b9-3757895c469c","","382","
                <div class=""stimulus-container"">
                    <img src=""images/semantic_sequence/using_technology_semantic/using_technology_semantic_ten.png"" class=""exp-image"">
                    <div class=""question-area"">
                        <p style=""font-size: 20px; font-weight: bold; margin: 0;"">Is there a person in this image?</p>
                    </div>
                </div>","0","main_experiment_trial","ten","using_technology_semantic","semantic_sequence","randomized","","","","",""
"","","","","","html-keyboard-response","23","111055","0.0-23.0","630075AEB43D4003BF728CB010A60DA6","019cf9cc-5185-7f81-8aa4-c0158fc81e09","019cf9ba-391a-7c7b-96b9-3757895c469c","","null","
                <div class=""stimulus-container"">
                    <img src=""images/semantic_sequence/using_technology_semantic/using_technology_semantic_1.png"" class=""exp-image"">
                    <div class=""question-area""></div> 
                </div>","null","","","","","","","","","",""
"","","","","","html-button-response","24","111417","0.0-24.0","630075AEB43D4003BF728CB010A60DA6","019cf9cc-5185-7f81-8aa4-c0158fc81e09","019cf9ba-391a-7c7b-96b9-3757895c469c","","361","
                <div class=""stimulus-container"">
                    <img src=""images/semantic_sequence/using_technology_semantic/using_technology_semantic_1.png"" class=""exp-image"">
                    <div class=""question-area"">
                        <p style=""font-size: 20px; font-weight: bold; margin: 0;"">Is there a person in this image?</p>
                    </div>
                </div>","0","main_experiment_trial","1","using_technology_semantic","semantic_sequence","randomized","","","","",""
"","","","","","html-keyboard-response","25","112434","0.0-25.0","630075AEB43D4003BF728CB010A60DA6","019cf9cc-5185-7f81-8aa4-c0158fc81e09","019cf9ba-391a-7c7b-96b9-3757895c469c","","null","
                <div class=""stimulus-container"">
                    <img src=""images/semantic_sequence/using_technology_semantic/using_technology_semantic_2.png"" class=""exp-image"">
                    <div class=""question-area""></div> 
                </div>","null","","","","","","","","","",""
"","","","","","html-button-response","26","112785","0.0-26.0","630075AEB43D4003BF728CB010A60DA6","019cf9cc-5185-7f81-8aa4-c0158fc81e09","019cf9ba-391a-7c7b-96b9-3757895c469c","","347","
                <div class=""stimulus-container"">
                    <img src=""images/semantic_sequence/using_technology_semantic/using_technology_semantic_2.png"" class=""exp-image"">
                    <div class=""question-area"">
                        <p style=""font-size: 20px; font-weight: bold; margin: 0;"">Is there a person in this image?</p>
                    </div>
                </div>","0","main_experiment_trial","2","using_technology_semantic","semantic_sequence","randomized","","","","",""
"","","","","","html-keyboard-response","27","113803","0.0-27.0","630075AEB43D4003BF728CB010A60DA6","019cf9cc-5185-7f81-8aa4-c0158fc81e09","019cf9ba-391a-7c7b-96b9-3757895c469c","","null","
                <div class=""stimulus-container"">
                    <img src=""images/semantic_sequence/using_technology_semantic/using_technology_semantic_5.png"" class=""exp-image"">
                    <div class=""question-area""></div> 
                </div>","null","","","","","","","","","",""
"","","","","","html-button-response","28","114168","0.0-28.0","630075AEB43D4003BF728CB010A60DA6","019cf9cc-5185-7f81-8aa4-c0158fc81e09","019cf9ba-391a-7c7b-96b9-3757895c469c","","365","
                <div class=""stimulus-container"">
                    <img src=""images/semantic_sequence/using_technology_semantic/using_technology_semantic_5.png"" class=""exp-image"">
                    <div class=""question-area"">
                        <p style=""font-size: 20px; font-weight: bold; margin: 0;"">Is there a person in this image?</p>
                    </div>
                </div>","0","main_experiment_trial","5","using_technology_semantic","semantic_sequence","randomized","","","","",""
"","","","","","html-keyboard-response","29","115172","0.0-29.0","630075AEB43D4003BF728CB010A60DA6","019cf9cc-5185-7f81-8aa4-c0158fc81e09","019cf9ba-391a-7c7b-96b9-3757895c469c","","null","
                <div class=""stimulus-container"">
                    <img src=""images/semantic_sequence/using_technology_semantic/using_technology_semantic_8.png"" class=""exp-image"">
                    <div class=""question-area""></div> 
                </div>","null","","","","","","","","","",""
"","","","","","html-button-response","30","115531","0.0-30.0","630075AEB43D4003BF728CB010A60DA6","019cf9cc-5185-7f81-8aa4-c0158fc81e09","019cf9ba-391a-7c7b-96b9-3757895c469c","","358","
                <div class=""stimulus-container"">
                    <img src=""images/semantic_sequence/using_technology_semantic/using_technology_semantic_8.png"" class=""exp-image"">
                    <div class=""question-area"">
                        <p style=""font-size: 20px; font-weight: bold; margin: 0;"">Is there a person in this image?</p>
                    </div>
                </div>","0","main_experiment_trial","8","using_technology_semantic","semantic_sequence","randomized","","","","",""
"","","","","","html-keyboard-response","31","116547","0.0-31.0","630075AEB43D4003BF728CB010A60DA6","019cf9cc-5185-7f81-8aa4-c0158fc81e09","019cf9ba-391a-7c7b-96b9-3757895c469c","","null","
                <div class=""stimulus-container"">
                    <img src=""images/semantic_sequence/using_technology_semantic/using_technology_semantic_7.png"" class=""exp-image"">
                    <div class=""question-area""></div> 
                </div>","null","","","","","","","","","",""
"","","","","","html-button-response","32","116898","0.0-32.0","630075AEB43D4003BF728CB010A60DA6","019cf9cc-5185-7f81-8aa4-c0158fc81e09","019cf9ba-391a-7c7b-96b9-3757895c469c","","347","
                <div class=""stimulus-container"">
                    <img src=""images/semantic_sequence/using_technology_semantic/using_technology_semantic_7.png"" class=""exp-image"">
                    <div class=""question-area"">
                        <p style=""font-size: 20px; font-weight: bold; margin: 0;"">Is there a person in this image?</p>
                    </div>
                </div>","0","main_experiment_trial","7","using_technology_semantic","semantic_sequence","randomized","","","","",""
"","","","","","html-keyboard-response","33","117899","0.0-33.0","630075AEB43D4003BF728CB010A60DA6","019cf9cc-5185-7f81-8aa4-c0158fc81e09","019cf9ba-391a-7c7b-96b9-3757895c469c","","null","
                <div class=""stimulus-container"">
                    <img src=""images/semantic_sequence/using_technology_semantic/using_technology_semantic_6.png"" class=""exp-image"">
                    <div class=""question-area""></div> 
                </div>","null","","","","","","","","","",""
"","","","","","html-button-response","34","118229","0.0-34.0","630075AEB43D4003BF728CB010A60DA6","019cf9cc-5185-7f81-8aa4-c0158fc81e09","019cf9ba-391a-7c7b-96b9-3757895c469c","","329","
                <div class=""stimulus-container"">
                    <img src=""images/semantic_sequence/using_technology_semantic/using_technology_semantic_6.png"" class=""exp-image"">
                    <div class=""question-area"">
                        <p style=""font-size: 20px; font-weight: bold; margin: 0;"">Is there a person in this image?</p>
                    </div>
                </div>","0","main_experiment_trial","6","using_technology_semantic","semantic_sequence","randomized","","","","",""
"","","","","","html-keyboard-response","35","119235","0.0-35.0","630075AEB43D4003BF728CB010A60DA6","019cf9cc-5185-7f81-8aa4-c0158fc81e09","019cf9ba-391a-7c7b-96b9-3757895c469c","","null","
                <div class=""stimulus-container"">
                    <img src=""images/semantic_sequence/using_technology_semantic/using_technology_semantic_9.png"" class=""exp-image"">
                    <div class=""question-area""></div> 
                </div>","null","","","","","","","","","",""
"","","","","","html-button-response","36","119590","0.0-36.0","630075AEB43D4003BF728CB010A60DA6","019cf9cc-5185-7f81-8aa4-c0158fc81e09","019cf9ba-391a-7c7b-96b9-3757895c469c","","354","
                <div class=""stimulus-container"">
                    <img src=""images/semantic_sequence/using_technology_semantic/using_technology_semantic_9.png"" class=""exp-image"">
                    <div class=""question-area"">
                        <p style=""font-size: 20px; font-weight: bold; margin: 0;"">Is there a person in this image?</p>
                    </div>
                </div>","0","main_experiment_trial","9","using_technology_semantic","semantic_sequence","randomized","","","","",""
"","","","","","html-keyboard-response","37","124593","0.0-37.0","630075AEB43D4003BF728CB010A60DA6","019cf9cc-5185-7f81-8aa4-c0158fc81e09","019cf9ba-391a-7c7b-96b9-3757895c469c","","null","<div style=""background-color: white; width: 100vw; height: 100vh;""></div>","null","","","","","","","","","",""
"","","","","","html-keyboard-response","38","125595","0.0-38.0","630075AEB43D4003BF728CB010A60DA6","019cf9cc-5185-7f81-8aa4-c0158fc81e09","019cf9ba-391a-7c7b-96b9-3757895c469c","","null","
                <div class=""stimulus-container"">
                    <img src=""images/causal_sequence/dog_causal/dog_causal_ten.png"" class=""exp-image"">
                    <div class=""question-area""></div> 
                </div>","null","","","","","","","","","",""
"","","","","","html-button-response","39","126633","0.0-39.0","630075AEB43D4003BF728CB010A60DA6","019cf9cc-5185-7f81-8aa4-c0158fc81e09","019cf9ba-391a-7c7b-96b9-3757895c469c","","1037","
                <div class=""stimulus-container"">
                    <img src=""images/causal_sequence/dog_causal/dog_causal_ten.png"" class=""exp-image"">
                    <div class=""question-area"">
                        <p style=""font-size: 20px; font-weight: bold; margin: 0;"">Is there a person in this image?</p>
                    </div>
                </div>","0","main_experiment_trial","ten","dog_causal","causal_sequence","randomized","","","","",""
"","","","","","html-keyboard-response","40","127640","0.0-40.0","630075AEB43D4003BF728CB010A60DA6","019cf9cc-5185-7f81-8aa4-c0158fc81e09","019cf9ba-391a-7c7b-96b9-3757895c469c","","null","
                <div class=""stimulus-container"">
                    <img src=""images/causal_sequence/dog_causal/dog_causal_2.png"" class=""exp-image"">
                    <div class=""question-area""></div> 
                </div>","null","","","","","","","","","",""
"","","","","","html-button-response","41","128107","0.0-41.0","630075AEB43D4003BF728CB010A60DA6","019cf9cc-5185-7f81-8aa4-c0158fc81e09","019cf9ba-391a-7c7b-96b9-3757895c469c","","465","
                <div class=""stimulus-container"">
                    <img src=""images/causal_sequence/dog_causal/dog_causal_2.png"" class=""exp-image"">
                    <div class=""question-area"">
                        <p style=""font-size: 20px; font-weight: bold; margin: 0;"">Is there a person in this image?</p>
                    </div>
                </div>","0","main_experiment_trial","2","dog_causal","causal_sequence","randomized","","","","",""
"","","","","","html-keyboard-response","42","129113","0.0-42.0","630075AEB43D4003BF728CB010A60DA6","019cf9cc-5185-7f81-8aa4-c0158fc81e09","019cf9ba-391a-7c7b-96b9-3757895c469c","","null","
                <div class=""stimulus-container"">
                    <img src=""images/causal_sequence/dog_causal/dog_causal_1.png"" class=""exp-image"">
                    <div class=""question-area""></div> 
                </div>","null","","","","","","","","","",""
"","","","","","html-button-response","43","129468","0.0-43.0","630075AEB43D4003BF728CB010A60DA6","019cf9cc-5185-7f81-8aa4-c0158fc81e09","019cf9ba-391a-7c7b-96b9-3757895c469c","","353","
                <div class=""stimulus-container"">
                    <img src=""images/causal_sequence/dog_causal/dog_causal_1.png"" class=""exp-image"">
                    <div class=""question-area"">
                        <p style=""font-size: 20px; font-weight: bold; margin: 0;"">Is there a person in this image?</p>
                    </div>
                </div>","0","main_experiment_trial","1","dog_causal","causal_sequence","randomized","","","","",""
"","","","","","html-keyboard-response","44","130475","0.0-44.0","630075AEB43D4003BF728CB010A60DA6","019cf9cc-5185-7f81-8aa4-c0158fc81e09","019cf9ba-391a-7c7b-96b9-3757895c469c","","null","
                <div class=""stimulus-container"">
                    <img src=""images/causal_sequence/dog_causal/dog_causal_8.png"" class=""exp-image"">
                    <div class=""question-area""></div> 
                </div>","null","","","","","","","","","",""
"","","","","","html-button-response","45","131032","0.0-45.0","630075AEB43D4003BF728CB010A60DA6","019cf9cc-5185-7f81-8aa4-c0158fc81e09","019cf9ba-391a-7c7b-96b9-3757895c469c","","555","
                <div class=""stimulus-container"">
                    <img src=""images/causal_sequence/dog_causal/dog_causal_8.png"" class=""exp-image"">
                    <div class=""question-area"">
                        <p style=""font-size: 20px; font-weight: bold; margin: 0;"">Is there a person in this image?</p>
                    </div>
                </div>","0","main_experiment_trial","8","dog_causal","causal_sequence","randomized","","","","",""
"","","","","","html-keyboard-response","46","132042","0.0-46.0","630075AEB43D4003BF728CB010A60DA6","019cf9cc-5185-7f81-8aa4-c0158fc81e09","019cf9ba-391a-7c7b-96b9-3757895c469c","","null","
                <div class=""stimulus-container"">
                    <img src=""images/causal_sequence/dog_causal/dog_causal_4.png"" class=""exp-image"">
                    <div class=""question-area""></div> 
                </div>","null","","","","","","","","","",""
"","","","","","html-button-response","47","132415","0.0-47.0","630075AEB43D4003BF728CB010A60DA6","019cf9cc-5185-7f81-8aa4-c0158fc81e09","019cf9ba-391a-7c7b-96b9-3757895c469c","","371","
                <div class=""stimulus-container"">
                    <img src=""images/causal_sequence/dog_causal/dog_causal_4.png"" class=""exp-image"">
                    <div class=""question-area"">
                        <p style=""font-size: 20px; font-weight: bold; margin: 0;"">Is there a person in this image?</p>
                    </div>
                </div>","0","main_experiment_trial","4","dog_causal","causal_sequence","randomized","","","","",""
"","","","","","html-keyboard-response","48","133428","0.0-48.0","630075AEB43D4003BF728CB010A60DA6","019cf9cc-5185-7f81-8aa4-c0158fc81e09","019cf9ba-391a-7c7b-96b9-3757895c469c","","null","
                <div class=""stimulus-container"">
                    <img src=""images/causal_sequence/dog_causal/dog_causal_9.png"" class=""exp-image"">
                    <div class=""question-area""></div> 
                </div>","null","","","","","","","","","",""
"","","","","","html-button-response","49","133851","0.0-49.0","630075AEB43D4003BF728CB010A60DA6","019cf9cc-5185-7f81-8aa4-c0158fc81e09","019cf9ba-391a-7c7b-96b9-3757895c469c","","422","
                <div class=""stimulus-container"">
                    <img src=""images/causal_sequence/dog_causal/dog_causal_9.png"" class=""exp-image"">
                    <div class=""question-area"">
                        <p style=""font-size: 20px; font-weight: bold; margin: 0;"">Is there a person in this image?</p>
                    </div>
                </div>","0","main_experiment_trial","9","dog_causal","causal_sequence","randomized","","","","",""
"","","","","","html-keyboard-response","50","134861","0.0-50.0","630075AEB43D4003BF728CB010A60DA6","019cf9cc-5185-7f81-8aa4-c0158fc81e09","019cf9ba-391a-7c7b-96b9-3757895c469c","","null","
                <div class=""stimulus-container"">
                    <img src=""images/causal_sequence/dog_causal/dog_causal_5.png"" class=""exp-image"">
                    <div class=""question-area""></div> 
                </div>","null","","","","","","","","","",""
"","","","","","html-button-response","51","135241","0.0-51.0","630075AEB43D4003BF728CB010A60DA6","019cf9cc-5185-7f81-8aa4-c0158fc81e09","019cf9ba-391a-7c7b-96b9-3757895c469c","","378","
                <div class=""stimulus-container"">
                    <img src=""images/causal_sequence/dog_causal/dog_causal_5.png"" class=""exp-image"">
                    <div class=""question-area"">
                        <p style=""font-size: 20px; font-weight: bold; margin: 0;"">Is there a person in this image?</p>
                    </div>
                </div>","0","main_experiment_trial","5","dog_causal","causal_sequence","randomized","","","","",""
"","","","","","html-keyboard-response","52","136248","0.0-52.0","630075AEB43D4003BF728CB010A60DA6","019cf9cc-5185-7f81-8aa4-c0158fc81e09","019cf9ba-391a-7c7b-96b9-3757895c469c","","null","
                <div class=""stimulus-container"">
                    <img src=""images/causal_sequence/dog_causal/dog_causal_7.png"" class=""exp-image"">
                    <div class=""question-area""></div> 
                </div>","null","","","","","","","","","",""
"","","","","","html-button-response","53","136617","0.0-53.0","630075AEB43D4003BF728CB010A60DA6","019cf9cc-5185-7f81-8aa4-c0158fc81e09","019cf9ba-391a-7c7b-96b9-3757895c469c","","368","
                <div class=""stimulus-container"">
                    <img src=""images/causal_sequence/dog_causal/dog_causal_7.png"" class=""exp-image"">
                    <div class=""question-area"">
                        <p style=""font-size: 20px; font-weight: bold; margin: 0;"">Is there a person in this image?</p>
                    </div>
                </div>","0","main_experiment_trial","7","dog_causal","causal_sequence","randomized","","","","",""
"","","","","","html-keyboard-response","54","137632","0.0-54.0","630075AEB43D4003BF728CB010A60DA6","019cf9cc-5185-7f81-8aa4-c0158fc81e09","019cf9ba-391a-7c7b-96b9-3757895c469c","","null","
                <div class=""stimulus-container"">
                    <img src=""images/causal_sequence/dog_causal/dog_causal_6.png"" class=""exp-image"">
                    <div class=""question-area""></div> 
                </div>","null","","","","","","","","","",""
"","","","","","html-button-response","55","138452","0.0-55.0","630075AEB43D4003BF728CB010A60DA6","019cf9cc-5185-7f81-8aa4-c0158fc81e09","019cf9ba-391a-7c7b-96b9-3757895c469c","","818","
                <div class=""stimulus-container"">
                    <img src=""images/causal_sequence/dog_causal/dog_causal_6.png"" class=""exp-image"">
                    <div class=""question-area"">
                        <p style=""font-size: 20px; font-weight: bold; margin: 0;"">Is there a person in this image?</p>
                    </div>
                </div>","0","main_experiment_trial","6","dog_causal","causal_sequence","randomized","","","","",""
"","","","","","html-keyboard-response","56","139461","0.0-56.0","630075AEB43D4003BF728CB010A60DA6","019cf9cc-5185-7f81-8aa4-c0158fc81e09","019cf9ba-391a-7c7b-96b9-3757895c469c","","null","
                <div class=""stimulus-container"">
                    <img src=""images/causal_sequence/dog_causal/dog_causal_3.png"" class=""exp-image"">
                    <div class=""question-area""></div> 
                </div>","null","","","","","","","","","",""
"","","","","","html-button-response","57","139858","0.0-57.0","630075AEB43D4003BF728CB010A60DA6","019cf9cc-5185-7f81-8aa4-c0158fc81e09","019cf9ba-391a-7c7b-96b9-3757895c469c","","395","
                <div class=""stimulus-container"">
                    <img src=""images/causal_sequence/dog_causal/dog_causal_3.png"" class=""exp-image"">
                    <div class=""question-area"">
                        <p style=""font-size: 20px; font-weight: bold; margin: 0;"">Is there a person in this image?</p>
                    </div>
                </div>","0","main_experiment_trial","3","dog_causal","causal_sequence","randomized","","","","",""
"","","","","","html-keyboard-response","58","144863","0.0-58.0","630075AEB43D4003BF728CB010A60DA6","019cf9cc-5185-7f81-8aa4-c0158fc81e09","019cf9ba-391a-7c7b-96b9-3757895c469c","","null","<div style=""background-color: white; width: 100vw; height: 100vh;""></div>","null","","","","","","","","","",""
"","","","","","html-keyboard-response","59","145871","0.0-59.0","630075AEB43D4003BF728CB010A60DA6","019cf9cc-5185-7f81-8aa4-c0158fc81e09","019cf9ba-391a-7c7b-96b9-3757895c469c","","null","
                <div class=""stimulus-container"">
                    <img src=""images/semantic_sequence/physical_activity_semantic/physical_activity_semantic_ten.png"" class=""exp-image"">
                    <div class=""question-area""></div> 
                </div>","null","","","","","","","","","",""
"","","","","","html-button-response","60","146370","0.0-60.0","630075AEB43D4003BF728CB010A60DA6","019cf9cc-5185-7f81-8aa4-c0158fc81e09","019cf9ba-391a-7c7b-96b9-3757895c469c","","496","
                <div class=""stimulus-container"">
                    <img src=""images/semantic_sequence/physical_activity_semantic/physical_activity_semantic_ten.png"" class=""exp-image"">
                    <div class=""question-area"">
                        <p style=""font-size: 20px; font-weight: bold; margin: 0;"">Is there a person in this image?</p>
                    </div>
                </div>","0","main_experiment_trial","ten","physical_activity_semantic","semantic_sequence","randomized","","","","",""
"","","","","","html-keyboard-response","61","147372","0.0-61.0","630075AEB43D4003BF728CB010A60DA6","019cf9cc-5185-7f81-8aa4-c0158fc81e09","019cf9ba-391a-7c7b-96b9-3757895c469c","","null","
                <div class=""stimulus-container"">
                    <img src=""images/semantic_sequence/physical_activity_semantic/physical_activity_semantic_8.png"" class=""exp-image"">
                    <div class=""question-area""></div> 
                </div>","null","","","","","","","","","",""
"","","","","","html-button-response","62","147775","0.0-62.0","630075AEB43D4003BF728CB010A60DA6","019cf9cc-5185-7f81-8aa4-c0158fc81e09","019cf9ba-391a-7c7b-96b9-3757895c469c","","401","
                <div class=""stimulus-container"">
                    <img src=""images/semantic_sequence/physical_activity_semantic/physical_activity_semantic_8.png"" class=""exp-image"">
                    <div class=""question-area"">
                        <p style=""font-size: 20px; font-weight: bold; margin: 0;"">Is there a person in this image?</p>
                    </div>
                </div>","0","main_experiment_trial","8","physical_activity_semantic","semantic_sequence","randomized","","","","",""
"","","","","","html-keyboard-response","63","148789","0.0-63.0","630075AEB43D4003BF728CB010A60DA6","019cf9cc-5185-7f81-8aa4-c0158fc81e09","019cf9ba-391a-7c7b-96b9-3757895c469c","","null","
                <div class=""stimulus-container"">
                    <img src=""images/semantic_sequence/physical_activity_semantic/physical_activity_semantic_3.png"" class=""exp-image"">
                    <div class=""question-area""></div> 
                </div>","null","","","","","","","","","",""
"","","","","","html-button-response","64","149196","0.0-64.0","630075AEB43D4003BF728CB010A60DA6","019cf9cc-5185-7f81-8aa4-c0158fc81e09","019cf9ba-391a-7c7b-96b9-3757895c469c","","405","
                <div class=""stimulus-container"">
                    <img src=""images/semantic_sequence/physical_activity_semantic/physical_activity_semantic_3.png"" class=""exp-image"">
                    <div class=""question-area"">
                        <p style=""font-size: 20px; font-weight: bold; margin: 0;"">Is there a person in this image?</p>
                    </div>
                </div>","0","main_experiment_trial","3","physical_activity_semantic","semantic_sequence","randomized","","","","",""
"","","","","","html-keyboard-response","65","150209","0.0-65.0","630075AEB43D4003BF728CB010A60DA6","019cf9cc-5185-7f81-8aa4-c0158fc81e09","019cf9ba-391a-7c7b-96b9-3757895c469c","","null","
                <div class=""stimulus-container"">
                    <img src=""images/semantic_sequence/physical_activity_semantic/physical_activity_semantic_5.png"" class=""exp-image"">
                    <div class=""question-area""></div> 
                </div>","null","","","","","","","","","",""
"","","","","","html-button-response","66","150602","0.0-66.0","630075AEB43D4003BF728CB010A60DA6","019cf9cc-5185-7f81-8aa4-c0158fc81e09","019cf9ba-391a-7c7b-96b9-3757895c469c","","391","
                <div class=""stimulus-container"">
                    <img src=""images/semantic_sequence/physical_activity_semantic/physical_activity_semantic_5.png"" class=""exp-image"">
                    <div class=""question-area"">
                        <p style=""font-size: 20px; font-weight: bold; margin: 0;"">Is there a person in this image?</p>
                    </div>
                </div>","0","main_experiment_trial","5","physical_activity_semantic","semantic_sequence","randomized","","","","",""
"","","","","","html-keyboard-response","67","151608","0.0-67.0","630075AEB43D4003BF728CB010A60DA6","019cf9cc-5185-7f81-8aa4-c0158fc81e09","019cf9ba-391a-7c7b-96b9-3757895c469c","","null","
                <div class=""stimulus-container"">
                    <img src=""images/semantic_sequence/physical_activity_semantic/physical_activity_semantic_7.png"" class=""exp-image"">
                    <div class=""question-area""></div> 
                </div>","null","","","","","","","","","",""
"","","","","","html-button-response","68","151963","0.0-68.0","630075AEB43D4003BF728CB010A60DA6","019cf9cc-5185-7f81-8aa4-c0158fc81e09","019cf9ba-391a-7c7b-96b9-3757895c469c","","353","
                <div class=""stimulus-container"">
                    <img src=""images/semantic_sequence/physical_activity_semantic/physical_activity_semantic_7.png"" class=""exp-image"">
                    <div class=""question-area"">
                        <p style=""font-size: 20px; font-weight: bold; margin: 0;"">Is there a person in this image?</p>
                    </div>
                </div>","0","main_experiment_trial","7","physical_activity_semantic","semantic_sequence","randomized","","","","",""
"","","","","","html-keyboard-response","69","152975","0.0-69.0","630075AEB43D4003BF728CB010A60DA6","019cf9cc-5185-7f81-8aa4-c0158fc81e09","019cf9ba-391a-7c7b-96b9-3757895c469c","","null","
                <div class=""stimulus-container"">
                    <img src=""images/semantic_sequence/physical_activity_semantic/physical_activity_semantic_1.png"" class=""exp-image"">
                    <div class=""question-area""></div> 
                </div>","null","","","","","","","","","",""
"","","","","","html-button-response","70","153331","0.0-70.0","630075AEB43D4003BF728CB010A60DA6","019cf9cc-5185-7f81-8aa4-c0158fc81e09","019cf9ba-391a-7c7b-96b9-3757895c469c","","355","
                <div class=""stimulus-container"">
                    <img src=""images/semantic_sequence/physical_activity_semantic/physical_activity_semantic_1.png"" class=""exp-image"">
                    <div class=""question-area"">
                        <p style=""font-size: 20px; font-weight: bold; margin: 0;"">Is there a person in this image?</p>
                    </div>
                </div>","0","main_experiment_trial","1","physical_activity_semantic","semantic_sequence","randomized","","","","",""
"","","","","","html-keyboard-response","71","154345","0.0-71.0","630075AEB43D4003BF728CB010A60DA6","019cf9cc-5185-7f81-8aa4-c0158fc81e09","019cf9ba-391a-7c7b-96b9-3757895c469c","","null","
                <div class=""stimulus-container"">
                    <img src=""images/semantic_sequence/physical_activity_semantic/physical_activity_semantic_9.png"" class=""exp-image"">
                    <div class=""question-area""></div> 
                </div>","null","","","","","","","","","",""
"","","","","","html-button-response","72","154759","0.0-72.0","630075AEB43D4003BF728CB010A60DA6","019cf9cc-5185-7f81-8aa4-c0158fc81e09","019cf9ba-391a-7c7b-96b9-3757895c469c","","413","
                <div class=""stimulus-container"">
                    <img src=""images/semantic_sequence/physical_activity_semantic/physical_activity_semantic_9.png"" class=""exp-image"">
                    <div class=""question-area"">
                        <p style=""font-size: 20px; font-weight: bold; margin: 0;"">Is there a person in this image?</p>
                    </div>
                </div>","0","main_experiment_trial","9","physical_activity_semantic","semantic_sequence","randomized","","","","",""
"","","","","","html-keyboard-response","73","155762","0.0-73.0","630075AEB43D4003BF728CB010A60DA6","019cf9cc-5185-7f81-8aa4-c0158fc81e09","019cf9ba-391a-7c7b-96b9-3757895c469c","","null","
                <div class=""stimulus-container"">
                    <img src=""images/semantic_sequence/physical_activity_semantic/physical_activity_semantic_6.png"" class=""exp-image"">
                    <div class=""question-area""></div> 
                </div>","null","","","","","","","","","",""
"","","","","","html-button-response","74","155918","0.0-74.0","630075AEB43D4003BF728CB010A60DA6","019cf9cc-5185-7f81-8aa4-c0158fc81e09","019cf9ba-391a-7c7b-96b9-3757895c469c","","154","
                <div class=""stimulus-container"">
                    <img src=""images/semantic_sequence/physical_activity_semantic/physical_activity_semantic_6.png"" class=""exp-image"">
                    <div class=""question-area"">
                        <p style=""font-size: 20px; font-weight: bold; margin: 0;"">Is there a person in this image?</p>
                    </div>
                </div>","0","main_experiment_trial","6","physical_activity_semantic","semantic_sequence","randomized","","","","",""
"","","","","","html-keyboard-response","75","156928","0.0-75.0","630075AEB43D4003BF728CB010A60DA6","019cf9cc-5185-7f81-8aa4-c0158fc81e09","019cf9ba-391a-7c7b-96b9-3757895c469c","","null","
                <div class=""stimulus-container"">
                    <img src=""images/semantic_sequence/physical_activity_semantic/physical_activity_semantic_4.png"" class=""exp-image"">
                    <div class=""question-area""></div> 
                </div>","null","","","","","","","","","",""
"","","","","","html-button-response","76","157316","0.0-76.0","630075AEB43D4003BF728CB010A60DA6","019cf9cc-5185-7f81-8aa4-c0158fc81e09","019cf9ba-391a-7c7b-96b9-3757895c469c","","386","
                <div class=""stimulus-container"">
                    <img src=""images/semantic_sequence/physical_activity_semantic/physical_activity_semantic_4.png"" class=""exp-image"">
                    <div class=""question-area"">
                        <p style=""font-size: 20px; font-weight: bold; margin: 0;"">Is there a person in this image?</p>
                    </div>
                </div>","0","main_experiment_trial","4","physical_activity_semantic","semantic_sequence","randomized","","","","",""
"","","","","","html-keyboard-response","77","158329","0.0-77.0","630075AEB43D4003BF728CB010A60DA6","019cf9cc-5185-7f81-8aa4-c0158fc81e09","019cf9ba-391a-7c7b-96b9-3757895c469c","","null","
                <div class=""stimulus-container"">
                    <img src=""images/semantic_sequence/physical_activity_semantic/physical_activity_semantic_2.png"" class=""exp-image"">
                    <div class=""question-area""></div> 
                </div>","null","","","","","","","","","",""
"","","","","","html-button-response","78","158647","0.0-78.0","630075AEB43D4003BF728CB010A60DA6","019cf9cc-5185-7f81-8aa4-c0158fc81e09","019cf9ba-391a-7c7b-96b9-3757895c469c","","316","
                <div class=""stimulus-container"">
                    <img src=""images/semantic_sequence/physical_activity_semantic/physical_activity_semantic_2.png"" class=""exp-image"">
                    <div class=""question-area"">
                        <p style=""font-size: 20px; font-weight: bold; margin: 0;"">Is there a person in this image?</p>
                    </div>
                </div>","0","main_experiment_trial","2","physical_activity_semantic","semantic_sequence","randomized","","","","",""
"","","","","","html-keyboard-response","79","163660","0.0-79.0","630075AEB43D4003BF728CB010A60DA6","019cf9cc-5185-7f81-8aa4-c0158fc81e09","019cf9ba-391a-7c7b-96b9-3757895c469c","","null","<div style=""background-color: white; width: 100vw; height: 100vh;""></div>","null","","","","","","","","","",""
"","","","","","html-keyboard-response","80","164670","0.0-80.0","630075AEB43D4003BF728CB010A60DA6","019cf9cc-5185-7f81-8aa4-c0158fc81e09","019cf9ba-391a-7c7b-96b9-3757895c469c","","null","
                <div class=""stimulus-container"">
                    <img src=""images/causal_sequence/saving_a_cat_causal/saving_a_cat_causal_7.png"" class=""exp-image"">
                    <div class=""question-area""></div> 
                </div>","null","","","","","","","","","",""
"","","","","","html-button-response","81","165984","0.0-81.0","630075AEB43D4003BF728CB010A60DA6","019cf9cc-5185-7f81-8aa4-c0158fc81e09","019cf9ba-391a-7c7b-96b9-3757895c469c","","1312","
                <div class=""stimulus-container"">
                    <img src=""images/causal_sequence/saving_a_cat_causal/saving_a_cat_causal_7.png"" class=""exp-image"">
                    <div class=""question-area"">
                        <p style=""font-size: 20px; font-weight: bold; margin: 0;"">Is there a person in this image?</p>
                    </div>
                </div>","0","main_experiment_trial","7","saving_a_cat_causal","causal_sequence","randomized","","","","",""
"","","","","","html-keyboard-response","82","166987","0.0-82.0","630075AEB43D4003BF728CB010A60DA6","019cf9cc-5185-7f81-8aa4-c0158fc81e09","019cf9ba-391a-7c7b-96b9-3757895c469c","","null","
                <div class=""stimulus-container"">
                    <img src=""images/causal_sequence/saving_a_cat_causal/saving_a_cat_causal_6.png"" class=""exp-image"">
                    <div class=""question-area""></div> 
                </div>","null","","","","","","","","","",""
"","","","","","html-button-response","83","167376","0.0-83.0","630075AEB43D4003BF728CB010A60DA6","019cf9cc-5185-7f81-8aa4-c0158fc81e09","019cf9ba-391a-7c7b-96b9-3757895c469c","","388","
                <div class=""stimulus-container"">
                    <img src=""images/causal_sequence/saving_a_cat_causal/saving_a_cat_causal_6.png"" class=""exp-image"">
                    <div class=""question-area"">
                        <p style=""font-size: 20px; font-weight: bold; margin: 0;"">Is there a person in this image?</p>
                    </div>
                </div>","0","main_experiment_trial","6","saving_a_cat_causal","causal_sequence","randomized","","","","",""
"","","","","","html-keyboard-response","84","168388","0.0-84.0","630075AEB43D4003BF728CB010A60DA6","019cf9cc-5185-7f81-8aa4-c0158fc81e09","019cf9ba-391a-7c7b-96b9-3757895c469c","","null","
                <div class=""stimulus-container"">
                    <img src=""images/causal_sequence/saving_a_cat_causal/saving_a_cat_causal_5.png"" class=""exp-image"">
                    <div class=""question-area""></div> 
                </div>","null","","","","","","","","","",""
"","","","","","html-button-response","85","168752","0.0-85.0","630075AEB43D4003BF728CB010A60DA6","019cf9cc-5185-7f81-8aa4-c0158fc81e09","019cf9ba-391a-7c7b-96b9-3757895c469c","","362","
                <div class=""stimulus-container"">
                    <img src=""images/causal_sequence/saving_a_cat_causal/saving_a_cat_causal_5.png"" class=""exp-image"">
                    <div class=""question-area"">
                        <p style=""font-size: 20px; font-weight: bold; margin: 0;"">Is there a person in this image?</p>
                    </div>
                </div>","0","main_experiment_trial","5","saving_a_cat_causal","causal_sequence","randomized","","","","",""
"","","","","","html-keyboard-response","86","169766","0.0-86.0","630075AEB43D4003BF728CB010A60DA6","019cf9cc-5185-7f81-8aa4-c0158fc81e09","019cf9ba-391a-7c7b-96b9-3757895c469c","","null","
                <div class=""stimulus-container"">
                    <img src=""images/causal_sequence/saving_a_cat_causal/saving_a_cat_causal_2.png"" class=""exp-image"">
                    <div class=""question-area""></div> 
                </div>","null","","","","","","","","","",""
"","","","","","html-button-response","87","170195","0.0-87.0","630075AEB43D4003BF728CB010A60DA6","019cf9cc-5185-7f81-8aa4-c0158fc81e09","019cf9ba-391a-7c7b-96b9-3757895c469c","","427","
                <div class=""stimulus-container"">
                    <img src=""images/causal_sequence/saving_a_cat_causal/saving_a_cat_causal_2.png"" class=""exp-image"">
                    <div class=""question-area"">
                        <p style=""font-size: 20px; font-weight: bold; margin: 0;"">Is there a person in this image?</p>
                    </div>
                </div>","1","main_experiment_trial","2","saving_a_cat_causal","causal_sequence","randomized","","","","",""
"","","","","","html-keyboard-response","88","171202","0.0-88.0","630075AEB43D4003BF728CB010A60DA6","019cf9cc-5185-7f81-8aa4-c0158fc81e09","019cf9ba-391a-7c7b-96b9-3757895c469c","","null","
                <div class=""stimulus-container"">
                    <img src=""images/causal_sequence/saving_a_cat_causal/saving_a_cat_causal_8.png"" class=""exp-image"">
                    <div class=""question-area""></div> 
                </div>","null","","","","","","","","","",""
"","","","","","html-button-response","89","171578","0.0-89.0","630075AEB43D4003BF728CB010A60DA6","019cf9cc-5185-7f81-8aa4-c0158fc81e09","019cf9ba-391a-7c7b-96b9-3757895c469c","","374","
                <div class=""stimulus-container"">
                    <img src=""images/causal_sequence/saving_a_cat_causal/saving_a_cat_causal_8.png"" class=""exp-image"">
                    <div class=""question-area"">
                        <p style=""font-size: 20px; font-weight: bold; margin: 0;"">Is there a person in this image?</p>
                    </div>
                </div>","0","main_experiment_trial","8","saving_a_cat_causal","causal_sequence","randomized","","","","",""
"","","","","","html-keyboard-response","90","172586","0.0-90.0","630075AEB43D4003BF728CB010A60DA6","019cf9cc-5185-7f81-8aa4-c0158fc81e09","019cf9ba-391a-7c7b-96b9-3757895c469c","","null","
                <div class=""stimulus-container"">
                    <img src=""images/causal_sequence/saving_a_cat_causal/saving_a_cat_causal_9.png"" class=""exp-image"">
                    <div class=""question-area""></div> 
                </div>","null","","","","","","","","","",""
"","","","","","html-button-response","91","172984","0.0-91.0","630075AEB43D4003BF728CB010A60DA6","019cf9cc-5185-7f81-8aa4-c0158fc81e09","019cf9ba-391a-7c7b-96b9-3757895c469c","","397","
                <div class=""stimulus-container"">
                    <img src=""images/causal_sequence/saving_a_cat_causal/saving_a_cat_causal_9.png"" class=""exp-image"">
                    <div class=""question-area"">
                        <p style=""font-size: 20px; font-weight: bold; margin: 0;"">Is there a person in this image?</p>
                    </div>
                </div>","0","main_experiment_trial","9","saving_a_cat_causal","causal_sequence","randomized","","","","",""
"","","","","","html-keyboard-response","92","173994","0.0-92.0","630075AEB43D4003BF728CB010A60DA6","019cf9cc-5185-7f81-8aa4-c0158fc81e09","019cf9ba-391a-7c7b-96b9-3757895c469c","","null","
                <div class=""stimulus-container"">
                    <img src=""images/causal_sequence/saving_a_cat_causal/saving_a_cat_causal_1.png"" class=""exp-image"">
                    <div class=""question-area""></div> 
                </div>","null","","","","","","","","","",""
"","","","","","html-button-response","93","174367","0.0-93.0","630075AEB43D4003BF728CB010A60DA6","019cf9cc-5185-7f81-8aa4-c0158fc81e09","019cf9ba-391a-7c7b-96b9-3757895c469c","","372","
                <div class=""stimulus-container"">
                    <img src=""images/causal_sequence/saving_a_cat_causal/saving_a_cat_causal_1.png"" class=""exp-image"">
                    <div class=""question-area"">
                        <p style=""font-size: 20px; font-weight: bold; margin: 0;"">Is there a person in this image?</p>
                    </div>
                </div>","0","main_experiment_trial","1","saving_a_cat_causal","causal_sequence","randomized","","","","",""
"","","","","","html-keyboard-response","94","175369","0.0-94.0","630075AEB43D4003BF728CB010A60DA6","019cf9cc-5185-7f81-8aa4-c0158fc81e09","019cf9ba-391a-7c7b-96b9-3757895c469c","","null","
                <div class=""stimulus-container"">
                    <img src=""images/causal_sequence/saving_a_cat_causal/saving_a_cat_causal_3.png"" class=""exp-image"">
                    <div class=""question-area""></div> 
                </div>","null","","","","","","","","","",""
"","","","","","html-button-response","95","176128","0.0-95.0","630075AEB43D4003BF728CB010A60DA6","019cf9cc-5185-7f81-8aa4-c0158fc81e09","019cf9ba-391a-7c7b-96b9-3757895c469c","","758","
                <div class=""stimulus-container"">
                    <img src=""images/causal_sequence/saving_a_cat_causal/saving_a_cat_causal_3.png"" class=""exp-image"">
                    <div class=""question-area"">
                        <p style=""font-size: 20px; font-weight: bold; margin: 0;"">Is there a person in this image?</p>
                    </div>
                </div>","1","main_experiment_trial","3","saving_a_cat_causal","causal_sequence","randomized","","","","",""
"","","","","","html-keyboard-response","96","177135","0.0-96.0","630075AEB43D4003BF728CB010A60DA6","019cf9cc-5185-7f81-8aa4-c0158fc81e09","019cf9ba-391a-7c7b-96b9-3757895c469c","","null","
                <div class=""stimulus-container"">
                    <img src=""images/causal_sequence/saving_a_cat_causal/saving_a_cat_causal_ten.png"" class=""exp-image"">
                    <div class=""question-area""></div> 
                </div>","null","","","","","","","","","",""
"","","","","","html-button-response","97","177518","0.0-97.0","630075AEB43D4003BF728CB010A60DA6","019cf9cc-5185-7f81-8aa4-c0158fc81e09","019cf9ba-391a-7c7b-96b9-3757895c469c","","382","
                <div class=""stimulus-container"">
                    <img src=""images/causal_sequence/saving_a_cat_causal/saving_a_cat_causal_ten.png"" class=""exp-image"">
                    <div class=""question-area"">
                        <p style=""font-size: 20px; font-weight: bold; margin: 0;"">Is there a person in this image?</p>
                    </div>
                </div>","0","main_experiment_trial","ten","saving_a_cat_causal","causal_sequence","randomized","","","","",""
"","","","","","html-keyboard-response","98","178524","0.0-98.0","630075AEB43D4003BF728CB010A60DA6","019cf9cc-5185-7f81-8aa4-c0158fc81e09","019cf9ba-391a-7c7b-96b9-3757895c469c","","null","
                <div class=""stimulus-container"">
                    <img src=""images/causal_sequence/saving_a_cat_causal/saving_a_cat_causal_4.png"" class=""exp-image"">
                    <div class=""question-area""></div> 
                </div>","null","","","","","","","","","",""
"","","","","","html-button-response","99","178886","0.0-99.0","630075AEB43D4003BF728CB010A60DA6","019cf9cc-5185-7f81-8aa4-c0158fc81e09","019cf9ba-391a-7c7b-96b9-3757895c469c","","359","
                <div class=""stimulus-container"">
                    <img src=""images/causal_sequence/saving_a_cat_causal/saving_a_cat_causal_4.png"" class=""exp-image"">
                    <div class=""question-area"">
                        <p style=""font-size: 20px; font-weight: bold; margin: 0;"">Is there a person in this image?</p>
                    </div>
                </div>","0","main_experiment_trial","4","saving_a_cat_causal","causal_sequence","randomized","","","","",""
"","","","","","html-keyboard-response","100","183896","0.0-100.0","630075AEB43D4003BF728CB010A60DA6","019cf9cc-5185-7f81-8aa4-c0158fc81e09","019cf9ba-391a-7c7b-96b9-3757895c469c","","null","<div style=""background-color: white; width: 100vw; height: 100vh;""></div>","null","","","","","","","","","",""
"","","","","","html-keyboard-response","101","184905","0.0-101.0","630075AEB43D4003BF728CB010A60DA6","019cf9cc-5185-7f81-8aa4-c0158fc81e09","019cf9ba-391a-7c7b-96b9-3757895c469c","","null","
                <div class=""stimulus-container"">
                    <img src=""images/semantic_sequence/housework_semantic/housework_semantic_1.png"" class=""exp-image"">
                    <div class=""question-area""></div> 
                </div>","null","","","","","","","","","",""
"","","","","","html-button-response","102","185577","0.0-102.0","630075AEB43D4003BF728CB010A60DA6","019cf9cc-5185-7f81-8aa4-c0158fc81e09","019cf9ba-391a-7c7b-96b9-3757895c469c","","671","
                <div class=""stimulus-container"">
                    <img src=""images/semantic_sequence/housework_semantic/housework_semantic_1.png"" class=""exp-image"">
                    <div class=""question-area"">
                        <p style=""font-size: 20px; font-weight: bold; margin: 0;"">Is there a person in this image?</p>
                    </div>
                </div>","0","main_experiment_trial","1","housework_semantic","semantic_sequence","randomized","","","","",""
"","","","","","html-keyboard-response","103","186594","0.0-103.0","630075AEB43D4003BF728CB010A60DA6","019cf9cc-5185-7f81-8aa4-c0158fc81e09","019cf9ba-391a-7c7b-96b9-3757895c469c","","null","
                <div class=""stimulus-container"">
                    <img src=""images/semantic_sequence/housework_semantic/housework_semantic_3.png"" class=""exp-image"">
                    <div class=""question-area""></div> 
                </div>","null","","","","","","","","","",""
"","","","","","html-button-response","104","186900","0.0-104.0","630075AEB43D4003BF728CB010A60DA6","019cf9cc-5185-7f81-8aa4-c0158fc81e09","019cf9ba-391a-7c7b-96b9-3757895c469c","","305","
                <div class=""stimulus-container"">
                    <img src=""images/semantic_sequence/housework_semantic/housework_semantic_3.png"" class=""exp-image"">
                    <div class=""question-area"">
                        <p style=""font-size: 20px; font-weight: bold; margin: 0;"">Is there a person in this image?</p>
                    </div>
                </div>","0","main_experiment_trial","3","housework_semantic","semantic_sequence","randomized","","","","",""
"","","","","","html-keyboard-response","105","187904","0.0-105.0","630075AEB43D4003BF728CB010A60DA6","019cf9cc-5185-7f81-8aa4-c0158fc81e09","019cf9ba-391a-7c7b-96b9-3757895c469c","","null","
                <div class=""stimulus-container"">
                    <img src=""images/semantic_sequence/housework_semantic/housework_semantic_5.png"" class=""exp-image"">
                    <div class=""question-area""></div> 
                </div>","null","","","","","","","","","",""
"","","","","","html-button-response","106","188351","0.0-106.0","630075AEB43D4003BF728CB010A60DA6","019cf9cc-5185-7f81-8aa4-c0158fc81e09","019cf9ba-391a-7c7b-96b9-3757895c469c","","445","
                <div class=""stimulus-container"">
                    <img src=""images/semantic_sequence/housework_semantic/housework_semantic_5.png"" class=""exp-image"">
                    <div class=""question-area"">
                        <p style=""font-size: 20px; font-weight: bold; margin: 0;"">Is there a person in this image?</p>
                    </div>
                </div>","0","main_experiment_trial","5","housework_semantic","semantic_sequence","randomized","","","","",""
"","","","","","html-keyboard-response","107","189360","0.0-107.0","630075AEB43D4003BF728CB010A60DA6","019cf9cc-5185-7f81-8aa4-c0158fc81e09","019cf9ba-391a-7c7b-96b9-3757895c469c","","null","
                <div class=""stimulus-container"">
                    <img src=""images/semantic_sequence/housework_semantic/housework_semantic_7.png"" class=""exp-image"">
                    <div class=""question-area""></div> 
                </div>","null","","","","","","","","","",""
"","","","","","html-button-response","108","189728","0.0-108.0","630075AEB43D4003BF728CB010A60DA6","019cf9cc-5185-7f81-8aa4-c0158fc81e09","019cf9ba-391a-7c7b-96b9-3757895c469c","","366","
                <div class=""stimulus-container"">
                    <img src=""images/semantic_sequence/housework_semantic/housework_semantic_7.png"" class=""exp-image"">
                    <div class=""question-area"">
                        <p style=""font-size: 20px; font-weight: bold; margin: 0;"">Is there a person in this image?</p>
                    </div>
                </div>","0","main_experiment_trial","7","housework_semantic","semantic_sequence","randomized","","","","",""
"","","","","","html-keyboard-response","109","190740","0.0-109.0","630075AEB43D4003BF728CB010A60DA6","019cf9cc-5185-7f81-8aa4-c0158fc81e09","019cf9ba-391a-7c7b-96b9-3757895c469c","","null","
                <div class=""stimulus-container"">
                    <img src=""images/semantic_sequence/housework_semantic/housework_semantic_9.png"" class=""exp-image"">
                    <div class=""question-area""></div> 
                </div>","null","","","","","","","","","",""
"","","","","","html-button-response","110","191269","0.0-110.0","630075AEB43D4003BF728CB010A60DA6","019cf9cc-5185-7f81-8aa4-c0158fc81e09","019cf9ba-391a-7c7b-96b9-3757895c469c","","528","
                <div class=""stimulus-container"">
                    <img src=""images/semantic_sequence/housework_semantic/housework_semantic_9.png"" class=""exp-image"">
                    <div class=""question-area"">
                        <p style=""font-size: 20px; font-weight: bold; margin: 0;"">Is there a person in this image?</p>
                    </div>
                </div>","0","main_experiment_trial","9","housework_semantic","semantic_sequence","randomized","","","","",""
"","","","","","html-keyboard-response","111","192277","0.0-111.0","630075AEB43D4003BF728CB010A60DA6","019cf9cc-5185-7f81-8aa4-c0158fc81e09","019cf9ba-391a-7c7b-96b9-3757895c469c","","null","
                <div class=""stimulus-container"">
                    <img src=""images/semantic_sequence/housework_semantic/housework_semantic_2.png"" class=""exp-image"">
                    <div class=""question-area""></div> 
                </div>","null","","","","","","","","","",""
"","","","","","html-button-response","112","192652","0.0-112.0","630075AEB43D4003BF728CB010A60DA6","019cf9cc-5185-7f81-8aa4-c0158fc81e09","019cf9ba-391a-7c7b-96b9-3757895c469c","","374","
                <div class=""stimulus-container"">
                    <img src=""images/semantic_sequence/housework_semantic/housework_semantic_2.png"" class=""exp-image"">
                    <div class=""question-area"">
                        <p style=""font-size: 20px; font-weight: bold; margin: 0;"">Is there a person in this image?</p>
                    </div>
                </div>","0","main_experiment_trial","2","housework_semantic","semantic_sequence","randomized","","","","",""
"","","","","","html-keyboard-response","113","193662","0.0-113.0","630075AEB43D4003BF728CB010A60DA6","019cf9cc-5185-7f81-8aa4-c0158fc81e09","019cf9ba-391a-7c7b-96b9-3757895c469c","","null","
                <div class=""stimulus-container"">
                    <img src=""images/semantic_sequence/housework_semantic/housework_semantic_6.png"" class=""exp-image"">
                    <div class=""question-area""></div> 
                </div>","null","","","","","","","","","",""
"","","","","","html-button-response","114","194051","0.0-114.0","630075AEB43D4003BF728CB010A60DA6","019cf9cc-5185-7f81-8aa4-c0158fc81e09","019cf9ba-391a-7c7b-96b9-3757895c469c","","388","
                <div class=""stimulus-container"">
                    <img src=""images/semantic_sequence/housework_semantic/housework_semantic_6.png"" class=""exp-image"">
                    <div class=""question-area"">
                        <p style=""font-size: 20px; font-weight: bold; margin: 0;"">Is there a person in this image?</p>
                    </div>
                </div>","0","main_experiment_trial","6","housework_semantic","semantic_sequence","randomized","","","","",""
"","","","","","html-keyboard-response","115","195065","0.0-115.0","630075AEB43D4003BF728CB010A60DA6","019cf9cc-5185-7f81-8aa4-c0158fc81e09","019cf9ba-391a-7c7b-96b9-3757895c469c","","null","
                <div class=""stimulus-container"">
                    <img src=""images/semantic_sequence/housework_semantic/housework_semantic_4.png"" class=""exp-image"">
                    <div class=""question-area""></div> 
                </div>","null","","","","","","","","","",""
"","","","","","html-button-response","116","195390","0.0-116.0","630075AEB43D4003BF728CB010A60DA6","019cf9cc-5185-7f81-8aa4-c0158fc81e09","019cf9ba-391a-7c7b-96b9-3757895c469c","","323","
                <div class=""stimulus-container"">
                    <img src=""images/semantic_sequence/housework_semantic/housework_semantic_4.png"" class=""exp-image"">
                    <div class=""question-area"">
                        <p style=""font-size: 20px; font-weight: bold; margin: 0;"">Is there a person in this image?</p>
                    </div>
                </div>","0","main_experiment_trial","4","housework_semantic","semantic_sequence","randomized","","","","",""
"","","","","","html-keyboard-response","117","196399","0.0-117.0","630075AEB43D4003BF728CB010A60DA6","019cf9cc-5185-7f81-8aa4-c0158fc81e09","019cf9ba-391a-7c7b-96b9-3757895c469c","","null","
                <div class=""stimulus-container"">
                    <img src=""images/semantic_sequence/housework_semantic/housework_semantic_8.png"" class=""exp-image"">
                    <div class=""question-area""></div> 
                </div>","null","","","","","","","","","",""
"","","","","","html-button-response","118","196766","0.0-118.0","630075AEB43D4003BF728CB010A60DA6","019cf9cc-5185-7f81-8aa4-c0158fc81e09","019cf9ba-391a-7c7b-96b9-3757895c469c","","365","
                <div class=""stimulus-container"">
                    <img src=""images/semantic_sequence/housework_semantic/housework_semantic_8.png"" class=""exp-image"">
                    <div class=""question-area"">
                        <p style=""font-size: 20px; font-weight: bold; margin: 0;"">Is there a person in this image?</p>
                    </div>
                </div>","0","main_experiment_trial","8","housework_semantic","semantic_sequence","randomized","","","","",""
"","","","","","html-keyboard-response","119","197778","0.0-119.0","630075AEB43D4003BF728CB010A60DA6","019cf9cc-5185-7f81-8aa4-c0158fc81e09","019cf9ba-391a-7c7b-96b9-3757895c469c","","null","
                <div class=""stimulus-container"">
                    <img src=""images/semantic_sequence/housework_semantic/housework_semantic_ten.png"" class=""exp-image"">
                    <div class=""question-area""></div> 
                </div>","null","","","","","","","","","",""
"","","","","","html-button-response","120","198134","0.0-120.0","630075AEB43D4003BF728CB010A60DA6","019cf9cc-5185-7f81-8aa4-c0158fc81e09","019cf9ba-391a-7c7b-96b9-3757895c469c","","354","
                <div class=""stimulus-container"">
                    <img src=""images/semantic_sequence/housework_semantic/housework_semantic_ten.png"" class=""exp-image"">
                    <div class=""question-area"">
                        <p style=""font-size: 20px; font-weight: bold; margin: 0;"">Is there a person in this image?</p>
                    </div>
                </div>","0","main_experiment_trial","ten","housework_semantic","semantic_sequence","randomized","","","","",""
"","","","","","html-keyboard-response","121","203145","0.0-121.0","630075AEB43D4003BF728CB010A60DA6","019cf9cc-5185-7f81-8aa4-c0158fc81e09","019cf9ba-391a-7c7b-96b9-3757895c469c","","null","<div style=""background-color: white; width: 100vw; height: 100vh;""></div>","null","","","","","","","","","",""
"","","","","","html-keyboard-response","122","204153","0.0-122.0","630075AEB43D4003BF728CB010A60DA6","019cf9cc-5185-7f81-8aa4-c0158fc81e09","019cf9ba-391a-7c7b-96b9-3757895c469c","","null","
                <div class=""stimulus-container"">
                    <img src=""images/causal_sequence/coin_causal/coin_causal_3.png"" class=""exp-image"">
                    <div class=""question-area""></div> 
                </div>","null","","","","","","","","","",""
"","","","","","html-button-response","123","204697","0.0-123.0","630075AEB43D4003BF728CB010A60DA6","019cf9cc-5185-7f81-8aa4-c0158fc81e09","019cf9ba-391a-7c7b-96b9-3757895c469c","","543","
                <div class=""stimulus-container"">
                    <img src=""images/causal_sequence/coin_causal/coin_causal_3.png"" class=""exp-image"">
                    <div class=""question-area"">
                        <p style=""font-size: 20px; font-weight: bold; margin: 0;"">Is there a person in this image?</p>
                    </div>
                </div>","0","main_experiment_trial","3","coin_causal","causal_sequence","randomized","","","","",""
"","","","","","html-keyboard-response","124","205704","0.0-124.0","630075AEB43D4003BF728CB010A60DA6","019cf9cc-5185-7f81-8aa4-c0158fc81e09","019cf9ba-391a-7c7b-96b9-3757895c469c","","null","
                <div class=""stimulus-container"">
                    <img src=""images/causal_sequence/coin_causal/coin_causal_8.png"" class=""exp-image"">
                    <div class=""question-area""></div> 
                </div>","null","","","","","","","","","",""
"","","","","","html-button-response","125","206328","0.0-125.0","630075AEB43D4003BF728CB010A60DA6","019cf9cc-5185-7f81-8aa4-c0158fc81e09","019cf9ba-391a-7c7b-96b9-3757895c469c","","623","
                <div class=""stimulus-container"">
                    <img src=""images/causal_sequence/coin_causal/coin_causal_8.png"" class=""exp-image"">
                    <div class=""question-area"">
                        <p style=""font-size: 20px; font-weight: bold; margin: 0;"">Is there a person in this image?</p>
                    </div>
                </div>","0","main_experiment_trial","8","coin_causal","causal_sequence","randomized","","","","",""
"","","","","","html-keyboard-response","126","207337","0.0-126.0","630075AEB43D4003BF728CB010A60DA6","019cf9cc-5185-7f81-8aa4-c0158fc81e09","019cf9ba-391a-7c7b-96b9-3757895c469c","","null","
                <div class=""stimulus-container"">
                    <img src=""images/causal_sequence/coin_causal/coin_causal_6.png"" class=""exp-image"">
                    <div class=""question-area""></div> 
                </div>","null","","","","","","","","","",""
"","","","","","html-button-response","127","207735","0.0-127.0","630075AEB43D4003BF728CB010A60DA6","019cf9cc-5185-7f81-8aa4-c0158fc81e09","019cf9ba-391a-7c7b-96b9-3757895c469c","","396","
                <div class=""stimulus-container"">
                    <img src=""images/causal_sequence/coin_causal/coin_causal_6.png"" class=""exp-image"">
                    <div class=""question-area"">
                        <p style=""font-size: 20px; font-weight: bold; margin: 0;"">Is there a person in this image?</p>
                    </div>
                </div>","0","main_experiment_trial","6","coin_causal","causal_sequence","randomized","","","","",""
"","","","","","html-keyboard-response","128","208738","0.0-128.0","630075AEB43D4003BF728CB010A60DA6","019cf9cc-5185-7f81-8aa4-c0158fc81e09","019cf9ba-391a-7c7b-96b9-3757895c469c","","null","
                <div class=""stimulus-container"">
                    <img src=""images/causal_sequence/coin_causal/coin_causal_1.png"" class=""exp-image"">
                    <div class=""question-area""></div> 
                </div>","null","","","","","","","","","",""
"","","","","","html-button-response","129","209178","0.0-129.0","630075AEB43D4003BF728CB010A60DA6","019cf9cc-5185-7f81-8aa4-c0158fc81e09","019cf9ba-391a-7c7b-96b9-3757895c469c","","438","
                <div class=""stimulus-container"">
                    <img src=""images/causal_sequence/coin_causal/coin_causal_1.png"" class=""exp-image"">
                    <div class=""question-area"">
                        <p style=""font-size: 20px; font-weight: bold; margin: 0;"">Is there a person in this image?</p>
                    </div>
                </div>","0","main_experiment_trial","1","coin_causal","causal_sequence","randomized","","","","",""
"","","","","","html-keyboard-response","130","210189","0.0-130.0","630075AEB43D4003BF728CB010A60DA6","019cf9cc-5185-7f81-8aa4-c0158fc81e09","019cf9ba-391a-7c7b-96b9-3757895c469c","","null","
                <div class=""stimulus-container"">
                    <img src=""images/causal_sequence/coin_causal/coin_causal_9.png"" class=""exp-image"">
                    <div class=""question-area""></div> 
                </div>","null","","","","","","","","","",""
"","","","","","html-button-response","131","210516","0.0-131.0","630075AEB43D4003BF728CB010A60DA6","019cf9cc-5185-7f81-8aa4-c0158fc81e09","019cf9ba-391a-7c7b-96b9-3757895c469c","","326","
                <div class=""stimulus-container"">
                    <img src=""images/causal_sequence/coin_causal/coin_causal_9.png"" class=""exp-image"">
                    <div class=""question-area"">
                        <p style=""font-size: 20px; font-weight: bold; margin: 0;"">Is there a person in this image?</p>
                    </div>
                </div>","0","main_experiment_trial","9","coin_causal","causal_sequence","randomized","","","","",""
"","","","","","html-keyboard-response","132","211530","0.0-132.0","630075AEB43D4003BF728CB010A60DA6","019cf9cc-5185-7f81-8aa4-c0158fc81e09","019cf9ba-391a-7c7b-96b9-3757895c469c","","null","
                <div class=""stimulus-container"">
                    <img src=""images/causal_sequence/coin_causal/coin_causal_4.png"" class=""exp-image"">
                    <div class=""question-area""></div> 
                </div>","null","","","","","","","","","",""
"","","","","","html-button-response","133","211854","0.0-133.0","630075AEB43D4003BF728CB010A60DA6","019cf9cc-5185-7f81-8aa4-c0158fc81e09","019cf9ba-391a-7c7b-96b9-3757895c469c","","323","
                <div class=""stimulus-container"">
                    <img src=""images/causal_sequence/coin_causal/coin_causal_4.png"" class=""exp-image"">
                    <div class=""question-area"">
                        <p style=""font-size: 20px; font-weight: bold; margin: 0;"">Is there a person in this image?</p>
                    </div>
                </div>","0","main_experiment_trial","4","coin_causal","causal_sequence","randomized","","","","",""
"","","","","","html-keyboard-response","134","212855","0.0-134.0","630075AEB43D4003BF728CB010A60DA6","019cf9cc-5185-7f81-8aa4-c0158fc81e09","019cf9ba-391a-7c7b-96b9-3757895c469c","","null","
                <div class=""stimulus-container"">
                    <img src=""images/causal_sequence/coin_causal/coin_causal_7.png"" class=""exp-image"">
                    <div class=""question-area""></div> 
                </div>","null","","","","","","","","","",""
"","","","","","html-button-response","135","213764","0.0-135.0","630075AEB43D4003BF728CB010A60DA6","019cf9cc-5185-7f81-8aa4-c0158fc81e09","019cf9ba-391a-7c7b-96b9-3757895c469c","","909","
                <div class=""stimulus-container"">
                    <img src=""images/causal_sequence/coin_causal/coin_causal_7.png"" class=""exp-image"">
                    <div class=""question-area"">
                        <p style=""font-size: 20px; font-weight: bold; margin: 0;"">Is there a person in this image?</p>
                    </div>
                </div>","1","main_experiment_trial","7","coin_causal","causal_sequence","randomized","","","","",""
"","","","","","html-keyboard-response","136","214780","0.0-136.0","630075AEB43D4003BF728CB010A60DA6","019cf9cc-5185-7f81-8aa4-c0158fc81e09","019cf9ba-391a-7c7b-96b9-3757895c469c","","null","
                <div class=""stimulus-container"">
                    <img src=""images/causal_sequence/coin_causal/coin_causal_2.png"" class=""exp-image"">
                    <div class=""question-area""></div> 
                </div>","null","","","","","","","","","",""
"","","","","","html-button-response","137","215147","0.0-137.0","630075AEB43D4003BF728CB010A60DA6","019cf9cc-5185-7f81-8aa4-c0158fc81e09","019cf9ba-391a-7c7b-96b9-3757895c469c","","366","
                <div class=""stimulus-container"">
                    <img src=""images/causal_sequence/coin_causal/coin_causal_2.png"" class=""exp-image"">
                    <div class=""question-area"">
                        <p style=""font-size: 20px; font-weight: bold; margin: 0;"">Is there a person in this image?</p>
                    </div>
                </div>","0","main_experiment_trial","2","coin_causal","causal_sequence","randomized","","","","",""
"","","","","","html-keyboard-response","138","216161","0.0-138.0","630075AEB43D4003BF728CB010A60DA6","019cf9cc-5185-7f81-8aa4-c0158fc81e09","019cf9ba-391a-7c7b-96b9-3757895c469c","","null","
                <div class=""stimulus-container"">
                    <img src=""images/causal_sequence/coin_causal/coin_causal_ten.png"" class=""exp-image"">
                    <div class=""question-area""></div> 
                </div>","null","","","","","","","","","",""
"","","","","","html-button-response","139","216516","0.0-139.0","630075AEB43D4003BF728CB010A60DA6","019cf9cc-5185-7f81-8aa4-c0158fc81e09","019cf9ba-391a-7c7b-96b9-3757895c469c","","354","
                <div class=""stimulus-container"">
                    <img src=""images/causal_sequence/coin_causal/coin_causal_ten.png"" class=""exp-image"">
                    <div class=""question-area"">
                        <p style=""font-size: 20px; font-weight: bold; margin: 0;"">Is there a person in this image?</p>
                    </div>
                </div>","0","main_experiment_trial","ten","coin_causal","causal_sequence","randomized","","","","",""
"","","","","","html-keyboard-response","140","217528","0.0-140.0","630075AEB43D4003BF728CB010A60DA6","019cf9cc-5185-7f81-8aa4-c0158fc81e09","019cf9ba-391a-7c7b-96b9-3757895c469c","","null","
                <div class=""stimulus-container"">
                    <img src=""images/causal_sequence/coin_causal/coin_causal_5.png"" class=""exp-image"">
                    <div class=""question-area""></div> 
                </div>","null","","","","","","","","","",""
"","","","","","html-button-response","141","217967","0.0-141.0","630075AEB43D4003BF728CB010A60DA6","019cf9cc-5185-7f81-8aa4-c0158fc81e09","019cf9ba-391a-7c7b-96b9-3757895c469c","","438","
                <div class=""stimulus-container"">
                    <img src=""images/causal_sequence/coin_causal/coin_causal_5.png"" class=""exp-image"">
                    <div class=""question-area"">
                        <p style=""font-size: 20px; font-weight: bold; margin: 0;"">Is there a person in this image?</p>
                    </div>
                </div>","0","main_experiment_trial","5","coin_causal","causal_sequence","randomized","","","","",""
"","","","","","html-keyboard-response","142","222974","0.0-142.0","630075AEB43D4003BF728CB010A60DA6","019cf9cc-5185-7f81-8aa4-c0158fc81e09","019cf9ba-391a-7c7b-96b9-3757895c469c","","null","<div style=""background-color: white; width: 100vw; height: 100vh;""></div>","null","","","","","","","","","",""
"","","","","","html-keyboard-response","143","223992","0.0-143.0","630075AEB43D4003BF728CB010A60DA6","019cf9cc-5185-7f81-8aa4-c0158fc81e09","019cf9ba-391a-7c7b-96b9-3757895c469c","","null","
                <div class=""stimulus-container"">
                    <img src=""images/causal_sequence/the_performance_causal/the_performance_causal_7.png"" class=""exp-image"">
                    <div class=""question-area""></div> 
                </div>","null","","","","","","","","","",""
"","","","","","html-button-response","144","224478","0.0-144.0","630075AEB43D4003BF728CB010A60DA6","019cf9cc-5185-7f81-8aa4-c0158fc81e09","019cf9ba-391a-7c7b-96b9-3757895c469c","","485","
                <div class=""stimulus-container"">
                    <img src=""images/causal_sequence/the_performance_causal/the_performance_causal_7.png"" class=""exp-image"">
                    <div class=""question-area"">
                        <p style=""font-size: 20px; font-weight: bold; margin: 0;"">Is there a person in this image?</p>
                    </div>
                </div>","0","main_experiment_trial","7","the_performance_causal","causal_sequence","randomized","","","","",""
"","","","","","html-keyboard-response","145","225485","0.0-145.0","630075AEB43D4003BF728CB010A60DA6","019cf9cc-5185-7f81-8aa4-c0158fc81e09","019cf9ba-391a-7c7b-96b9-3757895c469c","","null","
                <div class=""stimulus-container"">
                    <img src=""images/causal_sequence/the_performance_causal/the_performance_causal_ten.png"" class=""exp-image"">
                    <div class=""question-area""></div> 
                </div>","null","","","","","","","","","",""
"","","","","","html-button-response","146","225853","0.0-146.0","630075AEB43D4003BF728CB010A60DA6","019cf9cc-5185-7f81-8aa4-c0158fc81e09","019cf9ba-391a-7c7b-96b9-3757895c469c","","367","
                <div class=""stimulus-container"">
                    <img src=""images/causal_sequence/the_performance_causal/the_performance_causal_ten.png"" class=""exp-image"">
                    <div class=""question-area"">
                        <p style=""font-size: 20px; font-weight: bold; margin: 0;"">Is there a person in this image?</p>
                    </div>
                </div>","0","main_experiment_trial","ten","the_performance_causal","causal_sequence","randomized","","","","",""
"","","","","","html-keyboard-response","147","226869","0.0-147.0","630075AEB43D4003BF728CB010A60DA6","019cf9cc-5185-7f81-8aa4-c0158fc81e09","019cf9ba-391a-7c7b-96b9-3757895c469c","","null","
                <div class=""stimulus-container"">
                    <img src=""images/causal_sequence/the_performance_causal/the_performance_causal_6.png"" class=""exp-image"">
                    <div class=""question-area""></div> 
                </div>","null","","","","","","","","","",""
"","","","","","html-button-response","148","227238","0.0-148.0","630075AEB43D4003BF728CB010A60DA6","019cf9cc-5185-7f81-8aa4-c0158fc81e09","019cf9ba-391a-7c7b-96b9-3757895c469c","","368","
                <div class=""stimulus-container"">
                    <img src=""images/causal_sequence/the_performance_causal/the_performance_causal_6.png"" class=""exp-image"">
                    <div class=""question-area"">
                        <p style=""font-size: 20px; font-weight: bold; margin: 0;"">Is there a person in this image?</p>
                    </div>
                </div>","0","main_experiment_trial","6","the_performance_causal","causal_sequence","randomized","","","","",""
"","","","","","html-keyboard-response","149","228244","0.0-149.0","630075AEB43D4003BF728CB010A60DA6","019cf9cc-5185-7f81-8aa4-c0158fc81e09","019cf9ba-391a-7c7b-96b9-3757895c469c","","null","
                <div class=""stimulus-container"">
                    <img src=""images/causal_sequence/the_performance_causal/the_performance_causal_8.png"" class=""exp-image"">
                    <div class=""question-area""></div> 
                </div>","null","","","","","","","","","",""
"","","","","","html-button-response","150","228636","0.0-150.0","630075AEB43D4003BF728CB010A60DA6","019cf9cc-5185-7f81-8aa4-c0158fc81e09","019cf9ba-391a-7c7b-96b9-3757895c469c","","390","
                <div class=""stimulus-container"">
                    <img src=""images/causal_sequence/the_performance_causal/the_performance_causal_8.png"" class=""exp-image"">
                    <div class=""question-area"">
                        <p style=""font-size: 20px; font-weight: bold; margin: 0;"">Is there a person in this image?</p>
                    </div>
                </div>","0","main_experiment_trial","8","the_performance_causal","causal_sequence","randomized","","","","",""
"","","","","","html-keyboard-response","151","229645","0.0-151.0","630075AEB43D4003BF728CB010A60DA6","019cf9cc-5185-7f81-8aa4-c0158fc81e09","019cf9ba-391a-7c7b-96b9-3757895c469c","","null","
                <div class=""stimulus-container"">
                    <img src=""images/causal_sequence/the_performance_causal/the_performance_causal_4.png"" class=""exp-image"">
                    <div class=""question-area""></div> 
                </div>","null","","","","","","","","","",""
"","","","","","html-button-response","152","229914","0.0-152.0","630075AEB43D4003BF728CB010A60DA6","019cf9cc-5185-7f81-8aa4-c0158fc81e09","019cf9ba-391a-7c7b-96b9-3757895c469c","","267","
                <div class=""stimulus-container"">
                    <img src=""images/causal_sequence/the_performance_causal/the_performance_causal_4.png"" class=""exp-image"">
                    <div class=""question-area"">
                        <p style=""font-size: 20px; font-weight: bold; margin: 0;"">Is there a person in this image?</p>
                    </div>
                </div>","0","main_experiment_trial","4","the_performance_causal","causal_sequence","randomized","","","","",""
"","","","","","html-keyboard-response","153","230923","0.0-153.0","630075AEB43D4003BF728CB010A60DA6","019cf9cc-5185-7f81-8aa4-c0158fc81e09","019cf9ba-391a-7c7b-96b9-3757895c469c","","null","
                <div class=""stimulus-container"">
                    <img src=""images/causal_sequence/the_performance_causal/the_performance_causal_2.png"" class=""exp-image"">
                    <div class=""question-area""></div> 
                </div>","null","","","","","","","","","",""
"","","","","","html-button-response","154","231267","0.0-154.0","630075AEB43D4003BF728CB010A60DA6","019cf9cc-5185-7f81-8aa4-c0158fc81e09","019cf9ba-391a-7c7b-96b9-3757895c469c","","343","
                <div class=""stimulus-container"">
                    <img src=""images/causal_sequence/the_performance_causal/the_performance_causal_2.png"" class=""exp-image"">
                    <div class=""question-area"">
                        <p style=""font-size: 20px; font-weight: bold; margin: 0;"">Is there a person in this image?</p>
                    </div>
                </div>","0","main_experiment_trial","2","the_performance_causal","causal_sequence","randomized","","","","",""
"","","","","","html-keyboard-response","155","232275","0.0-155.0","630075AEB43D4003BF728CB010A60DA6","019cf9cc-5185-7f81-8aa4-c0158fc81e09","019cf9ba-391a-7c7b-96b9-3757895c469c","","null","
                <div class=""stimulus-container"">
                    <img src=""images/causal_sequence/the_performance_causal/the_performance_causal_9.png"" class=""exp-image"">
                    <div class=""question-area""></div> 
                </div>","null","","","","","","","","","",""
"","","","","","html-button-response","156","232613","0.0-156.0","630075AEB43D4003BF728CB010A60DA6","019cf9cc-5185-7f81-8aa4-c0158fc81e09","019cf9ba-391a-7c7b-96b9-3757895c469c","","337","
                <div class=""stimulus-container"">
                    <img src=""images/causal_sequence/the_performance_causal/the_performance_causal_9.png"" class=""exp-image"">
                    <div class=""question-area"">
                        <p style=""font-size: 20px; font-weight: bold; margin: 0;"">Is there a person in this image?</p>
                    </div>
                </div>","0","main_experiment_trial","9","the_performance_causal","causal_sequence","randomized","","","","",""
"","","","","","html-keyboard-response","157","233624","0.0-157.0","630075AEB43D4003BF728CB010A60DA6","019cf9cc-5185-7f81-8aa4-c0158fc81e09","019cf9ba-391a-7c7b-96b9-3757895c469c","","null","
                <div class=""stimulus-container"">
                    <img src=""images/causal_sequence/the_performance_causal/the_performance_causal_1.png"" class=""exp-image"">
                    <div class=""question-area""></div> 
                </div>","null","","","","","","","","","",""
"","","","","","html-button-response","158","234011","0.0-158.0","630075AEB43D4003BF728CB010A60DA6","019cf9cc-5185-7f81-8aa4-c0158fc81e09","019cf9ba-391a-7c7b-96b9-3757895c469c","","386","
                <div class=""stimulus-container"">
                    <img src=""images/causal_sequence/the_performance_causal/the_performance_causal_1.png"" class=""exp-image"">
                    <div class=""question-area"">
                        <p style=""font-size: 20px; font-weight: bold; margin: 0;"">Is there a person in this image?</p>
                    </div>
                </div>","0","main_experiment_trial","1","the_performance_causal","causal_sequence","randomized","","","","",""
"","","","","","html-keyboard-response","159","235026","0.0-159.0","630075AEB43D4003BF728CB010A60DA6","019cf9cc-5185-7f81-8aa4-c0158fc81e09","019cf9ba-391a-7c7b-96b9-3757895c469c","","null","
                <div class=""stimulus-container"">
                    <img src=""images/causal_sequence/the_performance_causal/the_performance_causal_3.png"" class=""exp-image"">
                    <div class=""question-area""></div> 
                </div>","null","","","","","","","","","",""
"","","","","","html-button-response","160","235403","0.0-160.0","630075AEB43D4003BF728CB010A60DA6","019cf9cc-5185-7f81-8aa4-c0158fc81e09","019cf9ba-391a-7c7b-96b9-3757895c469c","","376","
                <div class=""stimulus-container"">
                    <img src=""images/causal_sequence/the_performance_causal/the_performance_causal_3.png"" class=""exp-image"">
                    <div class=""question-area"">
                        <p style=""font-size: 20px; font-weight: bold; margin: 0;"">Is there a person in this image?</p>
                    </div>
                </div>","0","main_experiment_trial","3","the_performance_causal","causal_sequence","randomized","","","","",""
"","","","","","html-keyboard-response","161","236410","0.0-161.0","630075AEB43D4003BF728CB010A60DA6","019cf9cc-5185-7f81-8aa4-c0158fc81e09","019cf9ba-391a-7c7b-96b9-3757895c469c","","null","
                <div class=""stimulus-container"">
                    <img src=""images/causal_sequence/the_performance_causal/the_performance_causal_5.png"" class=""exp-image"">
                    <div class=""question-area""></div> 
                </div>","null","","","","","","","","","",""
"","","","","","html-button-response","162","236816","0.0-162.0","630075AEB43D4003BF728CB010A60DA6","019cf9cc-5185-7f81-8aa4-c0158fc81e09","019cf9ba-391a-7c7b-96b9-3757895c469c","","405","
                <div class=""stimulus-container"">
                    <img src=""images/causal_sequence/the_performance_causal/the_performance_causal_5.png"" class=""exp-image"">
                    <div class=""question-area"">
                        <p style=""font-size: 20px; font-weight: bold; margin: 0;"">Is there a person in this image?</p>
                    </div>
                </div>","0","main_experiment_trial","5","the_performance_causal","causal_sequence","randomized","","","","",""
"","","","","","html-keyboard-response","163","241819","0.0-163.0","630075AEB43D4003BF728CB010A60DA6","019cf9cc-5185-7f81-8aa4-c0158fc81e09","019cf9ba-391a-7c7b-96b9-3757895c469c","","null","<div style=""background-color: white; width: 100vw; height: 100vh;""></div>","null","","","","","","","","","",""
"","","","","","html-keyboard-response","164","242832","0.0-164.0","630075AEB43D4003BF728CB010A60DA6","019cf9cc-5185-7f81-8aa4-c0158fc81e09","019cf9ba-391a-7c7b-96b9-3757895c469c","","null","
                <div class=""stimulus-container"">
                    <img src=""images/semantic_sequence/maintaining_a_car_semantic/maintaining_a_car_semantic_2.png"" class=""exp-image"">
                    <div class=""question-area""></div> 
                </div>","null","","","","","","","","","",""
"","","","","","html-button-response","165","243424","0.0-165.0","630075AEB43D4003BF728CB010A60DA6","019cf9cc-5185-7f81-8aa4-c0158fc81e09","019cf9ba-391a-7c7b-96b9-3757895c469c","","591","
                <div class=""stimulus-container"">
                    <img src=""images/semantic_sequence/maintaining_a_car_semantic/maintaining_a_car_semantic_2.png"" class=""exp-image"">
                    <div class=""question-area"">
                        <p style=""font-size: 20px; font-weight: bold; margin: 0;"">Is there a person in this image?</p>
                    </div>
                </div>","0","main_experiment_trial","2","maintaining_a_car_semantic","semantic_sequence","randomized","","","","",""
"","","","","","html-keyboard-response","166","244424","0.0-166.0","630075AEB43D4003BF728CB010A60DA6","019cf9cc-5185-7f81-8aa4-c0158fc81e09","019cf9ba-391a-7c7b-96b9-3757895c469c","","null","
                <div class=""stimulus-container"">
                    <img src=""images/semantic_sequence/maintaining_a_car_semantic/maintaining_a_car_semantic_3.png"" class=""exp-image"">
                    <div class=""question-area""></div> 
                </div>","null","","","","","","","","","",""
"","","","","","html-button-response","167","245370","0.0-167.0","630075AEB43D4003BF728CB010A60DA6","019cf9cc-5185-7f81-8aa4-c0158fc81e09","019cf9ba-391a-7c7b-96b9-3757895c469c","","945","
                <div class=""stimulus-container"">
                    <img src=""images/semantic_sequence/maintaining_a_car_semantic/maintaining_a_car_semantic_3.png"" class=""exp-image"">
                    <div class=""question-area"">
                        <p style=""font-size: 20px; font-weight: bold; margin: 0;"">Is there a person in this image?</p>
                    </div>
                </div>","0","main_experiment_trial","3","maintaining_a_car_semantic","semantic_sequence","randomized","","","","",""
"","","","","","html-keyboard-response","168","246372","0.0-168.0","630075AEB43D4003BF728CB010A60DA6","019cf9cc-5185-7f81-8aa4-c0158fc81e09","019cf9ba-391a-7c7b-96b9-3757895c469c","","null","
                <div class=""stimulus-container"">
                    <img src=""images/semantic_sequence/maintaining_a_car_semantic/maintaining_a_car_semantic_7.png"" class=""exp-image"">
                    <div class=""question-area""></div> 
                </div>","null","","","","","","","","","",""
"","","","","","html-button-response","169","248003","0.0-169.0","630075AEB43D4003BF728CB010A60DA6","019cf9cc-5185-7f81-8aa4-c0158fc81e09","019cf9ba-391a-7c7b-96b9-3757895c469c","","1629","
                <div class=""stimulus-container"">
                    <img src=""images/semantic_sequence/maintaining_a_car_semantic/maintaining_a_car_semantic_7.png"" class=""exp-image"">
                    <div class=""question-area"">
                        <p style=""font-size: 20px; font-weight: bold; margin: 0;"">Is there a person in this image?</p>
                    </div>
                </div>","0","main_experiment_trial","7","maintaining_a_car_semantic","semantic_sequence","randomized","","","","",""
"","","","","","html-keyboard-response","170","249007","0.0-170.0","630075AEB43D4003BF728CB010A60DA6","019cf9cc-5185-7f81-8aa4-c0158fc81e09","019cf9ba-391a-7c7b-96b9-3757895c469c","","null","
                <div class=""stimulus-container"">
                    <img src=""images/semantic_sequence/maintaining_a_car_semantic/maintaining_a_car_semantic_ten.png"" class=""exp-image"">
                    <div class=""question-area""></div> 
                </div>","null","","","","","","","","","",""
"","","","","","html-button-response","171","249401","0.0-171.0","630075AEB43D4003BF728CB010A60DA6","019cf9cc-5185-7f81-8aa4-c0158fc81e09","019cf9ba-391a-7c7b-96b9-3757895c469c","","392","
                <div class=""stimulus-container"">
                    <img src=""images/semantic_sequence/maintaining_a_car_semantic/maintaining_a_car_semantic_ten.png"" class=""exp-image"">
                    <div class=""question-area"">
                        <p style=""font-size: 20px; font-weight: bold; margin: 0;"">Is there a person in this image?</p>
                    </div>
                </div>","0","main_experiment_trial","ten","maintaining_a_car_semantic","semantic_sequence","randomized","","","","",""
"","","","","","html-keyboard-response","172","250406","0.0-172.0","630075AEB43D4003BF728CB010A60DA6","019cf9cc-5185-7f81-8aa4-c0158fc81e09","019cf9ba-391a-7c7b-96b9-3757895c469c","","null","
                <div class=""stimulus-container"">
                    <img src=""images/semantic_sequence/maintaining_a_car_semantic/maintaining_a_car_semantic_4.png"" class=""exp-image"">
                    <div class=""question-area""></div> 
                </div>","null","","","","","","","","","",""
"","","","","","html-button-response","173","250761","0.0-173.0","630075AEB43D4003BF728CB010A60DA6","019cf9cc-5185-7f81-8aa4-c0158fc81e09","019cf9ba-391a-7c7b-96b9-3757895c469c","","354","
                <div class=""stimulus-container"">
                    <img src=""images/semantic_sequence/maintaining_a_car_semantic/maintaining_a_car_semantic_4.png"" class=""exp-image"">
                    <div class=""question-area"">
                        <p style=""font-size: 20px; font-weight: bold; margin: 0;"">Is there a person in this image?</p>
                    </div>
                </div>","0","main_experiment_trial","4","maintaining_a_car_semantic","semantic_sequence","randomized","","","","",""
"","","","","","html-keyboard-response","174","251773","0.0-174.0","630075AEB43D4003BF728CB010A60DA6","019cf9cc-5185-7f81-8aa4-c0158fc81e09","019cf9ba-391a-7c7b-96b9-3757895c469c","","null","
                <div class=""stimulus-container"">
                    <img src=""images/semantic_sequence/maintaining_a_car_semantic/maintaining_a_car_semantic_6.png"" class=""exp-image"">
                    <div class=""question-area""></div> 
                </div>","null","","","","","","","","","",""
"","","","","","html-button-response","175","252092","0.0-175.0","630075AEB43D4003BF728CB010A60DA6","019cf9cc-5185-7f81-8aa4-c0158fc81e09","019cf9ba-391a-7c7b-96b9-3757895c469c","","318","
                <div class=""stimulus-container"">
                    <img src=""images/semantic_sequence/maintaining_a_car_semantic/maintaining_a_car_semantic_6.png"" class=""exp-image"">
                    <div class=""question-area"">
                        <p style=""font-size: 20px; font-weight: bold; margin: 0;"">Is there a person in this image?</p>
                    </div>
                </div>","0","main_experiment_trial","6","maintaining_a_car_semantic","semantic_sequence","randomized","","","","",""
"","","","","","html-keyboard-response","176","253106","0.0-176.0","630075AEB43D4003BF728CB010A60DA6","019cf9cc-5185-7f81-8aa4-c0158fc81e09","019cf9ba-391a-7c7b-96b9-3757895c469c","","null","
                <div class=""stimulus-container"">
                    <img src=""images/semantic_sequence/maintaining_a_car_semantic/maintaining_a_car_semantic_1.png"" class=""exp-image"">
                    <div class=""question-area""></div> 
                </div>","null","","","","","","","","","",""
"","","","","","html-button-response","177","253415","0.0-177.0","630075AEB43D4003BF728CB010A60DA6","019cf9cc-5185-7f81-8aa4-c0158fc81e09","019cf9ba-391a-7c7b-96b9-3757895c469c","","308","
                <div class=""stimulus-container"">
                    <img src=""images/semantic_sequence/maintaining_a_car_semantic/maintaining_a_car_semantic_1.png"" class=""exp-image"">
                    <div class=""question-area"">
                        <p style=""font-size: 20px; font-weight: bold; margin: 0;"">Is there a person in this image?</p>
                    </div>
                </div>","0","main_experiment_trial","1","maintaining_a_car_semantic","semantic_sequence","randomized","","","","",""
"","","","","","html-keyboard-response","178","254418","0.0-178.0","630075AEB43D4003BF728CB010A60DA6","019cf9cc-5185-7f81-8aa4-c0158fc81e09","019cf9ba-391a-7c7b-96b9-3757895c469c","","null","
                <div class=""stimulus-container"">
                    <img src=""images/semantic_sequence/maintaining_a_car_semantic/maintaining_a_car_semantic_8.png"" class=""exp-image"">
                    <div class=""question-area""></div> 
                </div>","null","","","","","","","","","",""
