"success","timeout","failed_images","failed_audio","failed_video","trial_type","trial_index","time_elapsed","internal_node_id","subject_id","study_id","session_id","view_history","rt","stimulus","response","task","image_index","folder","sequence_type","valuable_image_index","reward_type","chosen_image_index","target_X","correct_choice"
"true","false","[]","[]","[]","preload","0","298348","0.0-0.0","8334C8C0A6EE49D8A646861248D49EF9","019cf866-450c-75b4-bb7d-dff95cb55f51","019cf855-66fc-7d76-a612-8313d2c5c123","","","","","","","","","","","","",""
"","","","","","instructions","1","300222","0.0-1.0","8334C8C0A6EE49D8A646861248D49EF9","019cf866-450c-75b4-bb7d-dff95cb55f51","019cf855-66fc-7d76-a612-8313d2c5c123","[{""page_index"":0,""viewing_time"":1867}]","1867","","","","","","","","","","",""
"","","","","","instructions","2","304034","0.0-2.0","8334C8C0A6EE49D8A646861248D49EF9","019cf866-450c-75b4-bb7d-dff95cb55f51","019cf855-66fc-7d76-a612-8313d2c5c123","[{""page_index"":0,""viewing_time"":3811}]","3811","","","","","","","","","","",""
"true","","","","","fullscreen","3","306530","0.0-3.0","8334C8C0A6EE49D8A646861248D49EF9","019cf866-450c-75b4-bb7d-dff95cb55f51","019cf855-66fc-7d76-a612-8313d2c5c123","","1494","","","","","","","","","","",""
"","","","","","instructions","4","309510","0.0-4.0","8334C8C0A6EE49D8A646861248D49EF9","019cf866-450c-75b4-bb7d-dff95cb55f51","019cf855-66fc-7d76-a612-8313d2c5c123","[{""page_index"":0,""viewing_time"":2977}]","2977","","","","","","","","","","",""
"","","","","","instructions","5","320081","0.0-5.0","8334C8C0A6EE49D8A646861248D49EF9","019cf866-450c-75b4-bb7d-dff95cb55f51","019cf855-66fc-7d76-a612-8313d2c5c123","[{""page_index"":0,""viewing_time"":10570}]","10571","","","","","","","","","","",""
"","","","","","html-keyboard-response","6","324090","0.0-6.0","8334C8C0A6EE49D8A646861248D49EF9","019cf866-450c-75b4-bb7d-dff95cb55f51","019cf855-66fc-7d76-a612-8313d2c5c123","","null","
                <div class=""stimulus-container"">
                    <img src=""images/instructions/movie_1.png"" class=""exp-image"">
                    <div class=""question-area""></div> 
                </div>","null","","","","","","","","",""
"","","","","","html-button-response","7","327098","0.0-7.0","8334C8C0A6EE49D8A646861248D49EF9","019cf866-450c-75b4-bb7d-dff95cb55f51","019cf855-66fc-7d76-a612-8313d2c5c123","","null","
                <div class=""stimulus-container"">
                    <img src=""images/instructions/movie_1.png"" class=""exp-image"">
                    <div class=""question-area"">
                        <p style=""font-size: 20px; font-weight: bold; margin: 0;"">Was there a person in this image?</p>
                    </div>
                </div>","null","example_question","1","","","","","","",""
"","","","","","html-keyboard-response","8","331111","0.0-8.0","8334C8C0A6EE49D8A646861248D49EF9","019cf866-450c-75b4-bb7d-dff95cb55f51","019cf855-66fc-7d76-a612-8313d2c5c123","","null","
                <div class=""stimulus-container"">
                    <img src=""images/instructions/movie_2.png"" class=""exp-image"">
                    <div class=""question-area""></div> 
                </div>","null","","","","","","","","",""
"","","","","","html-button-response","9","333275","0.0-9.0","8334C8C0A6EE49D8A646861248D49EF9","019cf866-450c-75b4-bb7d-dff95cb55f51","019cf855-66fc-7d76-a612-8313d2c5c123","","2161","
                <div class=""stimulus-container"">
                    <img src=""images/instructions/movie_2.png"" class=""exp-image"">
                    <div class=""question-area"">
                        <p style=""font-size: 20px; font-weight: bold; margin: 0;"">Was there a person in this image?</p>
                    </div>
                </div>","1","example_question","2","","","","","","",""
"","","","","","html-keyboard-response","10","337283","0.0-10.0","8334C8C0A6EE49D8A646861248D49EF9","019cf866-450c-75b4-bb7d-dff95cb55f51","019cf855-66fc-7d76-a612-8313d2c5c123","","null","
                <div class=""stimulus-container"">
                    <img src=""images/instructions/movie_3.png"" class=""exp-image"">
                    <div class=""question-area""></div> 
                </div>","null","","","","","","","","",""
"","","","","","html-button-response","11","338873","0.0-11.0","8334C8C0A6EE49D8A646861248D49EF9","019cf866-450c-75b4-bb7d-dff95cb55f51","019cf855-66fc-7d76-a612-8313d2c5c123","","1589","
                <div class=""stimulus-container"">
                    <img src=""images/instructions/movie_3.png"" class=""exp-image"">
                    <div class=""question-area"">
                        <p style=""font-size: 20px; font-weight: bold; margin: 0;"">Was there a person in this image?</p>
                    </div>
                </div>","0","example_question","3","","","","","","",""
"","","","","","html-keyboard-response","12","342875","0.0-12.0","8334C8C0A6EE49D8A646861248D49EF9","019cf866-450c-75b4-bb7d-dff95cb55f51","019cf855-66fc-7d76-a612-8313d2c5c123","","null","
                <div class=""stimulus-container"">
                    <img src=""images/instructions/movie_4.png"" class=""exp-image"">
                    <div class=""question-area""></div> 
                </div>","null","","","","","","","","",""
"","","","","","html-button-response","13","343577","0.0-13.0","8334C8C0A6EE49D8A646861248D49EF9","019cf866-450c-75b4-bb7d-dff95cb55f51","019cf855-66fc-7d76-a612-8313d2c5c123","","700","
                <div class=""stimulus-container"">
                    <img src=""images/instructions/movie_4.png"" class=""exp-image"">
                    <div class=""question-area"">
                        <p style=""font-size: 20px; font-weight: bold; margin: 0;"">Was there a person in this image?</p>
                    </div>
                </div>","0","example_question","4","","","","","","",""
"","","","","","instructions","14","345042","0.0-14.0","8334C8C0A6EE49D8A646861248D49EF9","019cf866-450c-75b4-bb7d-dff95cb55f51","019cf855-66fc-7d76-a612-8313d2c5c123","[{""page_index"":0,""viewing_time"":1464}]","1464","","","","","","","","","","",""
"","","","","","instructions","15","346028","0.0-15.0","8334C8C0A6EE49D8A646861248D49EF9","019cf866-450c-75b4-bb7d-dff95cb55f51","019cf855-66fc-7d76-a612-8313d2c5c123","[{""page_index"":0,""viewing_time"":986}]","986","","","","","","","","","","",""
"","","","","","html-keyboard-response","16","347033","0.0-16.0","8334C8C0A6EE49D8A646861248D49EF9","019cf866-450c-75b4-bb7d-dff95cb55f51","019cf855-66fc-7d76-a612-8313d2c5c123","","null","<div style=""background-color: white; width: 100vw; height: 100vh;""></div>","null","","","","","","","","",""
"","","","","","html-keyboard-response","17","352047","0.0-17.0","8334C8C0A6EE49D8A646861248D49EF9","019cf866-450c-75b4-bb7d-dff95cb55f51","019cf855-66fc-7d76-a612-8313d2c5c123","","null","
                <div class=""stimulus-container"">
                    <img src=""images/semantic_sequence/maintaining_a_car_semantic/maintaining_a_car_semantic_1.png"" class=""exp-image"">
                    <div class=""question-area""></div> 
                </div>","null","","","","","","","","",""
"","","","","","html-button-response","18","353029","0.0-18.0","8334C8C0A6EE49D8A646861248D49EF9","019cf866-450c-75b4-bb7d-dff95cb55f51","019cf855-66fc-7d76-a612-8313d2c5c123","","980","
                <div class=""stimulus-container"">
                    <img src=""images/semantic_sequence/maintaining_a_car_semantic/maintaining_a_car_semantic_1.png"" class=""exp-image"">
                    <div class=""question-area"">
                        <p style=""font-size: 20px; font-weight: bold; margin: 0;"">Is there a person in this image?</p>
                    </div>
                </div>","0","main_experiment_trial","1","maintaining_a_car_semantic","semantic_sequence","","","","",""
"","","","","","html-keyboard-response","19","358041","0.0-19.0","8334C8C0A6EE49D8A646861248D49EF9","019cf866-450c-75b4-bb7d-dff95cb55f51","019cf855-66fc-7d76-a612-8313d2c5c123","","null","
                <div class=""stimulus-container"">
                    <img src=""images/semantic_sequence/maintaining_a_car_semantic/maintaining_a_car_semantic_2.png"" class=""exp-image"">
                    <div class=""question-area""></div> 
                </div>","null","","","","","","","","",""
"","","","","","html-button-response","20","358466","0.0-20.0","8334C8C0A6EE49D8A646861248D49EF9","019cf866-450c-75b4-bb7d-dff95cb55f51","019cf855-66fc-7d76-a612-8313d2c5c123","","423","
                <div class=""stimulus-container"">
                    <img src=""images/semantic_sequence/maintaining_a_car_semantic/maintaining_a_car_semantic_2.png"" class=""exp-image"">
                    <div class=""question-area"">
                        <p style=""font-size: 20px; font-weight: bold; margin: 0;"">Is there a person in this image?</p>
                    </div>
                </div>","0","main_experiment_trial","2","maintaining_a_car_semantic","semantic_sequence","","","","",""
"","","","","","html-keyboard-response","21","363479","0.0-21.0","8334C8C0A6EE49D8A646861248D49EF9","019cf866-450c-75b4-bb7d-dff95cb55f51","019cf855-66fc-7d76-a612-8313d2c5c123","","null","
                <div class=""stimulus-container"">
                    <img src=""images/semantic_sequence/maintaining_a_car_semantic/maintaining_a_car_semantic_3.png"" class=""exp-image"">
                    <div class=""question-area""></div> 
                </div>","null","","","","","","","","",""
"","","","","","html-button-response","22","364143","0.0-22.0","8334C8C0A6EE49D8A646861248D49EF9","019cf866-450c-75b4-bb7d-dff95cb55f51","019cf855-66fc-7d76-a612-8313d2c5c123","","662","
                <div class=""stimulus-container"">
                    <img src=""images/semantic_sequence/maintaining_a_car_semantic/maintaining_a_car_semantic_3.png"" class=""exp-image"">
                    <div class=""question-area"">
                        <p style=""font-size: 20px; font-weight: bold; margin: 0;"">Is there a person in this image?</p>
                    </div>
                </div>","0","main_experiment_trial","3","maintaining_a_car_semantic","semantic_sequence","","","","",""
"","","","","","html-keyboard-response","23","369148","0.0-23.0","8334C8C0A6EE49D8A646861248D49EF9","019cf866-450c-75b4-bb7d-dff95cb55f51","019cf855-66fc-7d76-a612-8313d2c5c123","","null","
                <div class=""stimulus-container"">
                    <img src=""images/semantic_sequence/maintaining_a_car_semantic/maintaining_a_car_semantic_4.png"" class=""exp-image"">
                    <div class=""question-area""></div> 
                </div>","null","","","","","","","","",""
"","","","","","html-button-response","24","369930","0.0-24.0","8334C8C0A6EE49D8A646861248D49EF9","019cf866-450c-75b4-bb7d-dff95cb55f51","019cf855-66fc-7d76-a612-8313d2c5c123","","780","
                <div class=""stimulus-container"">
                    <img src=""images/semantic_sequence/maintaining_a_car_semantic/maintaining_a_car_semantic_4.png"" class=""exp-image"">
                    <div class=""question-area"">
                        <p style=""font-size: 20px; font-weight: bold; margin: 0;"">Is there a person in this image?</p>
                    </div>
                </div>","0","main_experiment_trial","4","maintaining_a_car_semantic","semantic_sequence","","","","",""
"","","","","","html-keyboard-response","25","374936","0.0-25.0","8334C8C0A6EE49D8A646861248D49EF9","019cf866-450c-75b4-bb7d-dff95cb55f51","019cf855-66fc-7d76-a612-8313d2c5c123","","null","
                <div class=""stimulus-container"">
                    <img src=""images/semantic_sequence/maintaining_a_car_semantic/maintaining_a_car_semantic_5.png"" class=""exp-image"">
                    <div class=""question-area""></div> 
                </div>","null","","","","","","","","",""
"","","","","","html-button-response","26","375891","0.0-26.0","8334C8C0A6EE49D8A646861248D49EF9","019cf866-450c-75b4-bb7d-dff95cb55f51","019cf855-66fc-7d76-a612-8313d2c5c123","","952","
                <div class=""stimulus-container"">
                    <img src=""images/semantic_sequence/maintaining_a_car_semantic/maintaining_a_car_semantic_5.png"" class=""exp-image"">
                    <div class=""question-area"">
                        <p style=""font-size: 20px; font-weight: bold; margin: 0;"">Is there a person in this image?</p>
                    </div>
                </div>","0","main_experiment_trial","5","maintaining_a_car_semantic","semantic_sequence","","","","",""
"","","","","","html-keyboard-response","27","380907","0.0-27.0","8334C8C0A6EE49D8A646861248D49EF9","019cf866-450c-75b4-bb7d-dff95cb55f51","019cf855-66fc-7d76-a612-8313d2c5c123","","null","
                <div class=""stimulus-container"">
                    <img src=""images/semantic_sequence/maintaining_a_car_semantic/maintaining_a_car_semantic_6.png"" class=""exp-image"">
                    <div class=""question-area""></div> 
                </div>","null","","","","","","","","",""
"","","","","","html-button-response","28","381362","0.0-28.0","8334C8C0A6EE49D8A646861248D49EF9","019cf866-450c-75b4-bb7d-dff95cb55f51","019cf855-66fc-7d76-a612-8313d2c5c123","","453","
                <div class=""stimulus-container"">
                    <img src=""images/semantic_sequence/maintaining_a_car_semantic/maintaining_a_car_semantic_6.png"" class=""exp-image"">
                    <div class=""question-area"">
                        <p style=""font-size: 20px; font-weight: bold; margin: 0;"">Is there a person in this image?</p>
                    </div>
                </div>","0","main_experiment_trial","6","maintaining_a_car_semantic","semantic_sequence","","","","",""
"","","","","","html-keyboard-response","29","386376","0.0-29.0","8334C8C0A6EE49D8A646861248D49EF9","019cf866-450c-75b4-bb7d-dff95cb55f51","019cf855-66fc-7d76-a612-8313d2c5c123","","null","
                <div class=""stimulus-container"">
                    <img src=""images/semantic_sequence/maintaining_a_car_semantic/maintaining_a_car_semantic_7.png"" class=""exp-image"">
                    <div class=""question-area""></div> 
                </div>","null","","","","","","","","",""
"","","","","","html-button-response","30","386854","0.0-30.0","8334C8C0A6EE49D8A646861248D49EF9","019cf866-450c-75b4-bb7d-dff95cb55f51","019cf855-66fc-7d76-a612-8313d2c5c123","","475","
                <div class=""stimulus-container"">
                    <img src=""images/semantic_sequence/maintaining_a_car_semantic/maintaining_a_car_semantic_7.png"" class=""exp-image"">
                    <div class=""question-area"">
                        <p style=""font-size: 20px; font-weight: bold; margin: 0;"">Is there a person in this image?</p>
                    </div>
                </div>","0","main_experiment_trial","7","maintaining_a_car_semantic","semantic_sequence","","","","",""
"","","","","","html-keyboard-response","31","391866","0.0-31.0","8334C8C0A6EE49D8A646861248D49EF9","019cf866-450c-75b4-bb7d-dff95cb55f51","019cf855-66fc-7d76-a612-8313d2c5c123","","null","
                <div class=""stimulus-container"">
                    <img src=""images/semantic_sequence/maintaining_a_car_semantic/maintaining_a_car_semantic_8.png"" class=""exp-image"">
                    <div class=""question-area""></div> 
                </div>","null","","","","","","","","",""
"","","","","","html-button-response","32","392617","0.0-32.0","8334C8C0A6EE49D8A646861248D49EF9","019cf866-450c-75b4-bb7d-dff95cb55f51","019cf855-66fc-7d76-a612-8313d2c5c123","","748","
                <div class=""stimulus-container"">
                    <img src=""images/semantic_sequence/maintaining_a_car_semantic/maintaining_a_car_semantic_8.png"" class=""exp-image"">
                    <div class=""question-area"">
                        <p style=""font-size: 20px; font-weight: bold; margin: 0;"">Is there a person in this image?</p>
                    </div>
                </div>","0","main_experiment_trial","8","maintaining_a_car_semantic","semantic_sequence","","","","",""
"","","","","","html-keyboard-response","33","397625","0.0-33.0","8334C8C0A6EE49D8A646861248D49EF9","019cf866-450c-75b4-bb7d-dff95cb55f51","019cf855-66fc-7d76-a612-8313d2c5c123","","null","
                <div class=""stimulus-container"">
                    <img src=""images/semantic_sequence/maintaining_a_car_semantic/maintaining_a_car_semantic_9.png"" class=""exp-image"">
                    <div class=""question-area""></div> 
                </div>","null","","","","","","","","",""
"","","","","","html-button-response","34","398226","0.0-34.0","8334C8C0A6EE49D8A646861248D49EF9","019cf866-450c-75b4-bb7d-dff95cb55f51","019cf855-66fc-7d76-a612-8313d2c5c123","","599","
                <div class=""stimulus-container"">
                    <img src=""images/semantic_sequence/maintaining_a_car_semantic/maintaining_a_car_semantic_9.png"" class=""exp-image"">
                    <div class=""question-area"">
                        <p style=""font-size: 20px; font-weight: bold; margin: 0;"">Is there a person in this image?</p>
                    </div>
                </div>","0","main_experiment_trial","9","maintaining_a_car_semantic","semantic_sequence","","","","",""
"","","","","","html-keyboard-response","35","403229","0.0-35.0","8334C8C0A6EE49D8A646861248D49EF9","019cf866-450c-75b4-bb7d-dff95cb55f51","019cf855-66fc-7d76-a612-8313d2c5c123","","null","
                <div class=""stimulus-container"">
                    <img src=""images/semantic_sequence/maintaining_a_car_semantic/maintaining_a_car_semantic_ten.png"" class=""exp-image"">
                    <div class=""question-area""></div> 
                </div>","null","","","","","","","","",""
"","","","","","html-button-response","36","403961","0.0-36.0","8334C8C0A6EE49D8A646861248D49EF9","019cf866-450c-75b4-bb7d-dff95cb55f51","019cf855-66fc-7d76-a612-8313d2c5c123","","731","
                <div class=""stimulus-container"">
                    <img src=""images/semantic_sequence/maintaining_a_car_semantic/maintaining_a_car_semantic_ten.png"" class=""exp-image"">
                    <div class=""question-area"">
                        <p style=""font-size: 20px; font-weight: bold; margin: 0;"">Is there a person in this image?</p>
                    </div>
                </div>","0","main_experiment_trial","ten","maintaining_a_car_semantic","semantic_sequence","","","","",""
"","","","","","html-keyboard-response","37","404967","0.0-37.0","8334C8C0A6EE49D8A646861248D49EF9","019cf866-450c-75b4-bb7d-dff95cb55f51","019cf855-66fc-7d76-a612-8313d2c5c123","","null","<div style=""background-color: white; width: 100vw; height: 100vh;""></div>","null","","","","","","","","",""
"","","","","","html-keyboard-response","38","409978","0.0-38.0","8334C8C0A6EE49D8A646861248D49EF9","019cf866-450c-75b4-bb7d-dff95cb55f51","019cf855-66fc-7d76-a612-8313d2c5c123","","null","
                <div class=""stimulus-container"">
                    <img src=""images/schematic_sequence/dinner_party_scheme/dinner_party_scheme_1.png"" class=""exp-image"">
                    <div class=""question-area""></div> 
                </div>","null","","","","","","","","",""
"","","","","","html-button-response","39","410367","0.0-39.0","8334C8C0A6EE49D8A646861248D49EF9","019cf866-450c-75b4-bb7d-dff95cb55f51","019cf855-66fc-7d76-a612-8313d2c5c123","","386","
                <div class=""stimulus-container"">
                    <img src=""images/schematic_sequence/dinner_party_scheme/dinner_party_scheme_1.png"" class=""exp-image"">
                    <div class=""question-area"">
                        <p style=""font-size: 20px; font-weight: bold; margin: 0;"">Is there a person in this image?</p>
                    </div>
                </div>","0","main_experiment_trial","1","dinner_party_scheme","schematic_sequence","","","","",""
"","","","","","html-keyboard-response","40","415370","0.0-40.0","8334C8C0A6EE49D8A646861248D49EF9","019cf866-450c-75b4-bb7d-dff95cb55f51","019cf855-66fc-7d76-a612-8313d2c5c123","","null","
                <div class=""stimulus-container"">
                    <img src=""images/schematic_sequence/dinner_party_scheme/dinner_party_scheme_2.png"" class=""exp-image"">
                    <div class=""question-area""></div> 
                </div>","null","","","","","","","","",""
"","","","","","html-button-response","41","415912","0.0-41.0","8334C8C0A6EE49D8A646861248D49EF9","019cf866-450c-75b4-bb7d-dff95cb55f51","019cf855-66fc-7d76-a612-8313d2c5c123","","539","
                <div class=""stimulus-container"">
                    <img src=""images/schematic_sequence/dinner_party_scheme/dinner_party_scheme_2.png"" class=""exp-image"">
                    <div class=""question-area"">
                        <p style=""font-size: 20px; font-weight: bold; margin: 0;"">Is there a person in this image?</p>
                    </div>
                </div>","0","main_experiment_trial","2","dinner_party_scheme","schematic_sequence","","","","",""
"","","","","","html-keyboard-response","42","420925","0.0-42.0","8334C8C0A6EE49D8A646861248D49EF9","019cf866-450c-75b4-bb7d-dff95cb55f51","019cf855-66fc-7d76-a612-8313d2c5c123","","null","
                <div class=""stimulus-container"">
                    <img src=""images/schematic_sequence/dinner_party_scheme/dinner_party_scheme_3.png"" class=""exp-image"">
                    <div class=""question-area""></div> 
                </div>","null","","","","","","","","",""
"","","","","","html-button-response","43","421610","0.0-43.0","8334C8C0A6EE49D8A646861248D49EF9","019cf866-450c-75b4-bb7d-dff95cb55f51","019cf855-66fc-7d76-a612-8313d2c5c123","","683","
                <div class=""stimulus-container"">
                    <img src=""images/schematic_sequence/dinner_party_scheme/dinner_party_scheme_3.png"" class=""exp-image"">
                    <div class=""question-area"">
                        <p style=""font-size: 20px; font-weight: bold; margin: 0;"">Is there a person in this image?</p>
                    </div>
                </div>","0","main_experiment_trial","3","dinner_party_scheme","schematic_sequence","","","","",""
"","","","","","html-keyboard-response","44","426612","0.0-44.0","8334C8C0A6EE49D8A646861248D49EF9","019cf866-450c-75b4-bb7d-dff95cb55f51","019cf855-66fc-7d76-a612-8313d2c5c123","","null","
                <div class=""stimulus-container"">
                    <img src=""images/schematic_sequence/dinner_party_scheme/dinner_party_scheme_4.png"" class=""exp-image"">
                    <div class=""question-area""></div> 
                </div>","null","","","","","","","","",""
"","","","","","html-button-response","45","426979","0.0-45.0","8334C8C0A6EE49D8A646861248D49EF9","019cf866-450c-75b4-bb7d-dff95cb55f51","019cf855-66fc-7d76-a612-8313d2c5c123","","365","
                <div class=""stimulus-container"">
                    <img src=""images/schematic_sequence/dinner_party_scheme/dinner_party_scheme_4.png"" class=""exp-image"">
                    <div class=""question-area"">
                        <p style=""font-size: 20px; font-weight: bold; margin: 0;"">Is there a person in this image?</p>
                    </div>
                </div>","0","main_experiment_trial","4","dinner_party_scheme","schematic_sequence","","","","",""
"","","","","","html-keyboard-response","46","431987","0.0-46.0","8334C8C0A6EE49D8A646861248D49EF9","019cf866-450c-75b4-bb7d-dff95cb55f51","019cf855-66fc-7d76-a612-8313d2c5c123","","null","
                <div class=""stimulus-container"">
                    <img src=""images/schematic_sequence/dinner_party_scheme/dinner_party_scheme_5.png"" class=""exp-image"">
                    <div class=""question-area""></div> 
                </div>","null","","","","","","","","",""
"","","","","","html-button-response","47","432637","0.0-47.0","8334C8C0A6EE49D8A646861248D49EF9","019cf866-450c-75b4-bb7d-dff95cb55f51","019cf855-66fc-7d76-a612-8313d2c5c123","","648","
                <div class=""stimulus-container"">
                    <img src=""images/schematic_sequence/dinner_party_scheme/dinner_party_scheme_5.png"" class=""exp-image"">
                    <div class=""question-area"">
                        <p style=""font-size: 20px; font-weight: bold; margin: 0;"">Is there a person in this image?</p>
                    </div>
                </div>","0","main_experiment_trial","5","dinner_party_scheme","schematic_sequence","","","","",""
"","","","","","html-keyboard-response","48","437651","0.0-48.0","8334C8C0A6EE49D8A646861248D49EF9","019cf866-450c-75b4-bb7d-dff95cb55f51","019cf855-66fc-7d76-a612-8313d2c5c123","","null","
                <div class=""stimulus-container"">
                    <img src=""images/schematic_sequence/dinner_party_scheme/dinner_party_scheme_6.png"" class=""exp-image"">
                    <div class=""question-area""></div> 
                </div>","null","","","","","","","","",""
"","","","","","html-button-response","49","438090","0.0-49.0","8334C8C0A6EE49D8A646861248D49EF9","019cf866-450c-75b4-bb7d-dff95cb55f51","019cf855-66fc-7d76-a612-8313d2c5c123","","437","
                <div class=""stimulus-container"">
                    <img src=""images/schematic_sequence/dinner_party_scheme/dinner_party_scheme_6.png"" class=""exp-image"">
                    <div class=""question-area"">
                        <p style=""font-size: 20px; font-weight: bold; margin: 0;"">Is there a person in this image?</p>
                    </div>
                </div>","0","main_experiment_trial","6","dinner_party_scheme","schematic_sequence","","","","",""
"","","","","","html-keyboard-response","50","443109","0.0-50.0","8334C8C0A6EE49D8A646861248D49EF9","019cf866-450c-75b4-bb7d-dff95cb55f51","019cf855-66fc-7d76-a612-8313d2c5c123","","null","
                <div class=""stimulus-container"">
                    <img src=""images/schematic_sequence/dinner_party_scheme/dinner_party_scheme_7.png"" class=""exp-image"">
                    <div class=""question-area""></div> 
                </div>","null","","","","","","","","",""
"","","","","","html-button-response","51","443569","0.0-51.0","8334C8C0A6EE49D8A646861248D49EF9","019cf866-450c-75b4-bb7d-dff95cb55f51","019cf855-66fc-7d76-a612-8313d2c5c123","","458","
                <div class=""stimulus-container"">
                    <img src=""images/schematic_sequence/dinner_party_scheme/dinner_party_scheme_7.png"" class=""exp-image"">
                    <div class=""question-area"">
                        <p style=""font-size: 20px; font-weight: bold; margin: 0;"">Is there a person in this image?</p>
                    </div>
                </div>","0","main_experiment_trial","7","dinner_party_scheme","schematic_sequence","","","","",""
"","","","","","html-keyboard-response","52","448578","0.0-52.0","8334C8C0A6EE49D8A646861248D49EF9","019cf866-450c-75b4-bb7d-dff95cb55f51","019cf855-66fc-7d76-a612-8313d2c5c123","","null","
                <div class=""stimulus-container"">
                    <img src=""images/schematic_sequence/dinner_party_scheme/dinner_party_scheme_8.png"" class=""exp-image"">
                    <div class=""question-area""></div> 
                </div>","null","","","","","","","","",""
"","","","","","html-button-response","53","449027","0.0-53.0","8334C8C0A6EE49D8A646861248D49EF9","019cf866-450c-75b4-bb7d-dff95cb55f51","019cf855-66fc-7d76-a612-8313d2c5c123","","446","
                <div class=""stimulus-container"">
                    <img src=""images/schematic_sequence/dinner_party_scheme/dinner_party_scheme_8.png"" class=""exp-image"">
                    <div class=""question-area"">
                        <p style=""font-size: 20px; font-weight: bold; margin: 0;"">Is there a person in this image?</p>
                    </div>
                </div>","0","main_experiment_trial","8","dinner_party_scheme","schematic_sequence","","","","",""
"","","","","","html-keyboard-response","54","454035","0.0-54.0","8334C8C0A6EE49D8A646861248D49EF9","019cf866-450c-75b4-bb7d-dff95cb55f51","019cf855-66fc-7d76-a612-8313d2c5c123","","null","
                <div class=""stimulus-container"">
                    <img src=""images/schematic_sequence/dinner_party_scheme/dinner_party_scheme_9.png"" class=""exp-image"">
                    <div class=""question-area""></div> 
                </div>","null","","","","","","","","",""
"","","","","","html-button-response","55","457045","0.0-55.0","8334C8C0A6EE49D8A646861248D49EF9","019cf866-450c-75b4-bb7d-dff95cb55f51","019cf855-66fc-7d76-a612-8313d2c5c123","","null","
                <div class=""stimulus-container"">
                    <img src=""images/schematic_sequence/dinner_party_scheme/dinner_party_scheme_9.png"" class=""exp-image"">
                    <div class=""question-area"">
                        <p style=""font-size: 20px; font-weight: bold; margin: 0;"">Is there a person in this image?</p>
                    </div>
                </div>","null","main_experiment_trial","9","dinner_party_scheme","schematic_sequence","","","","",""
"","","","","","html-keyboard-response","56","462056","0.0-56.0","8334C8C0A6EE49D8A646861248D49EF9","019cf866-450c-75b4-bb7d-dff95cb55f51","019cf855-66fc-7d76-a612-8313d2c5c123","","null","
                <div class=""stimulus-container"">
                    <img src=""images/schematic_sequence/dinner_party_scheme/dinner_party_scheme_ten.png"" class=""exp-image"">
                    <div class=""question-area""></div> 
                </div>","null","","","","","","","","",""
"","","","","","html-button-response","57","462993","0.0-57.0","8334C8C0A6EE49D8A646861248D49EF9","019cf866-450c-75b4-bb7d-dff95cb55f51","019cf855-66fc-7d76-a612-8313d2c5c123","","935","
                <div class=""stimulus-container"">
                    <img src=""images/schematic_sequence/dinner_party_scheme/dinner_party_scheme_ten.png"" class=""exp-image"">
                    <div class=""question-area"">
                        <p style=""font-size: 20px; font-weight: bold; margin: 0;"">Is there a person in this image?</p>
                    </div>
                </div>","0","main_experiment_trial","ten","dinner_party_scheme","schematic_sequence","","","","",""
"","","","","","html-keyboard-response","58","464008","0.0-58.0","8334C8C0A6EE49D8A646861248D49EF9","019cf866-450c-75b4-bb7d-dff95cb55f51","019cf855-66fc-7d76-a612-8313d2c5c123","","null","<div style=""background-color: white; width: 100vw; height: 100vh;""></div>","null","","","","","","","","",""
"","","","","","html-keyboard-response","59","469015","0.0-59.0","8334C8C0A6EE49D8A646861248D49EF9","019cf866-450c-75b4-bb7d-dff95cb55f51","019cf855-66fc-7d76-a612-8313d2c5c123","","null","
                <div class=""stimulus-container"">
                    <img src=""images/semantic_sequence/physical_activity_semantic/physical_activity_semantic_1.png"" class=""exp-image"">
                    <div class=""question-area""></div> 
                </div>","null","","","","","","","","",""
"","","","","","html-button-response","60","469474","0.0-60.0","8334C8C0A6EE49D8A646861248D49EF9","019cf866-450c-75b4-bb7d-dff95cb55f51","019cf855-66fc-7d76-a612-8313d2c5c123","","457","
                <div class=""stimulus-container"">
                    <img src=""images/semantic_sequence/physical_activity_semantic/physical_activity_semantic_1.png"" class=""exp-image"">
                    <div class=""question-area"">
                        <p style=""font-size: 20px; font-weight: bold; margin: 0;"">Is there a person in this image?</p>
                    </div>
                </div>","0","main_experiment_trial","1","physical_activity_semantic","semantic_sequence","","","","",""
"","","","","","html-keyboard-response","61","474490","0.0-61.0","8334C8C0A6EE49D8A646861248D49EF9","019cf866-450c-75b4-bb7d-dff95cb55f51","019cf855-66fc-7d76-a612-8313d2c5c123","","null","
                <div class=""stimulus-container"">
                    <img src=""images/semantic_sequence/physical_activity_semantic/physical_activity_semantic_2.png"" class=""exp-image"">
                    <div class=""question-area""></div> 
                </div>","null","","","","","","","","",""
"","","","","","html-button-response","62","474942","0.0-62.0","8334C8C0A6EE49D8A646861248D49EF9","019cf866-450c-75b4-bb7d-dff95cb55f51","019cf855-66fc-7d76-a612-8313d2c5c123","","450","
                <div class=""stimulus-container"">
                    <img src=""images/semantic_sequence/physical_activity_semantic/physical_activity_semantic_2.png"" class=""exp-image"">
                    <div class=""question-area"">
                        <p style=""font-size: 20px; font-weight: bold; margin: 0;"">Is there a person in this image?</p>
                    </div>
                </div>","0","main_experiment_trial","2","physical_activity_semantic","semantic_sequence","","","","",""
"","","","","","html-keyboard-response","63","479945","0.0-63.0","8334C8C0A6EE49D8A646861248D49EF9","019cf866-450c-75b4-bb7d-dff95cb55f51","019cf855-66fc-7d76-a612-8313d2c5c123","","null","
                <div class=""stimulus-container"">
                    <img src=""images/semantic_sequence/physical_activity_semantic/physical_activity_semantic_3.png"" class=""exp-image"">
                    <div class=""question-area""></div> 
                </div>","null","","","","","","","","",""
"","","","","","html-button-response","64","480916","0.0-64.0","8334C8C0A6EE49D8A646861248D49EF9","019cf866-450c-75b4-bb7d-dff95cb55f51","019cf855-66fc-7d76-a612-8313d2c5c123","","969","
                <div class=""stimulus-container"">
                    <img src=""images/semantic_sequence/physical_activity_semantic/physical_activity_semantic_3.png"" class=""exp-image"">
                    <div class=""question-area"">
                        <p style=""font-size: 20px; font-weight: bold; margin: 0;"">Is there a person in this image?</p>
                    </div>
                </div>","0","main_experiment_trial","3","physical_activity_semantic","semantic_sequence","","","","",""
"","","","","","html-keyboard-response","65","485919","0.0-65.0","8334C8C0A6EE49D8A646861248D49EF9","019cf866-450c-75b4-bb7d-dff95cb55f51","019cf855-66fc-7d76-a612-8313d2c5c123","","null","
                <div class=""stimulus-container"">
                    <img src=""images/semantic_sequence/physical_activity_semantic/physical_activity_semantic_4.png"" class=""exp-image"">
                    <div class=""question-area""></div> 
                </div>","null","","","","","","","","",""
"","","","","","html-button-response","66","488385","0.0-66.0","8334C8C0A6EE49D8A646861248D49EF9","019cf866-450c-75b4-bb7d-dff95cb55f51","019cf855-66fc-7d76-a612-8313d2c5c123","","2464","
                <div class=""stimulus-container"">
                    <img src=""images/semantic_sequence/physical_activity_semantic/physical_activity_semantic_4.png"" class=""exp-image"">
                    <div class=""question-area"">
                        <p style=""font-size: 20px; font-weight: bold; margin: 0;"">Is there a person in this image?</p>
                    </div>
                </div>","0","main_experiment_trial","4","physical_activity_semantic","semantic_sequence","","","","",""
"","","","","","html-keyboard-response","67","493388","0.0-67.0","8334C8C0A6EE49D8A646861248D49EF9","019cf866-450c-75b4-bb7d-dff95cb55f51","019cf855-66fc-7d76-a612-8313d2c5c123","","null","
                <div class=""stimulus-container"">
                    <img src=""images/semantic_sequence/physical_activity_semantic/physical_activity_semantic_5.png"" class=""exp-image"">
                    <div class=""question-area""></div> 
                </div>","null","","","","","","","","",""
"","","","","","html-button-response","68","494210","0.0-68.0","8334C8C0A6EE49D8A646861248D49EF9","019cf866-450c-75b4-bb7d-dff95cb55f51","019cf855-66fc-7d76-a612-8313d2c5c123","","819","
                <div class=""stimulus-container"">
                    <img src=""images/semantic_sequence/physical_activity_semantic/physical_activity_semantic_5.png"" class=""exp-image"">
                    <div class=""question-area"">
                        <p style=""font-size: 20px; font-weight: bold; margin: 0;"">Is there a person in this image?</p>
                    </div>
                </div>","0","main_experiment_trial","5","physical_activity_semantic","semantic_sequence","","","","",""
"","","","","","html-keyboard-response","69","499224","0.0-69.0","8334C8C0A6EE49D8A646861248D49EF9","019cf866-450c-75b4-bb7d-dff95cb55f51","019cf855-66fc-7d76-a612-8313d2c5c123","","null","
                <div class=""stimulus-container"">
                    <img src=""images/semantic_sequence/physical_activity_semantic/physical_activity_semantic_6.png"" class=""exp-image"">
                    <div class=""question-area""></div> 
                </div>","null","","","","","","","","",""
"","","","","","html-button-response","70","499801","0.0-70.0","8334C8C0A6EE49D8A646861248D49EF9","019cf866-450c-75b4-bb7d-dff95cb55f51","019cf855-66fc-7d76-a612-8313d2c5c123","","575","
                <div class=""stimulus-container"">
                    <img src=""images/semantic_sequence/physical_activity_semantic/physical_activity_semantic_6.png"" class=""exp-image"">
                    <div class=""question-area"">
                        <p style=""font-size: 20px; font-weight: bold; margin: 0;"">Is there a person in this image?</p>
                    </div>
                </div>","0","main_experiment_trial","6","physical_activity_semantic","semantic_sequence","","","","",""
"","","","","","html-keyboard-response","71","504814","0.0-71.0","8334C8C0A6EE49D8A646861248D49EF9","019cf866-450c-75b4-bb7d-dff95cb55f51","019cf855-66fc-7d76-a612-8313d2c5c123","","null","
                <div class=""stimulus-container"">
                    <img src=""images/semantic_sequence/physical_activity_semantic/physical_activity_semantic_7.png"" class=""exp-image"">
                    <div class=""question-area""></div> 
                </div>","null","","","","","","","","",""
"","","","","","html-button-response","72","505371","0.0-72.0","8334C8C0A6EE49D8A646861248D49EF9","019cf866-450c-75b4-bb7d-dff95cb55f51","019cf855-66fc-7d76-a612-8313d2c5c123","","555","
                <div class=""stimulus-container"">
                    <img src=""images/semantic_sequence/physical_activity_semantic/physical_activity_semantic_7.png"" class=""exp-image"">
                    <div class=""question-area"">
                        <p style=""font-size: 20px; font-weight: bold; margin: 0;"">Is there a person in this image?</p>
                    </div>
                </div>","0","main_experiment_trial","7","physical_activity_semantic","semantic_sequence","","","","",""
"","","","","","html-keyboard-response","73","510386","0.0-73.0","8334C8C0A6EE49D8A646861248D49EF9","019cf866-450c-75b4-bb7d-dff95cb55f51","019cf855-66fc-7d76-a612-8313d2c5c123","","null","
                <div class=""stimulus-container"">
                    <img src=""images/semantic_sequence/physical_activity_semantic/physical_activity_semantic_8.png"" class=""exp-image"">
                    <div class=""question-area""></div> 
                </div>","null","","","","","","","","",""
"","","","","","html-button-response","74","513394","0.0-74.0","8334C8C0A6EE49D8A646861248D49EF9","019cf866-450c-75b4-bb7d-dff95cb55f51","019cf855-66fc-7d76-a612-8313d2c5c123","","null","
                <div class=""stimulus-container"">
                    <img src=""images/semantic_sequence/physical_activity_semantic/physical_activity_semantic_8.png"" class=""exp-image"">
                    <div class=""question-area"">
                        <p style=""font-size: 20px; font-weight: bold; margin: 0;"">Is there a person in this image?</p>
                    </div>
                </div>","null","main_experiment_trial","8","physical_activity_semantic","semantic_sequence","","","","",""
"","","","","","html-keyboard-response","75","518404","0.0-75.0","8334C8C0A6EE49D8A646861248D49EF9","019cf866-450c-75b4-bb7d-dff95cb55f51","019cf855-66fc-7d76-a612-8313d2c5c123","","null","
                <div class=""stimulus-container"">
                    <img src=""images/semantic_sequence/physical_activity_semantic/physical_activity_semantic_9.png"" class=""exp-image"">
                    <div class=""question-area""></div> 
                </div>","null","","","","","","","","",""
"","","","","","html-button-response","76","518754","0.0-76.0","8334C8C0A6EE49D8A646861248D49EF9","019cf866-450c-75b4-bb7d-dff95cb55f51","019cf855-66fc-7d76-a612-8313d2c5c123","","347","
                <div class=""stimulus-container"">
                    <img src=""images/semantic_sequence/physical_activity_semantic/physical_activity_semantic_9.png"" class=""exp-image"">
                    <div class=""question-area"">
                        <p style=""font-size: 20px; font-weight: bold; margin: 0;"">Is there a person in this image?</p>
                    </div>
                </div>","0","main_experiment_trial","9","physical_activity_semantic","semantic_sequence","","","","",""
"","","","","","html-keyboard-response","77","523762","0.0-77.0","8334C8C0A6EE49D8A646861248D49EF9","019cf866-450c-75b4-bb7d-dff95cb55f51","019cf855-66fc-7d76-a612-8313d2c5c123","","null","
                <div class=""stimulus-container"">
                    <img src=""images/semantic_sequence/physical_activity_semantic/physical_activity_semantic_ten.png"" class=""exp-image"">
                    <div class=""question-area""></div> 
                </div>","null","","","","","","","","",""
"","","","","","html-button-response","78","524306","0.0-78.0","8334C8C0A6EE49D8A646861248D49EF9","019cf866-450c-75b4-bb7d-dff95cb55f51","019cf855-66fc-7d76-a612-8313d2c5c123","","542","
                <div class=""stimulus-container"">
                    <img src=""images/semantic_sequence/physical_activity_semantic/physical_activity_semantic_ten.png"" class=""exp-image"">
                    <div class=""question-area"">
                        <p style=""font-size: 20px; font-weight: bold; margin: 0;"">Is there a person in this image?</p>
                    </div>
                </div>","0","main_experiment_trial","ten","physical_activity_semantic","semantic_sequence","","","","",""
"","","","","","html-keyboard-response","79","525308","0.0-79.0","8334C8C0A6EE49D8A646861248D49EF9","019cf866-450c-75b4-bb7d-dff95cb55f51","019cf855-66fc-7d76-a612-8313d2c5c123","","null","<div style=""background-color: white; width: 100vw; height: 100vh;""></div>","null","","","","","","","","",""
"","","","","","html-keyboard-response","80","530318","0.0-80.0","8334C8C0A6EE49D8A646861248D49EF9","019cf866-450c-75b4-bb7d-dff95cb55f51","019cf855-66fc-7d76-a612-8313d2c5c123","","null","
                <div class=""stimulus-container"">
                    <img src=""images/semantic_sequence/creative_activities_semantic/creative_activities_semantic_1.png"" class=""exp-image"">
                    <div class=""question-area""></div> 
                </div>","null","","","","","","","","",""
"","","","","","html-button-response","81","530985","0.0-81.0","8334C8C0A6EE49D8A646861248D49EF9","019cf866-450c-75b4-bb7d-dff95cb55f51","019cf855-66fc-7d76-a612-8313d2c5c123","","665","
                <div class=""stimulus-container"">
                    <img src=""images/semantic_sequence/creative_activities_semantic/creative_activities_semantic_1.png"" class=""exp-image"">
                    <div class=""question-area"">
                        <p style=""font-size: 20px; font-weight: bold; margin: 0;"">Is there a person in this image?</p>
                    </div>
                </div>","0","main_experiment_trial","1","creative_activities_semantic","semantic_sequence","","","","",""
"","","","","","html-keyboard-response","82","535992","0.0-82.0","8334C8C0A6EE49D8A646861248D49EF9","019cf866-450c-75b4-bb7d-dff95cb55f51","019cf855-66fc-7d76-a612-8313d2c5c123","","null","
                <div class=""stimulus-container"">
                    <img src=""images/semantic_sequence/creative_activities_semantic/creative_activities_semantic_2.png"" class=""exp-image"">
                    <div class=""question-area""></div> 
                </div>","null","","","","","","","","",""
"","","","","","html-button-response","83","536538","0.0-83.0","8334C8C0A6EE49D8A646861248D49EF9","019cf866-450c-75b4-bb7d-dff95cb55f51","019cf855-66fc-7d76-a612-8313d2c5c123","","545","
                <div class=""stimulus-container"">
                    <img src=""images/semantic_sequence/creative_activities_semantic/creative_activities_semantic_2.png"" class=""exp-image"">
                    <div class=""question-area"">
                        <p style=""font-size: 20px; font-weight: bold; margin: 0;"">Is there a person in this image?</p>
                    </div>
                </div>","0","main_experiment_trial","2","creative_activities_semantic","semantic_sequence","","","","",""
"","","","","","html-keyboard-response","84","541554","0.0-84.0","8334C8C0A6EE49D8A646861248D49EF9","019cf866-450c-75b4-bb7d-dff95cb55f51","019cf855-66fc-7d76-a612-8313d2c5c123","","null","
                <div class=""stimulus-container"">
                    <img src=""images/semantic_sequence/creative_activities_semantic/creative_activities_semantic_3.png"" class=""exp-image"">
                    <div class=""question-area""></div> 
                </div>","null","","","","","","","","",""
"","","","","","html-button-response","85","542353","0.0-85.0","8334C8C0A6EE49D8A646861248D49EF9","019cf866-450c-75b4-bb7d-dff95cb55f51","019cf855-66fc-7d76-a612-8313d2c5c123","","797","
                <div class=""stimulus-container"">
                    <img src=""images/semantic_sequence/creative_activities_semantic/creative_activities_semantic_3.png"" class=""exp-image"">
                    <div class=""question-area"">
                        <p style=""font-size: 20px; font-weight: bold; margin: 0;"">Is there a person in this image?</p>
                    </div>
                </div>","0","main_experiment_trial","3","creative_activities_semantic","semantic_sequence","","","","",""
"","","","","","html-keyboard-response","86","547364","0.0-86.0","8334C8C0A6EE49D8A646861248D49EF9","019cf866-450c-75b4-bb7d-dff95cb55f51","019cf855-66fc-7d76-a612-8313d2c5c123","","null","
                <div class=""stimulus-container"">
                    <img src=""images/semantic_sequence/creative_activities_semantic/creative_activities_semantic_4.png"" class=""exp-image"">
                    <div class=""question-area""></div> 
                </div>","null","","","","","","","","",""
"","","","","","html-button-response","87","547972","0.0-87.0","8334C8C0A6EE49D8A646861248D49EF9","019cf866-450c-75b4-bb7d-dff95cb55f51","019cf855-66fc-7d76-a612-8313d2c5c123","","607","
                <div class=""stimulus-container"">
                    <img src=""images/semantic_sequence/creative_activities_semantic/creative_activities_semantic_4.png"" class=""exp-image"">
                    <div class=""question-area"">
                        <p style=""font-size: 20px; font-weight: bold; margin: 0;"">Is there a person in this image?</p>
                    </div>
                </div>","0","main_experiment_trial","4","creative_activities_semantic","semantic_sequence","","","","",""
"","","","","","html-keyboard-response","88","552983","0.0-88.0","8334C8C0A6EE49D8A646861248D49EF9","019cf866-450c-75b4-bb7d-dff95cb55f51","019cf855-66fc-7d76-a612-8313d2c5c123","","null","
                <div class=""stimulus-container"">
                    <img src=""images/semantic_sequence/creative_activities_semantic/creative_activities_semantic_5.png"" class=""exp-image"">
                    <div class=""question-area""></div> 
                </div>","null","","","","","","","","",""
"","","","","","html-button-response","89","554837","0.0-89.0","8334C8C0A6EE49D8A646861248D49EF9","019cf866-450c-75b4-bb7d-dff95cb55f51","019cf855-66fc-7d76-a612-8313d2c5c123","","1851","
                <div class=""stimulus-container"">
                    <img src=""images/semantic_sequence/creative_activities_semantic/creative_activities_semantic_5.png"" class=""exp-image"">
                    <div class=""question-area"">
                        <p style=""font-size: 20px; font-weight: bold; margin: 0;"">Is there a person in this image?</p>
                    </div>
                </div>","0","main_experiment_trial","5","creative_activities_semantic","semantic_sequence","","","","",""
"","","","","","html-keyboard-response","90","559846","0.0-90.0","8334C8C0A6EE49D8A646861248D49EF9","019cf866-450c-75b4-bb7d-dff95cb55f51","019cf855-66fc-7d76-a612-8313d2c5c123","","null","
                <div class=""stimulus-container"">
                    <img src=""images/semantic_sequence/creative_activities_semantic/creative_activities_semantic_6.png"" class=""exp-image"">
                    <div class=""question-area""></div> 
                </div>","null","","","","","","","","",""
"","","","","","html-button-response","91","560550","0.0-91.0","8334C8C0A6EE49D8A646861248D49EF9","019cf866-450c-75b4-bb7d-dff95cb55f51","019cf855-66fc-7d76-a612-8313d2c5c123","","702","
                <div class=""stimulus-container"">
                    <img src=""images/semantic_sequence/creative_activities_semantic/creative_activities_semantic_6.png"" class=""exp-image"">
                    <div class=""question-area"">
                        <p style=""font-size: 20px; font-weight: bold; margin: 0;"">Is there a person in this image?</p>
                    </div>
                </div>","0","main_experiment_trial","6","creative_activities_semantic","semantic_sequence","","","","",""
"","","","","","html-keyboard-response","92","565557","0.0-92.0","8334C8C0A6EE49D8A646861248D49EF9","019cf866-450c-75b4-bb7d-dff95cb55f51","019cf855-66fc-7d76-a612-8313d2c5c123","","null","
                <div class=""stimulus-container"">
                    <img src=""images/semantic_sequence/creative_activities_semantic/creative_activities_semantic_7.png"" class=""exp-image"">
                    <div class=""question-area""></div> 
                </div>","null","","","","","","","","",""
"","","","","","html-button-response","93","566761","0.0-93.0","8334C8C0A6EE49D8A646861248D49EF9","019cf866-450c-75b4-bb7d-dff95cb55f51","019cf855-66fc-7d76-a612-8313d2c5c123","","1202","
                <div class=""stimulus-container"">
                    <img src=""images/semantic_sequence/creative_activities_semantic/creative_activities_semantic_7.png"" class=""exp-image"">
                    <div class=""question-area"">
                        <p style=""font-size: 20px; font-weight: bold; margin: 0;"">Is there a person in this image?</p>
                    </div>
                </div>","0","main_experiment_trial","7","creative_activities_semantic","semantic_sequence","","","","",""
"","","","","","html-keyboard-response","94","571772","0.0-94.0","8334C8C0A6EE49D8A646861248D49EF9","019cf866-450c-75b4-bb7d-dff95cb55f51","019cf855-66fc-7d76-a612-8313d2c5c123","","null","
                <div class=""stimulus-container"">
                    <img src=""images/semantic_sequence/creative_activities_semantic/creative_activities_semantic_8.png"" class=""exp-image"">
                    <div class=""question-area""></div> 
                </div>","null","","","","","","","","",""
"","","","","","html-button-response","95","572274","0.0-95.0","8334C8C0A6EE49D8A646861248D49EF9","019cf866-450c-75b4-bb7d-dff95cb55f51","019cf855-66fc-7d76-a612-8313d2c5c123","","500","
                <div class=""stimulus-container"">
                    <img src=""images/semantic_sequence/creative_activities_semantic/creative_activities_semantic_8.png"" class=""exp-image"">
                    <div class=""question-area"">
                        <p style=""font-size: 20px; font-weight: bold; margin: 0;"">Is there a person in this image?</p>
                    </div>
                </div>","0","main_experiment_trial","8","creative_activities_semantic","semantic_sequence","","","","",""
"","","","","","html-keyboard-response","96","577277","0.0-96.0","8334C8C0A6EE49D8A646861248D49EF9","019cf866-450c-75b4-bb7d-dff95cb55f51","019cf855-66fc-7d76-a612-8313d2c5c123","","null","
                <div class=""stimulus-container"">
                    <img src=""images/semantic_sequence/creative_activities_semantic/creative_activities_semantic_9.png"" class=""exp-image"">
                    <div class=""question-area""></div> 
                </div>","null","","","","","","","","",""
"","","","","","html-button-response","97","578873","0.0-97.0","8334C8C0A6EE49D8A646861248D49EF9","019cf866-450c-75b4-bb7d-dff95cb55f51","019cf855-66fc-7d76-a612-8313d2c5c123","","1595","
                <div class=""stimulus-container"">
                    <img src=""images/semantic_sequence/creative_activities_semantic/creative_activities_semantic_9.png"" class=""exp-image"">
                    <div class=""question-area"">
                        <p style=""font-size: 20px; font-weight: bold; margin: 0;"">Is there a person in this image?</p>
                    </div>
                </div>","0","main_experiment_trial","9","creative_activities_semantic","semantic_sequence","","","","",""
"","","","","","html-keyboard-response","98","583877","0.0-98.0","8334C8C0A6EE49D8A646861248D49EF9","019cf866-450c-75b4-bb7d-dff95cb55f51","019cf855-66fc-7d76-a612-8313d2c5c123","","null","
                <div class=""stimulus-container"">
                    <img src=""images/semantic_sequence/creative_activities_semantic/creative_activities_semantic_ten.png"" class=""exp-image"">
                    <div class=""question-area""></div> 
                </div>","null","","","","","","","","",""
"","","","","","html-button-response","99","585531","0.0-99.0","8334C8C0A6EE49D8A646861248D49EF9","019cf866-450c-75b4-bb7d-dff95cb55f51","019cf855-66fc-7d76-a612-8313d2c5c123","","1652","
                <div class=""stimulus-container"">
                    <img src=""images/semantic_sequence/creative_activities_semantic/creative_activities_semantic_ten.png"" class=""exp-image"">
                    <div class=""question-area"">
                        <p style=""font-size: 20px; font-weight: bold; margin: 0;"">Is there a person in this image?</p>
                    </div>
                </div>","0","main_experiment_trial","ten","creative_activities_semantic","semantic_sequence","","","","",""
"","","","","","html-keyboard-response","100","586542","0.0-100.0","8334C8C0A6EE49D8A646861248D49EF9","019cf866-450c-75b4-bb7d-dff95cb55f51","019cf855-66fc-7d76-a612-8313d2c5c123","","null","<div style=""background-color: white; width: 100vw; height: 100vh;""></div>","null","","","","","","","","",""
"","","","","","html-keyboard-response","101","591551","0.0-101.0","8334C8C0A6EE49D8A646861248D49EF9","019cf866-450c-75b4-bb7d-dff95cb55f51","019cf855-66fc-7d76-a612-8313d2c5c123","","null","
                <div class=""stimulus-container"">
                    <img src=""images/semantic_sequence/redecorating_a_house_semantic/redecorating_a_house_semantic_1.png"" class=""exp-image"">
                    <div class=""question-area""></div> 
                </div>","null","","","","","","","","",""
"","","","","","html-button-response","102","594530","0.0-102.0","8334C8C0A6EE49D8A646861248D49EF9","019cf866-450c-75b4-bb7d-dff95cb55f51","019cf855-66fc-7d76-a612-8313d2c5c123","","2976","
                <div class=""stimulus-container"">
                    <img src=""images/semantic_sequence/redecorating_a_house_semantic/redecorating_a_house_semantic_1.png"" class=""exp-image"">
                    <div class=""question-area"">
                        <p style=""font-size: 20px; font-weight: bold; margin: 0;"">Is there a person in this image?</p>
                    </div>
                </div>","0","main_experiment_trial","1","redecorating_a_house_semantic","semantic_sequence","","","","",""
"","","","","","html-keyboard-response","103","599541","0.0-103.0","8334C8C0A6EE49D8A646861248D49EF9","019cf866-450c-75b4-bb7d-dff95cb55f51","019cf855-66fc-7d76-a612-8313d2c5c123","","null","
                <div class=""stimulus-container"">
                    <img src=""images/semantic_sequence/redecorating_a_house_semantic/redecorating_a_house_semantic_2.png"" class=""exp-image"">
                    <div class=""question-area""></div> 
                </div>","null","","","","","","","","",""
"","","","","","html-button-response","104","600482","0.0-104.0","8334C8C0A6EE49D8A646861248D49EF9","019cf866-450c-75b4-bb7d-dff95cb55f51","019cf855-66fc-7d76-a612-8313d2c5c123","","938","
                <div class=""stimulus-container"">
                    <img src=""images/semantic_sequence/redecorating_a_house_semantic/redecorating_a_house_semantic_2.png"" class=""exp-image"">
                    <div class=""question-area"">
                        <p style=""font-size: 20px; font-weight: bold; margin: 0;"">Is there a person in this image?</p>
                    </div>
                </div>","0","main_experiment_trial","2","redecorating_a_house_semantic","semantic_sequence","","","","",""
"","","","","","html-keyboard-response","105","605497","0.0-105.0","8334C8C0A6EE49D8A646861248D49EF9","019cf866-450c-75b4-bb7d-dff95cb55f51","019cf855-66fc-7d76-a612-8313d2c5c123","","null","
                <div class=""stimulus-container"">
                    <img src=""images/semantic_sequence/redecorating_a_house_semantic/redecorating_a_house_semantic_3.png"" class=""exp-image"">
                    <div class=""question-area""></div> 
                </div>","null","","","","","","","","",""
"","","","","","html-button-response","106","606344","0.0-106.0","8334C8C0A6EE49D8A646861248D49EF9","019cf866-450c-75b4-bb7d-dff95cb55f51","019cf855-66fc-7d76-a612-8313d2c5c123","","845","
                <div class=""stimulus-container"">
                    <img src=""images/semantic_sequence/redecorating_a_house_semantic/redecorating_a_house_semantic_3.png"" class=""exp-image"">
                    <div class=""question-area"">
                        <p style=""font-size: 20px; font-weight: bold; margin: 0;"">Is there a person in this image?</p>
                    </div>
                </div>","0","main_experiment_trial","3","redecorating_a_house_semantic","semantic_sequence","","","","",""
"","","","","","html-keyboard-response","107","611361","0.0-107.0","8334C8C0A6EE49D8A646861248D49EF9","019cf866-450c-75b4-bb7d-dff95cb55f51","019cf855-66fc-7d76-a612-8313d2c5c123","","null","
                <div class=""stimulus-container"">
                    <img src=""images/semantic_sequence/redecorating_a_house_semantic/redecorating_a_house_semantic_4.png"" class=""exp-image"">
                    <div class=""question-area""></div> 
                </div>","null","","","","","","","","",""
"","","","","","html-button-response","108","612473","0.0-108.0","8334C8C0A6EE49D8A646861248D49EF9","019cf866-450c-75b4-bb7d-dff95cb55f51","019cf855-66fc-7d76-a612-8313d2c5c123","","1110","
                <div class=""stimulus-container"">
                    <img src=""images/semantic_sequence/redecorating_a_house_semantic/redecorating_a_house_semantic_4.png"" class=""exp-image"">
                    <div class=""question-area"">
                        <p style=""font-size: 20px; font-weight: bold; margin: 0;"">Is there a person in this image?</p>
                    </div>
                </div>","0","main_experiment_trial","4","redecorating_a_house_semantic","semantic_sequence","","","","",""
"","","","","","html-keyboard-response","109","617483","0.0-109.0","8334C8C0A6EE49D8A646861248D49EF9","019cf866-450c-75b4-bb7d-dff95cb55f51","019cf855-66fc-7d76-a612-8313d2c5c123","","null","
                <div class=""stimulus-container"">
                    <img src=""images/semantic_sequence/redecorating_a_house_semantic/redecorating_a_house_semantic_5.png"" class=""exp-image"">
                    <div class=""question-area""></div> 
                </div>","null","","","","","","","","",""
"","","","","","html-button-response","110","619048","0.0-110.0","8334C8C0A6EE49D8A646861248D49EF9","019cf866-450c-75b4-bb7d-dff95cb55f51","019cf855-66fc-7d76-a612-8313d2c5c123","","1563","
                <div class=""stimulus-container"">
                    <img src=""images/semantic_sequence/redecorating_a_house_semantic/redecorating_a_house_semantic_5.png"" class=""exp-image"">
                    <div class=""question-area"">
                        <p style=""font-size: 20px; font-weight: bold; margin: 0;"">Is there a person in this image?</p>
                    </div>
                </div>","0","main_experiment_trial","5","redecorating_a_house_semantic","semantic_sequence","","","","",""
"","","","","","html-keyboard-response","111","624060","0.0-111.0","8334C8C0A6EE49D8A646861248D49EF9","019cf866-450c-75b4-bb7d-dff95cb55f51","019cf855-66fc-7d76-a612-8313d2c5c123","","null","
                <div class=""stimulus-container"">
                    <img src=""images/semantic_sequence/redecorating_a_house_semantic/redecorating_a_house_semantic_6.png"" class=""exp-image"">
                    <div class=""question-area""></div> 
                </div>","null","","","","","","","","",""
"","","","","","html-button-response","112","624576","0.0-112.0","8334C8C0A6EE49D8A646861248D49EF9","019cf866-450c-75b4-bb7d-dff95cb55f51","019cf855-66fc-7d76-a612-8313d2c5c123","","514","
                <div class=""stimulus-container"">
                    <img src=""images/semantic_sequence/redecorating_a_house_semantic/redecorating_a_house_semantic_6.png"" class=""exp-image"">
                    <div class=""question-area"">
                        <p style=""font-size: 20px; font-weight: bold; margin: 0;"">Is there a person in this image?</p>
                    </div>
                </div>","0","main_experiment_trial","6","redecorating_a_house_semantic","semantic_sequence","","","","",""
"","","","","","html-keyboard-response","113","629590","0.0-113.0","8334C8C0A6EE49D8A646861248D49EF9","019cf866-450c-75b4-bb7d-dff95cb55f51","019cf855-66fc-7d76-a612-8313d2c5c123","","null","
                <div class=""stimulus-container"">
                    <img src=""images/semantic_sequence/redecorating_a_house_semantic/redecorating_a_house_semantic_7.png"" class=""exp-image"">
                    <div class=""question-area""></div> 
                </div>","null","","","","","","","","",""
"","","","","","html-button-response","114","629953","0.0-114.0","8334C8C0A6EE49D8A646861248D49EF9","019cf866-450c-75b4-bb7d-dff95cb55f51","019cf855-66fc-7d76-a612-8313d2c5c123","","360","
                <div class=""stimulus-container"">
                    <img src=""images/semantic_sequence/redecorating_a_house_semantic/redecorating_a_house_semantic_7.png"" class=""exp-image"">
                    <div class=""question-area"">
                        <p style=""font-size: 20px; font-weight: bold; margin: 0;"">Is there a person in this image?</p>
                    </div>
                </div>","0","main_experiment_trial","7","redecorating_a_house_semantic","semantic_sequence","","","","",""
"","","","","","html-keyboard-response","115","634954","0.0-115.0","8334C8C0A6EE49D8A646861248D49EF9","019cf866-450c-75b4-bb7d-dff95cb55f51","019cf855-66fc-7d76-a612-8313d2c5c123","","null","
                <div class=""stimulus-container"">
                    <img src=""images/semantic_sequence/redecorating_a_house_semantic/redecorating_a_house_semantic_8.png"" class=""exp-image"">
                    <div class=""question-area""></div> 
                </div>","null","","","","","","","","",""
"","","","","","html-button-response","116","635501","0.0-116.0","8334C8C0A6EE49D8A646861248D49EF9","019cf866-450c-75b4-bb7d-dff95cb55f51","019cf855-66fc-7d76-a612-8313d2c5c123","","545","
                <div class=""stimulus-container"">
                    <img src=""images/semantic_sequence/redecorating_a_house_semantic/redecorating_a_house_semantic_8.png"" class=""exp-image"">
                    <div class=""question-area"">
                        <p style=""font-size: 20px; font-weight: bold; margin: 0;"">Is there a person in this image?</p>
                    </div>
                </div>","0","main_experiment_trial","8","redecorating_a_house_semantic","semantic_sequence","","","","",""
"","","","","","html-keyboard-response","117","640504","0.0-117.0","8334C8C0A6EE49D8A646861248D49EF9","019cf866-450c-75b4-bb7d-dff95cb55f51","019cf855-66fc-7d76-a612-8313d2c5c123","","null","
                <div class=""stimulus-container"">
                    <img src=""images/semantic_sequence/redecorating_a_house_semantic/redecorating_a_house_semantic_9.png"" class=""exp-image"">
                    <div class=""question-area""></div> 
                </div>","null","","","","","","","","",""
"","","","","","html-button-response","118","641017","0.0-118.0","8334C8C0A6EE49D8A646861248D49EF9","019cf866-450c-75b4-bb7d-dff95cb55f51","019cf855-66fc-7d76-a612-8313d2c5c123","","511","
                <div class=""stimulus-container"">
                    <img src=""images/semantic_sequence/redecorating_a_house_semantic/redecorating_a_house_semantic_9.png"" class=""exp-image"">
                    <div class=""question-area"">
                        <p style=""font-size: 20px; font-weight: bold; margin: 0;"">Is there a person in this image?</p>
                    </div>
                </div>","0","main_experiment_trial","9","redecorating_a_house_semantic","semantic_sequence","","","","",""
"","","","","","html-keyboard-response","119","646031","0.0-119.0","8334C8C0A6EE49D8A646861248D49EF9","019cf866-450c-75b4-bb7d-dff95cb55f51","019cf855-66fc-7d76-a612-8313d2c5c123","","null","
                <div class=""stimulus-container"">
                    <img src=""images/semantic_sequence/redecorating_a_house_semantic/redecorating_a_house_semantic_ten.png"" class=""exp-image"">
                    <div class=""question-area""></div> 
                </div>","null","","","","","","","","",""
"","","","","","html-button-response","120","646997","0.0-120.0","8334C8C0A6EE49D8A646861248D49EF9","019cf866-450c-75b4-bb7d-dff95cb55f51","019cf855-66fc-7d76-a612-8313d2c5c123","","964","
                <div class=""stimulus-container"">
                    <img src=""images/semantic_sequence/redecorating_a_house_semantic/redecorating_a_house_semantic_ten.png"" class=""exp-image"">
                    <div class=""question-area"">
                        <p style=""font-size: 20px; font-weight: bold; margin: 0;"">Is there a person in this image?</p>
                    </div>
                </div>","0","main_experiment_trial","ten","redecorating_a_house_semantic","semantic_sequence","","","","",""
"","","","","","html-keyboard-response","121","648018","0.0-121.0","8334C8C0A6EE49D8A646861248D49EF9","019cf866-450c-75b4-bb7d-dff95cb55f51","019cf855-66fc-7d76-a612-8313d2c5c123","","null","<div style=""background-color: white; width: 100vw; height: 100vh;""></div>","null","","","","","","","","",""
"","","","","","html-keyboard-response","122","653022","0.0-122.0","8334C8C0A6EE49D8A646861248D49EF9","019cf866-450c-75b4-bb7d-dff95cb55f51","019cf855-66fc-7d76-a612-8313d2c5c123","","null","
                <div class=""stimulus-container"">
                    <img src=""images/schematic_sequence/restaurant_scheme/restaurant_scheme_1.png"" class=""exp-image"">
                    <div class=""question-area""></div> 
                </div>","null","","","","","","","","",""
"","","","","","html-button-response","123","653695","0.0-123.0","8334C8C0A6EE49D8A646861248D49EF9","019cf866-450c-75b4-bb7d-dff95cb55f51","019cf855-66fc-7d76-a612-8313d2c5c123","","671","
                <div class=""stimulus-container"">
                    <img src=""images/schematic_sequence/restaurant_scheme/restaurant_scheme_1.png"" class=""exp-image"">
                    <div class=""question-area"">
                        <p style=""font-size: 20px; font-weight: bold; margin: 0;"">Is there a person in this image?</p>
                    </div>
                </div>","0","main_experiment_trial","1","restaurant_scheme","schematic_sequence","","","","",""
"","","","","","html-keyboard-response","124","658696","0.0-124.0","8334C8C0A6EE49D8A646861248D49EF9","019cf866-450c-75b4-bb7d-dff95cb55f51","019cf855-66fc-7d76-a612-8313d2c5c123","","null","
                <div class=""stimulus-container"">
                    <img src=""images/schematic_sequence/restaurant_scheme/restaurant_scheme_2.png"" class=""exp-image"">
                    <div class=""question-area""></div> 
                </div>","null","","","","","","","","",""
"","","","","","html-button-response","125","659745","0.0-125.0","8334C8C0A6EE49D8A646861248D49EF9","019cf866-450c-75b4-bb7d-dff95cb55f51","019cf855-66fc-7d76-a612-8313d2c5c123","","1048","
                <div class=""stimulus-container"">
                    <img src=""images/schematic_sequence/restaurant_scheme/restaurant_scheme_2.png"" class=""exp-image"">
                    <div class=""question-area"">
                        <p style=""font-size: 20px; font-weight: bold; margin: 0;"">Is there a person in this image?</p>
                    </div>
                </div>","1","main_experiment_trial","2","restaurant_scheme","schematic_sequence","","","","",""
"","","","","","html-keyboard-response","126","664751","0.0-126.0","8334C8C0A6EE49D8A646861248D49EF9","019cf866-450c-75b4-bb7d-dff95cb55f51","019cf855-66fc-7d76-a612-8313d2c5c123","","null","
                <div class=""stimulus-container"">
                    <img src=""images/schematic_sequence/restaurant_scheme/restaurant_scheme_3.png"" class=""exp-image"">
                    <div class=""question-area""></div> 
                </div>","null","","","","","","","","",""
"","","","","","html-button-response","127","665281","0.0-127.0","8334C8C0A6EE49D8A646861248D49EF9","019cf866-450c-75b4-bb7d-dff95cb55f51","019cf855-66fc-7d76-a612-8313d2c5c123","","527","
                <div class=""stimulus-container"">
                    <img src=""images/schematic_sequence/restaurant_scheme/restaurant_scheme_3.png"" class=""exp-image"">
                    <div class=""question-area"">
                        <p style=""font-size: 20px; font-weight: bold; margin: 0;"">Is there a person in this image?</p>
                    </div>
                </div>","1","main_experiment_trial","3","restaurant_scheme","schematic_sequence","","","","",""
"","","","","","html-keyboard-response","128","670290","0.0-128.0","8334C8C0A6EE49D8A646861248D49EF9","019cf866-450c-75b4-bb7d-dff95cb55f51","019cf855-66fc-7d76-a612-8313d2c5c123","","null","
                <div class=""stimulus-container"">
                    <img src=""images/schematic_sequence/restaurant_scheme/restaurant_scheme_4.png"" class=""exp-image"">
                    <div class=""question-area""></div> 
                </div>","null","","","","","","","","",""
"","","","","","html-button-response","129","671079","0.0-129.0","8334C8C0A6EE49D8A646861248D49EF9","019cf866-450c-75b4-bb7d-dff95cb55f51","019cf855-66fc-7d76-a612-8313d2c5c123","","787","
                <div class=""stimulus-container"">
                    <img src=""images/schematic_sequence/restaurant_scheme/restaurant_scheme_4.png"" class=""exp-image"">
                    <div class=""question-area"">
                        <p style=""font-size: 20px; font-weight: bold; margin: 0;"">Is there a person in this image?</p>
                    </div>
                </div>","0","main_experiment_trial","4","restaurant_scheme","schematic_sequence","","","","",""
"","","","","","html-keyboard-response","130","676094","0.0-130.0","8334C8C0A6EE49D8A646861248D49EF9","019cf866-450c-75b4-bb7d-dff95cb55f51","019cf855-66fc-7d76-a612-8313d2c5c123","","null","
                <div class=""stimulus-container"">
                    <img src=""images/schematic_sequence/restaurant_scheme/restaurant_scheme_5.png"" class=""exp-image"">
                    <div class=""question-area""></div> 
                </div>","null","","","","","","","","",""
"","","","","","html-button-response","131","677682","0.0-131.0","8334C8C0A6EE49D8A646861248D49EF9","019cf866-450c-75b4-bb7d-dff95cb55f51","019cf855-66fc-7d76-a612-8313d2c5c123","","1585","
                <div class=""stimulus-container"">
                    <img src=""images/schematic_sequence/restaurant_scheme/restaurant_scheme_5.png"" class=""exp-image"">
                    <div class=""question-area"">
                        <p style=""font-size: 20px; font-weight: bold; margin: 0;"">Is there a person in this image?</p>
                    </div>
                </div>","0","main_experiment_trial","5","restaurant_scheme","schematic_sequence","","","","",""
"","","","","","html-keyboard-response","132","682684","0.0-132.0","8334C8C0A6EE49D8A646861248D49EF9","019cf866-450c-75b4-bb7d-dff95cb55f51","019cf855-66fc-7d76-a612-8313d2c5c123","","null","
                <div class=""stimulus-container"">
                    <img src=""images/schematic_sequence/restaurant_scheme/restaurant_scheme_6.png"" class=""exp-image"">
                    <div class=""question-area""></div> 
                </div>","null","","","","","","","","",""
"","","","","","html-button-response","133","683186","0.0-133.0","8334C8C0A6EE49D8A646861248D49EF9","019cf866-450c-75b4-bb7d-dff95cb55f51","019cf855-66fc-7d76-a612-8313d2c5c123","","500","
                <div class=""stimulus-container"">
                    <img src=""images/schematic_sequence/restaurant_scheme/restaurant_scheme_6.png"" class=""exp-image"">
                    <div class=""question-area"">
                        <p style=""font-size: 20px; font-weight: bold; margin: 0;"">Is there a person in this image?</p>
                    </div>
                </div>","1","main_experiment_trial","6","restaurant_scheme","schematic_sequence","","","","",""
"","","","","","html-keyboard-response","134","688189","0.0-134.0","8334C8C0A6EE49D8A646861248D49EF9","019cf866-450c-75b4-bb7d-dff95cb55f51","019cf855-66fc-7d76-a612-8313d2c5c123","","null","
                <div class=""stimulus-container"">
                    <img src=""images/schematic_sequence/restaurant_scheme/restaurant_scheme_7.png"" class=""exp-image"">
                    <div class=""question-area""></div> 
                </div>","null","","","","","","","","",""
"","","","","","html-button-response","135","688673","0.0-135.0","8334C8C0A6EE49D8A646861248D49EF9","019cf866-450c-75b4-bb7d-dff95cb55f51","019cf855-66fc-7d76-a612-8313d2c5c123","","482","
                <div class=""stimulus-container"">
                    <img src=""images/schematic_sequence/restaurant_scheme/restaurant_scheme_7.png"" class=""exp-image"">
                    <div class=""question-area"">
                        <p style=""font-size: 20px; font-weight: bold; margin: 0;"">Is there a person in this image?</p>
                    </div>
                </div>","1","main_experiment_trial","7","restaurant_scheme","schematic_sequence","","","","",""
"","","","","","html-keyboard-response","136","693689","0.0-136.0","8334C8C0A6EE49D8A646861248D49EF9","019cf866-450c-75b4-bb7d-dff95cb55f51","019cf855-66fc-7d76-a612-8313d2c5c123","","null","
                <div class=""stimulus-container"">
                    <img src=""images/schematic_sequence/restaurant_scheme/restaurant_scheme_8.png"" class=""exp-image"">
                    <div class=""question-area""></div> 
                </div>","null","","","","","","","","",""
"","","","","","html-button-response","137","694822","0.0-137.0","8334C8C0A6EE49D8A646861248D49EF9","019cf866-450c-75b4-bb7d-dff95cb55f51","019cf855-66fc-7d76-a612-8313d2c5c123","","1131","
                <div class=""stimulus-container"">
                    <img src=""images/schematic_sequence/restaurant_scheme/restaurant_scheme_8.png"" class=""exp-image"">
                    <div class=""question-area"">
                        <p style=""font-size: 20px; font-weight: bold; margin: 0;"">Is there a person in this image?</p>
                    </div>
                </div>","1","main_experiment_trial","8","restaurant_scheme","schematic_sequence","","","","",""
"","","","","","html-keyboard-response","138","699833","0.0-138.0","8334C8C0A6EE49D8A646861248D49EF9","019cf866-450c-75b4-bb7d-dff95cb55f51","019cf855-66fc-7d76-a612-8313d2c5c123","","null","
                <div class=""stimulus-container"">
                    <img src=""images/schematic_sequence/restaurant_scheme/restaurant_scheme_9.png"" class=""exp-image"">
                    <div class=""question-area""></div> 
                </div>","null","","","","","","","","",""
"","","","","","html-button-response","139","700425","0.0-139.0","8334C8C0A6EE49D8A646861248D49EF9","019cf866-450c-75b4-bb7d-dff95cb55f51","019cf855-66fc-7d76-a612-8313d2c5c123","","590","
                <div class=""stimulus-container"">
                    <img src=""images/schematic_sequence/restaurant_scheme/restaurant_scheme_9.png"" class=""exp-image"">
                    <div class=""question-area"">
                        <p style=""font-size: 20px; font-weight: bold; margin: 0;"">Is there a person in this image?</p>
                    </div>
                </div>","0","main_experiment_trial","9","restaurant_scheme","schematic_sequence","","","","",""
"","","","","","html-keyboard-response","140","705436","0.0-140.0","8334C8C0A6EE49D8A646861248D49EF9","019cf866-450c-75b4-bb7d-dff95cb55f51","019cf855-66fc-7d76-a612-8313d2c5c123","","null","
                <div class=""stimulus-container"">
                    <img src=""images/schematic_sequence/restaurant_scheme/restaurant_scheme_ten.png"" class=""exp-image"">
                    <div class=""question-area""></div> 
                </div>","null","","","","","","","","",""
"","","","","","html-button-response","141","705850","0.0-141.0","8334C8C0A6EE49D8A646861248D49EF9","019cf866-450c-75b4-bb7d-dff95cb55f51","019cf855-66fc-7d76-a612-8313d2c5c123","","412","
                <div class=""stimulus-container"">
                    <img src=""images/schematic_sequence/restaurant_scheme/restaurant_scheme_ten.png"" class=""exp-image"">
                    <div class=""question-area"">
                        <p style=""font-size: 20px; font-weight: bold; margin: 0;"">Is there a person in this image?</p>
                    </div>
                </div>","0","main_experiment_trial","ten","restaurant_scheme","schematic_sequence","","","","",""
"","","","","","html-keyboard-response","142","706858","0.0-142.0","8334C8C0A6EE49D8A646861248D49EF9","019cf866-450c-75b4-bb7d-dff95cb55f51","019cf855-66fc-7d76-a612-8313d2c5c123","","null","<div style=""background-color: white; width: 100vw; height: 100vh;""></div>","null","","","","","","","","",""
"","","","","","html-keyboard-response","143","711871","0.0-143.0","8334C8C0A6EE49D8A646861248D49EF9","019cf866-450c-75b4-bb7d-dff95cb55f51","019cf855-66fc-7d76-a612-8313d2c5c123","","null","
                <div class=""stimulus-container"">
                    <img src=""images/schematic_sequence/supermarket_scheme/supermarket_scheme_1.png"" class=""exp-image"">
                    <div class=""question-area""></div> 
                </div>","null","","","","","","","","",""
"","","","","","html-button-response","144","712505","0.0-144.0","8334C8C0A6EE49D8A646861248D49EF9","019cf866-450c-75b4-bb7d-dff95cb55f51","019cf855-66fc-7d76-a612-8313d2c5c123","","632","
                <div class=""stimulus-container"">
                    <img src=""images/schematic_sequence/supermarket_scheme/supermarket_scheme_1.png"" class=""exp-image"">
                    <div class=""question-area"">
                        <p style=""font-size: 20px; font-weight: bold; margin: 0;"">Is there a person in this image?</p>
                    </div>
                </div>","1","main_experiment_trial","1","supermarket_scheme","schematic_sequence","","","","",""
"","","","","","html-keyboard-response","145","717511","0.0-145.0","8334C8C0A6EE49D8A646861248D49EF9","019cf866-450c-75b4-bb7d-dff95cb55f51","019cf855-66fc-7d76-a612-8313d2c5c123","","null","
                <div class=""stimulus-container"">
                    <img src=""images/schematic_sequence/supermarket_scheme/supermarket_scheme_2.png"" class=""exp-image"">
                    <div class=""question-area""></div> 
                </div>","null","","","","","","","","",""
"","","","","","html-button-response","146","718058","0.0-146.0","8334C8C0A6EE49D8A646861248D49EF9","019cf866-450c-75b4-bb7d-dff95cb55f51","019cf855-66fc-7d76-a612-8313d2c5c123","","544","
                <div class=""stimulus-container"">
                    <img src=""images/schematic_sequence/supermarket_scheme/supermarket_scheme_2.png"" class=""exp-image"">
                    <div class=""question-area"">
                        <p style=""font-size: 20px; font-weight: bold; margin: 0;"">Is there a person in this image?</p>
                    </div>
                </div>","1","main_experiment_trial","2","supermarket_scheme","schematic_sequence","","","","",""
"","","","","","html-keyboard-response","147","723067","0.0-147.0","8334C8C0A6EE49D8A646861248D49EF9","019cf866-450c-75b4-bb7d-dff95cb55f51","019cf855-66fc-7d76-a612-8313d2c5c123","","null","
                <div class=""stimulus-container"">
                    <img src=""images/schematic_sequence/supermarket_scheme/supermarket_scheme_3.png"" class=""exp-image"">
                    <div class=""question-area""></div> 
                </div>","null","","","","","","","","",""
"","","","","","html-button-response","148","723521","0.0-148.0","8334C8C0A6EE49D8A646861248D49EF9","019cf866-450c-75b4-bb7d-dff95cb55f51","019cf855-66fc-7d76-a612-8313d2c5c123","","452","
                <div class=""stimulus-container"">
                    <img src=""images/schematic_sequence/supermarket_scheme/supermarket_scheme_3.png"" class=""exp-image"">
                    <div class=""question-area"">
                        <p style=""font-size: 20px; font-weight: bold; margin: 0;"">Is there a person in this image?</p>
                    </div>
                </div>","1","main_experiment_trial","3","supermarket_scheme","schematic_sequence","","","","",""
"","","","","","html-keyboard-response","149","728530","0.0-149.0","8334C8C0A6EE49D8A646861248D49EF9","019cf866-450c-75b4-bb7d-dff95cb55f51","019cf855-66fc-7d76-a612-8313d2c5c123","","null","
                <div class=""stimulus-container"">
                    <img src=""images/schematic_sequence/supermarket_scheme/supermarket_scheme_4.png"" class=""exp-image"">
                    <div class=""question-area""></div> 
                </div>","null","","","","","","","","",""
"","","","","","html-button-response","150","731405","0.0-150.0","8334C8C0A6EE49D8A646861248D49EF9","019cf866-450c-75b4-bb7d-dff95cb55f51","019cf855-66fc-7d76-a612-8313d2c5c123","","2873","
                <div class=""stimulus-container"">
                    <img src=""images/schematic_sequence/supermarket_scheme/supermarket_scheme_4.png"" class=""exp-image"">
                    <div class=""question-area"">
                        <p style=""font-size: 20px; font-weight: bold; margin: 0;"">Is there a person in this image?</p>
                    </div>
                </div>","0","main_experiment_trial","4","supermarket_scheme","schematic_sequence","","","","",""
"","","","","","html-keyboard-response","151","736415","0.0-151.0","8334C8C0A6EE49D8A646861248D49EF9","019cf866-450c-75b4-bb7d-dff95cb55f51","019cf855-66fc-7d76-a612-8313d2c5c123","","null","
                <div class=""stimulus-container"">
                    <img src=""images/schematic_sequence/supermarket_scheme/supermarket_scheme_5.png"" class=""exp-image"">
                    <div class=""question-area""></div> 
                </div>","null","","","","","","","","",""
"","","","","","html-button-response","152","737219","0.0-152.0","8334C8C0A6EE49D8A646861248D49EF9","019cf866-450c-75b4-bb7d-dff95cb55f51","019cf855-66fc-7d76-a612-8313d2c5c123","","801","
                <div class=""stimulus-container"">
                    <img src=""images/schematic_sequence/supermarket_scheme/supermarket_scheme_5.png"" class=""exp-image"">
                    <div class=""question-area"">
                        <p style=""font-size: 20px; font-weight: bold; margin: 0;"">Is there a person in this image?</p>
                    </div>
                </div>","1","main_experiment_trial","5","supermarket_scheme","schematic_sequence","","","","",""
"","","","","","html-keyboard-response","153","742231","0.0-153.0","8334C8C0A6EE49D8A646861248D49EF9","019cf866-450c-75b4-bb7d-dff95cb55f51","019cf855-66fc-7d76-a612-8313d2c5c123","","null","
                <div class=""stimulus-container"">
                    <img src=""images/schematic_sequence/supermarket_scheme/supermarket_scheme_6.png"" class=""exp-image"">
                    <div class=""question-area""></div> 
                </div>","null","","","","","","","","",""
"","","","","","html-button-response","154","743230","0.0-154.0","8334C8C0A6EE49D8A646861248D49EF9","019cf866-450c-75b4-bb7d-dff95cb55f51","019cf855-66fc-7d76-a612-8313d2c5c123","","996","
                <div class=""stimulus-container"">
                    <img src=""images/schematic_sequence/supermarket_scheme/supermarket_scheme_6.png"" class=""exp-image"">
                    <div class=""question-area"">
                        <p style=""font-size: 20px; font-weight: bold; margin: 0;"">Is there a person in this image?</p>
                    </div>
                </div>","0","main_experiment_trial","6","supermarket_scheme","schematic_sequence","","","","",""
"","","","","","html-keyboard-response","155","748231","0.0-155.0","8334C8C0A6EE49D8A646861248D49EF9","019cf866-450c-75b4-bb7d-dff95cb55f51","019cf855-66fc-7d76-a612-8313d2c5c123","","null","
                <div class=""stimulus-container"">
                    <img src=""images/schematic_sequence/supermarket_scheme/supermarket_scheme_7.png"" class=""exp-image"">
                    <div class=""question-area""></div> 
                </div>","null","","","","","","","","",""
"","","","","","html-button-response","156","748696","0.0-156.0","8334C8C0A6EE49D8A646861248D49EF9","019cf866-450c-75b4-bb7d-dff95cb55f51","019cf855-66fc-7d76-a612-8313d2c5c123","","463","
                <div class=""stimulus-container"">
                    <img src=""images/schematic_sequence/supermarket_scheme/supermarket_scheme_7.png"" class=""exp-image"">
                    <div class=""question-area"">
                        <p style=""font-size: 20px; font-weight: bold; margin: 0;"">Is there a person in this image?</p>
                    </div>
                </div>","0","main_experiment_trial","7","supermarket_scheme","schematic_sequence","","","","",""
"","","","","","html-keyboard-response","157","753703","0.0-157.0","8334C8C0A6EE49D8A646861248D49EF9","019cf866-450c-75b4-bb7d-dff95cb55f51","019cf855-66fc-7d76-a612-8313d2c5c123","","null","
                <div class=""stimulus-container"">
                    <img src=""images/schematic_sequence/supermarket_scheme/supermarket_scheme_8.png"" class=""exp-image"">
                    <div class=""question-area""></div> 
                </div>","null","","","","","","","","",""
"","","","","","html-button-response","158","754233","0.0-158.0","8334C8C0A6EE49D8A646861248D49EF9","019cf866-450c-75b4-bb7d-dff95cb55f51","019cf855-66fc-7d76-a612-8313d2c5c123","","528","
                <div class=""stimulus-container"">
                    <img src=""images/schematic_sequence/supermarket_scheme/supermarket_scheme_8.png"" class=""exp-image"">
                    <div class=""question-area"">
                        <p style=""font-size: 20px; font-weight: bold; margin: 0;"">Is there a person in this image?</p>
                    </div>
                </div>","0","main_experiment_trial","8","supermarket_scheme","schematic_sequence","","","","",""
"","","","","","html-keyboard-response","159","759237","0.0-159.0","8334C8C0A6EE49D8A646861248D49EF9","019cf866-450c-75b4-bb7d-dff95cb55f51","019cf855-66fc-7d76-a612-8313d2c5c123","","null","
                <div class=""stimulus-container"">
                    <img src=""images/schematic_sequence/supermarket_scheme/supermarket_scheme_9.png"" class=""exp-image"">
                    <div class=""question-area""></div> 
                </div>","null","","","","","","","","",""
"","","","","","html-button-response","160","760520","0.0-160.0","8334C8C0A6EE49D8A646861248D49EF9","019cf866-450c-75b4-bb7d-dff95cb55f51","019cf855-66fc-7d76-a612-8313d2c5c123","","1281","
                <div class=""stimulus-container"">
                    <img src=""images/schematic_sequence/supermarket_scheme/supermarket_scheme_9.png"" class=""exp-image"">
                    <div class=""question-area"">
                        <p style=""font-size: 20px; font-weight: bold; margin: 0;"">Is there a person in this image?</p>
                    </div>
                </div>","0","main_experiment_trial","9","supermarket_scheme","schematic_sequence","","","","",""
"","","","","","html-keyboard-response","161","765524","0.0-161.0","8334C8C0A6EE49D8A646861248D49EF9","019cf866-450c-75b4-bb7d-dff95cb55f51","019cf855-66fc-7d76-a612-8313d2c5c123","","null","
                <div class=""stimulus-container"">
                    <img src=""images/schematic_sequence/supermarket_scheme/supermarket_scheme_ten.png"" class=""exp-image"">
                    <div class=""question-area""></div> 
                </div>","null","","","","","","","","",""
"","","","","","html-button-response","162","766417","0.0-162.0","8334C8C0A6EE49D8A646861248D49EF9","019cf866-450c-75b4-bb7d-dff95cb55f51","019cf855-66fc-7d76-a612-8313d2c5c123","","891","
                <div class=""stimulus-container"">
                    <img src=""images/schematic_sequence/supermarket_scheme/supermarket_scheme_ten.png"" class=""exp-image"">
                    <div class=""question-area"">
                        <p style=""font-size: 20px; font-weight: bold; margin: 0;"">Is there a person in this image?</p>
                    </div>
                </div>","1","main_experiment_trial","ten","supermarket_scheme","schematic_sequence","","","","",""
"","","","","","html-keyboard-response","163","767433","0.0-163.0","8334C8C0A6EE49D8A646861248D49EF9","019cf866-450c-75b4-bb7d-dff95cb55f51","019cf855-66fc-7d76-a612-8313d2c5c123","","null","<div style=""background-color: white; width: 100vw; height: 100vh;""></div>","null","","","","","","","","",""
"","","","","","html-keyboard-response","164","772449","0.0-164.0","8334C8C0A6EE49D8A646861248D49EF9","019cf866-450c-75b4-bb7d-dff95cb55f51","019cf855-66fc-7d76-a612-8313d2c5c123","","null","
                <div class=""stimulus-container"">
                    <img src=""images/semantic_sequence/visiting_cities_semantic/visiting_cities_semantic_1.png"" class=""exp-image"">
                    <div class=""question-area""></div> 
                </div>","null","","","","","","","","",""
"","","","","","html-button-response","165","775233","0.0-165.0","8334C8C0A6EE49D8A646861248D49EF9","019cf866-450c-75b4-bb7d-dff95cb55f51","019cf855-66fc-7d76-a612-8313d2c5c123","","2783","
                <div class=""stimulus-container"">
                    <img src=""images/semantic_sequence/visiting_cities_semantic/visiting_cities_semantic_1.png"" class=""exp-image"">
                    <div class=""question-area"">
                        <p style=""font-size: 20px; font-weight: bold; margin: 0;"">Is there a person in this image?</p>
                    </div>
                </div>","1","main_experiment_trial","1","visiting_cities_semantic","semantic_sequence","","","","",""
"","","","","","html-keyboard-response","166","780235","0.0-166.0","8334C8C0A6EE49D8A646861248D49EF9","019cf866-450c-75b4-bb7d-dff95cb55f51","019cf855-66fc-7d76-a612-8313d2c5c123","","null","
                <div class=""stimulus-container"">
                    <img src=""images/semantic_sequence/visiting_cities_semantic/visiting_cities_semantic_2.png"" class=""exp-image"">
                    <div class=""question-area""></div> 
                </div>","null","","","","","","","","",""
"","","","","","html-button-response","167","781059","0.0-167.0","8334C8C0A6EE49D8A646861248D49EF9","019cf866-450c-75b4-bb7d-dff95cb55f51","019cf855-66fc-7d76-a612-8313d2c5c123","","822","
                <div class=""stimulus-container"">
                    <img src=""images/semantic_sequence/visiting_cities_semantic/visiting_cities_semantic_2.png"" class=""exp-image"">
                    <div class=""question-area"">
                        <p style=""font-size: 20px; font-weight: bold; margin: 0;"">Is there a person in this image?</p>
                    </div>
                </div>","1","main_experiment_trial","2","visiting_cities_semantic","semantic_sequence","","","","",""
"","","","","","html-keyboard-response","168","786065","0.0-168.0","8334C8C0A6EE49D8A646861248D49EF9","019cf866-450c-75b4-bb7d-dff95cb55f51","019cf855-66fc-7d76-a612-8313d2c5c123","","null","
                <div class=""stimulus-container"">
                    <img src=""images/semantic_sequence/visiting_cities_semantic/visiting_cities_semantic_3.png"" class=""exp-image"">
                    <div class=""question-area""></div> 
                </div>","null","","","","","","","","",""
"","","","","","html-button-response","169","787361","0.0-169.0","8334C8C0A6EE49D8A646861248D49EF9","019cf866-450c-75b4-bb7d-dff95cb55f51","019cf855-66fc-7d76-a612-8313d2c5c123","","1294","
                <div class=""stimulus-container"">
                    <img src=""images/semantic_sequence/visiting_cities_semantic/visiting_cities_semantic_3.png"" class=""exp-image"">
                    <div class=""question-area"">
                        <p style=""font-size: 20px; font-weight: bold; margin: 0;"">Is there a person in this image?</p>
                    </div>
                </div>","1","main_experiment_trial","3","visiting_cities_semantic","semantic_sequence","","","","",""
"","","","","","html-keyboard-response","170","792374","0.0-170.0","8334C8C0A6EE49D8A646861248D49EF9","019cf866-450c-75b4-bb7d-dff95cb55f51","019cf855-66fc-7d76-a612-8313d2c5c123","","null","
                <div class=""stimulus-container"">
                    <img src=""images/semantic_sequence/visiting_cities_semantic/visiting_cities_semantic_4.png"" class=""exp-image"">
                    <div class=""question-area""></div> 
                </div>","null","","","","","","","","",""
"","","","","","html-button-response","171","792858","0.0-171.0","8334C8C0A6EE49D8A646861248D49EF9","019cf866-450c-75b4-bb7d-dff95cb55f51","019cf855-66fc-7d76-a612-8313d2c5c123","","482","
                <div class=""stimulus-container"">
                    <img src=""images/semantic_sequence/visiting_cities_semantic/visiting_cities_semantic_4.png"" class=""exp-image"">
                    <div class=""question-area"">
                        <p style=""font-size: 20px; font-weight: bold; margin: 0;"">Is there a person in this image?</p>
                    </div>
                </div>","1","main_experiment_trial","4","visiting_cities_semantic","semantic_sequence","","","","",""
"","","","","","html-keyboard-response","172","797864","0.0-172.0","8334C8C0A6EE49D8A646861248D49EF9","019cf866-450c-75b4-bb7d-dff95cb55f51","019cf855-66fc-7d76-a612-8313d2c5c123","","null","
                <div class=""stimulus-container"">
                    <img src=""images/semantic_sequence/visiting_cities_semantic/visiting_cities_semantic_5.png"" class=""exp-image"">
                    <div class=""question-area""></div> 
                </div>","null","","","","","","","","",""
"","","","","","html-button-response","173","798606","0.0-173.0","8334C8C0A6EE49D8A646861248D49EF9","019cf866-450c-75b4-bb7d-dff95cb55f51","019cf855-66fc-7d76-a612-8313d2c5c123","","740","
                <div class=""stimulus-container"">
                    <img src=""images/semantic_sequence/visiting_cities_semantic/visiting_cities_semantic_5.png"" class=""exp-image"">
                    <div class=""question-area"">
                        <p style=""font-size: 20px; font-weight: bold; margin: 0;"">Is there a person in this image?</p>
                    </div>
                </div>","1","main_experiment_trial","5","visiting_cities_semantic","semantic_sequence","","","","",""
"","","","","","html-keyboard-response","174","803620","0.0-174.0","8334C8C0A6EE49D8A646861248D49EF9","019cf866-450c-75b4-bb7d-dff95cb55f51","019cf855-66fc-7d76-a612-8313d2c5c123","","null","
                <div class=""stimulus-container"">
                    <img src=""images/semantic_sequence/visiting_cities_semantic/visiting_cities_semantic_6.png"" class=""exp-image"">
                    <div class=""question-area""></div> 
                </div>","null","","","","","","","","",""
"","","","","","html-button-response","175","804275","0.0-175.0","8334C8C0A6EE49D8A646861248D49EF9","019cf866-450c-75b4-bb7d-dff95cb55f51","019cf855-66fc-7d76-a612-8313d2c5c123","","652","
                <div class=""stimulus-container"">
                    <img src=""images/semantic_sequence/visiting_cities_semantic/visiting_cities_semantic_6.png"" class=""exp-image"">
                    <div class=""question-area"">
                        <p style=""font-size: 20px; font-weight: bold; margin: 0;"">Is there a person in this image?</p>
                    </div>
                </div>","1","main_experiment_trial","6","visiting_cities_semantic","semantic_sequence","","","","",""
"","","","","","html-keyboard-response","176","809281","0.0-176.0","8334C8C0A6EE49D8A646861248D49EF9","019cf866-450c-75b4-bb7d-dff95cb55f51","019cf855-66fc-7d76-a612-8313d2c5c123","","null","
                <div class=""stimulus-container"">
                    <img src=""images/semantic_sequence/visiting_cities_semantic/visiting_cities_semantic_7.png"" class=""exp-image"">
                    <div class=""question-area""></div> 
                </div>","null","","","","","","","","",""
"","","","","","html-button-response","177","809881","0.0-177.0","8334C8C0A6EE49D8A646861248D49EF9","019cf866-450c-75b4-bb7d-dff95cb55f51","019cf855-66fc-7d76-a612-8313d2c5c123","","598","
                <div class=""stimulus-container"">
                    <img src=""images/semantic_sequence/visiting_cities_semantic/visiting_cities_semantic_7.png"" class=""exp-image"">
                    <div class=""question-area"">
                        <p style=""font-size: 20px; font-weight: bold; margin: 0;"">Is there a person in this image?</p>
                    </div>
                </div>","0","main_experiment_trial","7","visiting_cities_semantic","semantic_sequence","","","","",""
