"success","timeout","failed_images","failed_audio","failed_video","trial_type","trial_index","time_elapsed","internal_node_id","subject_id","study_id","session_id","view_history","rt","stimulus","response","task","image_index","folder","sequence_type","valuable_image_index","reward_type","correct_choice","chosen_image_index","target_X"
"true","false","[]","[]","[]","preload","0","140190","0.0-0.0","E3FF85E926E2443B9E58D65441890834","019cf031-045f-7adb-aa5f-2b5414bedba8","019ceff9-9f67-7034-9722-02cda2445e09","","","","","","","","","","","","",""
"","","","","","instructions","1","191049","0.0-1.0","E3FF85E926E2443B9E58D65441890834","019cf031-045f-7adb-aa5f-2b5414bedba8","019ceff9-9f67-7034-9722-02cda2445e09","[{""page_index"":0,""viewing_time"":50852}]","50853","","","","","","","","","","",""
"","","","","","instructions","2","199288","0.0-2.0","E3FF85E926E2443B9E58D65441890834","019cf031-045f-7adb-aa5f-2b5414bedba8","019ceff9-9f67-7034-9722-02cda2445e09","[{""page_index"":0,""viewing_time"":8239}]","8239","","","","","","","","","","",""
"true","","","","","fullscreen","3","204366","0.0-3.0","E3FF85E926E2443B9E58D65441890834","019cf031-045f-7adb-aa5f-2b5414bedba8","019ceff9-9f67-7034-9722-02cda2445e09","","4063","","","","","","","","","","",""
"","","","","","instructions","4","245008","0.0-4.0","E3FF85E926E2443B9E58D65441890834","019cf031-045f-7adb-aa5f-2b5414bedba8","019ceff9-9f67-7034-9722-02cda2445e09","[{""page_index"":0,""viewing_time"":40640}]","40640","","","","","","","","","","",""
"","","","","","instructions","5","261000","0.0-5.0","E3FF85E926E2443B9E58D65441890834","019cf031-045f-7adb-aa5f-2b5414bedba8","019ceff9-9f67-7034-9722-02cda2445e09","[{""page_index"":0,""viewing_time"":15991}]","15991","","","","","","","","","","",""
"","","","","","html-keyboard-response","6","265011","0.0-6.0","E3FF85E926E2443B9E58D65441890834","019cf031-045f-7adb-aa5f-2b5414bedba8","019ceff9-9f67-7034-9722-02cda2445e09","","null","
                <div class=""stimulus-container"">
                    <img src=""images/instructions/movie_1.png"" class=""exp-image"">
                    <div class=""question-area""></div> 
                </div>","null","","","","","","","","",""
"","","","","","html-button-response","7","268016","0.0-7.0","E3FF85E926E2443B9E58D65441890834","019cf031-045f-7adb-aa5f-2b5414bedba8","019ceff9-9f67-7034-9722-02cda2445e09","","null","
                <div class=""stimulus-container"">
                    <img src=""images/instructions/movie_1.png"" class=""exp-image"">
                    <div class=""question-area"">
                        <p style=""font-size: 20px; font-weight: bold; margin: 0;"">Was there a person in this image?</p>
                    </div>
                </div>","null","example_question","1","","","","","","",""
"","","","","","html-keyboard-response","8","272021","0.0-8.0","E3FF85E926E2443B9E58D65441890834","019cf031-045f-7adb-aa5f-2b5414bedba8","019ceff9-9f67-7034-9722-02cda2445e09","","null","
                <div class=""stimulus-container"">
                    <img src=""images/instructions/movie_2.png"" class=""exp-image"">
                    <div class=""question-area""></div> 
                </div>","null","","","","","","","","",""
"","","","","","html-button-response","9","273249","0.0-9.0","E3FF85E926E2443B9E58D65441890834","019cf031-045f-7adb-aa5f-2b5414bedba8","019ceff9-9f67-7034-9722-02cda2445e09","","1226","
                <div class=""stimulus-container"">
                    <img src=""images/instructions/movie_2.png"" class=""exp-image"">
                    <div class=""question-area"">
                        <p style=""font-size: 20px; font-weight: bold; margin: 0;"">Was there a person in this image?</p>
                    </div>
                </div>","0","example_question","2","","","","","","",""
"","","","","","html-keyboard-response","10","277251","0.0-10.0","E3FF85E926E2443B9E58D65441890834","019cf031-045f-7adb-aa5f-2b5414bedba8","019ceff9-9f67-7034-9722-02cda2445e09","","null","
                <div class=""stimulus-container"">
                    <img src=""images/instructions/movie_3.png"" class=""exp-image"">
                    <div class=""question-area""></div> 
                </div>","null","","","","","","","","",""
"","","","","","html-button-response","11","278632","0.0-11.0","E3FF85E926E2443B9E58D65441890834","019cf031-045f-7adb-aa5f-2b5414bedba8","019ceff9-9f67-7034-9722-02cda2445e09","","1380","
                <div class=""stimulus-container"">
                    <img src=""images/instructions/movie_3.png"" class=""exp-image"">
                    <div class=""question-area"">
                        <p style=""font-size: 20px; font-weight: bold; margin: 0;"">Was there a person in this image?</p>
                    </div>
                </div>","0","example_question","3","","","","","","",""
"","","","","","html-keyboard-response","12","282637","0.0-12.0","E3FF85E926E2443B9E58D65441890834","019cf031-045f-7adb-aa5f-2b5414bedba8","019ceff9-9f67-7034-9722-02cda2445e09","","null","
                <div class=""stimulus-container"">
                    <img src=""images/instructions/movie_4.png"" class=""exp-image"">
                    <div class=""question-area""></div> 
                </div>","null","","","","","","","","",""
"","","","","","html-button-response","13","284568","0.0-13.0","E3FF85E926E2443B9E58D65441890834","019cf031-045f-7adb-aa5f-2b5414bedba8","019ceff9-9f67-7034-9722-02cda2445e09","","1929","
                <div class=""stimulus-container"">
                    <img src=""images/instructions/movie_4.png"" class=""exp-image"">
                    <div class=""question-area"">
                        <p style=""font-size: 20px; font-weight: bold; margin: 0;"">Was there a person in this image?</p>
                    </div>
                </div>","0","example_question","4","","","","","","",""
"","","","","","instructions","14","287192","0.0-14.0","E3FF85E926E2443B9E58D65441890834","019cf031-045f-7adb-aa5f-2b5414bedba8","019ceff9-9f67-7034-9722-02cda2445e09","[{""page_index"":0,""viewing_time"":2624}]","2624","","","","","","","","","","",""
"","","","","","instructions","15","288719","0.0-15.0","E3FF85E926E2443B9E58D65441890834","019cf031-045f-7adb-aa5f-2b5414bedba8","019ceff9-9f67-7034-9722-02cda2445e09","[{""page_index"":0,""viewing_time"":1527}]","1527","","","","","","","","","","",""
"","","","","","html-keyboard-response","16","289724","0.0-16.0","E3FF85E926E2443B9E58D65441890834","019cf031-045f-7adb-aa5f-2b5414bedba8","019ceff9-9f67-7034-9722-02cda2445e09","","null","<div style=""background-color: white; width: 100vw; height: 100vh;""></div>","null","","","","","","","","",""
"","","","","","html-keyboard-response","17","294737","0.0-17.0","E3FF85E926E2443B9E58D65441890834","019cf031-045f-7adb-aa5f-2b5414bedba8","019ceff9-9f67-7034-9722-02cda2445e09","","null","
                <div class=""stimulus-container"">
                    <img src=""images/causal_sequence/the_performance_causal/the_performance_causal_1.png"" class=""exp-image"">
                    <div class=""question-area""></div> 
                </div>","null","","","","","","","","",""
"","","","","","html-button-response","18","297753","0.0-18.0","E3FF85E926E2443B9E58D65441890834","019cf031-045f-7adb-aa5f-2b5414bedba8","019ceff9-9f67-7034-9722-02cda2445e09","","null","
                <div class=""stimulus-container"">
                    <img src=""images/causal_sequence/the_performance_causal/the_performance_causal_1.png"" class=""exp-image"">
                    <div class=""question-area"">
                        <p style=""font-size: 20px; font-weight: bold; margin: 0;"">Is there a person in this image?</p>
                    </div>
                </div>","null","main_experiment_trial","1","the_performance_causal","causal_sequence","","","","",""
"","","","","","html-keyboard-response","19","302757","0.0-19.0","E3FF85E926E2443B9E58D65441890834","019cf031-045f-7adb-aa5f-2b5414bedba8","019ceff9-9f67-7034-9722-02cda2445e09","","null","
                <div class=""stimulus-container"">
                    <img src=""images/causal_sequence/the_performance_causal/the_performance_causal_2.png"" class=""exp-image"">
                    <div class=""question-area""></div> 
                </div>","null","","","","","","","","",""
"","","","","","html-button-response","20","304664","0.0-20.0","E3FF85E926E2443B9E58D65441890834","019cf031-045f-7adb-aa5f-2b5414bedba8","019ceff9-9f67-7034-9722-02cda2445e09","","1906","
                <div class=""stimulus-container"">
                    <img src=""images/causal_sequence/the_performance_causal/the_performance_causal_2.png"" class=""exp-image"">
                    <div class=""question-area"">
                        <p style=""font-size: 20px; font-weight: bold; margin: 0;"">Is there a person in this image?</p>
                    </div>
                </div>","0","main_experiment_trial","2","the_performance_causal","causal_sequence","","","","",""
"","","","","","html-keyboard-response","21","309677","0.0-21.0","E3FF85E926E2443B9E58D65441890834","019cf031-045f-7adb-aa5f-2b5414bedba8","019ceff9-9f67-7034-9722-02cda2445e09","","null","
                <div class=""stimulus-container"">
                    <img src=""images/causal_sequence/the_performance_causal/the_performance_causal_3.png"" class=""exp-image"">
                    <div class=""question-area""></div> 
                </div>","null","","","","","","","","",""
"","","","","","html-button-response","22","310824","0.0-22.0","E3FF85E926E2443B9E58D65441890834","019cf031-045f-7adb-aa5f-2b5414bedba8","019ceff9-9f67-7034-9722-02cda2445e09","","1146","
                <div class=""stimulus-container"">
                    <img src=""images/causal_sequence/the_performance_causal/the_performance_causal_3.png"" class=""exp-image"">
                    <div class=""question-area"">
                        <p style=""font-size: 20px; font-weight: bold; margin: 0;"">Is there a person in this image?</p>
                    </div>
                </div>","0","main_experiment_trial","3","the_performance_causal","causal_sequence","","","","",""
"","","","","","html-keyboard-response","23","315831","0.0-23.0","E3FF85E926E2443B9E58D65441890834","019cf031-045f-7adb-aa5f-2b5414bedba8","019ceff9-9f67-7034-9722-02cda2445e09","","null","
                <div class=""stimulus-container"">
                    <img src=""images/causal_sequence/the_performance_causal/the_performance_causal_4.png"" class=""exp-image"">
                    <div class=""question-area""></div> 
                </div>","null","","","","","","","","",""
"","","","","","html-button-response","24","317328","0.0-24.0","E3FF85E926E2443B9E58D65441890834","019cf031-045f-7adb-aa5f-2b5414bedba8","019ceff9-9f67-7034-9722-02cda2445e09","","1496","
                <div class=""stimulus-container"">
                    <img src=""images/causal_sequence/the_performance_causal/the_performance_causal_4.png"" class=""exp-image"">
                    <div class=""question-area"">
                        <p style=""font-size: 20px; font-weight: bold; margin: 0;"">Is there a person in this image?</p>
                    </div>
                </div>","0","main_experiment_trial","4","the_performance_causal","causal_sequence","","","","",""
"","","","","","html-keyboard-response","25","322340","0.0-25.0","E3FF85E926E2443B9E58D65441890834","019cf031-045f-7adb-aa5f-2b5414bedba8","019ceff9-9f67-7034-9722-02cda2445e09","","null","
                <div class=""stimulus-container"">
                    <img src=""images/causal_sequence/the_performance_causal/the_performance_causal_5.png"" class=""exp-image"">
                    <div class=""question-area""></div> 
                </div>","null","","","","","","","","",""
"","","","","","html-button-response","26","323640","0.0-26.0","E3FF85E926E2443B9E58D65441890834","019cf031-045f-7adb-aa5f-2b5414bedba8","019ceff9-9f67-7034-9722-02cda2445e09","","1298","
                <div class=""stimulus-container"">
                    <img src=""images/causal_sequence/the_performance_causal/the_performance_causal_5.png"" class=""exp-image"">
                    <div class=""question-area"">
                        <p style=""font-size: 20px; font-weight: bold; margin: 0;"">Is there a person in this image?</p>
                    </div>
                </div>","0","main_experiment_trial","5","the_performance_causal","causal_sequence","","","","",""
"","","","","","html-keyboard-response","27","328652","0.0-27.0","E3FF85E926E2443B9E58D65441890834","019cf031-045f-7adb-aa5f-2b5414bedba8","019ceff9-9f67-7034-9722-02cda2445e09","","null","
                <div class=""stimulus-container"">
                    <img src=""images/causal_sequence/the_performance_causal/the_performance_causal_6.png"" class=""exp-image"">
                    <div class=""question-area""></div> 
                </div>","null","","","","","","","","",""
"","","","","","html-button-response","28","329760","0.0-28.0","E3FF85E926E2443B9E58D65441890834","019cf031-045f-7adb-aa5f-2b5414bedba8","019ceff9-9f67-7034-9722-02cda2445e09","","1106","
                <div class=""stimulus-container"">
                    <img src=""images/causal_sequence/the_performance_causal/the_performance_causal_6.png"" class=""exp-image"">
                    <div class=""question-area"">
                        <p style=""font-size: 20px; font-weight: bold; margin: 0;"">Is there a person in this image?</p>
                    </div>
                </div>","0","main_experiment_trial","6","the_performance_causal","causal_sequence","","","","",""
"","","","","","html-keyboard-response","29","334768","0.0-29.0","E3FF85E926E2443B9E58D65441890834","019cf031-045f-7adb-aa5f-2b5414bedba8","019ceff9-9f67-7034-9722-02cda2445e09","","null","
                <div class=""stimulus-container"">
                    <img src=""images/causal_sequence/the_performance_causal/the_performance_causal_7.png"" class=""exp-image"">
                    <div class=""question-area""></div> 
                </div>","null","","","","","","","","",""
"","","","","","html-button-response","30","337781","0.0-30.0","E3FF85E926E2443B9E58D65441890834","019cf031-045f-7adb-aa5f-2b5414bedba8","019ceff9-9f67-7034-9722-02cda2445e09","","null","
                <div class=""stimulus-container"">
                    <img src=""images/causal_sequence/the_performance_causal/the_performance_causal_7.png"" class=""exp-image"">
                    <div class=""question-area"">
                        <p style=""font-size: 20px; font-weight: bold; margin: 0;"">Is there a person in this image?</p>
                    </div>
                </div>","null","main_experiment_trial","7","the_performance_causal","causal_sequence","","","","",""
"","","","","","html-keyboard-response","31","342795","0.0-31.0","E3FF85E926E2443B9E58D65441890834","019cf031-045f-7adb-aa5f-2b5414bedba8","019ceff9-9f67-7034-9722-02cda2445e09","","null","
                <div class=""stimulus-container"">
                    <img src=""images/causal_sequence/the_performance_causal/the_performance_causal_8.png"" class=""exp-image"">
                    <div class=""question-area""></div> 
                </div>","null","","","","","","","","",""
"","","","","","html-button-response","32","345799","0.0-32.0","E3FF85E926E2443B9E58D65441890834","019cf031-045f-7adb-aa5f-2b5414bedba8","019ceff9-9f67-7034-9722-02cda2445e09","","null","
                <div class=""stimulus-container"">
                    <img src=""images/causal_sequence/the_performance_causal/the_performance_causal_8.png"" class=""exp-image"">
                    <div class=""question-area"">
                        <p style=""font-size: 20px; font-weight: bold; margin: 0;"">Is there a person in this image?</p>
                    </div>
                </div>","null","main_experiment_trial","8","the_performance_causal","causal_sequence","","","","",""
"","","","","","html-keyboard-response","33","350809","0.0-33.0","E3FF85E926E2443B9E58D65441890834","019cf031-045f-7adb-aa5f-2b5414bedba8","019ceff9-9f67-7034-9722-02cda2445e09","","null","
                <div class=""stimulus-container"">
                    <img src=""images/causal_sequence/the_performance_causal/the_performance_causal_9.png"" class=""exp-image"">
                    <div class=""question-area""></div> 
                </div>","null","","","","","","","","",""
"","","","","","html-button-response","34","353810","0.0-34.0","E3FF85E926E2443B9E58D65441890834","019cf031-045f-7adb-aa5f-2b5414bedba8","019ceff9-9f67-7034-9722-02cda2445e09","","null","
                <div class=""stimulus-container"">
                    <img src=""images/causal_sequence/the_performance_causal/the_performance_causal_9.png"" class=""exp-image"">
                    <div class=""question-area"">
                        <p style=""font-size: 20px; font-weight: bold; margin: 0;"">Is there a person in this image?</p>
                    </div>
                </div>","null","main_experiment_trial","9","the_performance_causal","causal_sequence","","","","",""
"","","","","","html-keyboard-response","35","358811","0.0-35.0","E3FF85E926E2443B9E58D65441890834","019cf031-045f-7adb-aa5f-2b5414bedba8","019ceff9-9f67-7034-9722-02cda2445e09","","null","
                <div class=""stimulus-container"">
                    <img src=""images/causal_sequence/the_performance_causal/the_performance_causal_ten.png"" class=""exp-image"">
                    <div class=""question-area""></div> 
                </div>","null","","","","","","","","",""
"","","","","","html-button-response","36","360840","0.0-36.0","E3FF85E926E2443B9E58D65441890834","019cf031-045f-7adb-aa5f-2b5414bedba8","019ceff9-9f67-7034-9722-02cda2445e09","","2028","
                <div class=""stimulus-container"">
                    <img src=""images/causal_sequence/the_performance_causal/the_performance_causal_ten.png"" class=""exp-image"">
                    <div class=""question-area"">
                        <p style=""font-size: 20px; font-weight: bold; margin: 0;"">Is there a person in this image?</p>
                    </div>
                </div>","0","main_experiment_trial","ten","the_performance_causal","causal_sequence","","","","",""
"","","","","","html-keyboard-response","37","361842","0.0-37.0","E3FF85E926E2443B9E58D65441890834","019cf031-045f-7adb-aa5f-2b5414bedba8","019ceff9-9f67-7034-9722-02cda2445e09","","null","<div style=""background-color: white; width: 100vw; height: 100vh;""></div>","null","","","","","","","","",""
"","","","","","html-keyboard-response","38","366849","0.0-38.0","E3FF85E926E2443B9E58D65441890834","019cf031-045f-7adb-aa5f-2b5414bedba8","019ceff9-9f67-7034-9722-02cda2445e09","","null","
                <div class=""stimulus-container"">
                    <img src=""images/causal_sequence/coin_causal/coin_causal_1.png"" class=""exp-image"">
                    <div class=""question-area""></div> 
                </div>","null","","","","","","","","",""
"","","","","","html-button-response","39","368016","0.0-39.0","E3FF85E926E2443B9E58D65441890834","019cf031-045f-7adb-aa5f-2b5414bedba8","019ceff9-9f67-7034-9722-02cda2445e09","","1167","
                <div class=""stimulus-container"">
                    <img src=""images/causal_sequence/coin_causal/coin_causal_1.png"" class=""exp-image"">
                    <div class=""question-area"">
                        <p style=""font-size: 20px; font-weight: bold; margin: 0;"">Is there a person in this image?</p>
                    </div>
                </div>","0","main_experiment_trial","1","coin_causal","causal_sequence","","","","",""
"","","","","","html-keyboard-response","40","373020","0.0-40.0","E3FF85E926E2443B9E58D65441890834","019cf031-045f-7adb-aa5f-2b5414bedba8","019ceff9-9f67-7034-9722-02cda2445e09","","null","
                <div class=""stimulus-container"">
                    <img src=""images/causal_sequence/coin_causal/coin_causal_2.png"" class=""exp-image"">
                    <div class=""question-area""></div> 
                </div>","null","","","","","","","","",""
"","","","","","html-button-response","41","374392","0.0-41.0","E3FF85E926E2443B9E58D65441890834","019cf031-045f-7adb-aa5f-2b5414bedba8","019ceff9-9f67-7034-9722-02cda2445e09","","1369","
                <div class=""stimulus-container"">
                    <img src=""images/causal_sequence/coin_causal/coin_causal_2.png"" class=""exp-image"">
                    <div class=""question-area"">
                        <p style=""font-size: 20px; font-weight: bold; margin: 0;"">Is there a person in this image?</p>
                    </div>
                </div>","0","main_experiment_trial","2","coin_causal","causal_sequence","","","","",""
"","","","","","html-keyboard-response","42","379398","0.0-42.0","E3FF85E926E2443B9E58D65441890834","019cf031-045f-7adb-aa5f-2b5414bedba8","019ceff9-9f67-7034-9722-02cda2445e09","","null","
                <div class=""stimulus-container"">
                    <img src=""images/causal_sequence/coin_causal/coin_causal_3.png"" class=""exp-image"">
                    <div class=""question-area""></div> 
                </div>","null","","","","","","","","",""
"","","","","","html-button-response","43","382402","0.0-43.0","E3FF85E926E2443B9E58D65441890834","019cf031-045f-7adb-aa5f-2b5414bedba8","019ceff9-9f67-7034-9722-02cda2445e09","","null","
                <div class=""stimulus-container"">
                    <img src=""images/causal_sequence/coin_causal/coin_causal_3.png"" class=""exp-image"">
                    <div class=""question-area"">
                        <p style=""font-size: 20px; font-weight: bold; margin: 0;"">Is there a person in this image?</p>
                    </div>
                </div>","null","main_experiment_trial","3","coin_causal","causal_sequence","","","","",""
"","","","","","html-keyboard-response","44","387403","0.0-44.0","E3FF85E926E2443B9E58D65441890834","019cf031-045f-7adb-aa5f-2b5414bedba8","019ceff9-9f67-7034-9722-02cda2445e09","","null","
                <div class=""stimulus-container"">
                    <img src=""images/causal_sequence/coin_causal/coin_causal_4.png"" class=""exp-image"">
                    <div class=""question-area""></div> 
                </div>","null","","","","","","","","",""
"","","","","","html-button-response","45","388312","0.0-45.0","E3FF85E926E2443B9E58D65441890834","019cf031-045f-7adb-aa5f-2b5414bedba8","019ceff9-9f67-7034-9722-02cda2445e09","","908","
                <div class=""stimulus-container"">
                    <img src=""images/causal_sequence/coin_causal/coin_causal_4.png"" class=""exp-image"">
                    <div class=""question-area"">
                        <p style=""font-size: 20px; font-weight: bold; margin: 0;"">Is there a person in this image?</p>
                    </div>
                </div>","0","main_experiment_trial","4","coin_causal","causal_sequence","","","","",""
"","","","","","html-keyboard-response","46","393312","0.0-46.0","E3FF85E926E2443B9E58D65441890834","019cf031-045f-7adb-aa5f-2b5414bedba8","019ceff9-9f67-7034-9722-02cda2445e09","","null","
                <div class=""stimulus-container"">
                    <img src=""images/causal_sequence/coin_causal/coin_causal_5.png"" class=""exp-image"">
                    <div class=""question-area""></div> 
                </div>","null","","","","","","","","",""
"","","","","","html-button-response","47","394272","0.0-47.0","E3FF85E926E2443B9E58D65441890834","019cf031-045f-7adb-aa5f-2b5414bedba8","019ceff9-9f67-7034-9722-02cda2445e09","","958","
                <div class=""stimulus-container"">
                    <img src=""images/causal_sequence/coin_causal/coin_causal_5.png"" class=""exp-image"">
                    <div class=""question-area"">
                        <p style=""font-size: 20px; font-weight: bold; margin: 0;"">Is there a person in this image?</p>
                    </div>
                </div>","0","main_experiment_trial","5","coin_causal","causal_sequence","","","","",""
"","","","","","html-keyboard-response","48","399276","0.0-48.0","E3FF85E926E2443B9E58D65441890834","019cf031-045f-7adb-aa5f-2b5414bedba8","019ceff9-9f67-7034-9722-02cda2445e09","","null","
                <div class=""stimulus-container"">
                    <img src=""images/causal_sequence/coin_causal/coin_causal_6.png"" class=""exp-image"">
                    <div class=""question-area""></div> 
                </div>","null","","","","","","","","",""
"","","","","","html-button-response","49","402279","0.0-49.0","E3FF85E926E2443B9E58D65441890834","019cf031-045f-7adb-aa5f-2b5414bedba8","019ceff9-9f67-7034-9722-02cda2445e09","","null","
                <div class=""stimulus-container"">
                    <img src=""images/causal_sequence/coin_causal/coin_causal_6.png"" class=""exp-image"">
                    <div class=""question-area"">
                        <p style=""font-size: 20px; font-weight: bold; margin: 0;"">Is there a person in this image?</p>
                    </div>
                </div>","null","main_experiment_trial","6","coin_causal","causal_sequence","","","","",""
"","","","","","html-keyboard-response","50","407286","0.0-50.0","E3FF85E926E2443B9E58D65441890834","019cf031-045f-7adb-aa5f-2b5414bedba8","019ceff9-9f67-7034-9722-02cda2445e09","","null","
                <div class=""stimulus-container"">
                    <img src=""images/causal_sequence/coin_causal/coin_causal_7.png"" class=""exp-image"">
                    <div class=""question-area""></div> 
                </div>","null","","","","","","","","",""
"","","","","","html-button-response","51","409752","0.0-51.0","E3FF85E926E2443B9E58D65441890834","019cf031-045f-7adb-aa5f-2b5414bedba8","019ceff9-9f67-7034-9722-02cda2445e09","","2465","
                <div class=""stimulus-container"">
                    <img src=""images/causal_sequence/coin_causal/coin_causal_7.png"" class=""exp-image"">
                    <div class=""question-area"">
                        <p style=""font-size: 20px; font-weight: bold; margin: 0;"">Is there a person in this image?</p>
                    </div>
                </div>","1","main_experiment_trial","7","coin_causal","causal_sequence","","","","",""
"","","","","","html-keyboard-response","52","414753","0.0-52.0","E3FF85E926E2443B9E58D65441890834","019cf031-045f-7adb-aa5f-2b5414bedba8","019ceff9-9f67-7034-9722-02cda2445e09","","null","
                <div class=""stimulus-container"">
                    <img src=""images/causal_sequence/coin_causal/coin_causal_8.png"" class=""exp-image"">
                    <div class=""question-area""></div> 
                </div>","null","","","","","","","","",""
"","","","","","html-button-response","53","415928","0.0-53.0","E3FF85E926E2443B9E58D65441890834","019cf031-045f-7adb-aa5f-2b5414bedba8","019ceff9-9f67-7034-9722-02cda2445e09","","1173","
                <div class=""stimulus-container"">
                    <img src=""images/causal_sequence/coin_causal/coin_causal_8.png"" class=""exp-image"">
                    <div class=""question-area"">
                        <p style=""font-size: 20px; font-weight: bold; margin: 0;"">Is there a person in this image?</p>
                    </div>
                </div>","0","main_experiment_trial","8","coin_causal","causal_sequence","","","","",""
"","","","","","html-keyboard-response","54","420930","0.0-54.0","E3FF85E926E2443B9E58D65441890834","019cf031-045f-7adb-aa5f-2b5414bedba8","019ceff9-9f67-7034-9722-02cda2445e09","","null","
                <div class=""stimulus-container"">
                    <img src=""images/causal_sequence/coin_causal/coin_causal_9.png"" class=""exp-image"">
                    <div class=""question-area""></div> 
                </div>","null","","","","","","","","",""
"","","","","","html-button-response","55","421816","0.0-55.0","E3FF85E926E2443B9E58D65441890834","019cf031-045f-7adb-aa5f-2b5414bedba8","019ceff9-9f67-7034-9722-02cda2445e09","","885","
                <div class=""stimulus-container"">
                    <img src=""images/causal_sequence/coin_causal/coin_causal_9.png"" class=""exp-image"">
                    <div class=""question-area"">
                        <p style=""font-size: 20px; font-weight: bold; margin: 0;"">Is there a person in this image?</p>
                    </div>
                </div>","0","main_experiment_trial","9","coin_causal","causal_sequence","","","","",""
"","","","","","html-keyboard-response","56","426821","0.0-56.0","E3FF85E926E2443B9E58D65441890834","019cf031-045f-7adb-aa5f-2b5414bedba8","019ceff9-9f67-7034-9722-02cda2445e09","","null","
                <div class=""stimulus-container"">
                    <img src=""images/causal_sequence/coin_causal/coin_causal_ten.png"" class=""exp-image"">
                    <div class=""question-area""></div> 
                </div>","null","","","","","","","","",""
"","","","","","html-button-response","57","428200","0.0-57.0","E3FF85E926E2443B9E58D65441890834","019cf031-045f-7adb-aa5f-2b5414bedba8","019ceff9-9f67-7034-9722-02cda2445e09","","1379","
                <div class=""stimulus-container"">
                    <img src=""images/causal_sequence/coin_causal/coin_causal_ten.png"" class=""exp-image"">
                    <div class=""question-area"">
                        <p style=""font-size: 20px; font-weight: bold; margin: 0;"">Is there a person in this image?</p>
                    </div>
                </div>","0","main_experiment_trial","ten","coin_causal","causal_sequence","","","","",""
"","","","","","html-keyboard-response","58","429205","0.0-58.0","E3FF85E926E2443B9E58D65441890834","019cf031-045f-7adb-aa5f-2b5414bedba8","019ceff9-9f67-7034-9722-02cda2445e09","","null","<div style=""background-color: white; width: 100vw; height: 100vh;""></div>","null","","","","","","","","",""
"","","","","","html-keyboard-response","59","434206","0.0-59.0","E3FF85E926E2443B9E58D65441890834","019cf031-045f-7adb-aa5f-2b5414bedba8","019ceff9-9f67-7034-9722-02cda2445e09","","null","
                <div class=""stimulus-container"">
                    <img src=""images/schematic_sequence/supermarket_scheme/supermarket_scheme_1.png"" class=""exp-image"">
                    <div class=""question-area""></div> 
                </div>","null","","","","","","","","",""
"","","","","","html-button-response","60","435728","0.0-60.0","E3FF85E926E2443B9E58D65441890834","019cf031-045f-7adb-aa5f-2b5414bedba8","019ceff9-9f67-7034-9722-02cda2445e09","","1520","
                <div class=""stimulus-container"">
                    <img src=""images/schematic_sequence/supermarket_scheme/supermarket_scheme_1.png"" class=""exp-image"">
                    <div class=""question-area"">
                        <p style=""font-size: 20px; font-weight: bold; margin: 0;"">Is there a person in this image?</p>
                    </div>
                </div>","1","main_experiment_trial","1","supermarket_scheme","schematic_sequence","","","","",""
"","","","","","html-keyboard-response","61","440742","0.0-61.0","E3FF85E926E2443B9E58D65441890834","019cf031-045f-7adb-aa5f-2b5414bedba8","019ceff9-9f67-7034-9722-02cda2445e09","","null","
                <div class=""stimulus-container"">
                    <img src=""images/schematic_sequence/supermarket_scheme/supermarket_scheme_2.png"" class=""exp-image"">
                    <div class=""question-area""></div> 
                </div>","null","","","","","","","","",""
"","","","","","html-button-response","62","442072","0.0-62.0","E3FF85E926E2443B9E58D65441890834","019cf031-045f-7adb-aa5f-2b5414bedba8","019ceff9-9f67-7034-9722-02cda2445e09","","1328","
                <div class=""stimulus-container"">
                    <img src=""images/schematic_sequence/supermarket_scheme/supermarket_scheme_2.png"" class=""exp-image"">
                    <div class=""question-area"">
                        <p style=""font-size: 20px; font-weight: bold; margin: 0;"">Is there a person in this image?</p>
                    </div>
                </div>","1","main_experiment_trial","2","supermarket_scheme","schematic_sequence","","","","",""
"","","","","","html-keyboard-response","63","447080","0.0-63.0","E3FF85E926E2443B9E58D65441890834","019cf031-045f-7adb-aa5f-2b5414bedba8","019ceff9-9f67-7034-9722-02cda2445e09","","null","
                <div class=""stimulus-container"">
                    <img src=""images/schematic_sequence/supermarket_scheme/supermarket_scheme_3.png"" class=""exp-image"">
                    <div class=""question-area""></div> 
                </div>","null","","","","","","","","",""
"","","","","","html-button-response","64","449432","0.0-64.0","E3FF85E926E2443B9E58D65441890834","019cf031-045f-7adb-aa5f-2b5414bedba8","019ceff9-9f67-7034-9722-02cda2445e09","","2351","
                <div class=""stimulus-container"">
                    <img src=""images/schematic_sequence/supermarket_scheme/supermarket_scheme_3.png"" class=""exp-image"">
                    <div class=""question-area"">
                        <p style=""font-size: 20px; font-weight: bold; margin: 0;"">Is there a person in this image?</p>
                    </div>
                </div>","1","main_experiment_trial","3","supermarket_scheme","schematic_sequence","","","","",""
"","","","","","html-keyboard-response","65","454447","0.0-65.0","E3FF85E926E2443B9E58D65441890834","019cf031-045f-7adb-aa5f-2b5414bedba8","019ceff9-9f67-7034-9722-02cda2445e09","","null","
                <div class=""stimulus-container"">
                    <img src=""images/schematic_sequence/supermarket_scheme/supermarket_scheme_4.png"" class=""exp-image"">
                    <div class=""question-area""></div> 
                </div>","null","","","","","","","","",""
"","","","","","html-button-response","66","455791","0.0-66.0","E3FF85E926E2443B9E58D65441890834","019cf031-045f-7adb-aa5f-2b5414bedba8","019ceff9-9f67-7034-9722-02cda2445e09","","1342","
                <div class=""stimulus-container"">
                    <img src=""images/schematic_sequence/supermarket_scheme/supermarket_scheme_4.png"" class=""exp-image"">
                    <div class=""question-area"">
                        <p style=""font-size: 20px; font-weight: bold; margin: 0;"">Is there a person in this image?</p>
                    </div>
                </div>","0","main_experiment_trial","4","supermarket_scheme","schematic_sequence","","","","",""
"","","","","","html-keyboard-response","67","460799","0.0-67.0","E3FF85E926E2443B9E58D65441890834","019cf031-045f-7adb-aa5f-2b5414bedba8","019ceff9-9f67-7034-9722-02cda2445e09","","null","
                <div class=""stimulus-container"">
                    <img src=""images/schematic_sequence/supermarket_scheme/supermarket_scheme_5.png"" class=""exp-image"">
                    <div class=""question-area""></div> 
                </div>","null","","","","","","","","",""
"","","","","","html-button-response","68","462408","0.0-68.0","E3FF85E926E2443B9E58D65441890834","019cf031-045f-7adb-aa5f-2b5414bedba8","019ceff9-9f67-7034-9722-02cda2445e09","","1608","
                <div class=""stimulus-container"">
                    <img src=""images/schematic_sequence/supermarket_scheme/supermarket_scheme_5.png"" class=""exp-image"">
                    <div class=""question-area"">
                        <p style=""font-size: 20px; font-weight: bold; margin: 0;"">Is there a person in this image?</p>
                    </div>
                </div>","1","main_experiment_trial","5","supermarket_scheme","schematic_sequence","","","","",""
"","","","","","html-keyboard-response","69","467412","0.0-69.0","E3FF85E926E2443B9E58D65441890834","019cf031-045f-7adb-aa5f-2b5414bedba8","019ceff9-9f67-7034-9722-02cda2445e09","","null","
                <div class=""stimulus-container"">
                    <img src=""images/schematic_sequence/supermarket_scheme/supermarket_scheme_6.png"" class=""exp-image"">
                    <div class=""question-area""></div> 
                </div>","null","","","","","","","","",""
"","","","","","html-button-response","70","468432","0.0-70.0","E3FF85E926E2443B9E58D65441890834","019cf031-045f-7adb-aa5f-2b5414bedba8","019ceff9-9f67-7034-9722-02cda2445e09","","1019","
                <div class=""stimulus-container"">
                    <img src=""images/schematic_sequence/supermarket_scheme/supermarket_scheme_6.png"" class=""exp-image"">
                    <div class=""question-area"">
                        <p style=""font-size: 20px; font-weight: bold; margin: 0;"">Is there a person in this image?</p>
                    </div>
                </div>","0","main_experiment_trial","6","supermarket_scheme","schematic_sequence","","","","",""
"","","","","","html-keyboard-response","71","473434","0.0-71.0","E3FF85E926E2443B9E58D65441890834","019cf031-045f-7adb-aa5f-2b5414bedba8","019ceff9-9f67-7034-9722-02cda2445e09","","null","
                <div class=""stimulus-container"">
                    <img src=""images/schematic_sequence/supermarket_scheme/supermarket_scheme_7.png"" class=""exp-image"">
                    <div class=""question-area""></div> 
                </div>","null","","","","","","","","",""
"","","","","","html-button-response","72","474320","0.0-72.0","E3FF85E926E2443B9E58D65441890834","019cf031-045f-7adb-aa5f-2b5414bedba8","019ceff9-9f67-7034-9722-02cda2445e09","","884","
                <div class=""stimulus-container"">
                    <img src=""images/schematic_sequence/supermarket_scheme/supermarket_scheme_7.png"" class=""exp-image"">
                    <div class=""question-area"">
                        <p style=""font-size: 20px; font-weight: bold; margin: 0;"">Is there a person in this image?</p>
                    </div>
                </div>","0","main_experiment_trial","7","supermarket_scheme","schematic_sequence","","","","",""
"","","","","","html-keyboard-response","73","479322","0.0-73.0","E3FF85E926E2443B9E58D65441890834","019cf031-045f-7adb-aa5f-2b5414bedba8","019ceff9-9f67-7034-9722-02cda2445e09","","null","
                <div class=""stimulus-container"">
                    <img src=""images/schematic_sequence/supermarket_scheme/supermarket_scheme_8.png"" class=""exp-image"">
                    <div class=""question-area""></div> 
                </div>","null","","","","","","","","",""
"","","","","","html-button-response","74","480271","0.0-74.0","E3FF85E926E2443B9E58D65441890834","019cf031-045f-7adb-aa5f-2b5414bedba8","019ceff9-9f67-7034-9722-02cda2445e09","","949","
                <div class=""stimulus-container"">
                    <img src=""images/schematic_sequence/supermarket_scheme/supermarket_scheme_8.png"" class=""exp-image"">
                    <div class=""question-area"">
                        <p style=""font-size: 20px; font-weight: bold; margin: 0;"">Is there a person in this image?</p>
                    </div>
                </div>","0","main_experiment_trial","8","supermarket_scheme","schematic_sequence","","","","",""
"","","","","","html-keyboard-response","75","485281","0.0-75.0","E3FF85E926E2443B9E58D65441890834","019cf031-045f-7adb-aa5f-2b5414bedba8","019ceff9-9f67-7034-9722-02cda2445e09","","null","
                <div class=""stimulus-container"">
                    <img src=""images/schematic_sequence/supermarket_scheme/supermarket_scheme_9.png"" class=""exp-image"">
                    <div class=""question-area""></div> 
                </div>","null","","","","","","","","",""
"","","","","","html-button-response","76","486232","0.0-76.0","E3FF85E926E2443B9E58D65441890834","019cf031-045f-7adb-aa5f-2b5414bedba8","019ceff9-9f67-7034-9722-02cda2445e09","","948","
                <div class=""stimulus-container"">
                    <img src=""images/schematic_sequence/supermarket_scheme/supermarket_scheme_9.png"" class=""exp-image"">
                    <div class=""question-area"">
                        <p style=""font-size: 20px; font-weight: bold; margin: 0;"">Is there a person in this image?</p>
                    </div>
                </div>","0","main_experiment_trial","9","supermarket_scheme","schematic_sequence","","","","",""
"","","","","","html-keyboard-response","77","491234","0.0-77.0","E3FF85E926E2443B9E58D65441890834","019cf031-045f-7adb-aa5f-2b5414bedba8","019ceff9-9f67-7034-9722-02cda2445e09","","null","
                <div class=""stimulus-container"">
                    <img src=""images/schematic_sequence/supermarket_scheme/supermarket_scheme_ten.png"" class=""exp-image"">
                    <div class=""question-area""></div> 
                </div>","null","","","","","","","","",""
"","","","","","html-button-response","78","492152","0.0-78.0","E3FF85E926E2443B9E58D65441890834","019cf031-045f-7adb-aa5f-2b5414bedba8","019ceff9-9f67-7034-9722-02cda2445e09","","916","
                <div class=""stimulus-container"">
                    <img src=""images/schematic_sequence/supermarket_scheme/supermarket_scheme_ten.png"" class=""exp-image"">
                    <div class=""question-area"">
                        <p style=""font-size: 20px; font-weight: bold; margin: 0;"">Is there a person in this image?</p>
                    </div>
                </div>","1","main_experiment_trial","ten","supermarket_scheme","schematic_sequence","","","","",""
"","","","","","html-keyboard-response","79","493157","0.0-79.0","E3FF85E926E2443B9E58D65441890834","019cf031-045f-7adb-aa5f-2b5414bedba8","019ceff9-9f67-7034-9722-02cda2445e09","","null","<div style=""background-color: white; width: 100vw; height: 100vh;""></div>","null","","","","","","","","",""
"","","","","","html-keyboard-response","80","498163","0.0-80.0","E3FF85E926E2443B9E58D65441890834","019cf031-045f-7adb-aa5f-2b5414bedba8","019ceff9-9f67-7034-9722-02cda2445e09","","null","
                <div class=""stimulus-container"">
                    <img src=""images/schematic_sequence/hotel_scheme/hotel_scheme_1.png"" class=""exp-image"">
                    <div class=""question-area""></div> 
                </div>","null","","","","","","","","",""
"","","","","","html-button-response","81","499584","0.0-81.0","E3FF85E926E2443B9E58D65441890834","019cf031-045f-7adb-aa5f-2b5414bedba8","019ceff9-9f67-7034-9722-02cda2445e09","","1418","
                <div class=""stimulus-container"">
                    <img src=""images/schematic_sequence/hotel_scheme/hotel_scheme_1.png"" class=""exp-image"">
                    <div class=""question-area"">
                        <p style=""font-size: 20px; font-weight: bold; margin: 0;"">Is there a person in this image?</p>
                    </div>
                </div>","1","main_experiment_trial","1","hotel_scheme","schematic_sequence","","","","",""
"","","","","","html-keyboard-response","82","504586","0.0-82.0","E3FF85E926E2443B9E58D65441890834","019cf031-045f-7adb-aa5f-2b5414bedba8","019ceff9-9f67-7034-9722-02cda2445e09","","null","
                <div class=""stimulus-container"">
                    <img src=""images/schematic_sequence/hotel_scheme/hotel_scheme_2.png"" class=""exp-image"">
                    <div class=""question-area""></div> 
                </div>","null","","","","","","","","",""
"","","","","","html-button-response","83","507592","0.0-83.0","E3FF85E926E2443B9E58D65441890834","019cf031-045f-7adb-aa5f-2b5414bedba8","019ceff9-9f67-7034-9722-02cda2445e09","","null","
                <div class=""stimulus-container"">
                    <img src=""images/schematic_sequence/hotel_scheme/hotel_scheme_2.png"" class=""exp-image"">
                    <div class=""question-area"">
                        <p style=""font-size: 20px; font-weight: bold; margin: 0;"">Is there a person in this image?</p>
                    </div>
                </div>","null","main_experiment_trial","2","hotel_scheme","schematic_sequence","","","","",""
"","","","","","html-keyboard-response","84","512601","0.0-84.0","E3FF85E926E2443B9E58D65441890834","019cf031-045f-7adb-aa5f-2b5414bedba8","019ceff9-9f67-7034-9722-02cda2445e09","","null","
                <div class=""stimulus-container"">
                    <img src=""images/schematic_sequence/hotel_scheme/hotel_scheme_3.png"" class=""exp-image"">
                    <div class=""question-area""></div> 
                </div>","null","","","","","","","","",""
"","","","","","html-button-response","85","513888","0.0-85.0","E3FF85E926E2443B9E58D65441890834","019cf031-045f-7adb-aa5f-2b5414bedba8","019ceff9-9f67-7034-9722-02cda2445e09","","1285","
                <div class=""stimulus-container"">
                    <img src=""images/schematic_sequence/hotel_scheme/hotel_scheme_3.png"" class=""exp-image"">
                    <div class=""question-area"">
                        <p style=""font-size: 20px; font-weight: bold; margin: 0;"">Is there a person in this image?</p>
                    </div>
                </div>","0","main_experiment_trial","3","hotel_scheme","schematic_sequence","","","","",""
"","","","","","html-keyboard-response","86","518899","0.0-86.0","E3FF85E926E2443B9E58D65441890834","019cf031-045f-7adb-aa5f-2b5414bedba8","019ceff9-9f67-7034-9722-02cda2445e09","","null","
                <div class=""stimulus-container"">
                    <img src=""images/schematic_sequence/hotel_scheme/hotel_scheme_4.png"" class=""exp-image"">
                    <div class=""question-area""></div> 
                </div>","null","","","","","","","","",""
"","","","","","html-button-response","87","520280","0.0-87.0","E3FF85E926E2443B9E58D65441890834","019cf031-045f-7adb-aa5f-2b5414bedba8","019ceff9-9f67-7034-9722-02cda2445e09","","1380","
                <div class=""stimulus-container"">
                    <img src=""images/schematic_sequence/hotel_scheme/hotel_scheme_4.png"" class=""exp-image"">
                    <div class=""question-area"">
                        <p style=""font-size: 20px; font-weight: bold; margin: 0;"">Is there a person in this image?</p>
                    </div>
                </div>","1","main_experiment_trial","4","hotel_scheme","schematic_sequence","","","","",""
"","","","","","html-keyboard-response","88","525286","0.0-88.0","E3FF85E926E2443B9E58D65441890834","019cf031-045f-7adb-aa5f-2b5414bedba8","019ceff9-9f67-7034-9722-02cda2445e09","","null","
                <div class=""stimulus-container"">
                    <img src=""images/schematic_sequence/hotel_scheme/hotel_scheme_5.png"" class=""exp-image"">
                    <div class=""question-area""></div> 
                </div>","null","","","","","","","","",""
"","","","","","html-button-response","89","526360","0.0-89.0","E3FF85E926E2443B9E58D65441890834","019cf031-045f-7adb-aa5f-2b5414bedba8","019ceff9-9f67-7034-9722-02cda2445e09","","1072","
                <div class=""stimulus-container"">
                    <img src=""images/schematic_sequence/hotel_scheme/hotel_scheme_5.png"" class=""exp-image"">
                    <div class=""question-area"">
                        <p style=""font-size: 20px; font-weight: bold; margin: 0;"">Is there a person in this image?</p>
                    </div>
                </div>","0","main_experiment_trial","5","hotel_scheme","schematic_sequence","","","","",""
"","","","","","html-keyboard-response","90","531368","0.0-90.0","E3FF85E926E2443B9E58D65441890834","019cf031-045f-7adb-aa5f-2b5414bedba8","019ceff9-9f67-7034-9722-02cda2445e09","","null","
                <div class=""stimulus-container"">
                    <img src=""images/schematic_sequence/hotel_scheme/hotel_scheme_6.png"" class=""exp-image"">
                    <div class=""question-area""></div> 
                </div>","null","","","","","","","","",""
"","","","","","html-button-response","91","533192","0.0-91.0","E3FF85E926E2443B9E58D65441890834","019cf031-045f-7adb-aa5f-2b5414bedba8","019ceff9-9f67-7034-9722-02cda2445e09","","1823","
                <div class=""stimulus-container"">
                    <img src=""images/schematic_sequence/hotel_scheme/hotel_scheme_6.png"" class=""exp-image"">
                    <div class=""question-area"">
                        <p style=""font-size: 20px; font-weight: bold; margin: 0;"">Is there a person in this image?</p>
                    </div>
                </div>","0","main_experiment_trial","6","hotel_scheme","schematic_sequence","","","","",""
"","","","","","html-keyboard-response","92","538198","0.0-92.0","E3FF85E926E2443B9E58D65441890834","019cf031-045f-7adb-aa5f-2b5414bedba8","019ceff9-9f67-7034-9722-02cda2445e09","","null","
                <div class=""stimulus-container"">
                    <img src=""images/schematic_sequence/hotel_scheme/hotel_scheme_7.png"" class=""exp-image"">
                    <div class=""question-area""></div> 
                </div>","null","","","","","","","","",""
"","","","","","html-button-response","93","539160","0.0-93.0","E3FF85E926E2443B9E58D65441890834","019cf031-045f-7adb-aa5f-2b5414bedba8","019ceff9-9f67-7034-9722-02cda2445e09","","960","
                <div class=""stimulus-container"">
                    <img src=""images/schematic_sequence/hotel_scheme/hotel_scheme_7.png"" class=""exp-image"">
                    <div class=""question-area"">
                        <p style=""font-size: 20px; font-weight: bold; margin: 0;"">Is there a person in this image?</p>
                    </div>
                </div>","0","main_experiment_trial","7","hotel_scheme","schematic_sequence","","","","",""
"","","","","","html-keyboard-response","94","544162","0.0-94.0","E3FF85E926E2443B9E58D65441890834","019cf031-045f-7adb-aa5f-2b5414bedba8","019ceff9-9f67-7034-9722-02cda2445e09","","null","
                <div class=""stimulus-container"">
                    <img src=""images/schematic_sequence/hotel_scheme/hotel_scheme_8.png"" class=""exp-image"">
                    <div class=""question-area""></div> 
                </div>","null","","","","","","","","",""
"","","","","","html-button-response","95","545096","0.0-95.0","E3FF85E926E2443B9E58D65441890834","019cf031-045f-7adb-aa5f-2b5414bedba8","019ceff9-9f67-7034-9722-02cda2445e09","","931","
                <div class=""stimulus-container"">
                    <img src=""images/schematic_sequence/hotel_scheme/hotel_scheme_8.png"" class=""exp-image"">
                    <div class=""question-area"">
                        <p style=""font-size: 20px; font-weight: bold; margin: 0;"">Is there a person in this image?</p>
                    </div>
                </div>","0","main_experiment_trial","8","hotel_scheme","schematic_sequence","","","","",""
"","","","","","html-keyboard-response","96","550100","0.0-96.0","E3FF85E926E2443B9E58D65441890834","019cf031-045f-7adb-aa5f-2b5414bedba8","019ceff9-9f67-7034-9722-02cda2445e09","","null","
                <div class=""stimulus-container"">
                    <img src=""images/schematic_sequence/hotel_scheme/hotel_scheme_9.png"" class=""exp-image"">
                    <div class=""question-area""></div> 
                </div>","null","","","","","","","","",""
"","","","","","html-button-response","97","550824","0.0-97.0","E3FF85E926E2443B9E58D65441890834","019cf031-045f-7adb-aa5f-2b5414bedba8","019ceff9-9f67-7034-9722-02cda2445e09","","723","
                <div class=""stimulus-container"">
                    <img src=""images/schematic_sequence/hotel_scheme/hotel_scheme_9.png"" class=""exp-image"">
                    <div class=""question-area"">
                        <p style=""font-size: 20px; font-weight: bold; margin: 0;"">Is there a person in this image?</p>
                    </div>
                </div>","0","main_experiment_trial","9","hotel_scheme","schematic_sequence","","","","",""
"","","","","","html-keyboard-response","98","555832","0.0-98.0","E3FF85E926E2443B9E58D65441890834","019cf031-045f-7adb-aa5f-2b5414bedba8","019ceff9-9f67-7034-9722-02cda2445e09","","null","
                <div class=""stimulus-container"">
                    <img src=""images/schematic_sequence/hotel_scheme/hotel_scheme_ten.png"" class=""exp-image"">
                    <div class=""question-area""></div> 
                </div>","null","","","","","","","","",""
"","","","","","html-button-response","99","556792","0.0-99.0","E3FF85E926E2443B9E58D65441890834","019cf031-045f-7adb-aa5f-2b5414bedba8","019ceff9-9f67-7034-9722-02cda2445e09","","958","
                <div class=""stimulus-container"">
                    <img src=""images/schematic_sequence/hotel_scheme/hotel_scheme_ten.png"" class=""exp-image"">
                    <div class=""question-area"">
                        <p style=""font-size: 20px; font-weight: bold; margin: 0;"">Is there a person in this image?</p>
                    </div>
                </div>","0","main_experiment_trial","ten","hotel_scheme","schematic_sequence","","","","",""
"","","","","","html-keyboard-response","100","557796","0.0-100.0","E3FF85E926E2443B9E58D65441890834","019cf031-045f-7adb-aa5f-2b5414bedba8","019ceff9-9f67-7034-9722-02cda2445e09","","null","<div style=""background-color: white; width: 100vw; height: 100vh;""></div>","null","","","","","","","","",""
"","","","","","html-keyboard-response","101","562802","0.0-101.0","E3FF85E926E2443B9E58D65441890834","019cf031-045f-7adb-aa5f-2b5414bedba8","019ceff9-9f67-7034-9722-02cda2445e09","","null","
                <div class=""stimulus-container"">
                    <img src=""images/causal_sequence/saving_a_cat_causal/saving_a_cat_causal_1.png"" class=""exp-image"">
                    <div class=""question-area""></div> 
                </div>","null","","","","","","","","",""
"","","","","","html-button-response","102","565152","0.0-102.0","E3FF85E926E2443B9E58D65441890834","019cf031-045f-7adb-aa5f-2b5414bedba8","019ceff9-9f67-7034-9722-02cda2445e09","","2349","
                <div class=""stimulus-container"">
                    <img src=""images/causal_sequence/saving_a_cat_causal/saving_a_cat_causal_1.png"" class=""exp-image"">
                    <div class=""question-area"">
                        <p style=""font-size: 20px; font-weight: bold; margin: 0;"">Is there a person in this image?</p>
                    </div>
                </div>","0","main_experiment_trial","1","saving_a_cat_causal","causal_sequence","","","","",""
"","","","","","html-keyboard-response","103","570153","0.0-103.0","E3FF85E926E2443B9E58D65441890834","019cf031-045f-7adb-aa5f-2b5414bedba8","019ceff9-9f67-7034-9722-02cda2445e09","","null","
                <div class=""stimulus-container"">
                    <img src=""images/causal_sequence/saving_a_cat_causal/saving_a_cat_causal_2.png"" class=""exp-image"">
                    <div class=""question-area""></div> 
                </div>","null","","","","","","","","",""
"","","","","","html-button-response","104","571343","0.0-104.0","E3FF85E926E2443B9E58D65441890834","019cf031-045f-7adb-aa5f-2b5414bedba8","019ceff9-9f67-7034-9722-02cda2445e09","","1189","
                <div class=""stimulus-container"">
                    <img src=""images/causal_sequence/saving_a_cat_causal/saving_a_cat_causal_2.png"" class=""exp-image"">
                    <div class=""question-area"">
                        <p style=""font-size: 20px; font-weight: bold; margin: 0;"">Is there a person in this image?</p>
                    </div>
                </div>","1","main_experiment_trial","2","saving_a_cat_causal","causal_sequence","","","","",""
"","","","","","html-keyboard-response","105","576358","0.0-105.0","E3FF85E926E2443B9E58D65441890834","019cf031-045f-7adb-aa5f-2b5414bedba8","019ceff9-9f67-7034-9722-02cda2445e09","","null","
                <div class=""stimulus-container"">
                    <img src=""images/causal_sequence/saving_a_cat_causal/saving_a_cat_causal_3.png"" class=""exp-image"">
                    <div class=""question-area""></div> 
                </div>","null","","","","","","","","",""
"","","","","","html-button-response","106","577544","0.0-106.0","E3FF85E926E2443B9E58D65441890834","019cf031-045f-7adb-aa5f-2b5414bedba8","019ceff9-9f67-7034-9722-02cda2445e09","","1184","
                <div class=""stimulus-container"">
                    <img src=""images/causal_sequence/saving_a_cat_causal/saving_a_cat_causal_3.png"" class=""exp-image"">
                    <div class=""question-area"">
                        <p style=""font-size: 20px; font-weight: bold; margin: 0;"">Is there a person in this image?</p>
                    </div>
                </div>","1","main_experiment_trial","3","saving_a_cat_causal","causal_sequence","","","","",""
"","","","","","html-keyboard-response","107","582557","0.0-107.0","E3FF85E926E2443B9E58D65441890834","019cf031-045f-7adb-aa5f-2b5414bedba8","019ceff9-9f67-7034-9722-02cda2445e09","","null","
                <div class=""stimulus-container"">
                    <img src=""images/causal_sequence/saving_a_cat_causal/saving_a_cat_causal_4.png"" class=""exp-image"">
                    <div class=""question-area""></div> 
                </div>","null","","","","","","","","",""
"","","","","","html-button-response","108","583416","0.0-108.0","E3FF85E926E2443B9E58D65441890834","019cf031-045f-7adb-aa5f-2b5414bedba8","019ceff9-9f67-7034-9722-02cda2445e09","","858","
                <div class=""stimulus-container"">
                    <img src=""images/causal_sequence/saving_a_cat_causal/saving_a_cat_causal_4.png"" class=""exp-image"">
                    <div class=""question-area"">
                        <p style=""font-size: 20px; font-weight: bold; margin: 0;"">Is there a person in this image?</p>
                    </div>
                </div>","0","main_experiment_trial","4","saving_a_cat_causal","causal_sequence","","","","",""
"","","","","","html-keyboard-response","109","588432","0.0-109.0","E3FF85E926E2443B9E58D65441890834","019cf031-045f-7adb-aa5f-2b5414bedba8","019ceff9-9f67-7034-9722-02cda2445e09","","null","
                <div class=""stimulus-container"">
                    <img src=""images/causal_sequence/saving_a_cat_causal/saving_a_cat_causal_5.png"" class=""exp-image"">
                    <div class=""question-area""></div> 
                </div>","null","","","","","","","","",""
"","","","","","html-button-response","110","589535","0.0-110.0","E3FF85E926E2443B9E58D65441890834","019cf031-045f-7adb-aa5f-2b5414bedba8","019ceff9-9f67-7034-9722-02cda2445e09","","1103","
                <div class=""stimulus-container"">
                    <img src=""images/causal_sequence/saving_a_cat_causal/saving_a_cat_causal_5.png"" class=""exp-image"">
                    <div class=""question-area"">
                        <p style=""font-size: 20px; font-weight: bold; margin: 0;"">Is there a person in this image?</p>
                    </div>
                </div>","0","main_experiment_trial","5","saving_a_cat_causal","causal_sequence","","","","",""
"","","","","","html-keyboard-response","111","594551","0.0-111.0","E3FF85E926E2443B9E58D65441890834","019cf031-045f-7adb-aa5f-2b5414bedba8","019ceff9-9f67-7034-9722-02cda2445e09","","null","
                <div class=""stimulus-container"">
                    <img src=""images/causal_sequence/saving_a_cat_causal/saving_a_cat_causal_6.png"" class=""exp-image"">
                    <div class=""question-area""></div> 
                </div>","null","","","","","","","","",""
"","","","","","html-button-response","112","596072","0.0-112.0","E3FF85E926E2443B9E58D65441890834","019cf031-045f-7adb-aa5f-2b5414bedba8","019ceff9-9f67-7034-9722-02cda2445e09","","1519","
                <div class=""stimulus-container"">
                    <img src=""images/causal_sequence/saving_a_cat_causal/saving_a_cat_causal_6.png"" class=""exp-image"">
                    <div class=""question-area"">
                        <p style=""font-size: 20px; font-weight: bold; margin: 0;"">Is there a person in this image?</p>
                    </div>
                </div>","0","main_experiment_trial","6","saving_a_cat_causal","causal_sequence","","","","",""
"","","","","","html-keyboard-response","113","601086","0.0-113.0","E3FF85E926E2443B9E58D65441890834","019cf031-045f-7adb-aa5f-2b5414bedba8","019ceff9-9f67-7034-9722-02cda2445e09","","null","
                <div class=""stimulus-container"">
                    <img src=""images/causal_sequence/saving_a_cat_causal/saving_a_cat_causal_7.png"" class=""exp-image"">
                    <div class=""question-area""></div> 
                </div>","null","","","","","","","","",""
"","","","","","html-button-response","114","602935","0.0-114.0","E3FF85E926E2443B9E58D65441890834","019cf031-045f-7adb-aa5f-2b5414bedba8","019ceff9-9f67-7034-9722-02cda2445e09","","1848","
                <div class=""stimulus-container"">
                    <img src=""images/causal_sequence/saving_a_cat_causal/saving_a_cat_causal_7.png"" class=""exp-image"">
                    <div class=""question-area"">
                        <p style=""font-size: 20px; font-weight: bold; margin: 0;"">Is there a person in this image?</p>
                    </div>
                </div>","0","main_experiment_trial","7","saving_a_cat_causal","causal_sequence","","","","",""
"","","","","","html-keyboard-response","115","607950","0.0-115.0","E3FF85E926E2443B9E58D65441890834","019cf031-045f-7adb-aa5f-2b5414bedba8","019ceff9-9f67-7034-9722-02cda2445e09","","null","
                <div class=""stimulus-container"">
                    <img src=""images/causal_sequence/saving_a_cat_causal/saving_a_cat_causal_8.png"" class=""exp-image"">
                    <div class=""question-area""></div> 
                </div>","null","","","","","","","","",""
"","","","","","html-button-response","116","609136","0.0-116.0","E3FF85E926E2443B9E58D65441890834","019cf031-045f-7adb-aa5f-2b5414bedba8","019ceff9-9f67-7034-9722-02cda2445e09","","1184","
                <div class=""stimulus-container"">
                    <img src=""images/causal_sequence/saving_a_cat_causal/saving_a_cat_causal_8.png"" class=""exp-image"">
                    <div class=""question-area"">
                        <p style=""font-size: 20px; font-weight: bold; margin: 0;"">Is there a person in this image?</p>
                    </div>
                </div>","0","main_experiment_trial","8","saving_a_cat_causal","causal_sequence","","","","",""
"","","","","","html-keyboard-response","117","614139","0.0-117.0","E3FF85E926E2443B9E58D65441890834","019cf031-045f-7adb-aa5f-2b5414bedba8","019ceff9-9f67-7034-9722-02cda2445e09","","null","
                <div class=""stimulus-container"">
                    <img src=""images/causal_sequence/saving_a_cat_causal/saving_a_cat_causal_9.png"" class=""exp-image"">
                    <div class=""question-area""></div> 
                </div>","null","","","","","","","","",""
"","","","","","html-button-response","118","614999","0.0-118.0","E3FF85E926E2443B9E58D65441890834","019cf031-045f-7adb-aa5f-2b5414bedba8","019ceff9-9f67-7034-9722-02cda2445e09","","859","
                <div class=""stimulus-container"">
                    <img src=""images/causal_sequence/saving_a_cat_causal/saving_a_cat_causal_9.png"" class=""exp-image"">
                    <div class=""question-area"">
                        <p style=""font-size: 20px; font-weight: bold; margin: 0;"">Is there a person in this image?</p>
                    </div>
                </div>","0","main_experiment_trial","9","saving_a_cat_causal","causal_sequence","","","","",""
"","","","","","html-keyboard-response","119","620006","0.0-119.0","E3FF85E926E2443B9E58D65441890834","019cf031-045f-7adb-aa5f-2b5414bedba8","019ceff9-9f67-7034-9722-02cda2445e09","","null","
                <div class=""stimulus-container"">
                    <img src=""images/causal_sequence/saving_a_cat_causal/saving_a_cat_causal_ten.png"" class=""exp-image"">
                    <div class=""question-area""></div> 
                </div>","null","","","","","","","","",""
"","","","","","html-button-response","120","620744","0.0-120.0","E3FF85E926E2443B9E58D65441890834","019cf031-045f-7adb-aa5f-2b5414bedba8","019ceff9-9f67-7034-9722-02cda2445e09","","736","
                <div class=""stimulus-container"">
                    <img src=""images/causal_sequence/saving_a_cat_causal/saving_a_cat_causal_ten.png"" class=""exp-image"">
                    <div class=""question-area"">
                        <p style=""font-size: 20px; font-weight: bold; margin: 0;"">Is there a person in this image?</p>
                    </div>
                </div>","0","main_experiment_trial","ten","saving_a_cat_causal","causal_sequence","","","","",""
"","","","","","html-keyboard-response","121","621760","0.0-121.0","E3FF85E926E2443B9E58D65441890834","019cf031-045f-7adb-aa5f-2b5414bedba8","019ceff9-9f67-7034-9722-02cda2445e09","","null","<div style=""background-color: white; width: 100vw; height: 100vh;""></div>","null","","","","","","","","",""
"","","","","","html-keyboard-response","122","626761","0.0-122.0","E3FF85E926E2443B9E58D65441890834","019cf031-045f-7adb-aa5f-2b5414bedba8","019ceff9-9f67-7034-9722-02cda2445e09","","null","
                <div class=""stimulus-container"">
                    <img src=""images/schematic_sequence/restaurant_scheme/restaurant_scheme_1.png"" class=""exp-image"">
                    <div class=""question-area""></div> 
                </div>","null","","","","","","","","",""
"","","","","","html-button-response","123","627632","0.0-123.0","E3FF85E926E2443B9E58D65441890834","019cf031-045f-7adb-aa5f-2b5414bedba8","019ceff9-9f67-7034-9722-02cda2445e09","","870","
                <div class=""stimulus-container"">
                    <img src=""images/schematic_sequence/restaurant_scheme/restaurant_scheme_1.png"" class=""exp-image"">
                    <div class=""question-area"">
                        <p style=""font-size: 20px; font-weight: bold; margin: 0;"">Is there a person in this image?</p>
                    </div>
                </div>","0","main_experiment_trial","1","restaurant_scheme","schematic_sequence","","","","",""
"","","","","","html-keyboard-response","124","632644","0.0-124.0","E3FF85E926E2443B9E58D65441890834","019cf031-045f-7adb-aa5f-2b5414bedba8","019ceff9-9f67-7034-9722-02cda2445e09","","null","
                <div class=""stimulus-container"">
                    <img src=""images/schematic_sequence/restaurant_scheme/restaurant_scheme_2.png"" class=""exp-image"">
                    <div class=""question-area""></div> 
                </div>","null","","","","","","","","",""
"","","","","","html-button-response","125","634343","0.0-125.0","E3FF85E926E2443B9E58D65441890834","019cf031-045f-7adb-aa5f-2b5414bedba8","019ceff9-9f67-7034-9722-02cda2445e09","","1698","
                <div class=""stimulus-container"">
                    <img src=""images/schematic_sequence/restaurant_scheme/restaurant_scheme_2.png"" class=""exp-image"">
                    <div class=""question-area"">
                        <p style=""font-size: 20px; font-weight: bold; margin: 0;"">Is there a person in this image?</p>
                    </div>
                </div>","1","main_experiment_trial","2","restaurant_scheme","schematic_sequence","","","","",""
"","","","","","html-keyboard-response","126","639355","0.0-126.0","E3FF85E926E2443B9E58D65441890834","019cf031-045f-7adb-aa5f-2b5414bedba8","019ceff9-9f67-7034-9722-02cda2445e09","","null","
                <div class=""stimulus-container"">
                    <img src=""images/schematic_sequence/restaurant_scheme/restaurant_scheme_3.png"" class=""exp-image"">
                    <div class=""question-area""></div> 
                </div>","null","","","","","","","","",""
"","","","","","html-button-response","127","640856","0.0-127.0","E3FF85E926E2443B9E58D65441890834","019cf031-045f-7adb-aa5f-2b5414bedba8","019ceff9-9f67-7034-9722-02cda2445e09","","1499","
                <div class=""stimulus-container"">
                    <img src=""images/schematic_sequence/restaurant_scheme/restaurant_scheme_3.png"" class=""exp-image"">
                    <div class=""question-area"">
                        <p style=""font-size: 20px; font-weight: bold; margin: 0;"">Is there a person in this image?</p>
                    </div>
                </div>","1","main_experiment_trial","3","restaurant_scheme","schematic_sequence","","","","",""
"","","","","","html-keyboard-response","128","645859","0.0-128.0","E3FF85E926E2443B9E58D65441890834","019cf031-045f-7adb-aa5f-2b5414bedba8","019ceff9-9f67-7034-9722-02cda2445e09","","null","
                <div class=""stimulus-container"">
                    <img src=""images/schematic_sequence/restaurant_scheme/restaurant_scheme_4.png"" class=""exp-image"">
                    <div class=""question-area""></div> 
                </div>","null","","","","","","","","",""
"","","","","","html-button-response","129","646711","0.0-129.0","E3FF85E926E2443B9E58D65441890834","019cf031-045f-7adb-aa5f-2b5414bedba8","019ceff9-9f67-7034-9722-02cda2445e09","","852","
                <div class=""stimulus-container"">
                    <img src=""images/schematic_sequence/restaurant_scheme/restaurant_scheme_4.png"" class=""exp-image"">
                    <div class=""question-area"">
                        <p style=""font-size: 20px; font-weight: bold; margin: 0;"">Is there a person in this image?</p>
                    </div>
                </div>","0","main_experiment_trial","4","restaurant_scheme","schematic_sequence","","","","",""
"","","","","","html-keyboard-response","130","651725","0.0-130.0","E3FF85E926E2443B9E58D65441890834","019cf031-045f-7adb-aa5f-2b5414bedba8","019ceff9-9f67-7034-9722-02cda2445e09","","null","
                <div class=""stimulus-container"">
                    <img src=""images/schematic_sequence/restaurant_scheme/restaurant_scheme_5.png"" class=""exp-image"">
                    <div class=""question-area""></div> 
                </div>","null","","","","","","","","",""
"","","","","","html-button-response","131","652455","0.0-131.0","E3FF85E926E2443B9E58D65441890834","019cf031-045f-7adb-aa5f-2b5414bedba8","019ceff9-9f67-7034-9722-02cda2445e09","","730","
                <div class=""stimulus-container"">
                    <img src=""images/schematic_sequence/restaurant_scheme/restaurant_scheme_5.png"" class=""exp-image"">
                    <div class=""question-area"">
                        <p style=""font-size: 20px; font-weight: bold; margin: 0;"">Is there a person in this image?</p>
                    </div>
                </div>","0","main_experiment_trial","5","restaurant_scheme","schematic_sequence","","","","",""
"","","","","","html-keyboard-response","132","657458","0.0-132.0","E3FF85E926E2443B9E58D65441890834","019cf031-045f-7adb-aa5f-2b5414bedba8","019ceff9-9f67-7034-9722-02cda2445e09","","null","
                <div class=""stimulus-container"">
                    <img src=""images/schematic_sequence/restaurant_scheme/restaurant_scheme_6.png"" class=""exp-image"">
                    <div class=""question-area""></div> 
                </div>","null","","","","","","","","",""
"","","","","","html-button-response","133","658400","0.0-133.0","E3FF85E926E2443B9E58D65441890834","019cf031-045f-7adb-aa5f-2b5414bedba8","019ceff9-9f67-7034-9722-02cda2445e09","","941","
                <div class=""stimulus-container"">
                    <img src=""images/schematic_sequence/restaurant_scheme/restaurant_scheme_6.png"" class=""exp-image"">
                    <div class=""question-area"">
                        <p style=""font-size: 20px; font-weight: bold; margin: 0;"">Is there a person in this image?</p>
                    </div>
                </div>","1","main_experiment_trial","6","restaurant_scheme","schematic_sequence","","","","",""
"","","","","","html-keyboard-response","134","663401","0.0-134.0","E3FF85E926E2443B9E58D65441890834","019cf031-045f-7adb-aa5f-2b5414bedba8","019ceff9-9f67-7034-9722-02cda2445e09","","null","
                <div class=""stimulus-container"">
                    <img src=""images/schematic_sequence/restaurant_scheme/restaurant_scheme_7.png"" class=""exp-image"">
                    <div class=""question-area""></div> 
                </div>","null","","","","","","","","",""
"","","","","","html-button-response","135","664616","0.0-135.0","E3FF85E926E2443B9E58D65441890834","019cf031-045f-7adb-aa5f-2b5414bedba8","019ceff9-9f67-7034-9722-02cda2445e09","","1214","
                <div class=""stimulus-container"">
                    <img src=""images/schematic_sequence/restaurant_scheme/restaurant_scheme_7.png"" class=""exp-image"">
                    <div class=""question-area"">
                        <p style=""font-size: 20px; font-weight: bold; margin: 0;"">Is there a person in this image?</p>
                    </div>
                </div>","1","main_experiment_trial","7","restaurant_scheme","schematic_sequence","","","","",""
"","","","","","html-keyboard-response","136","669626","0.0-136.0","E3FF85E926E2443B9E58D65441890834","019cf031-045f-7adb-aa5f-2b5414bedba8","019ceff9-9f67-7034-9722-02cda2445e09","","null","
                <div class=""stimulus-container"">
                    <img src=""images/schematic_sequence/restaurant_scheme/restaurant_scheme_8.png"" class=""exp-image"">
                    <div class=""question-area""></div> 
                </div>","null","","","","","","","","",""
"","","","","","html-button-response","137","670888","0.0-137.0","E3FF85E926E2443B9E58D65441890834","019cf031-045f-7adb-aa5f-2b5414bedba8","019ceff9-9f67-7034-9722-02cda2445e09","","1260","
                <div class=""stimulus-container"">
                    <img src=""images/schematic_sequence/restaurant_scheme/restaurant_scheme_8.png"" class=""exp-image"">
                    <div class=""question-area"">
                        <p style=""font-size: 20px; font-weight: bold; margin: 0;"">Is there a person in this image?</p>
                    </div>
                </div>","1","main_experiment_trial","8","restaurant_scheme","schematic_sequence","","","","",""
"","","","","","html-keyboard-response","138","675892","0.0-138.0","E3FF85E926E2443B9E58D65441890834","019cf031-045f-7adb-aa5f-2b5414bedba8","019ceff9-9f67-7034-9722-02cda2445e09","","null","
                <div class=""stimulus-container"">
                    <img src=""images/schematic_sequence/restaurant_scheme/restaurant_scheme_9.png"" class=""exp-image"">
                    <div class=""question-area""></div> 
                </div>","null","","","","","","","","",""
"","","","","","html-button-response","139","676584","0.0-139.0","E3FF85E926E2443B9E58D65441890834","019cf031-045f-7adb-aa5f-2b5414bedba8","019ceff9-9f67-7034-9722-02cda2445e09","","691","
                <div class=""stimulus-container"">
                    <img src=""images/schematic_sequence/restaurant_scheme/restaurant_scheme_9.png"" class=""exp-image"">
                    <div class=""question-area"">
                        <p style=""font-size: 20px; font-weight: bold; margin: 0;"">Is there a person in this image?</p>
                    </div>
                </div>","0","main_experiment_trial","9","restaurant_scheme","schematic_sequence","","","","",""
"","","","","","html-keyboard-response","140","681585","0.0-140.0","E3FF85E926E2443B9E58D65441890834","019cf031-045f-7adb-aa5f-2b5414bedba8","019ceff9-9f67-7034-9722-02cda2445e09","","null","
                <div class=""stimulus-container"">
                    <img src=""images/schematic_sequence/restaurant_scheme/restaurant_scheme_ten.png"" class=""exp-image"">
                    <div class=""question-area""></div> 
                </div>","null","","","","","","","","",""
"","","","","","html-button-response","141","682512","0.0-141.0","E3FF85E926E2443B9E58D65441890834","019cf031-045f-7adb-aa5f-2b5414bedba8","019ceff9-9f67-7034-9722-02cda2445e09","","926","
                <div class=""stimulus-container"">
                    <img src=""images/schematic_sequence/restaurant_scheme/restaurant_scheme_ten.png"" class=""exp-image"">
                    <div class=""question-area"">
                        <p style=""font-size: 20px; font-weight: bold; margin: 0;"">Is there a person in this image?</p>
                    </div>
                </div>","0","main_experiment_trial","ten","restaurant_scheme","schematic_sequence","","","","",""
"","","","","","html-keyboard-response","142","683516","0.0-142.0","E3FF85E926E2443B9E58D65441890834","019cf031-045f-7adb-aa5f-2b5414bedba8","019ceff9-9f67-7034-9722-02cda2445e09","","null","<div style=""background-color: white; width: 100vw; height: 100vh;""></div>","null","","","","","","","","",""
"","","","","","html-keyboard-response","143","688532","0.0-143.0","E3FF85E926E2443B9E58D65441890834","019cf031-045f-7adb-aa5f-2b5414bedba8","019ceff9-9f67-7034-9722-02cda2445e09","","null","
                <div class=""stimulus-container"">
                    <img src=""images/schematic_sequence/flight_scheme/flight_scheme_1.png"" class=""exp-image"">
                    <div class=""question-area""></div> 
                </div>","null","","","","","","","","",""
"","","","","","html-button-response","144","690256","0.0-144.0","E3FF85E926E2443B9E58D65441890834","019cf031-045f-7adb-aa5f-2b5414bedba8","019ceff9-9f67-7034-9722-02cda2445e09","","1722","
                <div class=""stimulus-container"">
                    <img src=""images/schematic_sequence/flight_scheme/flight_scheme_1.png"" class=""exp-image"">
                    <div class=""question-area"">
                        <p style=""font-size: 20px; font-weight: bold; margin: 0;"">Is there a person in this image?</p>
                    </div>
                </div>","0","main_experiment_trial","1","flight_scheme","schematic_sequence","","","","",""
"","","","","","html-keyboard-response","145","695257","0.0-145.0","E3FF85E926E2443B9E58D65441890834","019cf031-045f-7adb-aa5f-2b5414bedba8","019ceff9-9f67-7034-9722-02cda2445e09","","null","
                <div class=""stimulus-container"">
                    <img src=""images/schematic_sequence/flight_scheme/flight_scheme_2.png"" class=""exp-image"">
                    <div class=""question-area""></div> 
                </div>","null","","","","","","","","",""
"","","","","","html-button-response","146","696880","0.0-146.0","E3FF85E926E2443B9E58D65441890834","019cf031-045f-7adb-aa5f-2b5414bedba8","019ceff9-9f67-7034-9722-02cda2445e09","","1622","
                <div class=""stimulus-container"">
                    <img src=""images/schematic_sequence/flight_scheme/flight_scheme_2.png"" class=""exp-image"">
                    <div class=""question-area"">
                        <p style=""font-size: 20px; font-weight: bold; margin: 0;"">Is there a person in this image?</p>
                    </div>
                </div>","1","main_experiment_trial","2","flight_scheme","schematic_sequence","","","","",""
"","","","","","html-keyboard-response","147","701883","0.0-147.0","E3FF85E926E2443B9E58D65441890834","019cf031-045f-7adb-aa5f-2b5414bedba8","019ceff9-9f67-7034-9722-02cda2445e09","","null","
                <div class=""stimulus-container"">
                    <img src=""images/schematic_sequence/flight_scheme/flight_scheme_3.png"" class=""exp-image"">
                    <div class=""question-area""></div> 
                </div>","null","","","","","","","","",""
"","","","","","html-button-response","148","704890","0.0-148.0","E3FF85E926E2443B9E58D65441890834","019cf031-045f-7adb-aa5f-2b5414bedba8","019ceff9-9f67-7034-9722-02cda2445e09","","null","
                <div class=""stimulus-container"">
                    <img src=""images/schematic_sequence/flight_scheme/flight_scheme_3.png"" class=""exp-image"">
                    <div class=""question-area"">
                        <p style=""font-size: 20px; font-weight: bold; margin: 0;"">Is there a person in this image?</p>
                    </div>
                </div>","null","main_experiment_trial","3","flight_scheme","schematic_sequence","","","","",""
"","","","","","html-keyboard-response","149","709896","0.0-149.0","E3FF85E926E2443B9E58D65441890834","019cf031-045f-7adb-aa5f-2b5414bedba8","019ceff9-9f67-7034-9722-02cda2445e09","","null","
                <div class=""stimulus-container"">
                    <img src=""images/schematic_sequence/flight_scheme/flight_scheme_4.png"" class=""exp-image"">
                    <div class=""question-area""></div> 
                </div>","null","","","","","","","","",""
"","","","","","html-button-response","150","712909","0.0-150.0","E3FF85E926E2443B9E58D65441890834","019cf031-045f-7adb-aa5f-2b5414bedba8","019ceff9-9f67-7034-9722-02cda2445e09","","null","
                <div class=""stimulus-container"">
                    <img src=""images/schematic_sequence/flight_scheme/flight_scheme_4.png"" class=""exp-image"">
                    <div class=""question-area"">
                        <p style=""font-size: 20px; font-weight: bold; margin: 0;"">Is there a person in this image?</p>
                    </div>
                </div>","null","main_experiment_trial","4","flight_scheme","schematic_sequence","","","","",""
"","","","","","html-keyboard-response","151","717911","0.0-151.0","E3FF85E926E2443B9E58D65441890834","019cf031-045f-7adb-aa5f-2b5414bedba8","019ceff9-9f67-7034-9722-02cda2445e09","","null","
                <div class=""stimulus-container"">
                    <img src=""images/schematic_sequence/flight_scheme/flight_scheme_5.png"" class=""exp-image"">
                    <div class=""question-area""></div> 
                </div>","null","","","","","","","","",""
"","","","","","html-button-response","152","719344","0.0-152.0","E3FF85E926E2443B9E58D65441890834","019cf031-045f-7adb-aa5f-2b5414bedba8","019ceff9-9f67-7034-9722-02cda2445e09","","1431","
                <div class=""stimulus-container"">
                    <img src=""images/schematic_sequence/flight_scheme/flight_scheme_5.png"" class=""exp-image"">
                    <div class=""question-area"">
                        <p style=""font-size: 20px; font-weight: bold; margin: 0;"">Is there a person in this image?</p>
                    </div>
                </div>","0","main_experiment_trial","5","flight_scheme","schematic_sequence","","","","",""
"","","","","","html-keyboard-response","153","724354","0.0-153.0","E3FF85E926E2443B9E58D65441890834","019cf031-045f-7adb-aa5f-2b5414bedba8","019ceff9-9f67-7034-9722-02cda2445e09","","null","
                <div class=""stimulus-container"">
                    <img src=""images/schematic_sequence/flight_scheme/flight_scheme_6.png"" class=""exp-image"">
                    <div class=""question-area""></div> 
                </div>","null","","","","","","","","",""
"","","","","","html-button-response","154","727361","0.0-154.0","E3FF85E926E2443B9E58D65441890834","019cf031-045f-7adb-aa5f-2b5414bedba8","019ceff9-9f67-7034-9722-02cda2445e09","","null","
                <div class=""stimulus-container"">
                    <img src=""images/schematic_sequence/flight_scheme/flight_scheme_6.png"" class=""exp-image"">
                    <div class=""question-area"">
                        <p style=""font-size: 20px; font-weight: bold; margin: 0;"">Is there a person in this image?</p>
                    </div>
                </div>","null","main_experiment_trial","6","flight_scheme","schematic_sequence","","","","",""
"","","","","","html-keyboard-response","155","732372","0.0-155.0","E3FF85E926E2443B9E58D65441890834","019cf031-045f-7adb-aa5f-2b5414bedba8","019ceff9-9f67-7034-9722-02cda2445e09","","null","
                <div class=""stimulus-container"">
                    <img src=""images/schematic_sequence/flight_scheme/flight_scheme_7.png"" class=""exp-image"">
                    <div class=""question-area""></div> 
                </div>","null","","","","","","","","",""
"","","","","","html-button-response","156","735377","0.0-156.0","E3FF85E926E2443B9E58D65441890834","019cf031-045f-7adb-aa5f-2b5414bedba8","019ceff9-9f67-7034-9722-02cda2445e09","","null","
                <div class=""stimulus-container"">
                    <img src=""images/schematic_sequence/flight_scheme/flight_scheme_7.png"" class=""exp-image"">
                    <div class=""question-area"">
                        <p style=""font-size: 20px; font-weight: bold; margin: 0;"">Is there a person in this image?</p>
                    </div>
                </div>","null","main_experiment_trial","7","flight_scheme","schematic_sequence","","","","",""
"","","","","","html-keyboard-response","157","740388","0.0-157.0","E3FF85E926E2443B9E58D65441890834","019cf031-045f-7adb-aa5f-2b5414bedba8","019ceff9-9f67-7034-9722-02cda2445e09","","null","
                <div class=""stimulus-container"">
                    <img src=""images/schematic_sequence/flight_scheme/flight_scheme_8.png"" class=""exp-image"">
                    <div class=""question-area""></div> 
                </div>","null","","","","","","","","",""
"","","","","","html-button-response","158","741695","0.0-158.0","E3FF85E926E2443B9E58D65441890834","019cf031-045f-7adb-aa5f-2b5414bedba8","019ceff9-9f67-7034-9722-02cda2445e09","","1307","
                <div class=""stimulus-container"">
                    <img src=""images/schematic_sequence/flight_scheme/flight_scheme_8.png"" class=""exp-image"">
                    <div class=""question-area"">
                        <p style=""font-size: 20px; font-weight: bold; margin: 0;"">Is there a person in this image?</p>
                    </div>
                </div>","1","main_experiment_trial","8","flight_scheme","schematic_sequence","","","","",""
"","","","","","html-keyboard-response","159","746709","0.0-159.0","E3FF85E926E2443B9E58D65441890834","019cf031-045f-7adb-aa5f-2b5414bedba8","019ceff9-9f67-7034-9722-02cda2445e09","","null","
                <div class=""stimulus-container"">
                    <img src=""images/schematic_sequence/flight_scheme/flight_scheme_9.png"" class=""exp-image"">
                    <div class=""question-area""></div> 
                </div>","null","","","","","","","","",""
"","","","","","html-button-response","160","747727","0.0-160.0","E3FF85E926E2443B9E58D65441890834","019cf031-045f-7adb-aa5f-2b5414bedba8","019ceff9-9f67-7034-9722-02cda2445e09","","1018","
                <div class=""stimulus-container"">
                    <img src=""images/schematic_sequence/flight_scheme/flight_scheme_9.png"" class=""exp-image"">
                    <div class=""question-area"">
                        <p style=""font-size: 20px; font-weight: bold; margin: 0;"">Is there a person in this image?</p>
                    </div>
                </div>","0","main_experiment_trial","9","flight_scheme","schematic_sequence","","","","",""
"","","","","","html-keyboard-response","161","752729","0.0-161.0","E3FF85E926E2443B9E58D65441890834","019cf031-045f-7adb-aa5f-2b5414bedba8","019ceff9-9f67-7034-9722-02cda2445e09","","null","
                <div class=""stimulus-container"">
                    <img src=""images/schematic_sequence/flight_scheme/flight_scheme_ten.png"" class=""exp-image"">
                    <div class=""question-area""></div> 
                </div>","null","","","","","","","","",""
"","","","","","html-button-response","162","754271","0.0-162.0","E3FF85E926E2443B9E58D65441890834","019cf031-045f-7adb-aa5f-2b5414bedba8","019ceff9-9f67-7034-9722-02cda2445e09","","1542","
                <div class=""stimulus-container"">
                    <img src=""images/schematic_sequence/flight_scheme/flight_scheme_ten.png"" class=""exp-image"">
                    <div class=""question-area"">
                        <p style=""font-size: 20px; font-weight: bold; margin: 0;"">Is there a person in this image?</p>
                    </div>
                </div>","0","main_experiment_trial","ten","flight_scheme","schematic_sequence","","","","",""
"","","","","","html-keyboard-response","163","755277","0.0-163.0","E3FF85E926E2443B9E58D65441890834","019cf031-045f-7adb-aa5f-2b5414bedba8","019ceff9-9f67-7034-9722-02cda2445e09","","null","<div style=""background-color: white; width: 100vw; height: 100vh;""></div>","null","","","","","","","","",""
"","","","","","html-keyboard-response","164","760290","0.0-164.0","E3FF85E926E2443B9E58D65441890834","019cf031-045f-7adb-aa5f-2b5414bedba8","019ceff9-9f67-7034-9722-02cda2445e09","","null","
                <div class=""stimulus-container"">
                    <img src=""images/schematic_sequence/dinner_party_scheme/dinner_party_scheme_1.png"" class=""exp-image"">
                    <div class=""question-area""></div> 
                </div>","null","","","","","","","","",""
"","","","","","html-button-response","165","763293","0.0-165.0","E3FF85E926E2443B9E58D65441890834","019cf031-045f-7adb-aa5f-2b5414bedba8","019ceff9-9f67-7034-9722-02cda2445e09","","null","
                <div class=""stimulus-container"">
                    <img src=""images/schematic_sequence/dinner_party_scheme/dinner_party_scheme_1.png"" class=""exp-image"">
                    <div class=""question-area"">
                        <p style=""font-size: 20px; font-weight: bold; margin: 0;"">Is there a person in this image?</p>
                    </div>
                </div>","null","main_experiment_trial","1","dinner_party_scheme","schematic_sequence","","","","",""
"","","","","","html-keyboard-response","166","768297","0.0-166.0","E3FF85E926E2443B9E58D65441890834","019cf031-045f-7adb-aa5f-2b5414bedba8","019ceff9-9f67-7034-9722-02cda2445e09","","null","
                <div class=""stimulus-container"">
                    <img src=""images/schematic_sequence/dinner_party_scheme/dinner_party_scheme_2.png"" class=""exp-image"">
                    <div class=""question-area""></div> 
                </div>","null","","","","","","","","",""
"","","","","","html-button-response","167","769776","0.0-167.0","E3FF85E926E2443B9E58D65441890834","019cf031-045f-7adb-aa5f-2b5414bedba8","019ceff9-9f67-7034-9722-02cda2445e09","","1477","
                <div class=""stimulus-container"">
                    <img src=""images/schematic_sequence/dinner_party_scheme/dinner_party_scheme_2.png"" class=""exp-image"">
                    <div class=""question-area"">
                        <p style=""font-size: 20px; font-weight: bold; margin: 0;"">Is there a person in this image?</p>
                    </div>
                </div>","0","main_experiment_trial","2","dinner_party_scheme","schematic_sequence","","","","",""
"","","","","","html-keyboard-response","168","774778","0.0-168.0","E3FF85E926E2443B9E58D65441890834","019cf031-045f-7adb-aa5f-2b5414bedba8","019ceff9-9f67-7034-9722-02cda2445e09","","null","
                <div class=""stimulus-container"">
                    <img src=""images/schematic_sequence/dinner_party_scheme/dinner_party_scheme_3.png"" class=""exp-image"">
                    <div class=""question-area""></div> 
                </div>","null","","","","","","","","",""
"","","","","","html-button-response","169","776856","0.0-169.0","E3FF85E926E2443B9E58D65441890834","019cf031-045f-7adb-aa5f-2b5414bedba8","019ceff9-9f67-7034-9722-02cda2445e09","","2076","
                <div class=""stimulus-container"">
                    <img src=""images/schematic_sequence/dinner_party_scheme/dinner_party_scheme_3.png"" class=""exp-image"">
                    <div class=""question-area"">
                        <p style=""font-size: 20px; font-weight: bold; margin: 0;"">Is there a person in this image?</p>
                    </div>
                </div>","0","main_experiment_trial","3","dinner_party_scheme","schematic_sequence","","","","",""
"","","","","","html-keyboard-response","170","781871","0.0-170.0","E3FF85E926E2443B9E58D65441890834","019cf031-045f-7adb-aa5f-2b5414bedba8","019ceff9-9f67-7034-9722-02cda2445e09","","null","
                <div class=""stimulus-container"">
                    <img src=""images/schematic_sequence/dinner_party_scheme/dinner_party_scheme_4.png"" class=""exp-image"">
                    <div class=""question-area""></div> 
                </div>","null","","","","","","","","",""
"","","","","","html-button-response","171","782696","0.0-171.0","E3FF85E926E2443B9E58D65441890834","019cf031-045f-7adb-aa5f-2b5414bedba8","019ceff9-9f67-7034-9722-02cda2445e09","","824","
                <div class=""stimulus-container"">
                    <img src=""images/schematic_sequence/dinner_party_scheme/dinner_party_scheme_4.png"" class=""exp-image"">
                    <div class=""question-area"">
                        <p style=""font-size: 20px; font-weight: bold; margin: 0;"">Is there a person in this image?</p>
                    </div>
                </div>","0","main_experiment_trial","4","dinner_party_scheme","schematic_sequence","","","","",""
"","","","","","html-keyboard-response","172","787712","0.0-172.0","E3FF85E926E2443B9E58D65441890834","019cf031-045f-7adb-aa5f-2b5414bedba8","019ceff9-9f67-7034-9722-02cda2445e09","","null","
                <div class=""stimulus-container"">
                    <img src=""images/schematic_sequence/dinner_party_scheme/dinner_party_scheme_5.png"" class=""exp-image"">
                    <div class=""question-area""></div> 
                </div>","null","","","","","","","","",""
"","","","","","html-button-response","173","790718","0.0-173.0","E3FF85E926E2443B9E58D65441890834","019cf031-045f-7adb-aa5f-2b5414bedba8","019ceff9-9f67-7034-9722-02cda2445e09","","null","
                <div class=""stimulus-container"">
                    <img src=""images/schematic_sequence/dinner_party_scheme/dinner_party_scheme_5.png"" class=""exp-image"">
                    <div class=""question-area"">
                        <p style=""font-size: 20px; font-weight: bold; margin: 0;"">Is there a person in this image?</p>
                    </div>
                </div>","null","main_experiment_trial","5","dinner_party_scheme","schematic_sequence","","","","",""
"","","","","","html-keyboard-response","174","795722","0.0-174.0","E3FF85E926E2443B9E58D65441890834","019cf031-045f-7adb-aa5f-2b5414bedba8","019ceff9-9f67-7034-9722-02cda2445e09","","null","
                <div class=""stimulus-container"">
                    <img src=""images/schematic_sequence/dinner_party_scheme/dinner_party_scheme_6.png"" class=""exp-image"">
                    <div class=""question-area""></div> 
                </div>","null","","","","","","","","",""
"","","","","","html-button-response","175","798727","0.0-175.0","E3FF85E926E2443B9E58D65441890834","019cf031-045f-7adb-aa5f-2b5414bedba8","019ceff9-9f67-7034-9722-02cda2445e09","","null","
                <div class=""stimulus-container"">
                    <img src=""images/schematic_sequence/dinner_party_scheme/dinner_party_scheme_6.png"" class=""exp-image"">
                    <div class=""question-area"">
                        <p style=""font-size: 20px; font-weight: bold; margin: 0;"">Is there a person in this image?</p>
                    </div>
                </div>","null","main_experiment_trial","6","dinner_party_scheme","schematic_sequence","","","","",""
"","","","","","html-keyboard-response","176","803728","0.0-176.0","E3FF85E926E2443B9E58D65441890834","019cf031-045f-7adb-aa5f-2b5414bedba8","019ceff9-9f67-7034-9722-02cda2445e09","","null","
                <div class=""stimulus-container"">
                    <img src=""images/schematic_sequence/dinner_party_scheme/dinner_party_scheme_7.png"" class=""exp-image"">
                    <div class=""question-area""></div> 
                </div>","null","","","","","","","","",""
"","","","","","html-button-response","177","805303","0.0-177.0","E3FF85E926E2443B9E58D65441890834","019cf031-045f-7adb-aa5f-2b5414bedba8","019ceff9-9f67-7034-9722-02cda2445e09","","1575","
                <div class=""stimulus-container"">
                    <img src=""images/schematic_sequence/dinner_party_scheme/dinner_party_scheme_7.png"" class=""exp-image"">
                    <div class=""question-area"">
                        <p style=""font-size: 20px; font-weight: bold; margin: 0;"">Is there a person in this image?</p>
                    </div>
                </div>","0","main_experiment_trial","7","dinner_party_scheme","schematic_sequence","","","","",""
"","","","","","html-keyboard-response","178","810312","0.0-178.0","E3FF85E926E2443B9E58D65441890834","019cf031-045f-7adb-aa5f-2b5414bedba8","019ceff9-9f67-7034-9722-02cda2445e09","","null","
                <div class=""stimulus-container"">
                    <img src=""images/schematic_sequence/dinner_party_scheme/dinner_party_scheme_8.png"" class=""exp-image"">
                    <div class=""question-area""></div> 
                </div>","null","","","","","","","","",""
"","","","","","html-button-response","179","813319","0.0-179.0","E3FF85E926E2443B9E58D65441890834","019cf031-045f-7adb-aa5f-2b5414bedba8","019ceff9-9f67-7034-9722-02cda2445e09","","null","
                <div class=""stimulus-container"">
                    <img src=""images/schematic_sequence/dinner_party_scheme/dinner_party_scheme_8.png"" class=""exp-image"">
                    <div class=""question-area"">
                        <p style=""font-size: 20px; font-weight: bold; margin: 0;"">Is there a person in this image?</p>
                    </div>
                </div>","null","main_experiment_trial","8","dinner_party_scheme","schematic_sequence","","","","",""
"","","","","","html-keyboard-response","180","818324","0.0-180.0","E3FF85E926E2443B9E58D65441890834","019cf031-045f-7adb-aa5f-2b5414bedba8","019ceff9-9f67-7034-9722-02cda2445e09","","null","
                <div class=""stimulus-container"">
                    <img src=""images/schematic_sequence/dinner_party_scheme/dinner_party_scheme_9.png"" class=""exp-image"">
                    <div class=""question-area""></div> 
                </div>","null","","","","","","","","",""
"","","","","","html-button-response","181","820144","0.0-181.0","E3FF85E926E2443B9E58D65441890834","019cf031-045f-7adb-aa5f-2b5414bedba8","019ceff9-9f67-7034-9722-02cda2445e09","","1819","
                <div class=""stimulus-container"">
                    <img src=""images/schematic_sequence/dinner_party_scheme/dinner_party_scheme_9.png"" class=""exp-image"">
                    <div class=""question-area"">
                        <p style=""font-size: 20px; font-weight: bold; margin: 0;"">Is there a person in this image?</p>
                    </div>
                </div>","0","main_experiment_trial","9","dinner_party_scheme","schematic_sequence","","","","",""
"","","","","","html-keyboard-response","182","825145","0.0-182.0","E3FF85E926E2443B9E58D65441890834","019cf031-045f-7adb-aa5f-2b5414bedba8","019ceff9-9f67-7034-9722-02cda2445e09","","null","
                <div class=""stimulus-container"">
                    <img src=""images/schematic_sequence/dinner_party_scheme/dinner_party_scheme_ten.png"" class=""exp-image"">
                    <div class=""question-area""></div> 
                </div>","null","","","","","","","","",""
