"success","timeout","failed_images","failed_audio","failed_video","trial_type","trial_index","time_elapsed","internal_node_id","subject_id","study_id","session_id","view_history","rt","stimulus","response","task","image_index","folder","sequence_type","valuable_image_index","reward_type","chosen_image_index","target_X","correct_choice"
"true","false","[]","[]","[]","preload","0","34474","0.0-0.0","971DFBC3F9BC4E5BA476692B34DD48D9","019cf78f-1106-7b12-bcea-8fd5c3a88e35","019cf78c-cfcf-769c-9016-9b96552b5e33","","","","","","","","","","","","",""
"","","","","","instructions","1","37902","0.0-1.0","971DFBC3F9BC4E5BA476692B34DD48D9","019cf78f-1106-7b12-bcea-8fd5c3a88e35","019cf78c-cfcf-769c-9016-9b96552b5e33","[{""page_index"":0,""viewing_time"":3427}]","3427","","","","","","","","","","",""
"","","","","","instructions","2","41794","0.0-2.0","971DFBC3F9BC4E5BA476692B34DD48D9","019cf78f-1106-7b12-bcea-8fd5c3a88e35","019cf78c-cfcf-769c-9016-9b96552b5e33","[{""page_index"":0,""viewing_time"":3891}]","3891","","","","","","","","","","",""
"true","","","","","fullscreen","3","44247","0.0-3.0","971DFBC3F9BC4E5BA476692B34DD48D9","019cf78f-1106-7b12-bcea-8fd5c3a88e35","019cf78c-cfcf-769c-9016-9b96552b5e33","","1444","","","","","","","","","","",""
"","","","","","instructions","4","52509","0.0-4.0","971DFBC3F9BC4E5BA476692B34DD48D9","019cf78f-1106-7b12-bcea-8fd5c3a88e35","019cf78c-cfcf-769c-9016-9b96552b5e33","[{""page_index"":0,""viewing_time"":8261}]","8262","","","","","","","","","","",""
"","","","","","instructions","5","57417","0.0-5.0","971DFBC3F9BC4E5BA476692B34DD48D9","019cf78f-1106-7b12-bcea-8fd5c3a88e35","019cf78c-cfcf-769c-9016-9b96552b5e33","[{""page_index"":0,""viewing_time"":4907}]","4908","","","","","","","","","","",""
"","","","","","html-keyboard-response","6","61432","0.0-6.0","971DFBC3F9BC4E5BA476692B34DD48D9","019cf78f-1106-7b12-bcea-8fd5c3a88e35","019cf78c-cfcf-769c-9016-9b96552b5e33","","null","
                <div class=""stimulus-container"">
                    <img src=""images/instructions/movie_1.png"" class=""exp-image"">
                    <div class=""question-area""></div> 
                </div>","null","","","","","","","","",""
"","","","","","html-button-response","7","63680","0.0-7.0","971DFBC3F9BC4E5BA476692B34DD48D9","019cf78f-1106-7b12-bcea-8fd5c3a88e35","019cf78c-cfcf-769c-9016-9b96552b5e33","","2246","
                <div class=""stimulus-container"">
                    <img src=""images/instructions/movie_1.png"" class=""exp-image"">
                    <div class=""question-area"">
                        <p style=""font-size: 20px; font-weight: bold; margin: 0;"">Was there a person in this image?</p>
                    </div>
                </div>","0","example_question","1","","","","","","",""
"","","","","","html-keyboard-response","8","67681","0.0-8.0","971DFBC3F9BC4E5BA476692B34DD48D9","019cf78f-1106-7b12-bcea-8fd5c3a88e35","019cf78c-cfcf-769c-9016-9b96552b5e33","","null","
                <div class=""stimulus-container"">
                    <img src=""images/instructions/movie_2.png"" class=""exp-image"">
                    <div class=""question-area""></div> 
                </div>","null","","","","","","","","",""
"","","","","","html-button-response","9","70353","0.0-9.0","971DFBC3F9BC4E5BA476692B34DD48D9","019cf78f-1106-7b12-bcea-8fd5c3a88e35","019cf78c-cfcf-769c-9016-9b96552b5e33","","2672","
                <div class=""stimulus-container"">
                    <img src=""images/instructions/movie_2.png"" class=""exp-image"">
                    <div class=""question-area"">
                        <p style=""font-size: 20px; font-weight: bold; margin: 0;"">Was there a person in this image?</p>
                    </div>
                </div>","0","example_question","2","","","","","","",""
"","","","","","html-keyboard-response","10","74366","0.0-10.0","971DFBC3F9BC4E5BA476692B34DD48D9","019cf78f-1106-7b12-bcea-8fd5c3a88e35","019cf78c-cfcf-769c-9016-9b96552b5e33","","null","
                <div class=""stimulus-container"">
                    <img src=""images/instructions/movie_3.png"" class=""exp-image"">
                    <div class=""question-area""></div> 
                </div>","null","","","","","","","","",""
"","","","","","html-button-response","11","75235","0.0-11.0","971DFBC3F9BC4E5BA476692B34DD48D9","019cf78f-1106-7b12-bcea-8fd5c3a88e35","019cf78c-cfcf-769c-9016-9b96552b5e33","","869","
                <div class=""stimulus-container"">
                    <img src=""images/instructions/movie_3.png"" class=""exp-image"">
                    <div class=""question-area"">
                        <p style=""font-size: 20px; font-weight: bold; margin: 0;"">Was there a person in this image?</p>
                    </div>
                </div>","0","example_question","3","","","","","","",""
"","","","","","html-keyboard-response","12","79237","0.0-12.0","971DFBC3F9BC4E5BA476692B34DD48D9","019cf78f-1106-7b12-bcea-8fd5c3a88e35","019cf78c-cfcf-769c-9016-9b96552b5e33","","null","
                <div class=""stimulus-container"">
                    <img src=""images/instructions/movie_4.png"" class=""exp-image"">
                    <div class=""question-area""></div> 
                </div>","null","","","","","","","","",""
"","","","","","html-button-response","13","80315","0.0-13.0","971DFBC3F9BC4E5BA476692B34DD48D9","019cf78f-1106-7b12-bcea-8fd5c3a88e35","019cf78c-cfcf-769c-9016-9b96552b5e33","","1078","
                <div class=""stimulus-container"">
                    <img src=""images/instructions/movie_4.png"" class=""exp-image"">
                    <div class=""question-area"">
                        <p style=""font-size: 20px; font-weight: bold; margin: 0;"">Was there a person in this image?</p>
                    </div>
                </div>","0","example_question","4","","","","","","",""
"","","","","","instructions","14","81733","0.0-14.0","971DFBC3F9BC4E5BA476692B34DD48D9","019cf78f-1106-7b12-bcea-8fd5c3a88e35","019cf78c-cfcf-769c-9016-9b96552b5e33","[{""page_index"":0,""viewing_time"":1417}]","1418","","","","","","","","","","",""
"","","","","","instructions","15","85297","0.0-15.0","971DFBC3F9BC4E5BA476692B34DD48D9","019cf78f-1106-7b12-bcea-8fd5c3a88e35","019cf78c-cfcf-769c-9016-9b96552b5e33","[{""page_index"":0,""viewing_time"":3564}]","3564","","","","","","","","","","",""
"","","","","","html-keyboard-response","16","86300","0.0-16.0","971DFBC3F9BC4E5BA476692B34DD48D9","019cf78f-1106-7b12-bcea-8fd5c3a88e35","019cf78c-cfcf-769c-9016-9b96552b5e33","","null","<div style=""background-color: white; width: 100vw; height: 100vh;""></div>","null","","","","","","","","",""
"","","","","","html-keyboard-response","17","91316","0.0-17.0","971DFBC3F9BC4E5BA476692B34DD48D9","019cf78f-1106-7b12-bcea-8fd5c3a88e35","019cf78c-cfcf-769c-9016-9b96552b5e33","","null","
                <div class=""stimulus-container"">
                    <img src=""images/schematic_sequence/hotel_scheme/hotel_scheme_1.png"" class=""exp-image"">
                    <div class=""question-area""></div> 
                </div>","null","","","","","","","","",""
"","","","","","html-button-response","18","92655","0.0-18.0","971DFBC3F9BC4E5BA476692B34DD48D9","019cf78f-1106-7b12-bcea-8fd5c3a88e35","019cf78c-cfcf-769c-9016-9b96552b5e33","","1335","
                <div class=""stimulus-container"">
                    <img src=""images/schematic_sequence/hotel_scheme/hotel_scheme_1.png"" class=""exp-image"">
                    <div class=""question-area"">
                        <p style=""font-size: 20px; font-weight: bold; margin: 0;"">Is there a person in this image?</p>
                    </div>
                </div>","1","main_experiment_trial","1","hotel_scheme","schematic_sequence","","","","",""
"","","","","","html-keyboard-response","19","97666","0.0-19.0","971DFBC3F9BC4E5BA476692B34DD48D9","019cf78f-1106-7b12-bcea-8fd5c3a88e35","019cf78c-cfcf-769c-9016-9b96552b5e33","","null","
                <div class=""stimulus-container"">
                    <img src=""images/schematic_sequence/hotel_scheme/hotel_scheme_2.png"" class=""exp-image"">
                    <div class=""question-area""></div> 
                </div>","null","","","","","","","","",""
"","","","","","html-button-response","20","100667","0.0-20.0","971DFBC3F9BC4E5BA476692B34DD48D9","019cf78f-1106-7b12-bcea-8fd5c3a88e35","019cf78c-cfcf-769c-9016-9b96552b5e33","","null","
                <div class=""stimulus-container"">
                    <img src=""images/schematic_sequence/hotel_scheme/hotel_scheme_2.png"" class=""exp-image"">
                    <div class=""question-area"">
                        <p style=""font-size: 20px; font-weight: bold; margin: 0;"">Is there a person in this image?</p>
                    </div>
                </div>","null","main_experiment_trial","2","hotel_scheme","schematic_sequence","","","","",""
"","","","","","html-keyboard-response","21","105682","0.0-21.0","971DFBC3F9BC4E5BA476692B34DD48D9","019cf78f-1106-7b12-bcea-8fd5c3a88e35","019cf78c-cfcf-769c-9016-9b96552b5e33","","null","
                <div class=""stimulus-container"">
                    <img src=""images/schematic_sequence/hotel_scheme/hotel_scheme_3.png"" class=""exp-image"">
                    <div class=""question-area""></div> 
                </div>","null","","","","","","","","",""
"","","","","","html-button-response","22","108699","0.0-22.0","971DFBC3F9BC4E5BA476692B34DD48D9","019cf78f-1106-7b12-bcea-8fd5c3a88e35","019cf78c-cfcf-769c-9016-9b96552b5e33","","null","
                <div class=""stimulus-container"">
                    <img src=""images/schematic_sequence/hotel_scheme/hotel_scheme_3.png"" class=""exp-image"">
                    <div class=""question-area"">
                        <p style=""font-size: 20px; font-weight: bold; margin: 0;"">Is there a person in this image?</p>
                    </div>
                </div>","null","main_experiment_trial","3","hotel_scheme","schematic_sequence","","","","",""
"","","","","","html-keyboard-response","23","113700","0.0-23.0","971DFBC3F9BC4E5BA476692B34DD48D9","019cf78f-1106-7b12-bcea-8fd5c3a88e35","019cf78c-cfcf-769c-9016-9b96552b5e33","","null","
                <div class=""stimulus-container"">
                    <img src=""images/schematic_sequence/hotel_scheme/hotel_scheme_4.png"" class=""exp-image"">
                    <div class=""question-area""></div> 
                </div>","null","","","","","","","","",""
"","","","","","html-button-response","24","114682","0.0-24.0","971DFBC3F9BC4E5BA476692B34DD48D9","019cf78f-1106-7b12-bcea-8fd5c3a88e35","019cf78c-cfcf-769c-9016-9b96552b5e33","","980","
                <div class=""stimulus-container"">
                    <img src=""images/schematic_sequence/hotel_scheme/hotel_scheme_4.png"" class=""exp-image"">
                    <div class=""question-area"">
                        <p style=""font-size: 20px; font-weight: bold; margin: 0;"">Is there a person in this image?</p>
                    </div>
                </div>","1","main_experiment_trial","4","hotel_scheme","schematic_sequence","","","","",""
"","","","","","html-keyboard-response","25","119683","0.0-25.0","971DFBC3F9BC4E5BA476692B34DD48D9","019cf78f-1106-7b12-bcea-8fd5c3a88e35","019cf78c-cfcf-769c-9016-9b96552b5e33","","null","
                <div class=""stimulus-container"">
                    <img src=""images/schematic_sequence/hotel_scheme/hotel_scheme_5.png"" class=""exp-image"">
                    <div class=""question-area""></div> 
                </div>","null","","","","","","","","",""
"","","","","","html-button-response","26","120764","0.0-26.0","971DFBC3F9BC4E5BA476692B34DD48D9","019cf78f-1106-7b12-bcea-8fd5c3a88e35","019cf78c-cfcf-769c-9016-9b96552b5e33","","1079","
                <div class=""stimulus-container"">
                    <img src=""images/schematic_sequence/hotel_scheme/hotel_scheme_5.png"" class=""exp-image"">
                    <div class=""question-area"">
                        <p style=""font-size: 20px; font-weight: bold; margin: 0;"">Is there a person in this image?</p>
                    </div>
                </div>","1","main_experiment_trial","5","hotel_scheme","schematic_sequence","","","","",""
"","","","","","html-keyboard-response","27","125767","0.0-27.0","971DFBC3F9BC4E5BA476692B34DD48D9","019cf78f-1106-7b12-bcea-8fd5c3a88e35","019cf78c-cfcf-769c-9016-9b96552b5e33","","null","
                <div class=""stimulus-container"">
                    <img src=""images/schematic_sequence/hotel_scheme/hotel_scheme_6.png"" class=""exp-image"">
                    <div class=""question-area""></div> 
                </div>","null","","","","","","","","",""
"","","","","","html-button-response","28","126684","0.0-28.0","971DFBC3F9BC4E5BA476692B34DD48D9","019cf78f-1106-7b12-bcea-8fd5c3a88e35","019cf78c-cfcf-769c-9016-9b96552b5e33","","916","
                <div class=""stimulus-container"">
                    <img src=""images/schematic_sequence/hotel_scheme/hotel_scheme_6.png"" class=""exp-image"">
                    <div class=""question-area"">
                        <p style=""font-size: 20px; font-weight: bold; margin: 0;"">Is there a person in this image?</p>
                    </div>
                </div>","1","main_experiment_trial","6","hotel_scheme","schematic_sequence","","","","",""
"","","","","","html-keyboard-response","29","131699","0.0-29.0","971DFBC3F9BC4E5BA476692B34DD48D9","019cf78f-1106-7b12-bcea-8fd5c3a88e35","019cf78c-cfcf-769c-9016-9b96552b5e33","","null","
                <div class=""stimulus-container"">
                    <img src=""images/schematic_sequence/hotel_scheme/hotel_scheme_7.png"" class=""exp-image"">
                    <div class=""question-area""></div> 
                </div>","null","","","","","","","","",""
"","","","","","html-button-response","30","132125","0.0-30.0","971DFBC3F9BC4E5BA476692B34DD48D9","019cf78f-1106-7b12-bcea-8fd5c3a88e35","019cf78c-cfcf-769c-9016-9b96552b5e33","","426","
                <div class=""stimulus-container"">
                    <img src=""images/schematic_sequence/hotel_scheme/hotel_scheme_7.png"" class=""exp-image"">
                    <div class=""question-area"">
                        <p style=""font-size: 20px; font-weight: bold; margin: 0;"">Is there a person in this image?</p>
                    </div>
                </div>","1","main_experiment_trial","7","hotel_scheme","schematic_sequence","","","","",""
"","","","","","html-keyboard-response","31","137132","0.0-31.0","971DFBC3F9BC4E5BA476692B34DD48D9","019cf78f-1106-7b12-bcea-8fd5c3a88e35","019cf78c-cfcf-769c-9016-9b96552b5e33","","null","
                <div class=""stimulus-container"">
                    <img src=""images/schematic_sequence/hotel_scheme/hotel_scheme_8.png"" class=""exp-image"">
                    <div class=""question-area""></div> 
                </div>","null","","","","","","","","",""
"","","","","","html-button-response","32","137592","0.0-32.0","971DFBC3F9BC4E5BA476692B34DD48D9","019cf78f-1106-7b12-bcea-8fd5c3a88e35","019cf78c-cfcf-769c-9016-9b96552b5e33","","459","
                <div class=""stimulus-container"">
                    <img src=""images/schematic_sequence/hotel_scheme/hotel_scheme_8.png"" class=""exp-image"">
                    <div class=""question-area"">
                        <p style=""font-size: 20px; font-weight: bold; margin: 0;"">Is there a person in this image?</p>
                    </div>
                </div>","1","main_experiment_trial","8","hotel_scheme","schematic_sequence","","","","",""
"","","","","","html-keyboard-response","33","142599","0.0-33.0","971DFBC3F9BC4E5BA476692B34DD48D9","019cf78f-1106-7b12-bcea-8fd5c3a88e35","019cf78c-cfcf-769c-9016-9b96552b5e33","","null","
                <div class=""stimulus-container"">
                    <img src=""images/schematic_sequence/hotel_scheme/hotel_scheme_9.png"" class=""exp-image"">
                    <div class=""question-area""></div> 
                </div>","null","","","","","","","","",""
"","","","","","html-button-response","34","144474","0.0-34.0","971DFBC3F9BC4E5BA476692B34DD48D9","019cf78f-1106-7b12-bcea-8fd5c3a88e35","019cf78c-cfcf-769c-9016-9b96552b5e33","","1874","
                <div class=""stimulus-container"">
                    <img src=""images/schematic_sequence/hotel_scheme/hotel_scheme_9.png"" class=""exp-image"">
                    <div class=""question-area"">
                        <p style=""font-size: 20px; font-weight: bold; margin: 0;"">Is there a person in this image?</p>
                    </div>
                </div>","1","main_experiment_trial","9","hotel_scheme","schematic_sequence","","","","",""
"","","","","","html-keyboard-response","35","149482","0.0-35.0","971DFBC3F9BC4E5BA476692B34DD48D9","019cf78f-1106-7b12-bcea-8fd5c3a88e35","019cf78c-cfcf-769c-9016-9b96552b5e33","","null","
                <div class=""stimulus-container"">
                    <img src=""images/schematic_sequence/hotel_scheme/hotel_scheme_ten.png"" class=""exp-image"">
                    <div class=""question-area""></div> 
                </div>","null","","","","","","","","",""
"","","","","","html-button-response","36","149973","0.0-36.0","971DFBC3F9BC4E5BA476692B34DD48D9","019cf78f-1106-7b12-bcea-8fd5c3a88e35","019cf78c-cfcf-769c-9016-9b96552b5e33","","491","
                <div class=""stimulus-container"">
                    <img src=""images/schematic_sequence/hotel_scheme/hotel_scheme_ten.png"" class=""exp-image"">
                    <div class=""question-area"">
                        <p style=""font-size: 20px; font-weight: bold; margin: 0;"">Is there a person in this image?</p>
                    </div>
                </div>","1","main_experiment_trial","ten","hotel_scheme","schematic_sequence","","","","",""
"","","","","","html-keyboard-response","37","150982","0.0-37.0","971DFBC3F9BC4E5BA476692B34DD48D9","019cf78f-1106-7b12-bcea-8fd5c3a88e35","019cf78c-cfcf-769c-9016-9b96552b5e33","","null","<div style=""background-color: white; width: 100vw; height: 100vh;""></div>","null","","","","","","","","",""
"","","","","","html-keyboard-response","38","155983","0.0-38.0","971DFBC3F9BC4E5BA476692B34DD48D9","019cf78f-1106-7b12-bcea-8fd5c3a88e35","019cf78c-cfcf-769c-9016-9b96552b5e33","","null","
                <div class=""stimulus-container"">
                    <img src=""images/semantic_sequence/exploring_nature_semantic/exploring_nature_semantic_1.png"" class=""exp-image"">
                    <div class=""question-area""></div> 
                </div>","null","","","","","","","","",""
"","","","","","html-button-response","39","157147","0.0-39.0","971DFBC3F9BC4E5BA476692B34DD48D9","019cf78f-1106-7b12-bcea-8fd5c3a88e35","019cf78c-cfcf-769c-9016-9b96552b5e33","","1163","
                <div class=""stimulus-container"">
                    <img src=""images/semantic_sequence/exploring_nature_semantic/exploring_nature_semantic_1.png"" class=""exp-image"">
                    <div class=""question-area"">
                        <p style=""font-size: 20px; font-weight: bold; margin: 0;"">Is there a person in this image?</p>
                    </div>
                </div>","1","main_experiment_trial","1","exploring_nature_semantic","semantic_sequence","","","","",""
"","","","","","html-keyboard-response","40","162149","0.0-40.0","971DFBC3F9BC4E5BA476692B34DD48D9","019cf78f-1106-7b12-bcea-8fd5c3a88e35","019cf78c-cfcf-769c-9016-9b96552b5e33","","null","
                <div class=""stimulus-container"">
                    <img src=""images/semantic_sequence/exploring_nature_semantic/exploring_nature_semantic_2.png"" class=""exp-image"">
                    <div class=""question-area""></div> 
                </div>","null","","","","","","","","",""
"","","","","","html-button-response","41","163509","0.0-41.0","971DFBC3F9BC4E5BA476692B34DD48D9","019cf78f-1106-7b12-bcea-8fd5c3a88e35","019cf78c-cfcf-769c-9016-9b96552b5e33","","1360","
                <div class=""stimulus-container"">
                    <img src=""images/semantic_sequence/exploring_nature_semantic/exploring_nature_semantic_2.png"" class=""exp-image"">
                    <div class=""question-area"">
                        <p style=""font-size: 20px; font-weight: bold; margin: 0;"">Is there a person in this image?</p>
                    </div>
                </div>","0","main_experiment_trial","2","exploring_nature_semantic","semantic_sequence","","","","",""
"","","","","","html-keyboard-response","42","168512","0.0-42.0","971DFBC3F9BC4E5BA476692B34DD48D9","019cf78f-1106-7b12-bcea-8fd5c3a88e35","019cf78c-cfcf-769c-9016-9b96552b5e33","","null","
                <div class=""stimulus-container"">
                    <img src=""images/semantic_sequence/exploring_nature_semantic/exploring_nature_semantic_3.png"" class=""exp-image"">
                    <div class=""question-area""></div> 
                </div>","null","","","","","","","","",""
"","","","","","html-button-response","43","170899","0.0-43.0","971DFBC3F9BC4E5BA476692B34DD48D9","019cf78f-1106-7b12-bcea-8fd5c3a88e35","019cf78c-cfcf-769c-9016-9b96552b5e33","","2386","
                <div class=""stimulus-container"">
                    <img src=""images/semantic_sequence/exploring_nature_semantic/exploring_nature_semantic_3.png"" class=""exp-image"">
                    <div class=""question-area"">
                        <p style=""font-size: 20px; font-weight: bold; margin: 0;"">Is there a person in this image?</p>
                    </div>
                </div>","0","main_experiment_trial","3","exploring_nature_semantic","semantic_sequence","","","","",""
"","","","","","html-keyboard-response","44","175900","0.0-44.0","971DFBC3F9BC4E5BA476692B34DD48D9","019cf78f-1106-7b12-bcea-8fd5c3a88e35","019cf78c-cfcf-769c-9016-9b96552b5e33","","null","
                <div class=""stimulus-container"">
                    <img src=""images/semantic_sequence/exploring_nature_semantic/exploring_nature_semantic_4.png"" class=""exp-image"">
                    <div class=""question-area""></div> 
                </div>","null","","","","","","","","",""
"","","","","","html-button-response","45","176529","0.0-45.0","971DFBC3F9BC4E5BA476692B34DD48D9","019cf78f-1106-7b12-bcea-8fd5c3a88e35","019cf78c-cfcf-769c-9016-9b96552b5e33","","629","
                <div class=""stimulus-container"">
                    <img src=""images/semantic_sequence/exploring_nature_semantic/exploring_nature_semantic_4.png"" class=""exp-image"">
                    <div class=""question-area"">
                        <p style=""font-size: 20px; font-weight: bold; margin: 0;"">Is there a person in this image?</p>
                    </div>
                </div>","0","main_experiment_trial","4","exploring_nature_semantic","semantic_sequence","","","","",""
"","","","","","html-keyboard-response","46","181532","0.0-46.0","971DFBC3F9BC4E5BA476692B34DD48D9","019cf78f-1106-7b12-bcea-8fd5c3a88e35","019cf78c-cfcf-769c-9016-9b96552b5e33","","null","
                <div class=""stimulus-container"">
                    <img src=""images/semantic_sequence/exploring_nature_semantic/exploring_nature_semantic_5.png"" class=""exp-image"">
                    <div class=""question-area""></div> 
                </div>","null","","","","","","","","",""
"","","","","","html-button-response","47","182033","0.0-47.0","971DFBC3F9BC4E5BA476692B34DD48D9","019cf78f-1106-7b12-bcea-8fd5c3a88e35","019cf78c-cfcf-769c-9016-9b96552b5e33","","501","
                <div class=""stimulus-container"">
                    <img src=""images/semantic_sequence/exploring_nature_semantic/exploring_nature_semantic_5.png"" class=""exp-image"">
                    <div class=""question-area"">
                        <p style=""font-size: 20px; font-weight: bold; margin: 0;"">Is there a person in this image?</p>
                    </div>
                </div>","1","main_experiment_trial","5","exploring_nature_semantic","semantic_sequence","","","","",""
"","","","","","html-keyboard-response","48","187049","0.0-48.0","971DFBC3F9BC4E5BA476692B34DD48D9","019cf78f-1106-7b12-bcea-8fd5c3a88e35","019cf78c-cfcf-769c-9016-9b96552b5e33","","null","
                <div class=""stimulus-container"">
                    <img src=""images/semantic_sequence/exploring_nature_semantic/exploring_nature_semantic_6.png"" class=""exp-image"">
                    <div class=""question-area""></div> 
                </div>","null","","","","","","","","",""
"","","","","","html-button-response","49","187683","0.0-49.0","971DFBC3F9BC4E5BA476692B34DD48D9","019cf78f-1106-7b12-bcea-8fd5c3a88e35","019cf78c-cfcf-769c-9016-9b96552b5e33","","634","
                <div class=""stimulus-container"">
                    <img src=""images/semantic_sequence/exploring_nature_semantic/exploring_nature_semantic_6.png"" class=""exp-image"">
                    <div class=""question-area"">
                        <p style=""font-size: 20px; font-weight: bold; margin: 0;"">Is there a person in this image?</p>
                    </div>
                </div>","0","main_experiment_trial","6","exploring_nature_semantic","semantic_sequence","","","","",""
"","","","","","html-keyboard-response","50","192699","0.0-50.0","971DFBC3F9BC4E5BA476692B34DD48D9","019cf78f-1106-7b12-bcea-8fd5c3a88e35","019cf78c-cfcf-769c-9016-9b96552b5e33","","null","
                <div class=""stimulus-container"">
                    <img src=""images/semantic_sequence/exploring_nature_semantic/exploring_nature_semantic_7.png"" class=""exp-image"">
                    <div class=""question-area""></div> 
                </div>","null","","","","","","","","",""
"","","","","","html-button-response","51","193741","0.0-51.0","971DFBC3F9BC4E5BA476692B34DD48D9","019cf78f-1106-7b12-bcea-8fd5c3a88e35","019cf78c-cfcf-769c-9016-9b96552b5e33","","1042","
                <div class=""stimulus-container"">
                    <img src=""images/semantic_sequence/exploring_nature_semantic/exploring_nature_semantic_7.png"" class=""exp-image"">
                    <div class=""question-area"">
                        <p style=""font-size: 20px; font-weight: bold; margin: 0;"">Is there a person in this image?</p>
                    </div>
                </div>","0","main_experiment_trial","7","exploring_nature_semantic","semantic_sequence","","","","",""
"","","","","","html-keyboard-response","52","198749","0.0-52.0","971DFBC3F9BC4E5BA476692B34DD48D9","019cf78f-1106-7b12-bcea-8fd5c3a88e35","019cf78c-cfcf-769c-9016-9b96552b5e33","","null","
                <div class=""stimulus-container"">
                    <img src=""images/semantic_sequence/exploring_nature_semantic/exploring_nature_semantic_8.png"" class=""exp-image"">
                    <div class=""question-area""></div> 
                </div>","null","","","","","","","","",""
"","","","","","html-button-response","53","199323","0.0-53.0","971DFBC3F9BC4E5BA476692B34DD48D9","019cf78f-1106-7b12-bcea-8fd5c3a88e35","019cf78c-cfcf-769c-9016-9b96552b5e33","","574","
                <div class=""stimulus-container"">
                    <img src=""images/semantic_sequence/exploring_nature_semantic/exploring_nature_semantic_8.png"" class=""exp-image"">
                    <div class=""question-area"">
                        <p style=""font-size: 20px; font-weight: bold; margin: 0;"">Is there a person in this image?</p>
                    </div>
                </div>","0","main_experiment_trial","8","exploring_nature_semantic","semantic_sequence","","","","",""
"","","","","","html-keyboard-response","54","204332","0.0-54.0","971DFBC3F9BC4E5BA476692B34DD48D9","019cf78f-1106-7b12-bcea-8fd5c3a88e35","019cf78c-cfcf-769c-9016-9b96552b5e33","","null","
                <div class=""stimulus-container"">
                    <img src=""images/semantic_sequence/exploring_nature_semantic/exploring_nature_semantic_9.png"" class=""exp-image"">
                    <div class=""question-area""></div> 
                </div>","null","","","","","","","","",""
"","","","","","html-button-response","55","204799","0.0-55.0","971DFBC3F9BC4E5BA476692B34DD48D9","019cf78f-1106-7b12-bcea-8fd5c3a88e35","019cf78c-cfcf-769c-9016-9b96552b5e33","","467","
                <div class=""stimulus-container"">
                    <img src=""images/semantic_sequence/exploring_nature_semantic/exploring_nature_semantic_9.png"" class=""exp-image"">
                    <div class=""question-area"">
                        <p style=""font-size: 20px; font-weight: bold; margin: 0;"">Is there a person in this image?</p>
                    </div>
                </div>","0","main_experiment_trial","9","exploring_nature_semantic","semantic_sequence","","","","",""
"","","","","","html-keyboard-response","56","209815","0.0-56.0","971DFBC3F9BC4E5BA476692B34DD48D9","019cf78f-1106-7b12-bcea-8fd5c3a88e35","019cf78c-cfcf-769c-9016-9b96552b5e33","","null","
                <div class=""stimulus-container"">
                    <img src=""images/semantic_sequence/exploring_nature_semantic/exploring_nature_semantic_ten.png"" class=""exp-image"">
                    <div class=""question-area""></div> 
                </div>","null","","","","","","","","",""
"","","","","","html-button-response","57","210297","0.0-57.0","971DFBC3F9BC4E5BA476692B34DD48D9","019cf78f-1106-7b12-bcea-8fd5c3a88e35","019cf78c-cfcf-769c-9016-9b96552b5e33","","481","
                <div class=""stimulus-container"">
                    <img src=""images/semantic_sequence/exploring_nature_semantic/exploring_nature_semantic_ten.png"" class=""exp-image"">
                    <div class=""question-area"">
                        <p style=""font-size: 20px; font-weight: bold; margin: 0;"">Is there a person in this image?</p>
                    </div>
                </div>","0","main_experiment_trial","ten","exploring_nature_semantic","semantic_sequence","","","","",""
"","","","","","html-keyboard-response","58","211299","0.0-58.0","971DFBC3F9BC4E5BA476692B34DD48D9","019cf78f-1106-7b12-bcea-8fd5c3a88e35","019cf78c-cfcf-769c-9016-9b96552b5e33","","null","<div style=""background-color: white; width: 100vw; height: 100vh;""></div>","null","","","","","","","","",""
"","","","","","html-keyboard-response","59","216316","0.0-59.0","971DFBC3F9BC4E5BA476692B34DD48D9","019cf78f-1106-7b12-bcea-8fd5c3a88e35","019cf78c-cfcf-769c-9016-9b96552b5e33","","null","
                <div class=""stimulus-container"">
                    <img src=""images/semantic_sequence/kitchen_operations_semantic/kitchen_operations_semantic_1.png"" class=""exp-image"">
                    <div class=""question-area""></div> 
                </div>","null","","","","","","","","",""
"","","","","","html-button-response","60","217787","0.0-60.0","971DFBC3F9BC4E5BA476692B34DD48D9","019cf78f-1106-7b12-bcea-8fd5c3a88e35","019cf78c-cfcf-769c-9016-9b96552b5e33","","1471","
                <div class=""stimulus-container"">
                    <img src=""images/semantic_sequence/kitchen_operations_semantic/kitchen_operations_semantic_1.png"" class=""exp-image"">
                    <div class=""question-area"">
                        <p style=""font-size: 20px; font-weight: bold; margin: 0;"">Is there a person in this image?</p>
                    </div>
                </div>","0","main_experiment_trial","1","kitchen_operations_semantic","semantic_sequence","","","","",""
"","","","","","html-keyboard-response","61","222799","0.0-61.0","971DFBC3F9BC4E5BA476692B34DD48D9","019cf78f-1106-7b12-bcea-8fd5c3a88e35","019cf78c-cfcf-769c-9016-9b96552b5e33","","null","
                <div class=""stimulus-container"">
                    <img src=""images/semantic_sequence/kitchen_operations_semantic/kitchen_operations_semantic_2.png"" class=""exp-image"">
                    <div class=""question-area""></div> 
                </div>","null","","","","","","","","",""
"","","","","","html-button-response","62","223545","0.0-62.0","971DFBC3F9BC4E5BA476692B34DD48D9","019cf78f-1106-7b12-bcea-8fd5c3a88e35","019cf78c-cfcf-769c-9016-9b96552b5e33","","742","
                <div class=""stimulus-container"">
                    <img src=""images/semantic_sequence/kitchen_operations_semantic/kitchen_operations_semantic_2.png"" class=""exp-image"">
                    <div class=""question-area"">
                        <p style=""font-size: 20px; font-weight: bold; margin: 0;"">Is there a person in this image?</p>
                    </div>
                </div>","1","main_experiment_trial","2","kitchen_operations_semantic","semantic_sequence","","","","",""
"","","","","","html-keyboard-response","63","228549","0.0-63.0","971DFBC3F9BC4E5BA476692B34DD48D9","019cf78f-1106-7b12-bcea-8fd5c3a88e35","019cf78c-cfcf-769c-9016-9b96552b5e33","","null","
                <div class=""stimulus-container"">
                    <img src=""images/semantic_sequence/kitchen_operations_semantic/kitchen_operations_semantic_3.png"" class=""exp-image"">
                    <div class=""question-area""></div> 
                </div>","null","","","","","","","","",""
"","","","","","html-button-response","64","229645","0.0-64.0","971DFBC3F9BC4E5BA476692B34DD48D9","019cf78f-1106-7b12-bcea-8fd5c3a88e35","019cf78c-cfcf-769c-9016-9b96552b5e33","","1095","
                <div class=""stimulus-container"">
                    <img src=""images/semantic_sequence/kitchen_operations_semantic/kitchen_operations_semantic_3.png"" class=""exp-image"">
                    <div class=""question-area"">
                        <p style=""font-size: 20px; font-weight: bold; margin: 0;"">Is there a person in this image?</p>
                    </div>
                </div>","0","main_experiment_trial","3","kitchen_operations_semantic","semantic_sequence","","","","",""
"","","","","","html-keyboard-response","65","234648","0.0-65.0","971DFBC3F9BC4E5BA476692B34DD48D9","019cf78f-1106-7b12-bcea-8fd5c3a88e35","019cf78c-cfcf-769c-9016-9b96552b5e33","","null","
                <div class=""stimulus-container"">
                    <img src=""images/semantic_sequence/kitchen_operations_semantic/kitchen_operations_semantic_4.png"" class=""exp-image"">
                    <div class=""question-area""></div> 
                </div>","null","","","","","","","","",""
"","","","","","html-button-response","66","237207","0.0-66.0","971DFBC3F9BC4E5BA476692B34DD48D9","019cf78f-1106-7b12-bcea-8fd5c3a88e35","019cf78c-cfcf-769c-9016-9b96552b5e33","","2558","
                <div class=""stimulus-container"">
                    <img src=""images/semantic_sequence/kitchen_operations_semantic/kitchen_operations_semantic_4.png"" class=""exp-image"">
                    <div class=""question-area"">
                        <p style=""font-size: 20px; font-weight: bold; margin: 0;"">Is there a person in this image?</p>
                    </div>
                </div>","0","main_experiment_trial","4","kitchen_operations_semantic","semantic_sequence","","","","",""
"","","","","","html-keyboard-response","67","242215","0.0-67.0","971DFBC3F9BC4E5BA476692B34DD48D9","019cf78f-1106-7b12-bcea-8fd5c3a88e35","019cf78c-cfcf-769c-9016-9b96552b5e33","","null","
                <div class=""stimulus-container"">
                    <img src=""images/semantic_sequence/kitchen_operations_semantic/kitchen_operations_semantic_5.png"" class=""exp-image"">
                    <div class=""question-area""></div> 
                </div>","null","","","","","","","","",""
"","","","","","html-button-response","68","243185","0.0-68.0","971DFBC3F9BC4E5BA476692B34DD48D9","019cf78f-1106-7b12-bcea-8fd5c3a88e35","019cf78c-cfcf-769c-9016-9b96552b5e33","","969","
                <div class=""stimulus-container"">
                    <img src=""images/semantic_sequence/kitchen_operations_semantic/kitchen_operations_semantic_5.png"" class=""exp-image"">
                    <div class=""question-area"">
                        <p style=""font-size: 20px; font-weight: bold; margin: 0;"">Is there a person in this image?</p>
                    </div>
                </div>","0","main_experiment_trial","5","kitchen_operations_semantic","semantic_sequence","","","","",""
"","","","","","html-keyboard-response","69","248198","0.0-69.0","971DFBC3F9BC4E5BA476692B34DD48D9","019cf78f-1106-7b12-bcea-8fd5c3a88e35","019cf78c-cfcf-769c-9016-9b96552b5e33","","null","
                <div class=""stimulus-container"">
                    <img src=""images/semantic_sequence/kitchen_operations_semantic/kitchen_operations_semantic_6.png"" class=""exp-image"">
                    <div class=""question-area""></div> 
                </div>","null","","","","","","","","",""
"","","","","","html-button-response","70","248595","0.0-70.0","971DFBC3F9BC4E5BA476692B34DD48D9","019cf78f-1106-7b12-bcea-8fd5c3a88e35","019cf78c-cfcf-769c-9016-9b96552b5e33","","396","
                <div class=""stimulus-container"">
                    <img src=""images/semantic_sequence/kitchen_operations_semantic/kitchen_operations_semantic_6.png"" class=""exp-image"">
                    <div class=""question-area"">
                        <p style=""font-size: 20px; font-weight: bold; margin: 0;"">Is there a person in this image?</p>
                    </div>
                </div>","0","main_experiment_trial","6","kitchen_operations_semantic","semantic_sequence","","","","",""
"","","","","","html-keyboard-response","71","253599","0.0-71.0","971DFBC3F9BC4E5BA476692B34DD48D9","019cf78f-1106-7b12-bcea-8fd5c3a88e35","019cf78c-cfcf-769c-9016-9b96552b5e33","","null","
                <div class=""stimulus-container"">
                    <img src=""images/semantic_sequence/kitchen_operations_semantic/kitchen_operations_semantic_7.png"" class=""exp-image"">
                    <div class=""question-area""></div> 
                </div>","null","","","","","","","","",""
"","","","","","html-button-response","72","254633","0.0-72.0","971DFBC3F9BC4E5BA476692B34DD48D9","019cf78f-1106-7b12-bcea-8fd5c3a88e35","019cf78c-cfcf-769c-9016-9b96552b5e33","","1034","
                <div class=""stimulus-container"">
                    <img src=""images/semantic_sequence/kitchen_operations_semantic/kitchen_operations_semantic_7.png"" class=""exp-image"">
                    <div class=""question-area"">
                        <p style=""font-size: 20px; font-weight: bold; margin: 0;"">Is there a person in this image?</p>
                    </div>
                </div>","1","main_experiment_trial","7","kitchen_operations_semantic","semantic_sequence","","","","",""
"","","","","","html-keyboard-response","73","259649","0.0-73.0","971DFBC3F9BC4E5BA476692B34DD48D9","019cf78f-1106-7b12-bcea-8fd5c3a88e35","019cf78c-cfcf-769c-9016-9b96552b5e33","","null","
                <div class=""stimulus-container"">
                    <img src=""images/semantic_sequence/kitchen_operations_semantic/kitchen_operations_semantic_8.png"" class=""exp-image"">
                    <div class=""question-area""></div> 
                </div>","null","","","","","","","","",""
"","","","","","html-button-response","74","261349","0.0-74.0","971DFBC3F9BC4E5BA476692B34DD48D9","019cf78f-1106-7b12-bcea-8fd5c3a88e35","019cf78c-cfcf-769c-9016-9b96552b5e33","","1700","
                <div class=""stimulus-container"">
                    <img src=""images/semantic_sequence/kitchen_operations_semantic/kitchen_operations_semantic_8.png"" class=""exp-image"">
                    <div class=""question-area"">
                        <p style=""font-size: 20px; font-weight: bold; margin: 0;"">Is there a person in this image?</p>
                    </div>
                </div>","0","main_experiment_trial","8","kitchen_operations_semantic","semantic_sequence","","","","",""
"","","","","","html-keyboard-response","75","266365","0.0-75.0","971DFBC3F9BC4E5BA476692B34DD48D9","019cf78f-1106-7b12-bcea-8fd5c3a88e35","019cf78c-cfcf-769c-9016-9b96552b5e33","","null","
                <div class=""stimulus-container"">
                    <img src=""images/semantic_sequence/kitchen_operations_semantic/kitchen_operations_semantic_9.png"" class=""exp-image"">
                    <div class=""question-area""></div> 
                </div>","null","","","","","","","","",""
"","","","","","html-button-response","76","267127","0.0-76.0","971DFBC3F9BC4E5BA476692B34DD48D9","019cf78f-1106-7b12-bcea-8fd5c3a88e35","019cf78c-cfcf-769c-9016-9b96552b5e33","","761","
                <div class=""stimulus-container"">
                    <img src=""images/semantic_sequence/kitchen_operations_semantic/kitchen_operations_semantic_9.png"" class=""exp-image"">
                    <div class=""question-area"">
                        <p style=""font-size: 20px; font-weight: bold; margin: 0;"">Is there a person in this image?</p>
                    </div>
                </div>","1","main_experiment_trial","9","kitchen_operations_semantic","semantic_sequence","","","","",""
"","","","","","html-keyboard-response","77","272132","0.0-77.0","971DFBC3F9BC4E5BA476692B34DD48D9","019cf78f-1106-7b12-bcea-8fd5c3a88e35","019cf78c-cfcf-769c-9016-9b96552b5e33","","null","
                <div class=""stimulus-container"">
                    <img src=""images/semantic_sequence/kitchen_operations_semantic/kitchen_operations_semantic_ten.png"" class=""exp-image"">
                    <div class=""question-area""></div> 
                </div>","null","","","","","","","","",""
"","","","","","html-button-response","78","273033","0.0-78.0","971DFBC3F9BC4E5BA476692B34DD48D9","019cf78f-1106-7b12-bcea-8fd5c3a88e35","019cf78c-cfcf-769c-9016-9b96552b5e33","","901","
                <div class=""stimulus-container"">
                    <img src=""images/semantic_sequence/kitchen_operations_semantic/kitchen_operations_semantic_ten.png"" class=""exp-image"">
                    <div class=""question-area"">
                        <p style=""font-size: 20px; font-weight: bold; margin: 0;"">Is there a person in this image?</p>
                    </div>
                </div>","1","main_experiment_trial","ten","kitchen_operations_semantic","semantic_sequence","","","","",""
"","","","","","html-keyboard-response","79","274037","0.0-79.0","971DFBC3F9BC4E5BA476692B34DD48D9","019cf78f-1106-7b12-bcea-8fd5c3a88e35","019cf78c-cfcf-769c-9016-9b96552b5e33","","null","<div style=""background-color: white; width: 100vw; height: 100vh;""></div>","null","","","","","","","","",""
"","","","","","html-keyboard-response","80","279049","0.0-80.0","971DFBC3F9BC4E5BA476692B34DD48D9","019cf78f-1106-7b12-bcea-8fd5c3a88e35","019cf78c-cfcf-769c-9016-9b96552b5e33","","null","
                <div class=""stimulus-container"">
                    <img src=""images/schematic_sequence/dinner_party_scheme/dinner_party_scheme_1.png"" class=""exp-image"">
                    <div class=""question-area""></div> 
                </div>","null","","","","","","","","",""
"","","","","","html-button-response","81","280395","0.0-81.0","971DFBC3F9BC4E5BA476692B34DD48D9","019cf78f-1106-7b12-bcea-8fd5c3a88e35","019cf78c-cfcf-769c-9016-9b96552b5e33","","1345","
                <div class=""stimulus-container"">
                    <img src=""images/schematic_sequence/dinner_party_scheme/dinner_party_scheme_1.png"" class=""exp-image"">
                    <div class=""question-area"">
                        <p style=""font-size: 20px; font-weight: bold; margin: 0;"">Is there a person in this image?</p>
                    </div>
                </div>","1","main_experiment_trial","1","dinner_party_scheme","schematic_sequence","","","","",""
"","","","","","html-keyboard-response","82","285398","0.0-82.0","971DFBC3F9BC4E5BA476692B34DD48D9","019cf78f-1106-7b12-bcea-8fd5c3a88e35","019cf78c-cfcf-769c-9016-9b96552b5e33","","null","
                <div class=""stimulus-container"">
                    <img src=""images/schematic_sequence/dinner_party_scheme/dinner_party_scheme_2.png"" class=""exp-image"">
                    <div class=""question-area""></div> 
                </div>","null","","","","","","","","",""
"","","","","","html-button-response","83","285789","0.0-83.0","971DFBC3F9BC4E5BA476692B34DD48D9","019cf78f-1106-7b12-bcea-8fd5c3a88e35","019cf78c-cfcf-769c-9016-9b96552b5e33","","390","
                <div class=""stimulus-container"">
                    <img src=""images/schematic_sequence/dinner_party_scheme/dinner_party_scheme_2.png"" class=""exp-image"">
                    <div class=""question-area"">
                        <p style=""font-size: 20px; font-weight: bold; margin: 0;"">Is there a person in this image?</p>
                    </div>
                </div>","1","main_experiment_trial","2","dinner_party_scheme","schematic_sequence","","","","",""
"","","","","","html-keyboard-response","84","290798","0.0-84.0","971DFBC3F9BC4E5BA476692B34DD48D9","019cf78f-1106-7b12-bcea-8fd5c3a88e35","019cf78c-cfcf-769c-9016-9b96552b5e33","","null","
                <div class=""stimulus-container"">
                    <img src=""images/schematic_sequence/dinner_party_scheme/dinner_party_scheme_3.png"" class=""exp-image"">
                    <div class=""question-area""></div> 
                </div>","null","","","","","","","","",""
"","","","","","html-button-response","85","291161","0.0-85.0","971DFBC3F9BC4E5BA476692B34DD48D9","019cf78f-1106-7b12-bcea-8fd5c3a88e35","019cf78c-cfcf-769c-9016-9b96552b5e33","","362","
                <div class=""stimulus-container"">
                    <img src=""images/schematic_sequence/dinner_party_scheme/dinner_party_scheme_3.png"" class=""exp-image"">
                    <div class=""question-area"">
                        <p style=""font-size: 20px; font-weight: bold; margin: 0;"">Is there a person in this image?</p>
                    </div>
                </div>","1","main_experiment_trial","3","dinner_party_scheme","schematic_sequence","","","","",""
"","","","","","html-keyboard-response","86","296165","0.0-86.0","971DFBC3F9BC4E5BA476692B34DD48D9","019cf78f-1106-7b12-bcea-8fd5c3a88e35","019cf78c-cfcf-769c-9016-9b96552b5e33","","null","
                <div class=""stimulus-container"">
                    <img src=""images/schematic_sequence/dinner_party_scheme/dinner_party_scheme_4.png"" class=""exp-image"">
                    <div class=""question-area""></div> 
                </div>","null","","","","","","","","",""
"","","","","","html-button-response","87","296571","0.0-87.0","971DFBC3F9BC4E5BA476692B34DD48D9","019cf78f-1106-7b12-bcea-8fd5c3a88e35","019cf78c-cfcf-769c-9016-9b96552b5e33","","405","
                <div class=""stimulus-container"">
                    <img src=""images/schematic_sequence/dinner_party_scheme/dinner_party_scheme_4.png"" class=""exp-image"">
                    <div class=""question-area"">
                        <p style=""font-size: 20px; font-weight: bold; margin: 0;"">Is there a person in this image?</p>
                    </div>
                </div>","1","main_experiment_trial","4","dinner_party_scheme","schematic_sequence","","","","",""
"","","","","","html-keyboard-response","88","301581","0.0-88.0","971DFBC3F9BC4E5BA476692B34DD48D9","019cf78f-1106-7b12-bcea-8fd5c3a88e35","019cf78c-cfcf-769c-9016-9b96552b5e33","","null","
                <div class=""stimulus-container"">
                    <img src=""images/schematic_sequence/dinner_party_scheme/dinner_party_scheme_5.png"" class=""exp-image"">
                    <div class=""question-area""></div> 
                </div>","null","","","","","","","","",""
"","","","","","html-button-response","89","302221","0.0-89.0","971DFBC3F9BC4E5BA476692B34DD48D9","019cf78f-1106-7b12-bcea-8fd5c3a88e35","019cf78c-cfcf-769c-9016-9b96552b5e33","","640","
                <div class=""stimulus-container"">
                    <img src=""images/schematic_sequence/dinner_party_scheme/dinner_party_scheme_5.png"" class=""exp-image"">
                    <div class=""question-area"">
                        <p style=""font-size: 20px; font-weight: bold; margin: 0;"">Is there a person in this image?</p>
                    </div>
                </div>","0","main_experiment_trial","5","dinner_party_scheme","schematic_sequence","","","","",""
"","","","","","html-keyboard-response","90","307232","0.0-90.0","971DFBC3F9BC4E5BA476692B34DD48D9","019cf78f-1106-7b12-bcea-8fd5c3a88e35","019cf78c-cfcf-769c-9016-9b96552b5e33","","null","
                <div class=""stimulus-container"">
                    <img src=""images/schematic_sequence/dinner_party_scheme/dinner_party_scheme_6.png"" class=""exp-image"">
                    <div class=""question-area""></div> 
                </div>","null","","","","","","","","",""
"","","","","","html-button-response","91","307969","0.0-91.0","971DFBC3F9BC4E5BA476692B34DD48D9","019cf78f-1106-7b12-bcea-8fd5c3a88e35","019cf78c-cfcf-769c-9016-9b96552b5e33","","737","
                <div class=""stimulus-container"">
                    <img src=""images/schematic_sequence/dinner_party_scheme/dinner_party_scheme_6.png"" class=""exp-image"">
                    <div class=""question-area"">
                        <p style=""font-size: 20px; font-weight: bold; margin: 0;"">Is there a person in this image?</p>
                    </div>
                </div>","1","main_experiment_trial","6","dinner_party_scheme","schematic_sequence","","","","",""
"","","","","","html-keyboard-response","92","312982","0.0-92.0","971DFBC3F9BC4E5BA476692B34DD48D9","019cf78f-1106-7b12-bcea-8fd5c3a88e35","019cf78c-cfcf-769c-9016-9b96552b5e33","","null","
                <div class=""stimulus-container"">
                    <img src=""images/schematic_sequence/dinner_party_scheme/dinner_party_scheme_7.png"" class=""exp-image"">
                    <div class=""question-area""></div> 
                </div>","null","","","","","","","","",""
"","","","","","html-button-response","93","314059","0.0-93.0","971DFBC3F9BC4E5BA476692B34DD48D9","019cf78f-1106-7b12-bcea-8fd5c3a88e35","019cf78c-cfcf-769c-9016-9b96552b5e33","","1077","
                <div class=""stimulus-container"">
                    <img src=""images/schematic_sequence/dinner_party_scheme/dinner_party_scheme_7.png"" class=""exp-image"">
                    <div class=""question-area"">
                        <p style=""font-size: 20px; font-weight: bold; margin: 0;"">Is there a person in this image?</p>
                    </div>
                </div>","1","main_experiment_trial","7","dinner_party_scheme","schematic_sequence","","","","",""
"","","","","","html-keyboard-response","94","319060","0.0-94.0","971DFBC3F9BC4E5BA476692B34DD48D9","019cf78f-1106-7b12-bcea-8fd5c3a88e35","019cf78c-cfcf-769c-9016-9b96552b5e33","","null","
                <div class=""stimulus-container"">
                    <img src=""images/schematic_sequence/dinner_party_scheme/dinner_party_scheme_8.png"" class=""exp-image"">
                    <div class=""question-area""></div> 
                </div>","null","","","","","","","","",""
"","","","","","html-button-response","95","319673","0.0-95.0","971DFBC3F9BC4E5BA476692B34DD48D9","019cf78f-1106-7b12-bcea-8fd5c3a88e35","019cf78c-cfcf-769c-9016-9b96552b5e33","","612","
                <div class=""stimulus-container"">
                    <img src=""images/schematic_sequence/dinner_party_scheme/dinner_party_scheme_8.png"" class=""exp-image"">
                    <div class=""question-area"">
                        <p style=""font-size: 20px; font-weight: bold; margin: 0;"">Is there a person in this image?</p>
                    </div>
                </div>","1","main_experiment_trial","8","dinner_party_scheme","schematic_sequence","","","","",""
"","","","","","html-keyboard-response","96","324681","0.0-96.0","971DFBC3F9BC4E5BA476692B34DD48D9","019cf78f-1106-7b12-bcea-8fd5c3a88e35","019cf78c-cfcf-769c-9016-9b96552b5e33","","null","
                <div class=""stimulus-container"">
                    <img src=""images/schematic_sequence/dinner_party_scheme/dinner_party_scheme_9.png"" class=""exp-image"">
                    <div class=""question-area""></div> 
                </div>","null","","","","","","","","",""
"","","","","","html-button-response","97","326364","0.0-97.0","971DFBC3F9BC4E5BA476692B34DD48D9","019cf78f-1106-7b12-bcea-8fd5c3a88e35","019cf78c-cfcf-769c-9016-9b96552b5e33","","1682","
                <div class=""stimulus-container"">
                    <img src=""images/schematic_sequence/dinner_party_scheme/dinner_party_scheme_9.png"" class=""exp-image"">
                    <div class=""question-area"">
                        <p style=""font-size: 20px; font-weight: bold; margin: 0;"">Is there a person in this image?</p>
                    </div>
                </div>","1","main_experiment_trial","9","dinner_party_scheme","schematic_sequence","","","","",""
"","","","","","html-keyboard-response","98","331365","0.0-98.0","971DFBC3F9BC4E5BA476692B34DD48D9","019cf78f-1106-7b12-bcea-8fd5c3a88e35","019cf78c-cfcf-769c-9016-9b96552b5e33","","null","
                <div class=""stimulus-container"">
                    <img src=""images/schematic_sequence/dinner_party_scheme/dinner_party_scheme_ten.png"" class=""exp-image"">
                    <div class=""question-area""></div> 
                </div>","null","","","","","","","","",""
"","","","","","html-button-response","99","332529","0.0-99.0","971DFBC3F9BC4E5BA476692B34DD48D9","019cf78f-1106-7b12-bcea-8fd5c3a88e35","019cf78c-cfcf-769c-9016-9b96552b5e33","","1164","
                <div class=""stimulus-container"">
                    <img src=""images/schematic_sequence/dinner_party_scheme/dinner_party_scheme_ten.png"" class=""exp-image"">
                    <div class=""question-area"">
                        <p style=""font-size: 20px; font-weight: bold; margin: 0;"">Is there a person in this image?</p>
                    </div>
                </div>","1","main_experiment_trial","ten","dinner_party_scheme","schematic_sequence","","","","",""
"","","","","","html-keyboard-response","100","333532","0.0-100.0","971DFBC3F9BC4E5BA476692B34DD48D9","019cf78f-1106-7b12-bcea-8fd5c3a88e35","019cf78c-cfcf-769c-9016-9b96552b5e33","","null","<div style=""background-color: white; width: 100vw; height: 100vh;""></div>","null","","","","","","","","",""
"","","","","","html-keyboard-response","101","338533","0.0-101.0","971DFBC3F9BC4E5BA476692B34DD48D9","019cf78f-1106-7b12-bcea-8fd5c3a88e35","019cf78c-cfcf-769c-9016-9b96552b5e33","","null","
                <div class=""stimulus-container"">
                    <img src=""images/schematic_sequence/flight_scheme/flight_scheme_1.png"" class=""exp-image"">
                    <div class=""question-area""></div> 
                </div>","null","","","","","","","","",""
"","","","","","html-button-response","102","341549","0.0-102.0","971DFBC3F9BC4E5BA476692B34DD48D9","019cf78f-1106-7b12-bcea-8fd5c3a88e35","019cf78c-cfcf-769c-9016-9b96552b5e33","","null","
                <div class=""stimulus-container"">
                    <img src=""images/schematic_sequence/flight_scheme/flight_scheme_1.png"" class=""exp-image"">
                    <div class=""question-area"">
                        <p style=""font-size: 20px; font-weight: bold; margin: 0;"">Is there a person in this image?</p>
                    </div>
                </div>","null","main_experiment_trial","1","flight_scheme","schematic_sequence","","","","",""
"","","","","","html-keyboard-response","103","346550","0.0-103.0","971DFBC3F9BC4E5BA476692B34DD48D9","019cf78f-1106-7b12-bcea-8fd5c3a88e35","019cf78c-cfcf-769c-9016-9b96552b5e33","","null","
                <div class=""stimulus-container"">
                    <img src=""images/schematic_sequence/flight_scheme/flight_scheme_2.png"" class=""exp-image"">
                    <div class=""question-area""></div> 
                </div>","null","","","","","","","","",""
"","","","","","html-button-response","104","347447","0.0-104.0","971DFBC3F9BC4E5BA476692B34DD48D9","019cf78f-1106-7b12-bcea-8fd5c3a88e35","019cf78c-cfcf-769c-9016-9b96552b5e33","","897","
                <div class=""stimulus-container"">
                    <img src=""images/schematic_sequence/flight_scheme/flight_scheme_2.png"" class=""exp-image"">
                    <div class=""question-area"">
                        <p style=""font-size: 20px; font-weight: bold; margin: 0;"">Is there a person in this image?</p>
                    </div>
                </div>","1","main_experiment_trial","2","flight_scheme","schematic_sequence","","","","",""
"","","","","","html-keyboard-response","105","352450","0.0-105.0","971DFBC3F9BC4E5BA476692B34DD48D9","019cf78f-1106-7b12-bcea-8fd5c3a88e35","019cf78c-cfcf-769c-9016-9b96552b5e33","","null","
                <div class=""stimulus-container"">
                    <img src=""images/schematic_sequence/flight_scheme/flight_scheme_3.png"" class=""exp-image"">
                    <div class=""question-area""></div> 
                </div>","null","","","","","","","","",""
"","","","","","html-button-response","106","352965","0.0-106.0","971DFBC3F9BC4E5BA476692B34DD48D9","019cf78f-1106-7b12-bcea-8fd5c3a88e35","019cf78c-cfcf-769c-9016-9b96552b5e33","","515","
                <div class=""stimulus-container"">
                    <img src=""images/schematic_sequence/flight_scheme/flight_scheme_3.png"" class=""exp-image"">
                    <div class=""question-area"">
                        <p style=""font-size: 20px; font-weight: bold; margin: 0;"">Is there a person in this image?</p>
                    </div>
                </div>","0","main_experiment_trial","3","flight_scheme","schematic_sequence","","","","",""
"","","","","","html-keyboard-response","107","357966","0.0-107.0","971DFBC3F9BC4E5BA476692B34DD48D9","019cf78f-1106-7b12-bcea-8fd5c3a88e35","019cf78c-cfcf-769c-9016-9b96552b5e33","","null","
                <div class=""stimulus-container"">
                    <img src=""images/schematic_sequence/flight_scheme/flight_scheme_4.png"" class=""exp-image"">
                    <div class=""question-area""></div> 
                </div>","null","","","","","","","","",""
"","","","","","html-button-response","108","358379","0.0-108.0","971DFBC3F9BC4E5BA476692B34DD48D9","019cf78f-1106-7b12-bcea-8fd5c3a88e35","019cf78c-cfcf-769c-9016-9b96552b5e33","","412","
                <div class=""stimulus-container"">
                    <img src=""images/schematic_sequence/flight_scheme/flight_scheme_4.png"" class=""exp-image"">
                    <div class=""question-area"">
                        <p style=""font-size: 20px; font-weight: bold; margin: 0;"">Is there a person in this image?</p>
                    </div>
                </div>","0","main_experiment_trial","4","flight_scheme","schematic_sequence","","","","",""
"","","","","","html-keyboard-response","109","363382","0.0-109.0","971DFBC3F9BC4E5BA476692B34DD48D9","019cf78f-1106-7b12-bcea-8fd5c3a88e35","019cf78c-cfcf-769c-9016-9b96552b5e33","","null","
                <div class=""stimulus-container"">
                    <img src=""images/schematic_sequence/flight_scheme/flight_scheme_5.png"" class=""exp-image"">
                    <div class=""question-area""></div> 
                </div>","null","","","","","","","","",""
"","","","","","html-button-response","110","366154","0.0-110.0","971DFBC3F9BC4E5BA476692B34DD48D9","019cf78f-1106-7b12-bcea-8fd5c3a88e35","019cf78c-cfcf-769c-9016-9b96552b5e33","","2771","
                <div class=""stimulus-container"">
                    <img src=""images/schematic_sequence/flight_scheme/flight_scheme_5.png"" class=""exp-image"">
                    <div class=""question-area"">
                        <p style=""font-size: 20px; font-weight: bold; margin: 0;"">Is there a person in this image?</p>
                    </div>
                </div>","0","main_experiment_trial","5","flight_scheme","schematic_sequence","","","","",""
"","","","","","html-keyboard-response","111","371165","0.0-111.0","971DFBC3F9BC4E5BA476692B34DD48D9","019cf78f-1106-7b12-bcea-8fd5c3a88e35","019cf78c-cfcf-769c-9016-9b96552b5e33","","null","
                <div class=""stimulus-container"">
                    <img src=""images/schematic_sequence/flight_scheme/flight_scheme_6.png"" class=""exp-image"">
                    <div class=""question-area""></div> 
                </div>","null","","","","","","","","",""
"","","","","","html-button-response","112","372192","0.0-112.0","971DFBC3F9BC4E5BA476692B34DD48D9","019cf78f-1106-7b12-bcea-8fd5c3a88e35","019cf78c-cfcf-769c-9016-9b96552b5e33","","1026","
                <div class=""stimulus-container"">
                    <img src=""images/schematic_sequence/flight_scheme/flight_scheme_6.png"" class=""exp-image"">
                    <div class=""question-area"">
                        <p style=""font-size: 20px; font-weight: bold; margin: 0;"">Is there a person in this image?</p>
                    </div>
                </div>","1","main_experiment_trial","6","flight_scheme","schematic_sequence","","","","",""
"","","","","","html-keyboard-response","113","377196","0.0-113.0","971DFBC3F9BC4E5BA476692B34DD48D9","019cf78f-1106-7b12-bcea-8fd5c3a88e35","019cf78c-cfcf-769c-9016-9b96552b5e33","","null","
                <div class=""stimulus-container"">
                    <img src=""images/schematic_sequence/flight_scheme/flight_scheme_7.png"" class=""exp-image"">
                    <div class=""question-area""></div> 
                </div>","null","","","","","","","","",""
"","","","","","html-button-response","114","378436","0.0-114.0","971DFBC3F9BC4E5BA476692B34DD48D9","019cf78f-1106-7b12-bcea-8fd5c3a88e35","019cf78c-cfcf-769c-9016-9b96552b5e33","","1239","
                <div class=""stimulus-container"">
                    <img src=""images/schematic_sequence/flight_scheme/flight_scheme_7.png"" class=""exp-image"">
                    <div class=""question-area"">
                        <p style=""font-size: 20px; font-weight: bold; margin: 0;"">Is there a person in this image?</p>
                    </div>
                </div>","1","main_experiment_trial","7","flight_scheme","schematic_sequence","","","","",""
"","","","","","html-keyboard-response","115","383448","0.0-115.0","971DFBC3F9BC4E5BA476692B34DD48D9","019cf78f-1106-7b12-bcea-8fd5c3a88e35","019cf78c-cfcf-769c-9016-9b96552b5e33","","null","
                <div class=""stimulus-container"">
                    <img src=""images/schematic_sequence/flight_scheme/flight_scheme_8.png"" class=""exp-image"">
                    <div class=""question-area""></div> 
                </div>","null","","","","","","","","",""
"","","","","","html-button-response","116","383858","0.0-116.0","971DFBC3F9BC4E5BA476692B34DD48D9","019cf78f-1106-7b12-bcea-8fd5c3a88e35","019cf78c-cfcf-769c-9016-9b96552b5e33","","409","
                <div class=""stimulus-container"">
                    <img src=""images/schematic_sequence/flight_scheme/flight_scheme_8.png"" class=""exp-image"">
                    <div class=""question-area"">
                        <p style=""font-size: 20px; font-weight: bold; margin: 0;"">Is there a person in this image?</p>
                    </div>
                </div>","1","main_experiment_trial","8","flight_scheme","schematic_sequence","","","","",""
"","","","","","html-keyboard-response","117","388866","0.0-117.0","971DFBC3F9BC4E5BA476692B34DD48D9","019cf78f-1106-7b12-bcea-8fd5c3a88e35","019cf78c-cfcf-769c-9016-9b96552b5e33","","null","
                <div class=""stimulus-container"">
                    <img src=""images/schematic_sequence/flight_scheme/flight_scheme_9.png"" class=""exp-image"">
                    <div class=""question-area""></div> 
                </div>","null","","","","","","","","",""
"","","","","","html-button-response","118","389955","0.0-118.0","971DFBC3F9BC4E5BA476692B34DD48D9","019cf78f-1106-7b12-bcea-8fd5c3a88e35","019cf78c-cfcf-769c-9016-9b96552b5e33","","1089","
                <div class=""stimulus-container"">
                    <img src=""images/schematic_sequence/flight_scheme/flight_scheme_9.png"" class=""exp-image"">
                    <div class=""question-area"">
                        <p style=""font-size: 20px; font-weight: bold; margin: 0;"">Is there a person in this image?</p>
                    </div>
                </div>","1","main_experiment_trial","9","flight_scheme","schematic_sequence","","","","",""
"","","","","","html-keyboard-response","119","394962","0.0-119.0","971DFBC3F9BC4E5BA476692B34DD48D9","019cf78f-1106-7b12-bcea-8fd5c3a88e35","019cf78c-cfcf-769c-9016-9b96552b5e33","","null","
                <div class=""stimulus-container"">
                    <img src=""images/schematic_sequence/flight_scheme/flight_scheme_ten.png"" class=""exp-image"">
                    <div class=""question-area""></div> 
                </div>","null","","","","","","","","",""
"","","","","","html-button-response","120","396806","0.0-120.0","971DFBC3F9BC4E5BA476692B34DD48D9","019cf78f-1106-7b12-bcea-8fd5c3a88e35","019cf78c-cfcf-769c-9016-9b96552b5e33","","1843","
                <div class=""stimulus-container"">
                    <img src=""images/schematic_sequence/flight_scheme/flight_scheme_ten.png"" class=""exp-image"">
                    <div class=""question-area"">
                        <p style=""font-size: 20px; font-weight: bold; margin: 0;"">Is there a person in this image?</p>
                    </div>
                </div>","0","main_experiment_trial","ten","flight_scheme","schematic_sequence","","","","",""
"","","","","","html-keyboard-response","121","397815","0.0-121.0","971DFBC3F9BC4E5BA476692B34DD48D9","019cf78f-1106-7b12-bcea-8fd5c3a88e35","019cf78c-cfcf-769c-9016-9b96552b5e33","","null","<div style=""background-color: white; width: 100vw; height: 100vh;""></div>","null","","","","","","","","",""
"","","","","","html-keyboard-response","122","402832","0.0-122.0","971DFBC3F9BC4E5BA476692B34DD48D9","019cf78f-1106-7b12-bcea-8fd5c3a88e35","019cf78c-cfcf-769c-9016-9b96552b5e33","","null","
                <div class=""stimulus-container"">
                    <img src=""images/semantic_sequence/creative_activities_semantic/creative_activities_semantic_1.png"" class=""exp-image"">
                    <div class=""question-area""></div> 
                </div>","null","","","","","","","","",""
"","","","","","html-button-response","123","403656","0.0-123.0","971DFBC3F9BC4E5BA476692B34DD48D9","019cf78f-1106-7b12-bcea-8fd5c3a88e35","019cf78c-cfcf-769c-9016-9b96552b5e33","","823","
                <div class=""stimulus-container"">
                    <img src=""images/semantic_sequence/creative_activities_semantic/creative_activities_semantic_1.png"" class=""exp-image"">
                    <div class=""question-area"">
                        <p style=""font-size: 20px; font-weight: bold; margin: 0;"">Is there a person in this image?</p>
                    </div>
                </div>","1","main_experiment_trial","1","creative_activities_semantic","semantic_sequence","","","","",""
"","","","","","html-keyboard-response","124","408665","0.0-124.0","971DFBC3F9BC4E5BA476692B34DD48D9","019cf78f-1106-7b12-bcea-8fd5c3a88e35","019cf78c-cfcf-769c-9016-9b96552b5e33","","null","
                <div class=""stimulus-container"">
                    <img src=""images/semantic_sequence/creative_activities_semantic/creative_activities_semantic_2.png"" class=""exp-image"">
                    <div class=""question-area""></div> 
                </div>","null","","","","","","","","",""
"","","","","","html-button-response","125","409111","0.0-125.0","971DFBC3F9BC4E5BA476692B34DD48D9","019cf78f-1106-7b12-bcea-8fd5c3a88e35","019cf78c-cfcf-769c-9016-9b96552b5e33","","446","
                <div class=""stimulus-container"">
                    <img src=""images/semantic_sequence/creative_activities_semantic/creative_activities_semantic_2.png"" class=""exp-image"">
                    <div class=""question-area"">
                        <p style=""font-size: 20px; font-weight: bold; margin: 0;"">Is there a person in this image?</p>
                    </div>
                </div>","1","main_experiment_trial","2","creative_activities_semantic","semantic_sequence","","","","",""
"","","","","","html-keyboard-response","126","414116","0.0-126.0","971DFBC3F9BC4E5BA476692B34DD48D9","019cf78f-1106-7b12-bcea-8fd5c3a88e35","019cf78c-cfcf-769c-9016-9b96552b5e33","","null","
                <div class=""stimulus-container"">
                    <img src=""images/semantic_sequence/creative_activities_semantic/creative_activities_semantic_3.png"" class=""exp-image"">
                    <div class=""question-area""></div> 
                </div>","null","","","","","","","","",""
"","","","","","html-button-response","127","414798","0.0-127.0","971DFBC3F9BC4E5BA476692B34DD48D9","019cf78f-1106-7b12-bcea-8fd5c3a88e35","019cf78c-cfcf-769c-9016-9b96552b5e33","","681","
                <div class=""stimulus-container"">
                    <img src=""images/semantic_sequence/creative_activities_semantic/creative_activities_semantic_3.png"" class=""exp-image"">
                    <div class=""question-area"">
                        <p style=""font-size: 20px; font-weight: bold; margin: 0;"">Is there a person in this image?</p>
                    </div>
                </div>","0","main_experiment_trial","3","creative_activities_semantic","semantic_sequence","","","","",""
"","","","","","html-keyboard-response","128","419799","0.0-128.0","971DFBC3F9BC4E5BA476692B34DD48D9","019cf78f-1106-7b12-bcea-8fd5c3a88e35","019cf78c-cfcf-769c-9016-9b96552b5e33","","null","
                <div class=""stimulus-container"">
                    <img src=""images/semantic_sequence/creative_activities_semantic/creative_activities_semantic_4.png"" class=""exp-image"">
                    <div class=""question-area""></div> 
                </div>","null","","","","","","","","",""
"","","","","","html-button-response","129","420668","0.0-129.0","971DFBC3F9BC4E5BA476692B34DD48D9","019cf78f-1106-7b12-bcea-8fd5c3a88e35","019cf78c-cfcf-769c-9016-9b96552b5e33","","868","
                <div class=""stimulus-container"">
                    <img src=""images/semantic_sequence/creative_activities_semantic/creative_activities_semantic_4.png"" class=""exp-image"">
                    <div class=""question-area"">
                        <p style=""font-size: 20px; font-weight: bold; margin: 0;"">Is there a person in this image?</p>
                    </div>
                </div>","0","main_experiment_trial","4","creative_activities_semantic","semantic_sequence","","","","",""
"","","","","","html-keyboard-response","130","425683","0.0-130.0","971DFBC3F9BC4E5BA476692B34DD48D9","019cf78f-1106-7b12-bcea-8fd5c3a88e35","019cf78c-cfcf-769c-9016-9b96552b5e33","","null","
                <div class=""stimulus-container"">
                    <img src=""images/semantic_sequence/creative_activities_semantic/creative_activities_semantic_5.png"" class=""exp-image"">
                    <div class=""question-area""></div> 
                </div>","null","","","","","","","","",""
"","","","","","html-button-response","131","426052","0.0-131.0","971DFBC3F9BC4E5BA476692B34DD48D9","019cf78f-1106-7b12-bcea-8fd5c3a88e35","019cf78c-cfcf-769c-9016-9b96552b5e33","","369","
                <div class=""stimulus-container"">
                    <img src=""images/semantic_sequence/creative_activities_semantic/creative_activities_semantic_5.png"" class=""exp-image"">
                    <div class=""question-area"">
                        <p style=""font-size: 20px; font-weight: bold; margin: 0;"">Is there a person in this image?</p>
                    </div>
                </div>","0","main_experiment_trial","5","creative_activities_semantic","semantic_sequence","","","","",""
"","","","","","html-keyboard-response","132","431066","0.0-132.0","971DFBC3F9BC4E5BA476692B34DD48D9","019cf78f-1106-7b12-bcea-8fd5c3a88e35","019cf78c-cfcf-769c-9016-9b96552b5e33","","null","
                <div class=""stimulus-container"">
                    <img src=""images/semantic_sequence/creative_activities_semantic/creative_activities_semantic_6.png"" class=""exp-image"">
                    <div class=""question-area""></div> 
                </div>","null","","","","","","","","",""
"","","","","","html-button-response","133","431454","0.0-133.0","971DFBC3F9BC4E5BA476692B34DD48D9","019cf78f-1106-7b12-bcea-8fd5c3a88e35","019cf78c-cfcf-769c-9016-9b96552b5e33","","387","
                <div class=""stimulus-container"">
                    <img src=""images/semantic_sequence/creative_activities_semantic/creative_activities_semantic_6.png"" class=""exp-image"">
                    <div class=""question-area"">
                        <p style=""font-size: 20px; font-weight: bold; margin: 0;"">Is there a person in this image?</p>
                    </div>
                </div>","1","main_experiment_trial","6","creative_activities_semantic","semantic_sequence","","","","",""
"","","","","","html-keyboard-response","134","436466","0.0-134.0","971DFBC3F9BC4E5BA476692B34DD48D9","019cf78f-1106-7b12-bcea-8fd5c3a88e35","019cf78c-cfcf-769c-9016-9b96552b5e33","","null","
                <div class=""stimulus-container"">
                    <img src=""images/semantic_sequence/creative_activities_semantic/creative_activities_semantic_7.png"" class=""exp-image"">
                    <div class=""question-area""></div> 
                </div>","null","","","","","","","","",""
"","","","","","html-button-response","135","436884","0.0-135.0","971DFBC3F9BC4E5BA476692B34DD48D9","019cf78f-1106-7b12-bcea-8fd5c3a88e35","019cf78c-cfcf-769c-9016-9b96552b5e33","","417","
                <div class=""stimulus-container"">
                    <img src=""images/semantic_sequence/creative_activities_semantic/creative_activities_semantic_7.png"" class=""exp-image"">
                    <div class=""question-area"">
                        <p style=""font-size: 20px; font-weight: bold; margin: 0;"">Is there a person in this image?</p>
                    </div>
                </div>","1","main_experiment_trial","7","creative_activities_semantic","semantic_sequence","","","","",""
"","","","","","html-keyboard-response","136","441899","0.0-136.0","971DFBC3F9BC4E5BA476692B34DD48D9","019cf78f-1106-7b12-bcea-8fd5c3a88e35","019cf78c-cfcf-769c-9016-9b96552b5e33","","null","
                <div class=""stimulus-container"">
                    <img src=""images/semantic_sequence/creative_activities_semantic/creative_activities_semantic_8.png"" class=""exp-image"">
                    <div class=""question-area""></div> 
                </div>","null","","","","","","","","",""
"","","","","","html-button-response","137","442258","0.0-137.0","971DFBC3F9BC4E5BA476692B34DD48D9","019cf78f-1106-7b12-bcea-8fd5c3a88e35","019cf78c-cfcf-769c-9016-9b96552b5e33","","358","
                <div class=""stimulus-container"">
                    <img src=""images/semantic_sequence/creative_activities_semantic/creative_activities_semantic_8.png"" class=""exp-image"">
                    <div class=""question-area"">
                        <p style=""font-size: 20px; font-weight: bold; margin: 0;"">Is there a person in this image?</p>
                    </div>
                </div>","1","main_experiment_trial","8","creative_activities_semantic","semantic_sequence","","","","",""
"","","","","","html-keyboard-response","138","447266","0.0-138.0","971DFBC3F9BC4E5BA476692B34DD48D9","019cf78f-1106-7b12-bcea-8fd5c3a88e35","019cf78c-cfcf-769c-9016-9b96552b5e33","","null","
                <div class=""stimulus-container"">
                    <img src=""images/semantic_sequence/creative_activities_semantic/creative_activities_semantic_9.png"" class=""exp-image"">
                    <div class=""question-area""></div> 
                </div>","null","","","","","","","","",""
"","","","","","html-button-response","139","447798","0.0-139.0","971DFBC3F9BC4E5BA476692B34DD48D9","019cf78f-1106-7b12-bcea-8fd5c3a88e35","019cf78c-cfcf-769c-9016-9b96552b5e33","","532","
                <div class=""stimulus-container"">
                    <img src=""images/semantic_sequence/creative_activities_semantic/creative_activities_semantic_9.png"" class=""exp-image"">
                    <div class=""question-area"">
                        <p style=""font-size: 20px; font-weight: bold; margin: 0;"">Is there a person in this image?</p>
                    </div>
                </div>","1","main_experiment_trial","9","creative_activities_semantic","semantic_sequence","","","","",""
"","","","","","html-keyboard-response","140","452800","0.0-140.0","971DFBC3F9BC4E5BA476692B34DD48D9","019cf78f-1106-7b12-bcea-8fd5c3a88e35","019cf78c-cfcf-769c-9016-9b96552b5e33","","null","
                <div class=""stimulus-container"">
                    <img src=""images/semantic_sequence/creative_activities_semantic/creative_activities_semantic_ten.png"" class=""exp-image"">
                    <div class=""question-area""></div> 
                </div>","null","","","","","","","","",""
"","","","","","html-button-response","141","453188","0.0-141.0","971DFBC3F9BC4E5BA476692B34DD48D9","019cf78f-1106-7b12-bcea-8fd5c3a88e35","019cf78c-cfcf-769c-9016-9b96552b5e33","","387","
                <div class=""stimulus-container"">
                    <img src=""images/semantic_sequence/creative_activities_semantic/creative_activities_semantic_ten.png"" class=""exp-image"">
                    <div class=""question-area"">
                        <p style=""font-size: 20px; font-weight: bold; margin: 0;"">Is there a person in this image?</p>
                    </div>
                </div>","1","main_experiment_trial","ten","creative_activities_semantic","semantic_sequence","","","","",""
"","","","","","html-keyboard-response","142","454197","0.0-142.0","971DFBC3F9BC4E5BA476692B34DD48D9","019cf78f-1106-7b12-bcea-8fd5c3a88e35","019cf78c-cfcf-769c-9016-9b96552b5e33","","null","<div style=""background-color: white; width: 100vw; height: 100vh;""></div>","null","","","","","","","","",""
"","","","","","html-keyboard-response","143","459201","0.0-143.0","971DFBC3F9BC4E5BA476692B34DD48D9","019cf78f-1106-7b12-bcea-8fd5c3a88e35","019cf78c-cfcf-769c-9016-9b96552b5e33","","null","
                <div class=""stimulus-container"">
                    <img src=""images/schematic_sequence/restaurant_scheme/restaurant_scheme_1.png"" class=""exp-image"">
                    <div class=""question-area""></div> 
                </div>","null","","","","","","","","",""
"","","","","","html-button-response","144","460066","0.0-144.0","971DFBC3F9BC4E5BA476692B34DD48D9","019cf78f-1106-7b12-bcea-8fd5c3a88e35","019cf78c-cfcf-769c-9016-9b96552b5e33","","865","
                <div class=""stimulus-container"">
                    <img src=""images/schematic_sequence/restaurant_scheme/restaurant_scheme_1.png"" class=""exp-image"">
                    <div class=""question-area"">
                        <p style=""font-size: 20px; font-weight: bold; margin: 0;"">Is there a person in this image?</p>
                    </div>
                </div>","0","main_experiment_trial","1","restaurant_scheme","schematic_sequence","","","","",""
"","","","","","html-keyboard-response","145","465067","0.0-145.0","971DFBC3F9BC4E5BA476692B34DD48D9","019cf78f-1106-7b12-bcea-8fd5c3a88e35","019cf78c-cfcf-769c-9016-9b96552b5e33","","null","
                <div class=""stimulus-container"">
                    <img src=""images/schematic_sequence/restaurant_scheme/restaurant_scheme_2.png"" class=""exp-image"">
                    <div class=""question-area""></div> 
                </div>","null","","","","","","","","",""
"","","","","","html-button-response","146","465804","0.0-146.0","971DFBC3F9BC4E5BA476692B34DD48D9","019cf78f-1106-7b12-bcea-8fd5c3a88e35","019cf78c-cfcf-769c-9016-9b96552b5e33","","736","
                <div class=""stimulus-container"">
                    <img src=""images/schematic_sequence/restaurant_scheme/restaurant_scheme_2.png"" class=""exp-image"">
                    <div class=""question-area"">
                        <p style=""font-size: 20px; font-weight: bold; margin: 0;"">Is there a person in this image?</p>
                    </div>
                </div>","1","main_experiment_trial","2","restaurant_scheme","schematic_sequence","","","","",""
"","","","","","html-keyboard-response","147","470816","0.0-147.0","971DFBC3F9BC4E5BA476692B34DD48D9","019cf78f-1106-7b12-bcea-8fd5c3a88e35","019cf78c-cfcf-769c-9016-9b96552b5e33","","null","
                <div class=""stimulus-container"">
                    <img src=""images/schematic_sequence/restaurant_scheme/restaurant_scheme_3.png"" class=""exp-image"">
                    <div class=""question-area""></div> 
                </div>","null","","","","","","","","",""
"","","","","","html-button-response","148","471228","0.0-148.0","971DFBC3F9BC4E5BA476692B34DD48D9","019cf78f-1106-7b12-bcea-8fd5c3a88e35","019cf78c-cfcf-769c-9016-9b96552b5e33","","411","
                <div class=""stimulus-container"">
                    <img src=""images/schematic_sequence/restaurant_scheme/restaurant_scheme_3.png"" class=""exp-image"">
                    <div class=""question-area"">
                        <p style=""font-size: 20px; font-weight: bold; margin: 0;"">Is there a person in this image?</p>
                    </div>
                </div>","1","main_experiment_trial","3","restaurant_scheme","schematic_sequence","","","","",""
"","","","","","html-keyboard-response","149","476233","0.0-149.0","971DFBC3F9BC4E5BA476692B34DD48D9","019cf78f-1106-7b12-bcea-8fd5c3a88e35","019cf78c-cfcf-769c-9016-9b96552b5e33","","null","
                <div class=""stimulus-container"">
                    <img src=""images/schematic_sequence/restaurant_scheme/restaurant_scheme_4.png"" class=""exp-image"">
                    <div class=""question-area""></div> 
                </div>","null","","","","","","","","",""
"","","","","","html-button-response","150","477002","0.0-150.0","971DFBC3F9BC4E5BA476692B34DD48D9","019cf78f-1106-7b12-bcea-8fd5c3a88e35","019cf78c-cfcf-769c-9016-9b96552b5e33","","769","
                <div class=""stimulus-container"">
                    <img src=""images/schematic_sequence/restaurant_scheme/restaurant_scheme_4.png"" class=""exp-image"">
                    <div class=""question-area"">
                        <p style=""font-size: 20px; font-weight: bold; margin: 0;"">Is there a person in this image?</p>
                    </div>
                </div>","0","main_experiment_trial","4","restaurant_scheme","schematic_sequence","","","","",""
"","","","","","html-keyboard-response","151","482016","0.0-151.0","971DFBC3F9BC4E5BA476692B34DD48D9","019cf78f-1106-7b12-bcea-8fd5c3a88e35","019cf78c-cfcf-769c-9016-9b96552b5e33","","null","
                <div class=""stimulus-container"">
                    <img src=""images/schematic_sequence/restaurant_scheme/restaurant_scheme_5.png"" class=""exp-image"">
                    <div class=""question-area""></div> 
                </div>","null","","","","","","","","",""
"","","","","","html-button-response","152","482424","0.0-152.0","971DFBC3F9BC4E5BA476692B34DD48D9","019cf78f-1106-7b12-bcea-8fd5c3a88e35","019cf78c-cfcf-769c-9016-9b96552b5e33","","407","
                <div class=""stimulus-container"">
                    <img src=""images/schematic_sequence/restaurant_scheme/restaurant_scheme_5.png"" class=""exp-image"">
                    <div class=""question-area"">
                        <p style=""font-size: 20px; font-weight: bold; margin: 0;"">Is there a person in this image?</p>
                    </div>
                </div>","0","main_experiment_trial","5","restaurant_scheme","schematic_sequence","","","","",""
"","","","","","html-keyboard-response","153","487433","0.0-153.0","971DFBC3F9BC4E5BA476692B34DD48D9","019cf78f-1106-7b12-bcea-8fd5c3a88e35","019cf78c-cfcf-769c-9016-9b96552b5e33","","null","
                <div class=""stimulus-container"">
                    <img src=""images/schematic_sequence/restaurant_scheme/restaurant_scheme_6.png"" class=""exp-image"">
                    <div class=""question-area""></div> 
                </div>","null","","","","","","","","",""
"","","","","","html-button-response","154","488185","0.0-154.0","971DFBC3F9BC4E5BA476692B34DD48D9","019cf78f-1106-7b12-bcea-8fd5c3a88e35","019cf78c-cfcf-769c-9016-9b96552b5e33","","751","
                <div class=""stimulus-container"">
                    <img src=""images/schematic_sequence/restaurant_scheme/restaurant_scheme_6.png"" class=""exp-image"">
                    <div class=""question-area"">
                        <p style=""font-size: 20px; font-weight: bold; margin: 0;"">Is there a person in this image?</p>
                    </div>
                </div>","1","main_experiment_trial","6","restaurant_scheme","schematic_sequence","","","","",""
"","","","","","html-keyboard-response","155","493199","0.0-155.0","971DFBC3F9BC4E5BA476692B34DD48D9","019cf78f-1106-7b12-bcea-8fd5c3a88e35","019cf78c-cfcf-769c-9016-9b96552b5e33","","null","
                <div class=""stimulus-container"">
                    <img src=""images/schematic_sequence/restaurant_scheme/restaurant_scheme_7.png"" class=""exp-image"">
                    <div class=""question-area""></div> 
                </div>","null","","","","","","","","",""
"","","","","","html-button-response","156","493655","0.0-156.0","971DFBC3F9BC4E5BA476692B34DD48D9","019cf78f-1106-7b12-bcea-8fd5c3a88e35","019cf78c-cfcf-769c-9016-9b96552b5e33","","455","
                <div class=""stimulus-container"">
                    <img src=""images/schematic_sequence/restaurant_scheme/restaurant_scheme_7.png"" class=""exp-image"">
                    <div class=""question-area"">
                        <p style=""font-size: 20px; font-weight: bold; margin: 0;"">Is there a person in this image?</p>
                    </div>
                </div>","1","main_experiment_trial","7","restaurant_scheme","schematic_sequence","","","","",""
"","","","","","html-keyboard-response","157","498655","0.0-157.0","971DFBC3F9BC4E5BA476692B34DD48D9","019cf78f-1106-7b12-bcea-8fd5c3a88e35","019cf78c-cfcf-769c-9016-9b96552b5e33","","null","
                <div class=""stimulus-container"">
                    <img src=""images/schematic_sequence/restaurant_scheme/restaurant_scheme_8.png"" class=""exp-image"">
                    <div class=""question-area""></div> 
                </div>","null","","","","","","","","",""
"","","","","","html-button-response","158","499785","0.0-158.0","971DFBC3F9BC4E5BA476692B34DD48D9","019cf78f-1106-7b12-bcea-8fd5c3a88e35","019cf78c-cfcf-769c-9016-9b96552b5e33","","1129","
                <div class=""stimulus-container"">
                    <img src=""images/schematic_sequence/restaurant_scheme/restaurant_scheme_8.png"" class=""exp-image"">
                    <div class=""question-area"">
                        <p style=""font-size: 20px; font-weight: bold; margin: 0;"">Is there a person in this image?</p>
                    </div>
                </div>","0","main_experiment_trial","8","restaurant_scheme","schematic_sequence","","","","",""
"","","","","","html-keyboard-response","159","504800","0.0-159.0","971DFBC3F9BC4E5BA476692B34DD48D9","019cf78f-1106-7b12-bcea-8fd5c3a88e35","019cf78c-cfcf-769c-9016-9b96552b5e33","","null","
                <div class=""stimulus-container"">
                    <img src=""images/schematic_sequence/restaurant_scheme/restaurant_scheme_9.png"" class=""exp-image"">
                    <div class=""question-area""></div> 
                </div>","null","","","","","","","","",""
"","","","","","html-button-response","160","505694","0.0-160.0","971DFBC3F9BC4E5BA476692B34DD48D9","019cf78f-1106-7b12-bcea-8fd5c3a88e35","019cf78c-cfcf-769c-9016-9b96552b5e33","","894","
                <div class=""stimulus-container"">
                    <img src=""images/schematic_sequence/restaurant_scheme/restaurant_scheme_9.png"" class=""exp-image"">
                    <div class=""question-area"">
                        <p style=""font-size: 20px; font-weight: bold; margin: 0;"">Is there a person in this image?</p>
                    </div>
                </div>","0","main_experiment_trial","9","restaurant_scheme","schematic_sequence","","","","",""
"","","","","","html-keyboard-response","161","510707","0.0-161.0","971DFBC3F9BC4E5BA476692B34DD48D9","019cf78f-1106-7b12-bcea-8fd5c3a88e35","019cf78c-cfcf-769c-9016-9b96552b5e33","","null","
                <div class=""stimulus-container"">
                    <img src=""images/schematic_sequence/restaurant_scheme/restaurant_scheme_ten.png"" class=""exp-image"">
                    <div class=""question-area""></div> 
                </div>","null","","","","","","","","",""
"","","","","","html-button-response","162","511178","0.0-162.0","971DFBC3F9BC4E5BA476692B34DD48D9","019cf78f-1106-7b12-bcea-8fd5c3a88e35","019cf78c-cfcf-769c-9016-9b96552b5e33","","470","
                <div class=""stimulus-container"">
                    <img src=""images/schematic_sequence/restaurant_scheme/restaurant_scheme_ten.png"" class=""exp-image"">
                    <div class=""question-area"">
                        <p style=""font-size: 20px; font-weight: bold; margin: 0;"">Is there a person in this image?</p>
                    </div>
                </div>","0","main_experiment_trial","ten","restaurant_scheme","schematic_sequence","","","","",""
"","","","","","html-keyboard-response","163","512183","0.0-163.0","971DFBC3F9BC4E5BA476692B34DD48D9","019cf78f-1106-7b12-bcea-8fd5c3a88e35","019cf78c-cfcf-769c-9016-9b96552b5e33","","null","<div style=""background-color: white; width: 100vw; height: 100vh;""></div>","null","","","","","","","","",""
"","","","","","html-keyboard-response","164","517184","0.0-164.0","971DFBC3F9BC4E5BA476692B34DD48D9","019cf78f-1106-7b12-bcea-8fd5c3a88e35","019cf78c-cfcf-769c-9016-9b96552b5e33","","null","
                <div class=""stimulus-container"">
                    <img src=""images/semantic_sequence/housework_semantic/housework_semantic_1.png"" class=""exp-image"">
                    <div class=""question-area""></div> 
                </div>","null","","","","","","","","",""
"","","","","","html-button-response","165","518196","0.0-165.0","971DFBC3F9BC4E5BA476692B34DD48D9","019cf78f-1106-7b12-bcea-8fd5c3a88e35","019cf78c-cfcf-769c-9016-9b96552b5e33","","1011","
                <div class=""stimulus-container"">
                    <img src=""images/semantic_sequence/housework_semantic/housework_semantic_1.png"" class=""exp-image"">
                    <div class=""question-area"">
                        <p style=""font-size: 20px; font-weight: bold; margin: 0;"">Is there a person in this image?</p>
                    </div>
                </div>","1","main_experiment_trial","1","housework_semantic","semantic_sequence","","","","",""
"","","","","","html-keyboard-response","166","523200","0.0-166.0","971DFBC3F9BC4E5BA476692B34DD48D9","019cf78f-1106-7b12-bcea-8fd5c3a88e35","019cf78c-cfcf-769c-9016-9b96552b5e33","","null","
                <div class=""stimulus-container"">
                    <img src=""images/semantic_sequence/housework_semantic/housework_semantic_2.png"" class=""exp-image"">
                    <div class=""question-area""></div> 
                </div>","null","","","","","","","","",""
"","","","","","html-button-response","167","524158","0.0-167.0","971DFBC3F9BC4E5BA476692B34DD48D9","019cf78f-1106-7b12-bcea-8fd5c3a88e35","019cf78c-cfcf-769c-9016-9b96552b5e33","","957","
                <div class=""stimulus-container"">
                    <img src=""images/semantic_sequence/housework_semantic/housework_semantic_2.png"" class=""exp-image"">
                    <div class=""question-area"">
                        <p style=""font-size: 20px; font-weight: bold; margin: 0;"">Is there a person in this image?</p>
                    </div>
                </div>","1","main_experiment_trial","2","housework_semantic","semantic_sequence","","","","",""
"","","","","","html-keyboard-response","168","529165","0.0-168.0","971DFBC3F9BC4E5BA476692B34DD48D9","019cf78f-1106-7b12-bcea-8fd5c3a88e35","019cf78c-cfcf-769c-9016-9b96552b5e33","","null","
                <div class=""stimulus-container"">
                    <img src=""images/semantic_sequence/housework_semantic/housework_semantic_3.png"" class=""exp-image"">
                    <div class=""question-area""></div> 
                </div>","null","","","","","","","","",""
"","","","","","html-button-response","169","529564","0.0-169.0","971DFBC3F9BC4E5BA476692B34DD48D9","019cf78f-1106-7b12-bcea-8fd5c3a88e35","019cf78c-cfcf-769c-9016-9b96552b5e33","","398","
                <div class=""stimulus-container"">
                    <img src=""images/semantic_sequence/housework_semantic/housework_semantic_3.png"" class=""exp-image"">
                    <div class=""question-area"">
                        <p style=""font-size: 20px; font-weight: bold; margin: 0;"">Is there a person in this image?</p>
                    </div>
                </div>","1","main_experiment_trial","3","housework_semantic","semantic_sequence","","","","",""
"","","","","","html-keyboard-response","170","534566","0.0-170.0","971DFBC3F9BC4E5BA476692B34DD48D9","019cf78f-1106-7b12-bcea-8fd5c3a88e35","019cf78c-cfcf-769c-9016-9b96552b5e33","","null","
                <div class=""stimulus-container"">
                    <img src=""images/semantic_sequence/housework_semantic/housework_semantic_4.png"" class=""exp-image"">
                    <div class=""question-area""></div> 
                </div>","null","","","","","","","","",""
"","","","","","html-button-response","171","535124","0.0-171.0","971DFBC3F9BC4E5BA476692B34DD48D9","019cf78f-1106-7b12-bcea-8fd5c3a88e35","019cf78c-cfcf-769c-9016-9b96552b5e33","","558","
                <div class=""stimulus-container"">
                    <img src=""images/semantic_sequence/housework_semantic/housework_semantic_4.png"" class=""exp-image"">
                    <div class=""question-area"">
                        <p style=""font-size: 20px; font-weight: bold; margin: 0;"">Is there a person in this image?</p>
                    </div>
                </div>","1","main_experiment_trial","4","housework_semantic","semantic_sequence","","","","",""
"","","","","","html-keyboard-response","172","540133","0.0-172.0","971DFBC3F9BC4E5BA476692B34DD48D9","019cf78f-1106-7b12-bcea-8fd5c3a88e35","019cf78c-cfcf-769c-9016-9b96552b5e33","","null","
                <div class=""stimulus-container"">
                    <img src=""images/semantic_sequence/housework_semantic/housework_semantic_5.png"" class=""exp-image"">
                    <div class=""question-area""></div> 
                </div>","null","","","","","","","","",""
"","","","","","html-button-response","173","540535","0.0-173.0","971DFBC3F9BC4E5BA476692B34DD48D9","019cf78f-1106-7b12-bcea-8fd5c3a88e35","019cf78c-cfcf-769c-9016-9b96552b5e33","","401","
                <div class=""stimulus-container"">
                    <img src=""images/semantic_sequence/housework_semantic/housework_semantic_5.png"" class=""exp-image"">
                    <div class=""question-area"">
                        <p style=""font-size: 20px; font-weight: bold; margin: 0;"">Is there a person in this image?</p>
                    </div>
                </div>","1","main_experiment_trial","5","housework_semantic","semantic_sequence","","","","",""
"","","","","","html-keyboard-response","174","545550","0.0-174.0","971DFBC3F9BC4E5BA476692B34DD48D9","019cf78f-1106-7b12-bcea-8fd5c3a88e35","019cf78c-cfcf-769c-9016-9b96552b5e33","","null","
                <div class=""stimulus-container"">
                    <img src=""images/semantic_sequence/housework_semantic/housework_semantic_6.png"" class=""exp-image"">
                    <div class=""question-area""></div> 
                </div>","null","","","","","","","","",""
"","","","","","html-button-response","175","545980","0.0-175.0","971DFBC3F9BC4E5BA476692B34DD48D9","019cf78f-1106-7b12-bcea-8fd5c3a88e35","019cf78c-cfcf-769c-9016-9b96552b5e33","","430","
                <div class=""stimulus-container"">
                    <img src=""images/semantic_sequence/housework_semantic/housework_semantic_6.png"" class=""exp-image"">
                    <div class=""question-area"">
                        <p style=""font-size: 20px; font-weight: bold; margin: 0;"">Is there a person in this image?</p>
                    </div>
                </div>","1","main_experiment_trial","6","housework_semantic","semantic_sequence","","","","",""
"","","","","","html-keyboard-response","176","550984","0.0-176.0","971DFBC3F9BC4E5BA476692B34DD48D9","019cf78f-1106-7b12-bcea-8fd5c3a88e35","019cf78c-cfcf-769c-9016-9b96552b5e33","","null","
                <div class=""stimulus-container"">
                    <img src=""images/semantic_sequence/housework_semantic/housework_semantic_7.png"" class=""exp-image"">
                    <div class=""question-area""></div> 
                </div>","null","","","","","","","","",""
"","","","","","html-button-response","177","551385","0.0-177.0","971DFBC3F9BC4E5BA476692B34DD48D9","019cf78f-1106-7b12-bcea-8fd5c3a88e35","019cf78c-cfcf-769c-9016-9b96552b5e33","","401","
                <div class=""stimulus-container"">
                    <img src=""images/semantic_sequence/housework_semantic/housework_semantic_7.png"" class=""exp-image"">
                    <div class=""question-area"">
                        <p style=""font-size: 20px; font-weight: bold; margin: 0;"">Is there a person in this image?</p>
                    </div>
                </div>","1","main_experiment_trial","7","housework_semantic","semantic_sequence","","","","",""
"","","","","","html-keyboard-response","178","556398","0.0-178.0","971DFBC3F9BC4E5BA476692B34DD48D9","019cf78f-1106-7b12-bcea-8fd5c3a88e35","019cf78c-cfcf-769c-9016-9b96552b5e33","","null","
                <div class=""stimulus-container"">
                    <img src=""images/semantic_sequence/housework_semantic/housework_semantic_8.png"" class=""exp-image"">
                    <div class=""question-area""></div> 
                </div>","null","","","","","","","","",""
"","","","","","html-button-response","179","556783","0.0-179.0","971DFBC3F9BC4E5BA476692B34DD48D9","019cf78f-1106-7b12-bcea-8fd5c3a88e35","019cf78c-cfcf-769c-9016-9b96552b5e33","","384","
                <div class=""stimulus-container"">
                    <img src=""images/semantic_sequence/housework_semantic/housework_semantic_8.png"" class=""exp-image"">
                    <div class=""question-area"">
                        <p style=""font-size: 20px; font-weight: bold; margin: 0;"">Is there a person in this image?</p>
                    </div>
                </div>","1","main_experiment_trial","8","housework_semantic","semantic_sequence","","","","",""
"","","","","","html-keyboard-response","180","561785","0.0-180.0","971DFBC3F9BC4E5BA476692B34DD48D9","019cf78f-1106-7b12-bcea-8fd5c3a88e35","019cf78c-cfcf-769c-9016-9b96552b5e33","","null","
