"success","timeout","failed_images","failed_audio","failed_video","trial_type","trial_index","time_elapsed","internal_node_id","subject_id","study_id","session_id","view_history","rt","stimulus","response","task","image_index","folder","sequence_type","presentation_order","valuable_image_index","reward_type","target_X","l_dist","r_dist","chosen_image_index","selected_after_X","correct_choice"
"true","false","[]","[]","[]","preload","0","60397","0.0-0.0","0BBAFB1C73834E5EBCBF33F788B3639F","019d6684-c752-7607-9351-2eb5c0d24034","019d6630-2071-75cb-8026-6699844a2719","","","","","","","","","","","","","","","","",""
"","","","","","instructions","1","65592","0.0-1.0","0BBAFB1C73834E5EBCBF33F788B3639F","019d6684-c752-7607-9351-2eb5c0d24034","019d6630-2071-75cb-8026-6699844a2719","[{""page_index"":0,""viewing_time"":5193}]","5193","","","","","","","","","","","","","","",""
"","","","","","instructions","2","77110","0.0-2.0","0BBAFB1C73834E5EBCBF33F788B3639F","019d6684-c752-7607-9351-2eb5c0d24034","019d6630-2071-75cb-8026-6699844a2719","[{""page_index"":0,""viewing_time"":11518}]","11518","","","","","","","","","","","","","","",""
"true","","","","","fullscreen","3","80223","0.0-3.0","0BBAFB1C73834E5EBCBF33F788B3639F","019d6684-c752-7607-9351-2eb5c0d24034","019d6630-2071-75cb-8026-6699844a2719","","2101","","","","","","","","","","","","","","",""
"","","","","","instructions","4","91363","0.0-4.0","0BBAFB1C73834E5EBCBF33F788B3639F","019d6684-c752-7607-9351-2eb5c0d24034","019d6630-2071-75cb-8026-6699844a2719","[{""page_index"":0,""viewing_time"":11139}]","11139","","","","","","","","","","","","","","",""
"","","","","","instructions","5","100312","0.0-5.0","0BBAFB1C73834E5EBCBF33F788B3639F","019d6684-c752-7607-9351-2eb5c0d24034","019d6630-2071-75cb-8026-6699844a2719","[{""page_index"":0,""viewing_time"":8949}]","8949","","","","","","","","","","","","","","",""
"","","","","","html-keyboard-response","6","104322","0.0-6.0","0BBAFB1C73834E5EBCBF33F788B3639F","019d6684-c752-7607-9351-2eb5c0d24034","019d6630-2071-75cb-8026-6699844a2719","","null","
                <div class=""stimulus-container"">
                    <img src=""images/instructions/movie_1.png"" class=""exp-image"">
                    <div class=""question-area""></div> 
                </div>","null","","","","","","","","","","","","",""
"","","","","","html-button-response","7","106766","0.0-7.0","0BBAFB1C73834E5EBCBF33F788B3639F","019d6684-c752-7607-9351-2eb5c0d24034","019d6630-2071-75cb-8026-6699844a2719","","2441","
                <div class=""stimulus-container"">
                    <img src=""images/instructions/movie_1.png"" class=""exp-image"">
                    <div class=""question-area"">
                        <p style=""font-size: 20px; font-weight: bold; margin: 0;"">Was there a person in this image?</p>
                    </div>
                </div>","0","example_question","1","","","","","","","","","","",""
"","","","","","html-keyboard-response","8","110783","0.0-8.0","0BBAFB1C73834E5EBCBF33F788B3639F","019d6684-c752-7607-9351-2eb5c0d24034","019d6630-2071-75cb-8026-6699844a2719","","null","
                <div class=""stimulus-container"">
                    <img src=""images/instructions/movie_2.png"" class=""exp-image"">
                    <div class=""question-area""></div> 
                </div>","null","","","","","","","","","","","","",""
"","","","","","html-button-response","9","112216","0.0-9.0","0BBAFB1C73834E5EBCBF33F788B3639F","019d6684-c752-7607-9351-2eb5c0d24034","019d6630-2071-75cb-8026-6699844a2719","","1432","
                <div class=""stimulus-container"">
                    <img src=""images/instructions/movie_2.png"" class=""exp-image"">
                    <div class=""question-area"">
                        <p style=""font-size: 20px; font-weight: bold; margin: 0;"">Was there a person in this image?</p>
                    </div>
                </div>","0","example_question","2","","","","","","","","","","",""
"","","","","","html-keyboard-response","10","116232","0.0-10.0","0BBAFB1C73834E5EBCBF33F788B3639F","019d6684-c752-7607-9351-2eb5c0d24034","019d6630-2071-75cb-8026-6699844a2719","","null","
                <div class=""stimulus-container"">
                    <img src=""images/instructions/movie_3.png"" class=""exp-image"">
                    <div class=""question-area""></div> 
                </div>","null","","","","","","","","","","","","",""
"","","","","","html-button-response","11","117415","0.0-11.0","0BBAFB1C73834E5EBCBF33F788B3639F","019d6684-c752-7607-9351-2eb5c0d24034","019d6630-2071-75cb-8026-6699844a2719","","1181","
                <div class=""stimulus-container"">
                    <img src=""images/instructions/movie_3.png"" class=""exp-image"">
                    <div class=""question-area"">
                        <p style=""font-size: 20px; font-weight: bold; margin: 0;"">Was there a person in this image?</p>
                    </div>
                </div>","0","example_question","3","","","","","","","","","","",""
"","","","","","html-keyboard-response","12","121424","0.0-12.0","0BBAFB1C73834E5EBCBF33F788B3639F","019d6684-c752-7607-9351-2eb5c0d24034","019d6630-2071-75cb-8026-6699844a2719","","null","
                <div class=""stimulus-container"">
                    <img src=""images/instructions/movie_4.png"" class=""exp-image"">
                    <div class=""question-area""></div> 
                </div>","null","","","","","","","","","","","","",""
"","","","","","html-button-response","13","123015","0.0-13.0","0BBAFB1C73834E5EBCBF33F788B3639F","019d6684-c752-7607-9351-2eb5c0d24034","019d6630-2071-75cb-8026-6699844a2719","","1590","
                <div class=""stimulus-container"">
                    <img src=""images/instructions/movie_4.png"" class=""exp-image"">
                    <div class=""question-area"">
                        <p style=""font-size: 20px; font-weight: bold; margin: 0;"">Was there a person in this image?</p>
                    </div>
                </div>","0","example_question","4","","","","","","","","","","",""
"","","","","","instructions","14","125353","0.0-14.0","0BBAFB1C73834E5EBCBF33F788B3639F","019d6684-c752-7607-9351-2eb5c0d24034","019d6630-2071-75cb-8026-6699844a2719","[{""page_index"":0,""viewing_time"":2338}]","2338","","","","","","","","","","","","","","",""
"","","","","","instructions","15","132572","0.0-15.0","0BBAFB1C73834E5EBCBF33F788B3639F","019d6684-c752-7607-9351-2eb5c0d24034","019d6630-2071-75cb-8026-6699844a2719","[{""page_index"":0,""viewing_time"":7218}]","7218","","","","","","","","","","","","","","",""
"","","","","","html-keyboard-response","16","137583","0.0-16.0","0BBAFB1C73834E5EBCBF33F788B3639F","019d6684-c752-7607-9351-2eb5c0d24034","019d6630-2071-75cb-8026-6699844a2719","","null","<div style=""background-color: white; width: 100vw; height: 100vh;""></div>","null","","","","","","","","","","","","",""
"","","","","","html-keyboard-response","17","142586","0.0-17.0","0BBAFB1C73834E5EBCBF33F788B3639F","019d6684-c752-7607-9351-2eb5c0d24034","019d6630-2071-75cb-8026-6699844a2719","","null","
                <div class=""stimulus-container"">
                    <img src=""images/schematic_sequence/interview_scheme/interview_scheme_1.png"" class=""exp-image"">
                    <div class=""question-area""></div> 
                </div>","null","","","","","","","","","","","","",""
"","","","","","html-button-response","18","143963","0.0-18.0","0BBAFB1C73834E5EBCBF33F788B3639F","019d6684-c752-7607-9351-2eb5c0d24034","019d6630-2071-75cb-8026-6699844a2719","","1375","
                <div class=""stimulus-container"">
                    <img src=""images/schematic_sequence/interview_scheme/interview_scheme_1.png"" class=""exp-image"">
                    <div class=""question-area"">
                        <p style=""font-size: 20px; font-weight: bold; margin: 0;"">Is there a person in this image?</p>
                    </div>
                </div>","1","main_experiment_trial","1","interview_scheme","schematic_sequence","chronological","","","","","","","",""
"","","","","","html-keyboard-response","19","148967","0.0-19.0","0BBAFB1C73834E5EBCBF33F788B3639F","019d6684-c752-7607-9351-2eb5c0d24034","019d6630-2071-75cb-8026-6699844a2719","","null","
                <div class=""stimulus-container"">
                    <img src=""images/schematic_sequence/interview_scheme/interview_scheme_2.png"" class=""exp-image"">
                    <div class=""question-area""></div> 
                </div>","null","","","","","","","","","","","","",""
"","","","","","html-button-response","20","151916","0.0-20.0","0BBAFB1C73834E5EBCBF33F788B3639F","019d6684-c752-7607-9351-2eb5c0d24034","019d6630-2071-75cb-8026-6699844a2719","","2947","
                <div class=""stimulus-container"">
                    <img src=""images/schematic_sequence/interview_scheme/interview_scheme_2.png"" class=""exp-image"">
                    <div class=""question-area"">
                        <p style=""font-size: 20px; font-weight: bold; margin: 0;"">Is there a person in this image?</p>
                    </div>
                </div>","1","main_experiment_trial","2","interview_scheme","schematic_sequence","chronological","","","","","","","",""
"","","","","","html-keyboard-response","21","156927","0.0-21.0","0BBAFB1C73834E5EBCBF33F788B3639F","019d6684-c752-7607-9351-2eb5c0d24034","019d6630-2071-75cb-8026-6699844a2719","","null","
                <div class=""stimulus-container"">
                    <img src=""images/schematic_sequence/interview_scheme/interview_scheme_3.png"" class=""exp-image"">
                    <div class=""question-area""></div> 
                </div>","null","","","","","","","","","","","","",""
"","","","","","html-button-response","22","157916","0.0-22.0","0BBAFB1C73834E5EBCBF33F788B3639F","019d6684-c752-7607-9351-2eb5c0d24034","019d6630-2071-75cb-8026-6699844a2719","","988","
                <div class=""stimulus-container"">
                    <img src=""images/schematic_sequence/interview_scheme/interview_scheme_3.png"" class=""exp-image"">
                    <div class=""question-area"">
                        <p style=""font-size: 20px; font-weight: bold; margin: 0;"">Is there a person in this image?</p>
                    </div>
                </div>","1","main_experiment_trial","3","interview_scheme","schematic_sequence","chronological","","","","","","","",""
"","","","","","html-keyboard-response","23","162929","0.0-23.0","0BBAFB1C73834E5EBCBF33F788B3639F","019d6684-c752-7607-9351-2eb5c0d24034","019d6630-2071-75cb-8026-6699844a2719","","null","
                <div class=""stimulus-container"">
                    <img src=""images/schematic_sequence/interview_scheme/interview_scheme_4.png"" class=""exp-image"">
                    <div class=""question-area""></div> 
                </div>","null","","","","","","","","","","","","",""
"","","","","","html-button-response","24","163671","0.0-24.0","0BBAFB1C73834E5EBCBF33F788B3639F","019d6684-c752-7607-9351-2eb5c0d24034","019d6630-2071-75cb-8026-6699844a2719","","741","
                <div class=""stimulus-container"">
                    <img src=""images/schematic_sequence/interview_scheme/interview_scheme_4.png"" class=""exp-image"">
                    <div class=""question-area"">
                        <p style=""font-size: 20px; font-weight: bold; margin: 0;"">Is there a person in this image?</p>
                    </div>
                </div>","1","main_experiment_trial","4","interview_scheme","schematic_sequence","chronological","","","","","","","",""
"","","","","","html-keyboard-response","25","168676","0.0-25.0","0BBAFB1C73834E5EBCBF33F788B3639F","019d6684-c752-7607-9351-2eb5c0d24034","019d6630-2071-75cb-8026-6699844a2719","","null","
                <div class=""stimulus-container"">
                    <img src=""images/schematic_sequence/interview_scheme/interview_scheme_5.png"" class=""exp-image"">
                    <div class=""question-area""></div> 
                </div>","null","","","","","","","","","","","","",""
"","","","","","html-button-response","26","171697","0.0-26.0","0BBAFB1C73834E5EBCBF33F788B3639F","019d6684-c752-7607-9351-2eb5c0d24034","019d6630-2071-75cb-8026-6699844a2719","","null","
                <div class=""stimulus-container"">
                    <img src=""images/schematic_sequence/interview_scheme/interview_scheme_5.png"" class=""exp-image"">
                    <div class=""question-area"">
                        <p style=""font-size: 20px; font-weight: bold; margin: 0;"">Is there a person in this image?</p>
                    </div>
                </div>","null","main_experiment_trial","5","interview_scheme","schematic_sequence","chronological","","","","","","","",""
"","","","","","html-keyboard-response","27","176707","0.0-27.0","0BBAFB1C73834E5EBCBF33F788B3639F","019d6684-c752-7607-9351-2eb5c0d24034","019d6630-2071-75cb-8026-6699844a2719","","null","
                <div class=""stimulus-container"">
                    <img src=""images/schematic_sequence/interview_scheme/interview_scheme_6.png"" class=""exp-image"">
                    <div class=""question-area""></div> 
                </div>","null","","","","","","","","","","","","",""
"","","","","","html-button-response","28","177224","0.0-28.0","0BBAFB1C73834E5EBCBF33F788B3639F","019d6684-c752-7607-9351-2eb5c0d24034","019d6630-2071-75cb-8026-6699844a2719","","515","
                <div class=""stimulus-container"">
                    <img src=""images/schematic_sequence/interview_scheme/interview_scheme_6.png"" class=""exp-image"">
                    <div class=""question-area"">
                        <p style=""font-size: 20px; font-weight: bold; margin: 0;"">Is there a person in this image?</p>
                    </div>
                </div>","0","main_experiment_trial","6","interview_scheme","schematic_sequence","chronological","","","","","","","",""
"","","","","","html-keyboard-response","29","182234","0.0-29.0","0BBAFB1C73834E5EBCBF33F788B3639F","019d6684-c752-7607-9351-2eb5c0d24034","019d6630-2071-75cb-8026-6699844a2719","","null","
                <div class=""stimulus-container"">
                    <img src=""images/schematic_sequence/interview_scheme/interview_scheme_7.png"" class=""exp-image"">
                    <div class=""question-area""></div> 
                </div>","null","","","","","","","","","","","","",""
"","","","","","html-button-response","30","182734","0.0-30.0","0BBAFB1C73834E5EBCBF33F788B3639F","019d6684-c752-7607-9351-2eb5c0d24034","019d6630-2071-75cb-8026-6699844a2719","","498","
                <div class=""stimulus-container"">
                    <img src=""images/schematic_sequence/interview_scheme/interview_scheme_7.png"" class=""exp-image"">
                    <div class=""question-area"">
                        <p style=""font-size: 20px; font-weight: bold; margin: 0;"">Is there a person in this image?</p>
                    </div>
                </div>","0","main_experiment_trial","7","interview_scheme","schematic_sequence","chronological","","","","","","","",""
"","","","","","html-keyboard-response","31","187738","0.0-31.0","0BBAFB1C73834E5EBCBF33F788B3639F","019d6684-c752-7607-9351-2eb5c0d24034","019d6630-2071-75cb-8026-6699844a2719","","null","
                <div class=""stimulus-container"">
                    <img src=""images/schematic_sequence/interview_scheme/interview_scheme_8.png"" class=""exp-image"">
                    <div class=""question-area""></div> 
                </div>","null","","","","","","","","","","","","",""
"","","","","","html-button-response","32","188230","0.0-32.0","0BBAFB1C73834E5EBCBF33F788B3639F","019d6684-c752-7607-9351-2eb5c0d24034","019d6630-2071-75cb-8026-6699844a2719","","490","
                <div class=""stimulus-container"">
                    <img src=""images/schematic_sequence/interview_scheme/interview_scheme_8.png"" class=""exp-image"">
                    <div class=""question-area"">
                        <p style=""font-size: 20px; font-weight: bold; margin: 0;"">Is there a person in this image?</p>
                    </div>
                </div>","0","main_experiment_trial","8","interview_scheme","schematic_sequence","chronological","","","","","","","",""
"","","","","","html-keyboard-response","33","193244","0.0-33.0","0BBAFB1C73834E5EBCBF33F788B3639F","019d6684-c752-7607-9351-2eb5c0d24034","019d6630-2071-75cb-8026-6699844a2719","","null","
                <div class=""stimulus-container"">
                    <img src=""images/schematic_sequence/interview_scheme/interview_scheme_9.png"" class=""exp-image"">
                    <div class=""question-area""></div> 
                </div>","null","","","","","","","","","","","","",""
"","","","","","html-button-response","34","193798","0.0-34.0","0BBAFB1C73834E5EBCBF33F788B3639F","019d6684-c752-7607-9351-2eb5c0d24034","019d6630-2071-75cb-8026-6699844a2719","","553","
                <div class=""stimulus-container"">
                    <img src=""images/schematic_sequence/interview_scheme/interview_scheme_9.png"" class=""exp-image"">
                    <div class=""question-area"">
                        <p style=""font-size: 20px; font-weight: bold; margin: 0;"">Is there a person in this image?</p>
                    </div>
                </div>","0","main_experiment_trial","9","interview_scheme","schematic_sequence","chronological","","","","","","","",""
"","","","","","html-keyboard-response","35","198801","0.0-35.0","0BBAFB1C73834E5EBCBF33F788B3639F","019d6684-c752-7607-9351-2eb5c0d24034","019d6630-2071-75cb-8026-6699844a2719","","null","
                <div class=""stimulus-container"">
                    <img src=""images/schematic_sequence/interview_scheme/interview_scheme_ten.png"" class=""exp-image"">
                    <div class=""question-area""></div> 
                </div>","null","","","","","","","","","","","","",""
"","","","","","html-button-response","36","199658","0.0-36.0","0BBAFB1C73834E5EBCBF33F788B3639F","019d6684-c752-7607-9351-2eb5c0d24034","019d6630-2071-75cb-8026-6699844a2719","","856","
                <div class=""stimulus-container"">
                    <img src=""images/schematic_sequence/interview_scheme/interview_scheme_ten.png"" class=""exp-image"">
                    <div class=""question-area"">
                        <p style=""font-size: 20px; font-weight: bold; margin: 0;"">Is there a person in this image?</p>
                    </div>
                </div>","0","main_experiment_trial","ten","interview_scheme","schematic_sequence","chronological","","","","","","","",""
"","","","","","html-keyboard-response","37","204673","0.0-37.0","0BBAFB1C73834E5EBCBF33F788B3639F","019d6684-c752-7607-9351-2eb5c0d24034","019d6630-2071-75cb-8026-6699844a2719","","null","<div style=""background-color: white; width: 100vw; height: 100vh;""></div>","null","","","","","","","","","","","","",""
"","","","","","html-keyboard-response","38","209688","0.0-38.0","0BBAFB1C73834E5EBCBF33F788B3639F","019d6684-c752-7607-9351-2eb5c0d24034","019d6630-2071-75cb-8026-6699844a2719","","null","
                <div class=""stimulus-container"">
                    <img src=""images/semantic_sequence/kitchen_operations_semantic/kitchen_operations_semantic_1.png"" class=""exp-image"">
                    <div class=""question-area""></div> 
                </div>","null","","","","","","","","","","","","",""
"","","","","","html-button-response","39","210617","0.0-39.0","0BBAFB1C73834E5EBCBF33F788B3639F","019d6684-c752-7607-9351-2eb5c0d24034","019d6630-2071-75cb-8026-6699844a2719","","928","
                <div class=""stimulus-container"">
                    <img src=""images/semantic_sequence/kitchen_operations_semantic/kitchen_operations_semantic_1.png"" class=""exp-image"">
                    <div class=""question-area"">
                        <p style=""font-size: 20px; font-weight: bold; margin: 0;"">Is there a person in this image?</p>
                    </div>
                </div>","0","main_experiment_trial","1","kitchen_operations_semantic","semantic_sequence","chronological","","","","","","","",""
"","","","","","html-keyboard-response","40","215633","0.0-40.0","0BBAFB1C73834E5EBCBF33F788B3639F","019d6684-c752-7607-9351-2eb5c0d24034","019d6630-2071-75cb-8026-6699844a2719","","null","
                <div class=""stimulus-container"">
                    <img src=""images/semantic_sequence/kitchen_operations_semantic/kitchen_operations_semantic_2.png"" class=""exp-image"">
                    <div class=""question-area""></div> 
                </div>","null","","","","","","","","","","","","",""
"","","","","","html-button-response","41","216268","0.0-41.0","0BBAFB1C73834E5EBCBF33F788B3639F","019d6684-c752-7607-9351-2eb5c0d24034","019d6630-2071-75cb-8026-6699844a2719","","634","
                <div class=""stimulus-container"">
                    <img src=""images/semantic_sequence/kitchen_operations_semantic/kitchen_operations_semantic_2.png"" class=""exp-image"">
                    <div class=""question-area"">
                        <p style=""font-size: 20px; font-weight: bold; margin: 0;"">Is there a person in this image?</p>
                    </div>
                </div>","0","main_experiment_trial","2","kitchen_operations_semantic","semantic_sequence","chronological","","","","","","","",""
"","","","","","html-keyboard-response","42","221279","0.0-42.0","0BBAFB1C73834E5EBCBF33F788B3639F","019d6684-c752-7607-9351-2eb5c0d24034","019d6630-2071-75cb-8026-6699844a2719","","null","
                <div class=""stimulus-container"">
                    <img src=""images/semantic_sequence/kitchen_operations_semantic/kitchen_operations_semantic_3.png"" class=""exp-image"">
                    <div class=""question-area""></div> 
                </div>","null","","","","","","","","","","","","",""
"","","","","","html-button-response","43","223449","0.0-43.0","0BBAFB1C73834E5EBCBF33F788B3639F","019d6684-c752-7607-9351-2eb5c0d24034","019d6630-2071-75cb-8026-6699844a2719","","2169","
                <div class=""stimulus-container"">
                    <img src=""images/semantic_sequence/kitchen_operations_semantic/kitchen_operations_semantic_3.png"" class=""exp-image"">
                    <div class=""question-area"">
                        <p style=""font-size: 20px; font-weight: bold; margin: 0;"">Is there a person in this image?</p>
                    </div>
                </div>","0","main_experiment_trial","3","kitchen_operations_semantic","semantic_sequence","chronological","","","","","","","",""
"","","","","","html-keyboard-response","44","228450","0.0-44.0","0BBAFB1C73834E5EBCBF33F788B3639F","019d6684-c752-7607-9351-2eb5c0d24034","019d6630-2071-75cb-8026-6699844a2719","","null","
                <div class=""stimulus-container"">
                    <img src=""images/semantic_sequence/kitchen_operations_semantic/kitchen_operations_semantic_4.png"" class=""exp-image"">
                    <div class=""question-area""></div> 
                </div>","null","","","","","","","","","","","","",""
"","","","","","html-button-response","45","229011","0.0-45.0","0BBAFB1C73834E5EBCBF33F788B3639F","019d6684-c752-7607-9351-2eb5c0d24034","019d6630-2071-75cb-8026-6699844a2719","","560","
                <div class=""stimulus-container"">
                    <img src=""images/semantic_sequence/kitchen_operations_semantic/kitchen_operations_semantic_4.png"" class=""exp-image"">
                    <div class=""question-area"">
                        <p style=""font-size: 20px; font-weight: bold; margin: 0;"">Is there a person in this image?</p>
                    </div>
                </div>","0","main_experiment_trial","4","kitchen_operations_semantic","semantic_sequence","chronological","","","","","","","",""
"","","","","","html-keyboard-response","46","234022","0.0-46.0","0BBAFB1C73834E5EBCBF33F788B3639F","019d6684-c752-7607-9351-2eb5c0d24034","019d6630-2071-75cb-8026-6699844a2719","","null","
                <div class=""stimulus-container"">
                    <img src=""images/semantic_sequence/kitchen_operations_semantic/kitchen_operations_semantic_5.png"" class=""exp-image"">
                    <div class=""question-area""></div> 
                </div>","null","","","","","","","","","","","","",""
"","","","","","html-button-response","47","235064","0.0-47.0","0BBAFB1C73834E5EBCBF33F788B3639F","019d6684-c752-7607-9351-2eb5c0d24034","019d6630-2071-75cb-8026-6699844a2719","","1040","
                <div class=""stimulus-container"">
                    <img src=""images/semantic_sequence/kitchen_operations_semantic/kitchen_operations_semantic_5.png"" class=""exp-image"">
                    <div class=""question-area"">
                        <p style=""font-size: 20px; font-weight: bold; margin: 0;"">Is there a person in this image?</p>
                    </div>
                </div>","0","main_experiment_trial","5","kitchen_operations_semantic","semantic_sequence","chronological","","","","","","","",""
"","","","","","html-keyboard-response","48","240078","0.0-48.0","0BBAFB1C73834E5EBCBF33F788B3639F","019d6684-c752-7607-9351-2eb5c0d24034","019d6630-2071-75cb-8026-6699844a2719","","null","
                <div class=""stimulus-container"">
                    <img src=""images/semantic_sequence/kitchen_operations_semantic/kitchen_operations_semantic_6.png"" class=""exp-image"">
                    <div class=""question-area""></div> 
                </div>","null","","","","","","","","","","","","",""
"","","","","","html-button-response","49","240649","0.0-49.0","0BBAFB1C73834E5EBCBF33F788B3639F","019d6684-c752-7607-9351-2eb5c0d24034","019d6630-2071-75cb-8026-6699844a2719","","570","
                <div class=""stimulus-container"">
                    <img src=""images/semantic_sequence/kitchen_operations_semantic/kitchen_operations_semantic_6.png"" class=""exp-image"">
                    <div class=""question-area"">
                        <p style=""font-size: 20px; font-weight: bold; margin: 0;"">Is there a person in this image?</p>
                    </div>
                </div>","0","main_experiment_trial","6","kitchen_operations_semantic","semantic_sequence","chronological","","","","","","","",""
"","","","","","html-keyboard-response","50","245660","0.0-50.0","0BBAFB1C73834E5EBCBF33F788B3639F","019d6684-c752-7607-9351-2eb5c0d24034","019d6630-2071-75cb-8026-6699844a2719","","null","
                <div class=""stimulus-container"">
                    <img src=""images/semantic_sequence/kitchen_operations_semantic/kitchen_operations_semantic_7.png"" class=""exp-image"">
                    <div class=""question-area""></div> 
                </div>","null","","","","","","","","","","","","",""
"","","","","","html-button-response","51","246426","0.0-51.0","0BBAFB1C73834E5EBCBF33F788B3639F","019d6684-c752-7607-9351-2eb5c0d24034","019d6630-2071-75cb-8026-6699844a2719","","765","
                <div class=""stimulus-container"">
                    <img src=""images/semantic_sequence/kitchen_operations_semantic/kitchen_operations_semantic_7.png"" class=""exp-image"">
                    <div class=""question-area"">
                        <p style=""font-size: 20px; font-weight: bold; margin: 0;"">Is there a person in this image?</p>
                    </div>
                </div>","0","main_experiment_trial","7","kitchen_operations_semantic","semantic_sequence","chronological","","","","","","","",""
"","","","","","html-keyboard-response","52","251429","0.0-52.0","0BBAFB1C73834E5EBCBF33F788B3639F","019d6684-c752-7607-9351-2eb5c0d24034","019d6630-2071-75cb-8026-6699844a2719","","null","
                <div class=""stimulus-container"">
                    <img src=""images/semantic_sequence/kitchen_operations_semantic/kitchen_operations_semantic_8.png"" class=""exp-image"">
                    <div class=""question-area""></div> 
                </div>","null","","","","","","","","","","","","",""
"","","","","","html-button-response","53","253704","0.0-53.0","0BBAFB1C73834E5EBCBF33F788B3639F","019d6684-c752-7607-9351-2eb5c0d24034","019d6630-2071-75cb-8026-6699844a2719","","2274","
                <div class=""stimulus-container"">
                    <img src=""images/semantic_sequence/kitchen_operations_semantic/kitchen_operations_semantic_8.png"" class=""exp-image"">
                    <div class=""question-area"">
                        <p style=""font-size: 20px; font-weight: bold; margin: 0;"">Is there a person in this image?</p>
                    </div>
                </div>","0","main_experiment_trial","8","kitchen_operations_semantic","semantic_sequence","chronological","","","","","","","",""
"","","","","","html-keyboard-response","54","258710","0.0-54.0","0BBAFB1C73834E5EBCBF33F788B3639F","019d6684-c752-7607-9351-2eb5c0d24034","019d6630-2071-75cb-8026-6699844a2719","","null","
                <div class=""stimulus-container"">
                    <img src=""images/semantic_sequence/kitchen_operations_semantic/kitchen_operations_semantic_9.png"" class=""exp-image"">
                    <div class=""question-area""></div> 
                </div>","null","","","","","","","","","","","","",""
"","","","","","html-button-response","55","259311","0.0-55.0","0BBAFB1C73834E5EBCBF33F788B3639F","019d6684-c752-7607-9351-2eb5c0d24034","019d6630-2071-75cb-8026-6699844a2719","","600","
                <div class=""stimulus-container"">
                    <img src=""images/semantic_sequence/kitchen_operations_semantic/kitchen_operations_semantic_9.png"" class=""exp-image"">
                    <div class=""question-area"">
                        <p style=""font-size: 20px; font-weight: bold; margin: 0;"">Is there a person in this image?</p>
                    </div>
                </div>","0","main_experiment_trial","9","kitchen_operations_semantic","semantic_sequence","chronological","","","","","","","",""
"","","","","","html-keyboard-response","56","264319","0.0-56.0","0BBAFB1C73834E5EBCBF33F788B3639F","019d6684-c752-7607-9351-2eb5c0d24034","019d6630-2071-75cb-8026-6699844a2719","","null","
                <div class=""stimulus-container"">
                    <img src=""images/semantic_sequence/kitchen_operations_semantic/kitchen_operations_semantic_ten.png"" class=""exp-image"">
                    <div class=""question-area""></div> 
                </div>","null","","","","","","","","","","","","",""
"","","","","","html-button-response","57","264888","0.0-57.0","0BBAFB1C73834E5EBCBF33F788B3639F","019d6684-c752-7607-9351-2eb5c0d24034","019d6630-2071-75cb-8026-6699844a2719","","568","
                <div class=""stimulus-container"">
                    <img src=""images/semantic_sequence/kitchen_operations_semantic/kitchen_operations_semantic_ten.png"" class=""exp-image"">
                    <div class=""question-area"">
                        <p style=""font-size: 20px; font-weight: bold; margin: 0;"">Is there a person in this image?</p>
                    </div>
                </div>","0","main_experiment_trial","ten","kitchen_operations_semantic","semantic_sequence","chronological","","","","","","","",""
"","","","","","html-keyboard-response","58","269893","0.0-58.0","0BBAFB1C73834E5EBCBF33F788B3639F","019d6684-c752-7607-9351-2eb5c0d24034","019d6630-2071-75cb-8026-6699844a2719","","null","<div style=""background-color: white; width: 100vw; height: 100vh;""></div>","null","","","","","","","","","","","","",""
"","","","","","html-keyboard-response","59","274909","0.0-59.0","0BBAFB1C73834E5EBCBF33F788B3639F","019d6684-c752-7607-9351-2eb5c0d24034","019d6630-2071-75cb-8026-6699844a2719","","null","
                <div class=""stimulus-container"">
                    <img src=""images/schematic_sequence/supermarket_scheme/supermarket_scheme_1.png"" class=""exp-image"">
                    <div class=""question-area""></div> 
                </div>","null","","","","","","","","","","","","",""
"","","","","","html-button-response","60","277922","0.0-60.0","0BBAFB1C73834E5EBCBF33F788B3639F","019d6684-c752-7607-9351-2eb5c0d24034","019d6630-2071-75cb-8026-6699844a2719","","null","
                <div class=""stimulus-container"">
                    <img src=""images/schematic_sequence/supermarket_scheme/supermarket_scheme_1.png"" class=""exp-image"">
                    <div class=""question-area"">
                        <p style=""font-size: 20px; font-weight: bold; margin: 0;"">Is there a person in this image?</p>
                    </div>
                </div>","null","main_experiment_trial","1","supermarket_scheme","schematic_sequence","chronological","","","","","","","",""
"","","","","","html-keyboard-response","61","282934","0.0-61.0","0BBAFB1C73834E5EBCBF33F788B3639F","019d6684-c752-7607-9351-2eb5c0d24034","019d6630-2071-75cb-8026-6699844a2719","","null","
                <div class=""stimulus-container"">
                    <img src=""images/schematic_sequence/supermarket_scheme/supermarket_scheme_2.png"" class=""exp-image"">
                    <div class=""question-area""></div> 
                </div>","null","","","","","","","","","","","","",""
"","","","","","html-button-response","62","284002","0.0-62.0","0BBAFB1C73834E5EBCBF33F788B3639F","019d6684-c752-7607-9351-2eb5c0d24034","019d6630-2071-75cb-8026-6699844a2719","","1067","
                <div class=""stimulus-container"">
                    <img src=""images/schematic_sequence/supermarket_scheme/supermarket_scheme_2.png"" class=""exp-image"">
                    <div class=""question-area"">
                        <p style=""font-size: 20px; font-weight: bold; margin: 0;"">Is there a person in this image?</p>
                    </div>
                </div>","1","main_experiment_trial","2","supermarket_scheme","schematic_sequence","chronological","","","","","","","",""
"","","","","","html-keyboard-response","63","289010","0.0-63.0","0BBAFB1C73834E5EBCBF33F788B3639F","019d6684-c752-7607-9351-2eb5c0d24034","019d6630-2071-75cb-8026-6699844a2719","","null","
                <div class=""stimulus-container"">
                    <img src=""images/schematic_sequence/supermarket_scheme/supermarket_scheme_3.png"" class=""exp-image"">
                    <div class=""question-area""></div> 
                </div>","null","","","","","","","","","","","","",""
"","","","","","html-button-response","64","289705","0.0-64.0","0BBAFB1C73834E5EBCBF33F788B3639F","019d6684-c752-7607-9351-2eb5c0d24034","019d6630-2071-75cb-8026-6699844a2719","","695","
                <div class=""stimulus-container"">
                    <img src=""images/schematic_sequence/supermarket_scheme/supermarket_scheme_3.png"" class=""exp-image"">
                    <div class=""question-area"">
                        <p style=""font-size: 20px; font-weight: bold; margin: 0;"">Is there a person in this image?</p>
                    </div>
                </div>","1","main_experiment_trial","3","supermarket_scheme","schematic_sequence","chronological","","","","","","","",""
"","","","","","html-keyboard-response","65","294715","0.0-65.0","0BBAFB1C73834E5EBCBF33F788B3639F","019d6684-c752-7607-9351-2eb5c0d24034","019d6630-2071-75cb-8026-6699844a2719","","null","
                <div class=""stimulus-container"">
                    <img src=""images/schematic_sequence/supermarket_scheme/supermarket_scheme_4.png"" class=""exp-image"">
                    <div class=""question-area""></div> 
                </div>","null","","","","","","","","","","","","",""
"","","","","","html-button-response","66","295883","0.0-66.0","0BBAFB1C73834E5EBCBF33F788B3639F","019d6684-c752-7607-9351-2eb5c0d24034","019d6630-2071-75cb-8026-6699844a2719","","1167","
                <div class=""stimulus-container"">
                    <img src=""images/schematic_sequence/supermarket_scheme/supermarket_scheme_4.png"" class=""exp-image"">
                    <div class=""question-area"">
                        <p style=""font-size: 20px; font-weight: bold; margin: 0;"">Is there a person in this image?</p>
                    </div>
                </div>","0","main_experiment_trial","4","supermarket_scheme","schematic_sequence","chronological","","","","","","","",""
"","","","","","html-keyboard-response","67","300894","0.0-67.0","0BBAFB1C73834E5EBCBF33F788B3639F","019d6684-c752-7607-9351-2eb5c0d24034","019d6630-2071-75cb-8026-6699844a2719","","null","
                <div class=""stimulus-container"">
                    <img src=""images/schematic_sequence/supermarket_scheme/supermarket_scheme_5.png"" class=""exp-image"">
                    <div class=""question-area""></div> 
                </div>","null","","","","","","","","","","","","",""
"","","","","","html-button-response","68","301861","0.0-68.0","0BBAFB1C73834E5EBCBF33F788B3639F","019d6684-c752-7607-9351-2eb5c0d24034","019d6630-2071-75cb-8026-6699844a2719","","966","
                <div class=""stimulus-container"">
                    <img src=""images/schematic_sequence/supermarket_scheme/supermarket_scheme_5.png"" class=""exp-image"">
                    <div class=""question-area"">
                        <p style=""font-size: 20px; font-weight: bold; margin: 0;"">Is there a person in this image?</p>
                    </div>
                </div>","1","main_experiment_trial","5","supermarket_scheme","schematic_sequence","chronological","","","","","","","",""
"","","","","","html-keyboard-response","69","306863","0.0-69.0","0BBAFB1C73834E5EBCBF33F788B3639F","019d6684-c752-7607-9351-2eb5c0d24034","019d6630-2071-75cb-8026-6699844a2719","","null","
                <div class=""stimulus-container"">
                    <img src=""images/schematic_sequence/supermarket_scheme/supermarket_scheme_6.png"" class=""exp-image"">
                    <div class=""question-area""></div> 
                </div>","null","","","","","","","","","","","","",""
"","","","","","html-button-response","70","307972","0.0-70.0","0BBAFB1C73834E5EBCBF33F788B3639F","019d6684-c752-7607-9351-2eb5c0d24034","019d6630-2071-75cb-8026-6699844a2719","","1108","
                <div class=""stimulus-container"">
                    <img src=""images/schematic_sequence/supermarket_scheme/supermarket_scheme_6.png"" class=""exp-image"">
                    <div class=""question-area"">
                        <p style=""font-size: 20px; font-weight: bold; margin: 0;"">Is there a person in this image?</p>
                    </div>
                </div>","0","main_experiment_trial","6","supermarket_scheme","schematic_sequence","chronological","","","","","","","",""
"","","","","","html-keyboard-response","71","312979","0.0-71.0","0BBAFB1C73834E5EBCBF33F788B3639F","019d6684-c752-7607-9351-2eb5c0d24034","019d6630-2071-75cb-8026-6699844a2719","","null","
                <div class=""stimulus-container"">
                    <img src=""images/schematic_sequence/supermarket_scheme/supermarket_scheme_7.png"" class=""exp-image"">
                    <div class=""question-area""></div> 
                </div>","null","","","","","","","","","","","","",""
"","","","","","html-button-response","72","315984","0.0-72.0","0BBAFB1C73834E5EBCBF33F788B3639F","019d6684-c752-7607-9351-2eb5c0d24034","019d6630-2071-75cb-8026-6699844a2719","","null","
                <div class=""stimulus-container"">
                    <img src=""images/schematic_sequence/supermarket_scheme/supermarket_scheme_7.png"" class=""exp-image"">
                    <div class=""question-area"">
                        <p style=""font-size: 20px; font-weight: bold; margin: 0;"">Is there a person in this image?</p>
                    </div>
                </div>","null","main_experiment_trial","7","supermarket_scheme","schematic_sequence","chronological","","","","","","","",""
"","","","","","html-keyboard-response","73","320995","0.0-73.0","0BBAFB1C73834E5EBCBF33F788B3639F","019d6684-c752-7607-9351-2eb5c0d24034","019d6630-2071-75cb-8026-6699844a2719","","null","
                <div class=""stimulus-container"">
                    <img src=""images/schematic_sequence/supermarket_scheme/supermarket_scheme_8.png"" class=""exp-image"">
                    <div class=""question-area""></div> 
                </div>","null","","","","","","","","","","","","",""
"","","","","","html-button-response","74","323998","0.0-74.0","0BBAFB1C73834E5EBCBF33F788B3639F","019d6684-c752-7607-9351-2eb5c0d24034","019d6630-2071-75cb-8026-6699844a2719","","null","
                <div class=""stimulus-container"">
                    <img src=""images/schematic_sequence/supermarket_scheme/supermarket_scheme_8.png"" class=""exp-image"">
                    <div class=""question-area"">
                        <p style=""font-size: 20px; font-weight: bold; margin: 0;"">Is there a person in this image?</p>
                    </div>
                </div>","null","main_experiment_trial","8","supermarket_scheme","schematic_sequence","chronological","","","","","","","",""
"","","","","","html-keyboard-response","75","329015","0.0-75.0","0BBAFB1C73834E5EBCBF33F788B3639F","019d6684-c752-7607-9351-2eb5c0d24034","019d6630-2071-75cb-8026-6699844a2719","","null","
                <div class=""stimulus-container"">
                    <img src=""images/schematic_sequence/supermarket_scheme/supermarket_scheme_9.png"" class=""exp-image"">
                    <div class=""question-area""></div> 
                </div>","null","","","","","","","","","","","","",""
"","","","","","html-button-response","76","330063","0.0-76.0","0BBAFB1C73834E5EBCBF33F788B3639F","019d6684-c752-7607-9351-2eb5c0d24034","019d6630-2071-75cb-8026-6699844a2719","","1048","
                <div class=""stimulus-container"">
                    <img src=""images/schematic_sequence/supermarket_scheme/supermarket_scheme_9.png"" class=""exp-image"">
                    <div class=""question-area"">
                        <p style=""font-size: 20px; font-weight: bold; margin: 0;"">Is there a person in this image?</p>
                    </div>
                </div>","0","main_experiment_trial","9","supermarket_scheme","schematic_sequence","chronological","","","","","","","",""
"","","","","","html-keyboard-response","77","335072","0.0-77.0","0BBAFB1C73834E5EBCBF33F788B3639F","019d6684-c752-7607-9351-2eb5c0d24034","019d6630-2071-75cb-8026-6699844a2719","","null","
                <div class=""stimulus-container"">
                    <img src=""images/schematic_sequence/supermarket_scheme/supermarket_scheme_ten.png"" class=""exp-image"">
                    <div class=""question-area""></div> 
                </div>","null","","","","","","","","","","","","",""
"","","","","","html-button-response","78","336480","0.0-78.0","0BBAFB1C73834E5EBCBF33F788B3639F","019d6684-c752-7607-9351-2eb5c0d24034","019d6630-2071-75cb-8026-6699844a2719","","1407","
                <div class=""stimulus-container"">
                    <img src=""images/schematic_sequence/supermarket_scheme/supermarket_scheme_ten.png"" class=""exp-image"">
                    <div class=""question-area"">
                        <p style=""font-size: 20px; font-weight: bold; margin: 0;"">Is there a person in this image?</p>
                    </div>
                </div>","1","main_experiment_trial","ten","supermarket_scheme","schematic_sequence","chronological","","","","","","","",""
"","","","","","html-keyboard-response","79","341482","0.0-79.0","0BBAFB1C73834E5EBCBF33F788B3639F","019d6684-c752-7607-9351-2eb5c0d24034","019d6630-2071-75cb-8026-6699844a2719","","null","<div style=""background-color: white; width: 100vw; height: 100vh;""></div>","null","","","","","","","","","","","","",""
"","","","","","html-keyboard-response","80","346492","0.0-80.0","0BBAFB1C73834E5EBCBF33F788B3639F","019d6684-c752-7607-9351-2eb5c0d24034","019d6630-2071-75cb-8026-6699844a2719","","null","
                <div class=""stimulus-container"">
                    <img src=""images/semantic_sequence/self_care_activities_semantic/self_care_activities_semantic_1.png"" class=""exp-image"">
                    <div class=""question-area""></div> 
                </div>","null","","","","","","","","","","","","",""
"","","","","","html-button-response","81","347447","0.0-81.0","0BBAFB1C73834E5EBCBF33F788B3639F","019d6684-c752-7607-9351-2eb5c0d24034","019d6630-2071-75cb-8026-6699844a2719","","955","
                <div class=""stimulus-container"">
                    <img src=""images/semantic_sequence/self_care_activities_semantic/self_care_activities_semantic_1.png"" class=""exp-image"">
                    <div class=""question-area"">
                        <p style=""font-size: 20px; font-weight: bold; margin: 0;"">Is there a person in this image?</p>
                    </div>
                </div>","0","main_experiment_trial","1","self_care_activities_semantic","semantic_sequence","chronological","","","","","","","",""
"","","","","","html-keyboard-response","82","352450","0.0-82.0","0BBAFB1C73834E5EBCBF33F788B3639F","019d6684-c752-7607-9351-2eb5c0d24034","019d6630-2071-75cb-8026-6699844a2719","","null","
                <div class=""stimulus-container"">
                    <img src=""images/semantic_sequence/self_care_activities_semantic/self_care_activities_semantic_2.png"" class=""exp-image"">
                    <div class=""question-area""></div> 
                </div>","null","","","","","","","","","","","","",""
"","","","","","html-button-response","83","353047","0.0-83.0","0BBAFB1C73834E5EBCBF33F788B3639F","019d6684-c752-7607-9351-2eb5c0d24034","019d6630-2071-75cb-8026-6699844a2719","","596","
                <div class=""stimulus-container"">
                    <img src=""images/semantic_sequence/self_care_activities_semantic/self_care_activities_semantic_2.png"" class=""exp-image"">
                    <div class=""question-area"">
                        <p style=""font-size: 20px; font-weight: bold; margin: 0;"">Is there a person in this image?</p>
                    </div>
                </div>","0","main_experiment_trial","2","self_care_activities_semantic","semantic_sequence","chronological","","","","","","","",""
"","","","","","html-keyboard-response","84","358050","0.0-84.0","0BBAFB1C73834E5EBCBF33F788B3639F","019d6684-c752-7607-9351-2eb5c0d24034","019d6630-2071-75cb-8026-6699844a2719","","null","
                <div class=""stimulus-container"">
                    <img src=""images/semantic_sequence/self_care_activities_semantic/self_care_activities_semantic_3.png"" class=""exp-image"">
                    <div class=""question-area""></div> 
                </div>","null","","","","","","","","","","","","",""
"","","","","","html-button-response","85","358638","0.0-85.0","0BBAFB1C73834E5EBCBF33F788B3639F","019d6684-c752-7607-9351-2eb5c0d24034","019d6630-2071-75cb-8026-6699844a2719","","588","
                <div class=""stimulus-container"">
                    <img src=""images/semantic_sequence/self_care_activities_semantic/self_care_activities_semantic_3.png"" class=""exp-image"">
                    <div class=""question-area"">
                        <p style=""font-size: 20px; font-weight: bold; margin: 0;"">Is there a person in this image?</p>
                    </div>
                </div>","0","main_experiment_trial","3","self_care_activities_semantic","semantic_sequence","chronological","","","","","","","",""
"","","","","","html-keyboard-response","86","363649","0.0-86.0","0BBAFB1C73834E5EBCBF33F788B3639F","019d6684-c752-7607-9351-2eb5c0d24034","019d6630-2071-75cb-8026-6699844a2719","","null","
                <div class=""stimulus-container"">
                    <img src=""images/semantic_sequence/self_care_activities_semantic/self_care_activities_semantic_4.png"" class=""exp-image"">
                    <div class=""question-area""></div> 
                </div>","null","","","","","","","","","","","","",""
"","","","","","html-button-response","87","364386","0.0-87.0","0BBAFB1C73834E5EBCBF33F788B3639F","019d6684-c752-7607-9351-2eb5c0d24034","019d6630-2071-75cb-8026-6699844a2719","","736","
                <div class=""stimulus-container"">
                    <img src=""images/semantic_sequence/self_care_activities_semantic/self_care_activities_semantic_4.png"" class=""exp-image"">
                    <div class=""question-area"">
                        <p style=""font-size: 20px; font-weight: bold; margin: 0;"">Is there a person in this image?</p>
                    </div>
                </div>","0","main_experiment_trial","4","self_care_activities_semantic","semantic_sequence","chronological","","","","","","","",""
"","","","","","html-keyboard-response","88","369399","0.0-88.0","0BBAFB1C73834E5EBCBF33F788B3639F","019d6684-c752-7607-9351-2eb5c0d24034","019d6630-2071-75cb-8026-6699844a2719","","null","
                <div class=""stimulus-container"">
                    <img src=""images/semantic_sequence/self_care_activities_semantic/self_care_activities_semantic_5.png"" class=""exp-image"">
                    <div class=""question-area""></div> 
                </div>","null","","","","","","","","","","","","",""
"","","","","","html-button-response","89","369955","0.0-89.0","0BBAFB1C73834E5EBCBF33F788B3639F","019d6684-c752-7607-9351-2eb5c0d24034","019d6630-2071-75cb-8026-6699844a2719","","556","
                <div class=""stimulus-container"">
                    <img src=""images/semantic_sequence/self_care_activities_semantic/self_care_activities_semantic_5.png"" class=""exp-image"">
                    <div class=""question-area"">
                        <p style=""font-size: 20px; font-weight: bold; margin: 0;"">Is there a person in this image?</p>
                    </div>
                </div>","0","main_experiment_trial","5","self_care_activities_semantic","semantic_sequence","chronological","","","","","","","",""
"","","","","","html-keyboard-response","90","374970","0.0-90.0","0BBAFB1C73834E5EBCBF33F788B3639F","019d6684-c752-7607-9351-2eb5c0d24034","019d6630-2071-75cb-8026-6699844a2719","","null","
                <div class=""stimulus-container"">
                    <img src=""images/semantic_sequence/self_care_activities_semantic/self_care_activities_semantic_6.png"" class=""exp-image"">
                    <div class=""question-area""></div> 
                </div>","null","","","","","","","","","","","","",""
"","","","","","html-button-response","91","375584","0.0-91.0","0BBAFB1C73834E5EBCBF33F788B3639F","019d6684-c752-7607-9351-2eb5c0d24034","019d6630-2071-75cb-8026-6699844a2719","","613","
                <div class=""stimulus-container"">
                    <img src=""images/semantic_sequence/self_care_activities_semantic/self_care_activities_semantic_6.png"" class=""exp-image"">
                    <div class=""question-area"">
                        <p style=""font-size: 20px; font-weight: bold; margin: 0;"">Is there a person in this image?</p>
                    </div>
                </div>","1","main_experiment_trial","6","self_care_activities_semantic","semantic_sequence","chronological","","","","","","","",""
"","","","","","html-keyboard-response","92","380591","0.0-92.0","0BBAFB1C73834E5EBCBF33F788B3639F","019d6684-c752-7607-9351-2eb5c0d24034","019d6630-2071-75cb-8026-6699844a2719","","null","
                <div class=""stimulus-container"">
                    <img src=""images/semantic_sequence/self_care_activities_semantic/self_care_activities_semantic_7.png"" class=""exp-image"">
                    <div class=""question-area""></div> 
                </div>","null","","","","","","","","","","","","",""
"","","","","","html-button-response","93","381214","0.0-93.0","0BBAFB1C73834E5EBCBF33F788B3639F","019d6684-c752-7607-9351-2eb5c0d24034","019d6630-2071-75cb-8026-6699844a2719","","621","
                <div class=""stimulus-container"">
                    <img src=""images/semantic_sequence/self_care_activities_semantic/self_care_activities_semantic_7.png"" class=""exp-image"">
                    <div class=""question-area"">
                        <p style=""font-size: 20px; font-weight: bold; margin: 0;"">Is there a person in this image?</p>
                    </div>
                </div>","0","main_experiment_trial","7","self_care_activities_semantic","semantic_sequence","chronological","","","","","","","",""
"","","","","","html-keyboard-response","94","386217","0.0-94.0","0BBAFB1C73834E5EBCBF33F788B3639F","019d6684-c752-7607-9351-2eb5c0d24034","019d6630-2071-75cb-8026-6699844a2719","","null","
                <div class=""stimulus-container"">
                    <img src=""images/semantic_sequence/self_care_activities_semantic/self_care_activities_semantic_8.png"" class=""exp-image"">
                    <div class=""question-area""></div> 
                </div>","null","","","","","","","","","","","","",""
"","","","","","html-button-response","95","386752","0.0-95.0","0BBAFB1C73834E5EBCBF33F788B3639F","019d6684-c752-7607-9351-2eb5c0d24034","019d6630-2071-75cb-8026-6699844a2719","","533","
                <div class=""stimulus-container"">
                    <img src=""images/semantic_sequence/self_care_activities_semantic/self_care_activities_semantic_8.png"" class=""exp-image"">
                    <div class=""question-area"">
                        <p style=""font-size: 20px; font-weight: bold; margin: 0;"">Is there a person in this image?</p>
                    </div>
                </div>","0","main_experiment_trial","8","self_care_activities_semantic","semantic_sequence","chronological","","","","","","","",""
"","","","","","html-keyboard-response","96","391767","0.0-96.0","0BBAFB1C73834E5EBCBF33F788B3639F","019d6684-c752-7607-9351-2eb5c0d24034","019d6630-2071-75cb-8026-6699844a2719","","null","
                <div class=""stimulus-container"">
                    <img src=""images/semantic_sequence/self_care_activities_semantic/self_care_activities_semantic_9.png"" class=""exp-image"">
                    <div class=""question-area""></div> 
                </div>","null","","","","","","","","","","","","",""
"","","","","","html-button-response","97","392269","0.0-97.0","0BBAFB1C73834E5EBCBF33F788B3639F","019d6684-c752-7607-9351-2eb5c0d24034","019d6630-2071-75cb-8026-6699844a2719","","501","
                <div class=""stimulus-container"">
                    <img src=""images/semantic_sequence/self_care_activities_semantic/self_care_activities_semantic_9.png"" class=""exp-image"">
                    <div class=""question-area"">
                        <p style=""font-size: 20px; font-weight: bold; margin: 0;"">Is there a person in this image?</p>
                    </div>
                </div>","0","main_experiment_trial","9","self_care_activities_semantic","semantic_sequence","chronological","","","","","","","",""
"","","","","","html-keyboard-response","98","397284","0.0-98.0","0BBAFB1C73834E5EBCBF33F788B3639F","019d6684-c752-7607-9351-2eb5c0d24034","019d6630-2071-75cb-8026-6699844a2719","","null","
                <div class=""stimulus-container"">
                    <img src=""images/semantic_sequence/self_care_activities_semantic/self_care_activities_semantic_ten.png"" class=""exp-image"">
                    <div class=""question-area""></div> 
                </div>","null","","","","","","","","","","","","",""
"","","","","","html-button-response","99","397935","0.0-99.0","0BBAFB1C73834E5EBCBF33F788B3639F","019d6684-c752-7607-9351-2eb5c0d24034","019d6630-2071-75cb-8026-6699844a2719","","649","
                <div class=""stimulus-container"">
                    <img src=""images/semantic_sequence/self_care_activities_semantic/self_care_activities_semantic_ten.png"" class=""exp-image"">
                    <div class=""question-area"">
                        <p style=""font-size: 20px; font-weight: bold; margin: 0;"">Is there a person in this image?</p>
                    </div>
                </div>","0","main_experiment_trial","ten","self_care_activities_semantic","semantic_sequence","chronological","","","","","","","",""
"","","","","","html-keyboard-response","100","402949","0.0-100.0","0BBAFB1C73834E5EBCBF33F788B3639F","019d6684-c752-7607-9351-2eb5c0d24034","019d6630-2071-75cb-8026-6699844a2719","","null","<div style=""background-color: white; width: 100vw; height: 100vh;""></div>","null","","","","","","","","","","","","",""
"","","","","","html-keyboard-response","101","407951","0.0-101.0","0BBAFB1C73834E5EBCBF33F788B3639F","019d6684-c752-7607-9351-2eb5c0d24034","019d6630-2071-75cb-8026-6699844a2719","","null","
                <div class=""stimulus-container"">
                    <img src=""images/schematic_sequence/flight_scheme/flight_scheme_1.png"" class=""exp-image"">
                    <div class=""question-area""></div> 
                </div>","null","","","","","","","","","","","","",""
"","","","","","html-button-response","102","408798","0.0-102.0","0BBAFB1C73834E5EBCBF33F788B3639F","019d6684-c752-7607-9351-2eb5c0d24034","019d6630-2071-75cb-8026-6699844a2719","","846","
                <div class=""stimulus-container"">
                    <img src=""images/schematic_sequence/flight_scheme/flight_scheme_1.png"" class=""exp-image"">
                    <div class=""question-area"">
                        <p style=""font-size: 20px; font-weight: bold; margin: 0;"">Is there a person in this image?</p>
                    </div>
                </div>","1","main_experiment_trial","1","flight_scheme","schematic_sequence","chronological","","","","","","","",""
"","","","","","html-keyboard-response","103","413808","0.0-103.0","0BBAFB1C73834E5EBCBF33F788B3639F","019d6684-c752-7607-9351-2eb5c0d24034","019d6630-2071-75cb-8026-6699844a2719","","null","
                <div class=""stimulus-container"">
                    <img src=""images/schematic_sequence/flight_scheme/flight_scheme_2.png"" class=""exp-image"">
                    <div class=""question-area""></div> 
                </div>","null","","","","","","","","","","","","",""
"","","","","","html-button-response","104","414665","0.0-104.0","0BBAFB1C73834E5EBCBF33F788B3639F","019d6684-c752-7607-9351-2eb5c0d24034","019d6630-2071-75cb-8026-6699844a2719","","855","
                <div class=""stimulus-container"">
                    <img src=""images/schematic_sequence/flight_scheme/flight_scheme_2.png"" class=""exp-image"">
                    <div class=""question-area"">
                        <p style=""font-size: 20px; font-weight: bold; margin: 0;"">Is there a person in this image?</p>
                    </div>
                </div>","1","main_experiment_trial","2","flight_scheme","schematic_sequence","chronological","","","","","","","",""
"","","","","","html-keyboard-response","105","419675","0.0-105.0","0BBAFB1C73834E5EBCBF33F788B3639F","019d6684-c752-7607-9351-2eb5c0d24034","019d6630-2071-75cb-8026-6699844a2719","","null","
                <div class=""stimulus-container"">
                    <img src=""images/schematic_sequence/flight_scheme/flight_scheme_3.png"" class=""exp-image"">
                    <div class=""question-area""></div> 
                </div>","null","","","","","","","","","","","","",""
"","","","","","html-button-response","106","420826","0.0-106.0","0BBAFB1C73834E5EBCBF33F788B3639F","019d6684-c752-7607-9351-2eb5c0d24034","019d6630-2071-75cb-8026-6699844a2719","","1150","
                <div class=""stimulus-container"">
                    <img src=""images/schematic_sequence/flight_scheme/flight_scheme_3.png"" class=""exp-image"">
                    <div class=""question-area"">
                        <p style=""font-size: 20px; font-weight: bold; margin: 0;"">Is there a person in this image?</p>
                    </div>
                </div>","0","main_experiment_trial","3","flight_scheme","schematic_sequence","chronological","","","","","","","",""
"","","","","","html-keyboard-response","107","425834","0.0-107.0","0BBAFB1C73834E5EBCBF33F788B3639F","019d6684-c752-7607-9351-2eb5c0d24034","019d6630-2071-75cb-8026-6699844a2719","","null","
                <div class=""stimulus-container"">
                    <img src=""images/schematic_sequence/flight_scheme/flight_scheme_4.png"" class=""exp-image"">
                    <div class=""question-area""></div> 
                </div>","null","","","","","","","","","","","","",""
"","","","","","html-button-response","108","426641","0.0-108.0","0BBAFB1C73834E5EBCBF33F788B3639F","019d6684-c752-7607-9351-2eb5c0d24034","019d6630-2071-75cb-8026-6699844a2719","","805","
                <div class=""stimulus-container"">
                    <img src=""images/schematic_sequence/flight_scheme/flight_scheme_4.png"" class=""exp-image"">
                    <div class=""question-area"">
                        <p style=""font-size: 20px; font-weight: bold; margin: 0;"">Is there a person in this image?</p>
                    </div>
                </div>","0","main_experiment_trial","4","flight_scheme","schematic_sequence","chronological","","","","","","","",""
"","","","","","html-keyboard-response","109","431652","0.0-109.0","0BBAFB1C73834E5EBCBF33F788B3639F","019d6684-c752-7607-9351-2eb5c0d24034","019d6630-2071-75cb-8026-6699844a2719","","null","
                <div class=""stimulus-container"">
                    <img src=""images/schematic_sequence/flight_scheme/flight_scheme_5.png"" class=""exp-image"">
                    <div class=""question-area""></div> 
                </div>","null","","","","","","","","","","","","",""
"","","","","","html-button-response","110","432306","0.0-110.0","0BBAFB1C73834E5EBCBF33F788B3639F","019d6684-c752-7607-9351-2eb5c0d24034","019d6630-2071-75cb-8026-6699844a2719","","653","
                <div class=""stimulus-container"">
                    <img src=""images/schematic_sequence/flight_scheme/flight_scheme_5.png"" class=""exp-image"">
                    <div class=""question-area"">
                        <p style=""font-size: 20px; font-weight: bold; margin: 0;"">Is there a person in this image?</p>
                    </div>
                </div>","0","main_experiment_trial","5","flight_scheme","schematic_sequence","chronological","","","","","","","",""
"","","","","","html-keyboard-response","111","437312","0.0-111.0","0BBAFB1C73834E5EBCBF33F788B3639F","019d6684-c752-7607-9351-2eb5c0d24034","019d6630-2071-75cb-8026-6699844a2719","","null","
                <div class=""stimulus-container"">
                    <img src=""images/schematic_sequence/flight_scheme/flight_scheme_6.png"" class=""exp-image"">
                    <div class=""question-area""></div> 
                </div>","null","","","","","","","","","","","","",""
"","","","","","html-button-response","112","437860","0.0-112.0","0BBAFB1C73834E5EBCBF33F788B3639F","019d6684-c752-7607-9351-2eb5c0d24034","019d6630-2071-75cb-8026-6699844a2719","","546","
                <div class=""stimulus-container"">
                    <img src=""images/schematic_sequence/flight_scheme/flight_scheme_6.png"" class=""exp-image"">
                    <div class=""question-area"">
                        <p style=""font-size: 20px; font-weight: bold; margin: 0;"">Is there a person in this image?</p>
                    </div>
                </div>","1","main_experiment_trial","6","flight_scheme","schematic_sequence","chronological","","","","","","","",""
"","","","","","html-keyboard-response","113","442863","0.0-113.0","0BBAFB1C73834E5EBCBF33F788B3639F","019d6684-c752-7607-9351-2eb5c0d24034","019d6630-2071-75cb-8026-6699844a2719","","null","
                <div class=""stimulus-container"">
                    <img src=""images/schematic_sequence/flight_scheme/flight_scheme_7.png"" class=""exp-image"">
                    <div class=""question-area""></div> 
                </div>","null","","","","","","","","","","","","",""
"","","","","","html-button-response","114","443578","0.0-114.0","0BBAFB1C73834E5EBCBF33F788B3639F","019d6684-c752-7607-9351-2eb5c0d24034","019d6630-2071-75cb-8026-6699844a2719","","713","
                <div class=""stimulus-container"">
                    <img src=""images/schematic_sequence/flight_scheme/flight_scheme_7.png"" class=""exp-image"">
                    <div class=""question-area"">
                        <p style=""font-size: 20px; font-weight: bold; margin: 0;"">Is there a person in this image?</p>
                    </div>
                </div>","1","main_experiment_trial","7","flight_scheme","schematic_sequence","chronological","","","","","","","",""
"","","","","","html-keyboard-response","115","448584","0.0-115.0","0BBAFB1C73834E5EBCBF33F788B3639F","019d6684-c752-7607-9351-2eb5c0d24034","019d6630-2071-75cb-8026-6699844a2719","","null","
                <div class=""stimulus-container"">
                    <img src=""images/schematic_sequence/flight_scheme/flight_scheme_8.png"" class=""exp-image"">
                    <div class=""question-area""></div> 
                </div>","null","","","","","","","","","","","","",""
"","","","","","html-button-response","116","449316","0.0-116.0","0BBAFB1C73834E5EBCBF33F788B3639F","019d6684-c752-7607-9351-2eb5c0d24034","019d6630-2071-75cb-8026-6699844a2719","","730","
                <div class=""stimulus-container"">
                    <img src=""images/schematic_sequence/flight_scheme/flight_scheme_8.png"" class=""exp-image"">
                    <div class=""question-area"">
                        <p style=""font-size: 20px; font-weight: bold; margin: 0;"">Is there a person in this image?</p>
                    </div>
                </div>","1","main_experiment_trial","8","flight_scheme","schematic_sequence","chronological","","","","","","","",""
"","","","","","html-keyboard-response","117","454328","0.0-117.0","0BBAFB1C73834E5EBCBF33F788B3639F","019d6684-c752-7607-9351-2eb5c0d24034","019d6630-2071-75cb-8026-6699844a2719","","null","
                <div class=""stimulus-container"">
                    <img src=""images/schematic_sequence/flight_scheme/flight_scheme_9.png"" class=""exp-image"">
                    <div class=""question-area""></div> 
                </div>","null","","","","","","","","","","","","",""
"","","","","","html-button-response","118","455376","0.0-118.0","0BBAFB1C73834E5EBCBF33F788B3639F","019d6684-c752-7607-9351-2eb5c0d24034","019d6630-2071-75cb-8026-6699844a2719","","1046","
                <div class=""stimulus-container"">
                    <img src=""images/schematic_sequence/flight_scheme/flight_scheme_9.png"" class=""exp-image"">
                    <div class=""question-area"">
                        <p style=""font-size: 20px; font-weight: bold; margin: 0;"">Is there a person in this image?</p>
                    </div>
                </div>","0","main_experiment_trial","9","flight_scheme","schematic_sequence","chronological","","","","","","","",""
"","","","","","html-keyboard-response","119","460385","0.0-119.0","0BBAFB1C73834E5EBCBF33F788B3639F","019d6684-c752-7607-9351-2eb5c0d24034","019d6630-2071-75cb-8026-6699844a2719","","null","
                <div class=""stimulus-container"">
                    <img src=""images/schematic_sequence/flight_scheme/flight_scheme_ten.png"" class=""exp-image"">
                    <div class=""question-area""></div> 
                </div>","null","","","","","","","","","","","","",""
"","","","","","html-button-response","120","460951","0.0-120.0","0BBAFB1C73834E5EBCBF33F788B3639F","019d6684-c752-7607-9351-2eb5c0d24034","019d6630-2071-75cb-8026-6699844a2719","","565","
                <div class=""stimulus-container"">
                    <img src=""images/schematic_sequence/flight_scheme/flight_scheme_ten.png"" class=""exp-image"">
                    <div class=""question-area"">
                        <p style=""font-size: 20px; font-weight: bold; margin: 0;"">Is there a person in this image?</p>
                    </div>
                </div>","0","main_experiment_trial","ten","flight_scheme","schematic_sequence","chronological","","","","","","","",""
"","","","","","html-keyboard-response","121","465952","0.0-121.0","0BBAFB1C73834E5EBCBF33F788B3639F","019d6684-c752-7607-9351-2eb5c0d24034","019d6630-2071-75cb-8026-6699844a2719","","null","<div style=""background-color: white; width: 100vw; height: 100vh;""></div>","null","","","","","","","","","","","","",""
"","","","","","html-keyboard-response","122","470955","0.0-122.0","0BBAFB1C73834E5EBCBF33F788B3639F","019d6684-c752-7607-9351-2eb5c0d24034","019d6630-2071-75cb-8026-6699844a2719","","null","
                <div class=""stimulus-container"">
                    <img src=""images/causal_sequence/saving_a_cat_causal/saving_a_cat_causal_1.png"" class=""exp-image"">
                    <div class=""question-area""></div> 
                </div>","null","","","","","","","","","","","","",""
"","","","","","html-button-response","123","471628","0.0-123.0","0BBAFB1C73834E5EBCBF33F788B3639F","019d6684-c752-7607-9351-2eb5c0d24034","019d6630-2071-75cb-8026-6699844a2719","","672","
                <div class=""stimulus-container"">
                    <img src=""images/causal_sequence/saving_a_cat_causal/saving_a_cat_causal_1.png"" class=""exp-image"">
                    <div class=""question-area"">
                        <p style=""font-size: 20px; font-weight: bold; margin: 0;"">Is there a person in this image?</p>
                    </div>
                </div>","0","main_experiment_trial","1","saving_a_cat_causal","causal_sequence","chronological","","","","","","","",""
"","","","","","html-keyboard-response","124","476636","0.0-124.0","0BBAFB1C73834E5EBCBF33F788B3639F","019d6684-c752-7607-9351-2eb5c0d24034","019d6630-2071-75cb-8026-6699844a2719","","null","
                <div class=""stimulus-container"">
                    <img src=""images/causal_sequence/saving_a_cat_causal/saving_a_cat_causal_2.png"" class=""exp-image"">
                    <div class=""question-area""></div> 
                </div>","null","","","","","","","","","","","","",""
"","","","","","html-button-response","125","477598","0.0-125.0","0BBAFB1C73834E5EBCBF33F788B3639F","019d6684-c752-7607-9351-2eb5c0d24034","019d6630-2071-75cb-8026-6699844a2719","","961","
                <div class=""stimulus-container"">
                    <img src=""images/causal_sequence/saving_a_cat_causal/saving_a_cat_causal_2.png"" class=""exp-image"">
                    <div class=""question-area"">
                        <p style=""font-size: 20px; font-weight: bold; margin: 0;"">Is there a person in this image?</p>
                    </div>
                </div>","1","main_experiment_trial","2","saving_a_cat_causal","causal_sequence","chronological","","","","","","","",""
"","","","","","html-keyboard-response","126","482604","0.0-126.0","0BBAFB1C73834E5EBCBF33F788B3639F","019d6684-c752-7607-9351-2eb5c0d24034","019d6630-2071-75cb-8026-6699844a2719","","null","
                <div class=""stimulus-container"">
                    <img src=""images/causal_sequence/saving_a_cat_causal/saving_a_cat_causal_3.png"" class=""exp-image"">
                    <div class=""question-area""></div> 
                </div>","null","","","","","","","","","","","","",""
"","","","","","html-button-response","127","483249","0.0-127.0","0BBAFB1C73834E5EBCBF33F788B3639F","019d6684-c752-7607-9351-2eb5c0d24034","019d6630-2071-75cb-8026-6699844a2719","","644","
                <div class=""stimulus-container"">
                    <img src=""images/causal_sequence/saving_a_cat_causal/saving_a_cat_causal_3.png"" class=""exp-image"">
                    <div class=""question-area"">
                        <p style=""font-size: 20px; font-weight: bold; margin: 0;"">Is there a person in this image?</p>
                    </div>
                </div>","1","main_experiment_trial","3","saving_a_cat_causal","causal_sequence","chronological","","","","","","","",""
"","","","","","html-keyboard-response","128","488266","0.0-128.0","0BBAFB1C73834E5EBCBF33F788B3639F","019d6684-c752-7607-9351-2eb5c0d24034","019d6630-2071-75cb-8026-6699844a2719","","null","
                <div class=""stimulus-container"">
                    <img src=""images/causal_sequence/saving_a_cat_causal/saving_a_cat_causal_4.png"" class=""exp-image"">
                    <div class=""question-area""></div> 
                </div>","null","","","","","","","","","","","","",""
"","","","","","html-button-response","129","489344","0.0-129.0","0BBAFB1C73834E5EBCBF33F788B3639F","019d6684-c752-7607-9351-2eb5c0d24034","019d6630-2071-75cb-8026-6699844a2719","","1077","
                <div class=""stimulus-container"">
                    <img src=""images/causal_sequence/saving_a_cat_causal/saving_a_cat_causal_4.png"" class=""exp-image"">
                    <div class=""question-area"">
                        <p style=""font-size: 20px; font-weight: bold; margin: 0;"">Is there a person in this image?</p>
                    </div>
                </div>","0","main_experiment_trial","4","saving_a_cat_causal","causal_sequence","chronological","","","","","","","",""
"","","","","","html-keyboard-response","130","494354","0.0-130.0","0BBAFB1C73834E5EBCBF33F788B3639F","019d6684-c752-7607-9351-2eb5c0d24034","019d6630-2071-75cb-8026-6699844a2719","","null","
                <div class=""stimulus-container"">
                    <img src=""images/causal_sequence/saving_a_cat_causal/saving_a_cat_causal_5.png"" class=""exp-image"">
                    <div class=""question-area""></div> 
                </div>","null","","","","","","","","","","","","",""
"","","","","","html-button-response","131","495217","0.0-131.0","0BBAFB1C73834E5EBCBF33F788B3639F","019d6684-c752-7607-9351-2eb5c0d24034","019d6630-2071-75cb-8026-6699844a2719","","861","
                <div class=""stimulus-container"">
                    <img src=""images/causal_sequence/saving_a_cat_causal/saving_a_cat_causal_5.png"" class=""exp-image"">
                    <div class=""question-area"">
                        <p style=""font-size: 20px; font-weight: bold; margin: 0;"">Is there a person in this image?</p>
                    </div>
                </div>","0","main_experiment_trial","5","saving_a_cat_causal","causal_sequence","chronological","","","","","","","",""
"","","","","","html-keyboard-response","132","500221","0.0-132.0","0BBAFB1C73834E5EBCBF33F788B3639F","019d6684-c752-7607-9351-2eb5c0d24034","019d6630-2071-75cb-8026-6699844a2719","","null","
                <div class=""stimulus-container"">
                    <img src=""images/causal_sequence/saving_a_cat_causal/saving_a_cat_causal_6.png"" class=""exp-image"">
                    <div class=""question-area""></div> 
                </div>","null","","","","","","","","","","","","",""
"","","","","","html-button-response","133","501083","0.0-133.0","0BBAFB1C73834E5EBCBF33F788B3639F","019d6684-c752-7607-9351-2eb5c0d24034","019d6630-2071-75cb-8026-6699844a2719","","860","
                <div class=""stimulus-container"">
                    <img src=""images/causal_sequence/saving_a_cat_causal/saving_a_cat_causal_6.png"" class=""exp-image"">
                    <div class=""question-area"">
                        <p style=""font-size: 20px; font-weight: bold; margin: 0;"">Is there a person in this image?</p>
                    </div>
                </div>","0","main_experiment_trial","6","saving_a_cat_causal","causal_sequence","chronological","","","","","","","",""
"","","","","","html-keyboard-response","134","506089","0.0-134.0","0BBAFB1C73834E5EBCBF33F788B3639F","019d6684-c752-7607-9351-2eb5c0d24034","019d6630-2071-75cb-8026-6699844a2719","","null","
                <div class=""stimulus-container"">
                    <img src=""images/causal_sequence/saving_a_cat_causal/saving_a_cat_causal_7.png"" class=""exp-image"">
                    <div class=""question-area""></div> 
                </div>","null","","","","","","","","","","","","",""
"","","","","","html-button-response","135","506837","0.0-135.0","0BBAFB1C73834E5EBCBF33F788B3639F","019d6684-c752-7607-9351-2eb5c0d24034","019d6630-2071-75cb-8026-6699844a2719","","746","
                <div class=""stimulus-container"">
                    <img src=""images/causal_sequence/saving_a_cat_causal/saving_a_cat_causal_7.png"" class=""exp-image"">
                    <div class=""question-area"">
                        <p style=""font-size: 20px; font-weight: bold; margin: 0;"">Is there a person in this image?</p>
                    </div>
                </div>","0","main_experiment_trial","7","saving_a_cat_causal","causal_sequence","chronological","","","","","","","",""
"","","","","","html-keyboard-response","136","511838","0.0-136.0","0BBAFB1C73834E5EBCBF33F788B3639F","019d6684-c752-7607-9351-2eb5c0d24034","019d6630-2071-75cb-8026-6699844a2719","","null","
                <div class=""stimulus-container"">
                    <img src=""images/causal_sequence/saving_a_cat_causal/saving_a_cat_causal_8.png"" class=""exp-image"">
                    <div class=""question-area""></div> 
                </div>","null","","","","","","","","","","","","",""
"","","","","","html-button-response","137","512375","0.0-137.0","0BBAFB1C73834E5EBCBF33F788B3639F","019d6684-c752-7607-9351-2eb5c0d24034","019d6630-2071-75cb-8026-6699844a2719","","536","
                <div class=""stimulus-container"">
                    <img src=""images/causal_sequence/saving_a_cat_causal/saving_a_cat_causal_8.png"" class=""exp-image"">
                    <div class=""question-area"">
                        <p style=""font-size: 20px; font-weight: bold; margin: 0;"">Is there a person in this image?</p>
                    </div>
                </div>","0","main_experiment_trial","8","saving_a_cat_causal","causal_sequence","chronological","","","","","","","",""
"","","","","","html-keyboard-response","138","517386","0.0-138.0","0BBAFB1C73834E5EBCBF33F788B3639F","019d6684-c752-7607-9351-2eb5c0d24034","019d6630-2071-75cb-8026-6699844a2719","","null","
                <div class=""stimulus-container"">
                    <img src=""images/causal_sequence/saving_a_cat_causal/saving_a_cat_causal_9.png"" class=""exp-image"">
                    <div class=""question-area""></div> 
                </div>","null","","","","","","","","","","","","",""
"","","","","","html-button-response","139","518026","0.0-139.0","0BBAFB1C73834E5EBCBF33F788B3639F","019d6684-c752-7607-9351-2eb5c0d24034","019d6630-2071-75cb-8026-6699844a2719","","639","
                <div class=""stimulus-container"">
                    <img src=""images/causal_sequence/saving_a_cat_causal/saving_a_cat_causal_9.png"" class=""exp-image"">
                    <div class=""question-area"">
                        <p style=""font-size: 20px; font-weight: bold; margin: 0;"">Is there a person in this image?</p>
                    </div>
                </div>","0","main_experiment_trial","9","saving_a_cat_causal","causal_sequence","chronological","","","","","","","",""
"","","","","","html-keyboard-response","140","523036","0.0-140.0","0BBAFB1C73834E5EBCBF33F788B3639F","019d6684-c752-7607-9351-2eb5c0d24034","019d6630-2071-75cb-8026-6699844a2719","","null","
                <div class=""stimulus-container"">
                    <img src=""images/causal_sequence/saving_a_cat_causal/saving_a_cat_causal_ten.png"" class=""exp-image"">
                    <div class=""question-area""></div> 
                </div>","null","","","","","","","","","","","","",""
"","","","","","html-button-response","141","523707","0.0-141.0","0BBAFB1C73834E5EBCBF33F788B3639F","019d6684-c752-7607-9351-2eb5c0d24034","019d6630-2071-75cb-8026-6699844a2719","","669","
                <div class=""stimulus-container"">
                    <img src=""images/causal_sequence/saving_a_cat_causal/saving_a_cat_causal_ten.png"" class=""exp-image"">
                    <div class=""question-area"">
                        <p style=""font-size: 20px; font-weight: bold; margin: 0;"">Is there a person in this image?</p>
                    </div>
                </div>","0","main_experiment_trial","ten","saving_a_cat_causal","causal_sequence","chronological","","","","","","","",""
"","","","","","html-keyboard-response","142","528720","0.0-142.0","0BBAFB1C73834E5EBCBF33F788B3639F","019d6684-c752-7607-9351-2eb5c0d24034","019d6630-2071-75cb-8026-6699844a2719","","null","<div style=""background-color: white; width: 100vw; height: 100vh;""></div>","null","","","","","","","","","","","","",""
"","","","","","html-keyboard-response","143","533724","0.0-143.0","0BBAFB1C73834E5EBCBF33F788B3639F","019d6684-c752-7607-9351-2eb5c0d24034","019d6630-2071-75cb-8026-6699844a2719","","null","
                <div class=""stimulus-container"">
                    <img src=""images/causal_sequence/the_performance_causal/the_performance_causal_1.png"" class=""exp-image"">
                    <div class=""question-area""></div> 
                </div>","null","","","","","","","","","","","","",""
"","","","","","html-button-response","144","534629","0.0-144.0","0BBAFB1C73834E5EBCBF33F788B3639F","019d6684-c752-7607-9351-2eb5c0d24034","019d6630-2071-75cb-8026-6699844a2719","","903","
                <div class=""stimulus-container"">
                    <img src=""images/causal_sequence/the_performance_causal/the_performance_causal_1.png"" class=""exp-image"">
                    <div class=""question-area"">
                        <p style=""font-size: 20px; font-weight: bold; margin: 0;"">Is there a person in this image?</p>
                    </div>
                </div>","0","main_experiment_trial","1","the_performance_causal","causal_sequence","chronological","","","","","","","",""
"","","","","","html-keyboard-response","145","539639","0.0-145.0","0BBAFB1C73834E5EBCBF33F788B3639F","019d6684-c752-7607-9351-2eb5c0d24034","019d6630-2071-75cb-8026-6699844a2719","","null","
                <div class=""stimulus-container"">
                    <img src=""images/causal_sequence/the_performance_causal/the_performance_causal_2.png"" class=""exp-image"">
                    <div class=""question-area""></div> 
                </div>","null","","","","","","","","","","","","",""
"","","","","","html-button-response","146","540420","0.0-146.0","0BBAFB1C73834E5EBCBF33F788B3639F","019d6684-c752-7607-9351-2eb5c0d24034","019d6630-2071-75cb-8026-6699844a2719","","780","
                <div class=""stimulus-container"">
                    <img src=""images/causal_sequence/the_performance_causal/the_performance_causal_2.png"" class=""exp-image"">
                    <div class=""question-area"">
                        <p style=""font-size: 20px; font-weight: bold; margin: 0;"">Is there a person in this image?</p>
                    </div>
                </div>","0","main_experiment_trial","2","the_performance_causal","causal_sequence","chronological","","","","","","","",""
"","","","","","html-keyboard-response","147","545422","0.0-147.0","0BBAFB1C73834E5EBCBF33F788B3639F","019d6684-c752-7607-9351-2eb5c0d24034","019d6630-2071-75cb-8026-6699844a2719","","null","
                <div class=""stimulus-container"">
                    <img src=""images/causal_sequence/the_performance_causal/the_performance_causal_3.png"" class=""exp-image"">
                    <div class=""question-area""></div> 
                </div>","null","","","","","","","","","","","","",""
"","","","","","html-button-response","148","545981","0.0-148.0","0BBAFB1C73834E5EBCBF33F788B3639F","019d6684-c752-7607-9351-2eb5c0d24034","019d6630-2071-75cb-8026-6699844a2719","","557","
                <div class=""stimulus-container"">
                    <img src=""images/causal_sequence/the_performance_causal/the_performance_causal_3.png"" class=""exp-image"">
                    <div class=""question-area"">
                        <p style=""font-size: 20px; font-weight: bold; margin: 0;"">Is there a person in this image?</p>
                    </div>
                </div>","0","main_experiment_trial","3","the_performance_causal","causal_sequence","chronological","","","","","","","",""
"","","","","","html-keyboard-response","149","550989","0.0-149.0","0BBAFB1C73834E5EBCBF33F788B3639F","019d6684-c752-7607-9351-2eb5c0d24034","019d6630-2071-75cb-8026-6699844a2719","","null","
                <div class=""stimulus-container"">
                    <img src=""images/causal_sequence/the_performance_causal/the_performance_causal_4.png"" class=""exp-image"">
                    <div class=""question-area""></div> 
                </div>","null","","","","","","","","","","","","",""
"","","","","","html-button-response","150","551863","0.0-150.0","0BBAFB1C73834E5EBCBF33F788B3639F","019d6684-c752-7607-9351-2eb5c0d24034","019d6630-2071-75cb-8026-6699844a2719","","872","
                <div class=""stimulus-container"">
                    <img src=""images/causal_sequence/the_performance_causal/the_performance_causal_4.png"" class=""exp-image"">
                    <div class=""question-area"">
                        <p style=""font-size: 20px; font-weight: bold; margin: 0;"">Is there a person in this image?</p>
                    </div>
                </div>","0","main_experiment_trial","4","the_performance_causal","causal_sequence","chronological","","","","","","","",""
"","","","","","html-keyboard-response","151","556871","0.0-151.0","0BBAFB1C73834E5EBCBF33F788B3639F","019d6684-c752-7607-9351-2eb5c0d24034","019d6630-2071-75cb-8026-6699844a2719","","null","
                <div class=""stimulus-container"">
                    <img src=""images/causal_sequence/the_performance_causal/the_performance_causal_5.png"" class=""exp-image"">
                    <div class=""question-area""></div> 
                </div>","null","","","","","","","","","","","","",""
"","","","","","html-button-response","152","558181","0.0-152.0","0BBAFB1C73834E5EBCBF33F788B3639F","019d6684-c752-7607-9351-2eb5c0d24034","019d6630-2071-75cb-8026-6699844a2719","","1308","
                <div class=""stimulus-container"">
                    <img src=""images/causal_sequence/the_performance_causal/the_performance_causal_5.png"" class=""exp-image"">
                    <div class=""question-area"">
                        <p style=""font-size: 20px; font-weight: bold; margin: 0;"">Is there a person in this image?</p>
                    </div>
                </div>","0","main_experiment_trial","5","the_performance_causal","causal_sequence","chronological","","","","","","","",""
"","","","","","html-keyboard-response","153","563189","0.0-153.0","0BBAFB1C73834E5EBCBF33F788B3639F","019d6684-c752-7607-9351-2eb5c0d24034","019d6630-2071-75cb-8026-6699844a2719","","null","
                <div class=""stimulus-container"">
                    <img src=""images/causal_sequence/the_performance_causal/the_performance_causal_6.png"" class=""exp-image"">
                    <div class=""question-area""></div> 
                </div>","null","","","","","","","","","","","","",""
"","","","","","html-button-response","154","563898","0.0-154.0","0BBAFB1C73834E5EBCBF33F788B3639F","019d6684-c752-7607-9351-2eb5c0d24034","019d6630-2071-75cb-8026-6699844a2719","","708","
                <div class=""stimulus-container"">
                    <img src=""images/causal_sequence/the_performance_causal/the_performance_causal_6.png"" class=""exp-image"">
                    <div class=""question-area"">
                        <p style=""font-size: 20px; font-weight: bold; margin: 0;"">Is there a person in this image?</p>
                    </div>
                </div>","0","main_experiment_trial","6","the_performance_causal","causal_sequence","chronological","","","","","","","",""
"","","","","","html-keyboard-response","155","568906","0.0-155.0","0BBAFB1C73834E5EBCBF33F788B3639F","019d6684-c752-7607-9351-2eb5c0d24034","019d6630-2071-75cb-8026-6699844a2719","","null","
                <div class=""stimulus-container"">
                    <img src=""images/causal_sequence/the_performance_causal/the_performance_causal_7.png"" class=""exp-image"">
                    <div class=""question-area""></div> 
                </div>","null","","","","","","","","","","","","",""
"","","","","","html-button-response","156","569659","0.0-156.0","0BBAFB1C73834E5EBCBF33F788B3639F","019d6684-c752-7607-9351-2eb5c0d24034","019d6630-2071-75cb-8026-6699844a2719","","752","
                <div class=""stimulus-container"">
                    <img src=""images/causal_sequence/the_performance_causal/the_performance_causal_7.png"" class=""exp-image"">
                    <div class=""question-area"">
                        <p style=""font-size: 20px; font-weight: bold; margin: 0;"">Is there a person in this image?</p>
                    </div>
                </div>","0","main_experiment_trial","7","the_performance_causal","causal_sequence","chronological","","","","","","","",""
"","","","","","html-keyboard-response","157","574671","0.0-157.0","0BBAFB1C73834E5EBCBF33F788B3639F","019d6684-c752-7607-9351-2eb5c0d24034","019d6630-2071-75cb-8026-6699844a2719","","null","
                <div class=""stimulus-container"">
                    <img src=""images/causal_sequence/the_performance_causal/the_performance_causal_8.png"" class=""exp-image"">
                    <div class=""question-area""></div> 
                </div>","null","","","","","","","","","","","","",""
"","","","","","html-button-response","158","575480","0.0-158.0","0BBAFB1C73834E5EBCBF33F788B3639F","019d6684-c752-7607-9351-2eb5c0d24034","019d6630-2071-75cb-8026-6699844a2719","","807","
                <div class=""stimulus-container"">
                    <img src=""images/causal_sequence/the_performance_causal/the_performance_causal_8.png"" class=""exp-image"">
                    <div class=""question-area"">
                        <p style=""font-size: 20px; font-weight: bold; margin: 0;"">Is there a person in this image?</p>
                    </div>
                </div>","0","main_experiment_trial","8","the_performance_causal","causal_sequence","chronological","","","","","","","",""
"","","","","","html-keyboard-response","159","580484","0.0-159.0","0BBAFB1C73834E5EBCBF33F788B3639F","019d6684-c752-7607-9351-2eb5c0d24034","019d6630-2071-75cb-8026-6699844a2719","","null","
                <div class=""stimulus-container"">
                    <img src=""images/causal_sequence/the_performance_causal/the_performance_causal_9.png"" class=""exp-image"">
                    <div class=""question-area""></div> 
                </div>","null","","","","","","","","","","","","",""
"","","","","","html-button-response","160","581078","0.0-160.0","0BBAFB1C73834E5EBCBF33F788B3639F","019d6684-c752-7607-9351-2eb5c0d24034","019d6630-2071-75cb-8026-6699844a2719","","593","
                <div class=""stimulus-container"">
                    <img src=""images/causal_sequence/the_performance_causal/the_performance_causal_9.png"" class=""exp-image"">
                    <div class=""question-area"">
                        <p style=""font-size: 20px; font-weight: bold; margin: 0;"">Is there a person in this image?</p>
                    </div>
                </div>","0","main_experiment_trial","9","the_performance_causal","causal_sequence","chronological","","","","","","","",""
"","","","","","html-keyboard-response","161","586090","0.0-161.0","0BBAFB1C73834E5EBCBF33F788B3639F","019d6684-c752-7607-9351-2eb5c0d24034","019d6630-2071-75cb-8026-6699844a2719","","null","
                <div class=""stimulus-container"">
                    <img src=""images/causal_sequence/the_performance_causal/the_performance_causal_ten.png"" class=""exp-image"">
                    <div class=""question-area""></div> 
                </div>","null","","","","","","","","","","","","",""
"","","","","","html-button-response","162","586803","0.0-162.0","0BBAFB1C73834E5EBCBF33F788B3639F","019d6684-c752-7607-9351-2eb5c0d24034","019d6630-2071-75cb-8026-6699844a2719","","712","
                <div class=""stimulus-container"">
                    <img src=""images/causal_sequence/the_performance_causal/the_performance_causal_ten.png"" class=""exp-image"">
                    <div class=""question-area"">
                        <p style=""font-size: 20px; font-weight: bold; margin: 0;"">Is there a person in this image?</p>
                    </div>
                </div>","0","main_experiment_trial","ten","the_performance_causal","causal_sequence","chronological","","","","","","","",""
"","","","","","html-keyboard-response","163","591806","0.0-163.0","0BBAFB1C73834E5EBCBF33F788B3639F","019d6684-c752-7607-9351-2eb5c0d24034","019d6630-2071-75cb-8026-6699844a2719","","null","<div style=""background-color: white; width: 100vw; height: 100vh;""></div>","null","","","","","","","","","","","","",""
"","","","","","html-keyboard-response","164","596816","0.0-164.0","0BBAFB1C73834E5EBCBF33F788B3639F","019d6684-c752-7607-9351-2eb5c0d24034","019d6630-2071-75cb-8026-6699844a2719","","null","
                <div class=""stimulus-container"">
                    <img src=""images/semantic_sequence/housework_semantic/housework_semantic_1.png"" class=""exp-image"">
                    <div class=""question-area""></div> 
                </div>","null","","","","","","","","","","","","",""
"","","","","","html-button-response","165","597538","0.0-165.0","0BBAFB1C73834E5EBCBF33F788B3639F","019d6684-c752-7607-9351-2eb5c0d24034","019d6630-2071-75cb-8026-6699844a2719","","720","
                <div class=""stimulus-container"">
                    <img src=""images/semantic_sequence/housework_semantic/housework_semantic_1.png"" class=""exp-image"">
                    <div class=""question-area"">
                        <p style=""font-size: 20px; font-weight: bold; margin: 0;"">Is there a person in this image?</p>
                    </div>
                </div>","1","main_experiment_trial","1","housework_semantic","semantic_sequence","chronological","","","","","","","",""
"","","","","","html-keyboard-response","166","602551","0.0-166.0","0BBAFB1C73834E5EBCBF33F788B3639F","019d6684-c752-7607-9351-2eb5c0d24034","019d6630-2071-75cb-8026-6699844a2719","","null","
                <div class=""stimulus-container"">
                    <img src=""images/semantic_sequence/housework_semantic/housework_semantic_2.png"" class=""exp-image"">
                    <div class=""question-area""></div> 
                </div>","null","","","","","","","","","","","","",""
"","","","","","html-button-response","167","603457","0.0-167.0","0BBAFB1C73834E5EBCBF33F788B3639F","019d6684-c752-7607-9351-2eb5c0d24034","019d6630-2071-75cb-8026-6699844a2719","","904","
                <div class=""stimulus-container"">
                    <img src=""images/semantic_sequence/housework_semantic/housework_semantic_2.png"" class=""exp-image"">
                    <div class=""question-area"">
                        <p style=""font-size: 20px; font-weight: bold; margin: 0;"">Is there a person in this image?</p>
                    </div>
                </div>","0","main_experiment_trial","2","housework_semantic","semantic_sequence","chronological","","","","","","","",""
"","","","","","html-keyboard-response","168","608472","0.0-168.0","0BBAFB1C73834E5EBCBF33F788B3639F","019d6684-c752-7607-9351-2eb5c0d24034","019d6630-2071-75cb-8026-6699844a2719","","null","
                <div class=""stimulus-container"">
                    <img src=""images/semantic_sequence/housework_semantic/housework_semantic_3.png"" class=""exp-image"">
                    <div class=""question-area""></div> 
                </div>","null","","","","","","","","","","","","",""
"","","","","","html-button-response","169","609055","0.0-169.0","0BBAFB1C73834E5EBCBF33F788B3639F","019d6684-c752-7607-9351-2eb5c0d24034","019d6630-2071-75cb-8026-6699844a2719","","582","
                <div class=""stimulus-container"">
                    <img src=""images/semantic_sequence/housework_semantic/housework_semantic_3.png"" class=""exp-image"">
                    <div class=""question-area"">
                        <p style=""font-size: 20px; font-weight: bold; margin: 0;"">Is there a person in this image?</p>
                    </div>
                </div>","0","main_experiment_trial","3","housework_semantic","semantic_sequence","chronological","","","","","","","",""
"","","","","","html-keyboard-response","170","614058","0.0-170.0","0BBAFB1C73834E5EBCBF33F788B3639F","019d6684-c752-7607-9351-2eb5c0d24034","019d6630-2071-75cb-8026-6699844a2719","","null","
                <div class=""stimulus-container"">
                    <img src=""images/semantic_sequence/housework_semantic/housework_semantic_4.png"" class=""exp-image"">
                    <div class=""question-area""></div> 
                </div>","null","","","","","","","","","","","","",""
"","","","","","html-button-response","171","614632","0.0-171.0","0BBAFB1C73834E5EBCBF33F788B3639F","019d6684-c752-7607-9351-2eb5c0d24034","019d6630-2071-75cb-8026-6699844a2719","","573","
                <div class=""stimulus-container"">
                    <img src=""images/semantic_sequence/housework_semantic/housework_semantic_4.png"" class=""exp-image"">
                    <div class=""question-area"">
                        <p style=""font-size: 20px; font-weight: bold; margin: 0;"">Is there a person in this image?</p>
                    </div>
                </div>","0","main_experiment_trial","4","housework_semantic","semantic_sequence","chronological","","","","","","","",""
"","","","","","html-keyboard-response","172","619642","0.0-172.0","0BBAFB1C73834E5EBCBF33F788B3639F","019d6684-c752-7607-9351-2eb5c0d24034","019d6630-2071-75cb-8026-6699844a2719","","null","
                <div class=""stimulus-container"">
                    <img src=""images/semantic_sequence/housework_semantic/housework_semantic_5.png"" class=""exp-image"">
                    <div class=""question-area""></div> 
                </div>","null","","","","","","","","","","","","",""
"","","","","","html-button-response","173","620245","0.0-173.0","0BBAFB1C73834E5EBCBF33F788B3639F","019d6684-c752-7607-9351-2eb5c0d24034","019d6630-2071-75cb-8026-6699844a2719","","602","
                <div class=""stimulus-container"">
                    <img src=""images/semantic_sequence/housework_semantic/housework_semantic_5.png"" class=""exp-image"">
                    <div class=""question-area"">
                        <p style=""font-size: 20px; font-weight: bold; margin: 0;"">Is there a person in this image?</p>
                    </div>
                </div>","0","main_experiment_trial","5","housework_semantic","semantic_sequence","chronological","","","","","","","",""
"","","","","","html-keyboard-response","174","625248","0.0-174.0","0BBAFB1C73834E5EBCBF33F788B3639F","019d6684-c752-7607-9351-2eb5c0d24034","019d6630-2071-75cb-8026-6699844a2719","","null","
                <div class=""stimulus-container"">
                    <img src=""images/semantic_sequence/housework_semantic/housework_semantic_6.png"" class=""exp-image"">
                    <div class=""question-area""></div> 
                </div>","null","","","","","","","","","","","","",""
